"trial_type","trial_index","time_elapsed","internal_node_id","subject_id","task_condition","age","gender","task_version","interactions","blur_events","focus_events","fullscreenenter_events","fullscreenexit_events","success","timeout","failed_images","failed_audio","failed_video","rt","stimulus","response","button_pressed","task_part","approach_reward","points","key_press","option_selected","stim_cat","task_block","block_condition","block_number","correct","cat_type","mean_cat_reward"
"pavlovia","0","4","0.0-0.0","4032","2","16","Male","approach_avoid_spark_v1","""event"",""trial"",""time""
""fullscreenenter"",""1"",""2044""
","
","
","""event"",""trial"",""time""
""fullscreenenter"",""1"",""2044""
","
","","","","","","","","","","","","","","","","","","","","",""
"fullscreen","1","3000","0.0-1.0","4032","2","16","Male","approach_avoid_spark_v1","""event"",""trial"",""time""
""fullscreenenter"",""1"",""2044""
","
","
","""event"",""trial"",""time""
""fullscreenenter"",""1"",""2044""
","
","true","","","","","","","","","","","","","","","","","","","",""
"preload","2","9006","0.0-2.0","4032","2","16","Male","approach_avoid_spark_v1","""event"",""trial"",""time""
""fullscreenenter"",""1"",""2044""
","
","
","""event"",""trial"",""time""
""fullscreenenter"",""1"",""2044""
","
","true","false","[]","[]","[]","","","","","","","","","","","","","","","",""
"audio-keyboard-response","3","12272","0.0-3.0","4032","2","16","Male","approach_avoid_spark_v1","""event"",""trial"",""time""
""fullscreenenter"",""1"",""2044""
","
","
","""event"",""trial"",""time""
""fullscreenenter"",""1"",""2044""
","
","","","","","","0","audio/beep_loop.wav"," ","","","","","","","","","","","","",""
"audio-button-response","4","15778","0.0-4.0","4032","2","16","Male","approach_avoid_spark_v1","""event"",""trial"",""time""
""fullscreenenter"",""1"",""2044""
","
","
","""event"",""trial"",""time""
""fullscreenenter"",""1"",""2044""
","
","","","","","","3379","audio/shark.wav","4","","","","","","","","","","","","",""
"audio-button-response","5","18953","0.0-5.0","4032","2","16","Male","approach_avoid_spark_v1","""event"",""trial"",""time""
""fullscreenenter"",""1"",""2044""
","
","
","""event"",""trial"",""time""
""fullscreenenter"",""1"",""2044""
","
","","","","","","2173","audio/turtle.wav","1","","","","","","","","","","","","",""
"preload","6","21982","0.0-6.0","4032","2","16","Male","approach_avoid_spark_v1","""event"",""trial"",""time""
""fullscreenenter"",""1"",""2044""
","
","
","""event"",""trial"",""time""
""fullscreenenter"",""1"",""2044""
","
","true","false","[]","[]","[]","","","","","","","","","","","","","","","",""
"html-keyboard-response","7","24554","0.0-7.0","4032","2","16","Male","approach_avoid_spark_v1","""event"",""trial"",""time""
""fullscreenenter"",""1"",""2044""
","
","
","""event"",""trial"",""time""
""fullscreenenter"",""1"",""2044""
","
","","","","","","2571","Welcome to the experiment. Press any key to begin and to advance the instructions.","h","","","","","","","","","","","","",""
"learning-instructions","8","33421","0.0-8.0-0.0-0.0","4032","2","16","Male","approach_avoid_spark_v1","""event"",""trial"",""time""
""fullscreenenter"",""1"",""2044""
","
","
","""event"",""trial"",""time""
""fullscreenenter"",""1"",""2044""
","
","","","","","","1912","<p> Welcome! Today you are going to play 6 different rounds of a decision-making game. </p><p> Use the mouse to click next to continue. </p>","","0","instructions","","","","","","","","","","",""
"learning-instructions","9","37050","0.0-8.0-0.0-0.1","4032","2","16","Male","approach_avoid_spark_v1","""event"",""trial"",""time""
""fullscreenenter"",""1"",""2044""
","
","
","""event"",""trial"",""time""
""fullscreenenter"",""1"",""2044""
","
","","","","","","903","<p> You will start with a practice round to learn the rules. </p>","","0","instructions","","","","","","","","","","",""
"learning-instructions","10","40885","0.0-8.0-0.0-0.2","4032","2","16","Male","approach_avoid_spark_v1","""event"",""trial"",""time""
""fullscreenenter"",""1"",""2044""
","
","
","""event"",""trial"",""time""
""fullscreenenter"",""1"",""2044""
","
","","","","","","387.9999999999927","<p> Your goal in this round is to give out sports equipment to kids. </p></div>","","0","instructions","","","","","","","","","","",""
"learning-instructions","11","50069","0.0-8.0-0.0-0.3","4032","2","16","Male","approach_avoid_spark_v1","""event"",""trial"",""time""
""fullscreenenter"",""1"",""2044""
","
","
","""event"",""trial"",""time""
""fullscreenenter"",""1"",""2044""
","
","","","","","","1642","<p> The kids only like some of the equipment.  </p><p> On each turn, you will see a piece of sports equipment.   </p><p> You need to decide whether to give it to the kids or not.  </p>","","0","instructions","","","","","","","","","","",""
"learning-instructions","12","57160","0.0-8.0-0.0-0.4","4032","2","16","Male","approach_avoid_spark_v1","""event"",""trial"",""time""
""fullscreenenter"",""1"",""2044""
","
","
","""event"",""trial"",""time""
""fullscreenenter"",""1"",""2044""
","
","","","","","","2345","<p> You can give them the equipment by pressing 1 and choose not to give it to them by pressing 0. </p><br><div class=""choice-instructions-grid""> <div class=""choice-option""><img src=""images/approach.png"" class=""choice-option-img"" stage=""instructions"" position=""0"" ><div class=""choice-option-text""> Press ""1."" </div></div><div class=""choice-option""><img src=""images/avoid.png"" class=""choice-option-img"" stage=""instructions"" position=""1"" ><div class=""choice-option-text""> Press ""0."" </div></div>","","0","instructions","","","","","","","","","","",""
"learning-instructions","13","65619","0.0-8.0-0.0-0.5","4032","2","16","Male","approach_avoid_spark_v1","""event"",""trial"",""time""
""fullscreenenter"",""1"",""2044""
","
","
","""event"",""trial"",""time""
""fullscreenenter"",""1"",""2044""
","
","","","","","","1077.9999999999854","<p> If you give them a piece of equipment they like, they will be happy! </p><p> But if you give them a piece of equipment they do not like, they will be sad. </p>","","0","instructions","","","","","","","","","","",""
"learning-instructions","14","76763","0.0-8.0-0.0-0.6","4032","2","16","Male","approach_avoid_spark_v1","""event"",""trial"",""time""
""fullscreenenter"",""1"",""2044""
","
","
","""event"",""trial"",""time""
""fullscreenenter"",""1"",""2044""
","
","","","","","","642","<p> You will earn points based on how you make kids feel. </p><p> If you make them happy, you will WIN anywhere from 1 - 9 points, </p><p> but if you make them sad, you will LOSE anywhere from 1 - 9 points. </p>","","0","instructions","","","","","","","","","","",""
"learning-instructions","15","86705","0.0-8.0-0.0-0.7","4032","2","16","Male","approach_avoid_spark_v1","""event"",""trial"",""time""
""fullscreenenter"",""1"",""2044""
","
","
","""event"",""trial"",""time""
""fullscreenenter"",""1"",""2044""
","
","","","","","","390","<p> You will see how many points you won or lost in the center of the screen. </p><p> Here is what you would see if you won 6 points: </p><p style=""color:green;font-size:50px;font-weight:bolder"">6</p><p style=""color:green"">The text is GREEN because you WON points.</p>","","0","instructions","","","","","","","","","","",""
"learning-instructions","16","92927","0.0-8.0-0.0-0.8","4032","2","16","Male","approach_avoid_spark_v1","""event"",""trial"",""time""
""fullscreenenter"",""1"",""2044""
","
","
","""event"",""trial"",""time""
""fullscreenenter"",""1"",""2044""
","
","","","","","","721","<p> And here is what you would see if you lost 4 points: </p><p style=""color:red;font-size:50px;font-weight:bolder"">-4</p><p style=""color:red"">The text is RED because you LOST points. </p>","","0","instructions","","","","","","","","","","",""
"learning-instructions","17","109784","0.0-8.0-0.0-0.9","4032","2","16","Male","approach_avoid_spark_v1","""event"",""trial"",""time""
""fullscreenenter"",""1"",""2044""
","
","
","""event"",""trial"",""time""
""fullscreenenter"",""1"",""2044""
","
","","","","","","2151","<p> Some of the equipment will make the kids VERY happy or sad. </p><p> These pieces of equipment will make you win or lose LOTS of points. </p><p> Other pieces of equipment will only make the kids a little happy or sad. </p><p> These pieces of equipment will make you win or lose small amounts of points. </p>","","0","instructions","","","","","","","","","","",""
"learning-instructions","18","120871","0.0-8.0-0.0-0.10","4032","2","16","Male","approach_avoid_spark_v1","""event"",""trial"",""time""
""fullscreenenter"",""1"",""2044""
","
","
","""event"",""trial"",""time""
""fullscreenenter"",""1"",""2044""
","
","","","","","","465","<p> If you choose not to give them the equipment, you will not win or lose any points. </p><p>  However, in the center of the screen, you will see the number of points you WOULD HAVE won or lost if you had given them the equipment. </p>","","0","instructions","","","","","","","","","","",""
"learning-instructions","19","143520","0.0-8.0-0.0-0.11","4032","2","16","Male","approach_avoid_spark_v1","""event"",""trial"",""time""
""fullscreenenter"",""1"",""2044""
","
","
","""event"",""trial"",""time""
""fullscreenenter"",""1"",""2044""
","
","","","","","","1125","<p> Here is what you might see if you did not give the equipment to the kids but it would have made them happy: </p><p style=""color:grey; font-size:50px; display: inline-block; border-spacing: 15px; border-width:3px; border-style:solid; border-color:red"">  &nbsp; 7 &nbsp; </p><p> Remember, in this case, you would not win or lose ANY points because you did not give them the equipment.  </p><p style=""color:grey"">The text is GREY because you earned ZERO points. </p><p style=""color:red"">However, choosing to give the kids the equipment would have made you win points. The box around the text is RED because you chose the worse option. </p>","","0","instructions","","","","","","","","","","",""
"learning-instructions","20","166319","0.0-8.0-0.0-0.12","4032","2","16","Male","approach_avoid_spark_v1","""event"",""trial"",""time""
""fullscreenenter"",""1"",""2044""
","
","
","""event"",""trial"",""time""
""fullscreenenter"",""1"",""2044""
","
","","","","","","1733","<p> Here is what you might see if you did not give the equipment to the kids but it would have made them sad: </p><p style=""color:grey;font-size:50px; display: inline-block; border-spacing: 15px; border-width:3px; border-style:solid; border-color:green"">  &nbsp; -8 &nbsp; </p><p> Remember, in this case, you would not win or lose ANY points because you did not give them the equipment.  </p><p style=""color:grey"">The text is GREY because you earned ZERO points. </p><p  style=""color:green""> Choosing to give the kids the equipment would have made you lose points. The box around the text is GREEN because you chose the better option.</p>","","0","instructions","","","","","","","","","","",""
"learning-instructions","21","176416","0.0-8.0-0.0-0.13","4032","2","16","Male","approach_avoid_spark_v1","""event"",""trial"",""time""
""fullscreenenter"",""1"",""2044""
","
","
","""event"",""trial"",""time""
""fullscreenenter"",""1"",""2044""
","
","","","","","","852","<p> You will have 3 seconds to make each choice. Try to respond before time runs out! </p><p> You will lose 5 points each time you do not make a response. </p>","","0","instructions","","","","","","","","","","",""
"learning-instructions","22","182426","0.0-8.0-0.0-0.14","4032","2","16","Male","approach_avoid_spark_v1","""event"",""trial"",""time""
""fullscreenenter"",""1"",""2044""
","
","
","""event"",""trial"",""time""
""fullscreenenter"",""1"",""2044""
","
","","","","","","602.0000000000291","<p> This is just a practice round, but in the real game, your bonus payment will depend on your total number of points.","","0","instructions","","","","","","","","","","",""
"learning-instructions","23","188778","0.0-8.0-0.0-0.15","4032","2","16","Male","approach_avoid_spark_v1","""event"",""trial"",""time""
""fullscreenenter"",""1"",""2044""
","
","
","""event"",""trial"",""time""
""fullscreenenter"",""1"",""2044""
","
","","","","","","595","<p> Remember, you can give them the equipment by pressing 1 and choose not to give it to them by pressing 0. </p><br><div class=""choice-instructions-grid""> <div class=""choice-option""><img src=""images/approach.png"" class=""choice-option-img"" stage=""instructions"" position=""0"" ><div class=""choice-option-text""> Press ""1."" </div></div><div class=""choice-option""><img src=""images/avoid.png"" class=""choice-option-img"" stage=""instructions"" position=""1"" ><div class=""choice-option-text""> Press ""0."" </div></div>","","0","instructions","","","","","","","","","","",""
"html-button-response","24","190040","0.0-8.0-1.0","4032","2","16","Male","approach_avoid_spark_v1","""event"",""trial"",""time""
""fullscreenenter"",""1"",""2044""
","
","
","""event"",""trial"",""time""
""fullscreenenter"",""1"",""2044""
","
","","","","","","1159","<p> Ready to practice? </p>","0","","","","","","","","","","","","",""
"html-keyboard-response","25","190641","0.0-8.0-2.0-0.0","4032","2","16","Male","approach_avoid_spark_v1","""event"",""trial"",""time""
""fullscreenenter"",""1"",""2044""
","
","
","""event"",""trial"",""time""
""fullscreenenter"",""1"",""2044""
","
","","","","","","null","<div style=""font-size:60px;"">+</div>","null","","fixation","","","","","","","","","","",""
"aa-learning-trial","26","193644","0.0-8.0-2.0-1.0","4032","2","16","Male","approach_avoid_spark_v1","""event"",""trial"",""time""
""fullscreenenter"",""1"",""2044""
","
","
","""event"",""trial"",""time""
""fullscreenenter"",""1"",""2044""
","
","","","","","","2331","images/racket3.png","","","learning","3","3","1","1","practice","practice","practice","-1","","",""
"html-keyboard-response","27","194146","0.0-8.0-2.0-0.1","4032","2","16","Male","approach_avoid_spark_v1","""event"",""trial"",""time""
""fullscreenenter"",""1"",""2044""
","
","
","""event"",""trial"",""time""
""fullscreenenter"",""1"",""2044""
","
","","","","","","null","<div style=""font-size:60px;"">+</div>","null","","fixation","","","","","","","","","","",""
"aa-learning-trial","28","197148","0.0-8.0-2.0-1.1","4032","2","16","Male","approach_avoid_spark_v1","""event"",""trial"",""time""
""fullscreenenter"",""1"",""2044""
","
","
","""event"",""trial"",""time""
""fullscreenenter"",""1"",""2044""
","
","","","","","","1780","images/racket1.png","","","learning","-6","-6","1","1","practice","practice","practice","-1","","",""
"html-keyboard-response","29","197650","0.0-8.0-2.0-0.2","4032","2","16","Male","approach_avoid_spark_v1","""event"",""trial"",""time""
""fullscreenenter"",""1"",""2044""
","
","
","""event"",""trial"",""time""
""fullscreenenter"",""1"",""2044""
","
","","","","","","null","<div style=""font-size:60px;"">+</div>","null","","fixation","","","","","","","","","","",""
"aa-learning-trial","30","200652","0.0-8.0-2.0-1.2","4032","2","16","Male","approach_avoid_spark_v1","""event"",""trial"",""time""
""fullscreenenter"",""1"",""2044""
","
","
","""event"",""trial"",""time""
""fullscreenenter"",""1"",""2044""
","
","","","","","","2295.999999999971","images/racket4.png","","","learning","4","4","1","1","practice","practice","practice","-1","","",""
"html-keyboard-response","31","201153","0.0-8.0-2.0-0.3","4032","2","16","Male","approach_avoid_spark_v1","""event"",""trial"",""time""
""fullscreenenter"",""1"",""2044""
","
","
","""event"",""trial"",""time""
""fullscreenenter"",""1"",""2044""
","
","","","","","","null","<div style=""font-size:60px;"">+</div>","null","","fixation","","","","","","","","","","",""
"aa-learning-trial","32","204155","0.0-8.0-2.0-1.3","4032","2","16","Male","approach_avoid_spark_v1","""event"",""trial"",""time""
""fullscreenenter"",""1"",""2044""
","
","
","""event"",""trial"",""time""
""fullscreenenter"",""1"",""2044""
","
","","","","","","2262","images/racket4.png","","","learning","6","0","0","0","practice","practice","practice","-1","","",""
"html-keyboard-response","33","204657","0.0-8.0-2.0-0.4","4032","2","16","Male","approach_avoid_spark_v1","""event"",""trial"",""time""
""fullscreenenter"",""1"",""2044""
","
","
","""event"",""trial"",""time""
""fullscreenenter"",""1"",""2044""
","
","","","","","","null","<div style=""font-size:60px;"">+</div>","null","","fixation","","","","","","","","","","",""
"aa-learning-trial","34","207659","0.0-8.0-2.0-1.4","4032","2","16","Male","approach_avoid_spark_v1","""event"",""trial"",""time""
""fullscreenenter"",""1"",""2044""
","
","
","""event"",""trial"",""time""
""fullscreenenter"",""1"",""2044""
","
","","","","","","1814.000000000029","images/ball4.png","","","learning","9","9","1","1","practice","practice","practice","-1","","",""
"html-keyboard-response","35","208160","0.0-8.0-2.0-0.5","4032","2","16","Male","approach_avoid_spark_v1","""event"",""trial"",""time""
""fullscreenenter"",""1"",""2044""
","
","
","""event"",""trial"",""time""
""fullscreenenter"",""1"",""2044""
","
","","","","","","null","<div style=""font-size:60px;"">+</div>","null","","fixation","","","","","","","","","","",""
"aa-learning-trial","36","211161","0.0-8.0-2.0-1.5","4032","2","16","Male","approach_avoid_spark_v1","""event"",""trial"",""time""
""fullscreenenter"",""1"",""2044""
","
","
","""event"",""trial"",""time""
""fullscreenenter"",""1"",""2044""
","
","","","","","","1015","images/racket3.png","","","learning","-1","0","0","0","practice","practice","practice","-1","","",""
"html-keyboard-response","37","211663","0.0-8.0-2.0-0.6","4032","2","16","Male","approach_avoid_spark_v1","""event"",""trial"",""time""
""fullscreenenter"",""1"",""2044""
","
","
","""event"",""trial"",""time""
""fullscreenenter"",""1"",""2044""
","
","","","","","","null","<div style=""font-size:60px;"">+</div>","null","","fixation","","","","","","","","","","",""
"aa-learning-trial","38","214665","0.0-8.0-2.0-1.6","4032","2","16","Male","approach_avoid_spark_v1","""event"",""trial"",""time""
""fullscreenenter"",""1"",""2044""
","
","
","""event"",""trial"",""time""
""fullscreenenter"",""1"",""2044""
","
","","","","","","1096","images/racket1.png","","","learning","-4","-4","1","1","practice","practice","practice","-1","","",""
"html-keyboard-response","39","215166","0.0-8.0-2.0-0.7","4032","2","16","Male","approach_avoid_spark_v1","""event"",""trial"",""time""
""fullscreenenter"",""1"",""2044""
","
","
","""event"",""trial"",""time""
""fullscreenenter"",""1"",""2044""
","
","","","","","","null","<div style=""font-size:60px;"">+</div>","null","","fixation","","","","","","","","","","",""
"aa-learning-trial","40","218168","0.0-8.0-2.0-1.7","4032","2","16","Male","approach_avoid_spark_v1","""event"",""trial"",""time""
""fullscreenenter"",""1"",""2044""
","
","
","""event"",""trial"",""time""
""fullscreenenter"",""1"",""2044""
","
","","","","","","852","images/racket4.png","","","learning","9","9","1","1","practice","practice","practice","-1","","",""
"html-keyboard-response","41","218669","0.0-8.0-2.0-0.8","4032","2","16","Male","approach_avoid_spark_v1","""event"",""trial"",""time""
""fullscreenenter"",""1"",""2044""
","
","
","""event"",""trial"",""time""
""fullscreenenter"",""1"",""2044""
","
","","","","","","null","<div style=""font-size:60px;"">+</div>","null","","fixation","","","","","","","","","","",""
"aa-learning-trial","42","221671","0.0-8.0-2.0-1.8","4032","2","16","Male","approach_avoid_spark_v1","""event"",""trial"",""time""
""fullscreenenter"",""1"",""2044""
","
","
","""event"",""trial"",""time""
""fullscreenenter"",""1"",""2044""
","
","","","","","","1116","images/ball1.png","","","learning","5","5","1","1","practice","practice","practice","-1","","",""
"html-keyboard-response","43","222173","0.0-8.0-2.0-0.9","4032","2","16","Male","approach_avoid_spark_v1","""event"",""trial"",""time""
""fullscreenenter"",""1"",""2044""
","
","
","""event"",""trial"",""time""
""fullscreenenter"",""1"",""2044""
","
","","","","","","null","<div style=""font-size:60px;"">+</div>","null","","fixation","","","","","","","","","","",""
"aa-learning-trial","44","225174","0.0-8.0-2.0-1.9","4032","2","16","Male","approach_avoid_spark_v1","""event"",""trial"",""time""
""fullscreenenter"",""1"",""2044""
","
","
","""event"",""trial"",""time""
""fullscreenenter"",""1"",""2044""
","
","","","","","","906","images/racket4.png","","","learning","1","1","1","1","practice","practice","practice","-1","","",""
"html-keyboard-response","45","225676","0.0-8.0-2.0-0.10","4032","2","16","Male","approach_avoid_spark_v1","""event"",""trial"",""time""
""fullscreenenter"",""1"",""2044""
","
","
","""event"",""trial"",""time""
""fullscreenenter"",""1"",""2044""
","
","","","","","","null","<div style=""font-size:60px;"">+</div>","null","","fixation","","","","","","","","","","",""
"aa-learning-trial","46","228677","0.0-8.0-2.0-1.10","4032","2","16","Male","approach_avoid_spark_v1","""event"",""trial"",""time""
""fullscreenenter"",""1"",""2044""
","
","
","""event"",""trial"",""time""
""fullscreenenter"",""1"",""2044""
","
","","","","","","1143","images/ball3.png","","","learning","-9","0","0","0","practice","practice","practice","-1","","",""
"html-keyboard-response","47","229179","0.0-8.0-2.0-0.11","4032","2","16","Male","approach_avoid_spark_v1","""event"",""trial"",""time""
""fullscreenenter"",""1"",""2044""
","
","
","""event"",""trial"",""time""
""fullscreenenter"",""1"",""2044""
","
","","","","","","null","<div style=""font-size:60px;"">+</div>","null","","fixation","","","","","","","","","","",""
"aa-learning-trial","48","232180","0.0-8.0-2.0-1.11","4032","2","16","Male","approach_avoid_spark_v1","""event"",""trial"",""time""
""fullscreenenter"",""1"",""2044""
","
","
","""event"",""trial"",""time""
""fullscreenenter"",""1"",""2044""
","
","","","","","","819.9999999999709","images/racket4.png","","","learning","5","5","1","1","practice","practice","practice","-1","","",""
"html-button-response","49","234247","0.0-8.0-3.0","4032","2","16","Male","approach_avoid_spark_v1","""event"",""trial"",""time""
""fullscreenenter"",""1"",""2044""
","
","
","""event"",""trial"",""time""
""fullscreenenter"",""1"",""2044""
","
","","","","","","2064","<p> You earned 26 points in the practice round! </p>","0","","break","","","","","","","","","","",""
"learning-instructions","50","242721","0.0-8.0-4.0-0.0","4032","2","16","Male","approach_avoid_spark_v1","""event"",""trial"",""time""
""fullscreenenter"",""1"",""2044""
","
","
","""event"",""trial"",""time""
""fullscreenenter"",""1"",""2044""
","
","","","","","","2518.000000000029","<p> It's almost time to start the real game. </p><p> Before you start, we're going to ask you a few questions about how the game works. </p>","","0","instructions","","","","","","","","","","",""
"preload","51","245597","0.0-8.0-5.0","4032","2","16","Male","approach_avoid_spark_v1","""event"",""trial"",""time""
""fullscreenenter"",""1"",""2044""
","
","
","""event"",""trial"",""time""
""fullscreenenter"",""1"",""2044""
","
","true","false","[]","[]","[]","","","","","","","","","","","","","","","",""
"comp-q","52","252776","0.0-8.0-6.0-0.0","4032","2","16","Male","approach_avoid_spark_v1","""event"",""trial"",""time""
""fullscreenenter"",""1"",""2044""
","
","
","""event"",""trial"",""time""
""fullscreenenter"",""1"",""2044""
","
","","","","","","2179.999999999971","<p> <b> True or False? </b> </p><p> If you see a number in GREY, that means you earned that many points. </p>","","1","comp_question","","","","","","","","","true","",""
"comp-q","53","264558","0.0-8.0-6.0-1.0","4032","2","16","Male","approach_avoid_spark_v1","""event"",""trial"",""time""
""fullscreenenter"",""1"",""2044""
","
","
","""event"",""trial"",""time""
""fullscreenenter"",""1"",""2044""
","
","","","","","","3422","<p><b> That's right! </b> If you see a grey number, it means you earned ZERO points. <br> The grey numbers show the points you WOULD HAVE earned if you had made the other choice. </p>","","0","comp_answer","","","","","","","","","","",""
"comp-q","54","269835","0.0-8.0-7.0-0.0","4032","2","16","Male","approach_avoid_spark_v1","""event"",""trial"",""time""
""fullscreenenter"",""1"",""2044""
","
","
","""event"",""trial"",""time""
""fullscreenenter"",""1"",""2044""
","
","","","","","","588","<p> <b> True or False? </b> </p><p> You will have as much time as you want to make each choice. </p>","","1","comp_question","","","","","","","","","true","",""
"comp-q","55","275292","0.0-8.0-7.0-1.0","4032","2","16","Male","approach_avoid_spark_v1","""event"",""trial"",""time""
""fullscreenenter"",""1"",""2044""
","
","
","""event"",""trial"",""time""
""fullscreenenter"",""1"",""2044""
","
","","","","","","1421","<p> <b> That's right! </b> You will only have 3 seconds to make each choice. </p>","","0","comp_answer","","","","","","","","","","",""
"comp-q","56","280350","0.0-8.0-8.0-0.0","4032","2","16","Male","approach_avoid_spark_v1","""event"",""trial"",""time""
""fullscreenenter"",""1"",""2044""
","
","
","""event"",""trial"",""time""
""fullscreenenter"",""1"",""2044""
","
","","","","","","401","<p> <b> True or False? </b> </p><p> You should use the '1' and '0' keys to make your choices. </p>","","0","comp_question","","","","","","","","","true","",""
"comp-q","57","286822","0.0-8.0-8.0-1.0","4032","2","16","Male","approach_avoid_spark_v1","""event"",""trial"",""time""
""fullscreenenter"",""1"",""2044""
","
","
","""event"",""trial"",""time""
""fullscreenenter"",""1"",""2044""
","
","","","","","","1865","<p> <b> That's right! </b> You should use the '1' and '0' keys to make each choice. </p>","","0","comp_answer","","","","","","","","","","",""
"learning-instructions","58","311962","0.0-8.0-9.0-0.0","4032","2","16","Male","approach_avoid_spark_v1","""event"",""trial"",""time""
""fullscreenenter"",""1"",""2044""
","
","
","""event"",""trial"",""time""
""fullscreenenter"",""1"",""2044""
","
","","","","","","18875","<p> It's now time to start the real game. </p>Do your best, because the points you earn in the next rounds will influence your bonus payment. </p>","","0","instructions","","","","","","","","","","",""
"preload","59","312071","0.0-9.0-0.0","4032","2","16","Male","approach_avoid_spark_v1","""event"",""trial"",""time""
""fullscreenenter"",""1"",""2044""
","
","
","""event"",""trial"",""time""
""fullscreenenter"",""1"",""2044""
","
","true","false","[]","[]","[]","","","","","","","","","","","","","","","",""
"learning-instructions","60","316806","0.0-9.0-1.0-0.0","4032","2","16","Male","approach_avoid_spark_v1","""event"",""trial"",""time""
""fullscreenenter"",""1"",""2044""
","
","
","""event"",""trial"",""time""
""fullscreenenter"",""1"",""2044""
","
","","","","","","1109","<p> Your goal in this round is to take care of lots of animals. </p></div>","","0","instructions","","","","","","","","","","",""
"learning-instructions","61","326601","0.0-9.0-1.0-0.1","4032","2","16","Male","approach_avoid_spark_v1","""event"",""trial"",""time""
""fullscreenenter"",""1"",""2044""
","
","
","""event"",""trial"",""time""
""fullscreenenter"",""1"",""2044""
","
","","","","","","539","<p> Some animals want to be pet, while other animals want to be left alone.  </p><p> On each turn, you will see an animal.   </p><p> You need to decide whether to pet it or not.  </p>","","0","instructions","","","","","","","","","","",""
"learning-instructions","62","331993","0.0-9.0-1.0-0.2","4032","2","16","Male","approach_avoid_spark_v1","""event"",""trial"",""time""
""fullscreenenter"",""1"",""2044""
","
","
","""event"",""trial"",""time""
""fullscreenenter"",""1"",""2044""
","
","","","","","","475","<p> You can pet the animal by pressing 1 and leave the animal alone by pressing 0. </p><br><div class=""choice-instructions-grid""> <div class=""choice-option""><img src=""images/approach.png"" class=""choice-option-img"" stage=""instructions"" position=""0"" ><div class=""choice-option-text""> Press ""1."" </div></div><div class=""choice-option""><img src=""images/avoid.png"" class=""choice-option-img"" stage=""instructions"" position=""1"" ><div class=""choice-option-text""> Press ""0."" </div></div>","","0","instructions","","","","","","","","","","",""
"learning-instructions","63","340861","0.0-9.0-1.0-0.3","4032","2","16","Male","approach_avoid_spark_v1","""event"",""trial"",""time""
""fullscreenenter"",""1"",""2044""
","
","
","""event"",""trial"",""time""
""fullscreenenter"",""1"",""2044""
","
","","","","","","403","<p> If you pet an animal that wants to be pet, you will make it feel happy! </p><p> But if you pet an animal that wants to be left alone, you will make it feel angry. </p>","","0","instructions","","","","","","","","","","",""
"learning-instructions","64","353946","0.0-9.0-1.0-0.4","4032","2","16","Male","approach_avoid_spark_v1","""event"",""trial"",""time""
""fullscreenenter"",""1"",""2044""
","
","
","""event"",""trial"",""time""
""fullscreenenter"",""1"",""2044""
","
","","","","","","198","<p> You will earn points based on how you made the animal feel. </p><p> If you made it feel happy, you will WIN anywhere from 1 - 9 points, </p><p> but if you made it feel angry, you will LOSE anywhere from 1 - 9 points. </p>","","0","instructions","","","","","","","","","","",""
"learning-instructions","65","362091","0.0-9.0-1.0-0.5","4032","2","16","Male","approach_avoid_spark_v1","""event"",""trial"",""time""
""fullscreenenter"",""1"",""2044""
","
","
","""event"",""trial"",""time""
""fullscreenenter"",""1"",""2044""
","
","","","","","","518","<p> You will see how many points you won or lost in the center of the screen. </p><p> Here is what you would see if you won 5 points: </p><p style=""color:green;font-size:50px;font-weight:bolder"">5</p>","","0","instructions","","","","","","","","","","",""
"learning-instructions","66","365921","0.0-9.0-1.0-0.6","4032","2","16","Male","approach_avoid_spark_v1","""event"",""trial"",""time""
""fullscreenenter"",""1"",""2044""
","
","
","""event"",""trial"",""time""
""fullscreenenter"",""1"",""2044""
","
","","","","","","340","<p> And here is what you would see if you lost 3 points: </p><p style=""color:red;font-size:50px;font-weight:bolder"">-3</p>","","0","instructions","","","","","","","","","","",""
"learning-instructions","67","381239","0.0-9.0-1.0-0.7","4032","2","16","Male","approach_avoid_spark_v1","""event"",""trial"",""time""
""fullscreenenter"",""1"",""2044""
","
","
","""event"",""trial"",""time""
""fullscreenenter"",""1"",""2044""
","
","","","","","","1262.9999999999418","<p> Some animals will become very happy or very angry. </p><p> These animals will make you win or lose LOTS of points. </p><p> Other animals have less strong feelings. </p><p> These animals will make you win or lose small amounts of points. </p>","","0","instructions","","","","","","","","","","",""
"learning-instructions","68","393078","0.0-9.0-1.0-0.8","4032","2","16","Male","approach_avoid_spark_v1","""event"",""trial"",""time""
""fullscreenenter"",""1"",""2044""
","
","
","""event"",""trial"",""time""
""fullscreenenter"",""1"",""2044""
","
","","","","","","440","<p> If you choose to leave the animal alone, you will not win or lose any points. </p><p>  However, in the center of the screen, you will see the number of points you WOULD HAVE won or lost if you had pet the animal. </p>","","0","instructions","","","","","","","","","","",""
"learning-instructions","69","405784","0.0-9.0-1.0-0.9","4032","2","16","Male","approach_avoid_spark_v1","""event"",""trial"",""time""
""fullscreenenter"",""1"",""2044""
","
","
","""event"",""trial"",""time""
""fullscreenenter"",""1"",""2044""
","
","","","","","","923","<p> Here is what you might see if you did not pet the animal but the animal wanted to be pet: </p><p style=""color:grey; font-size:50px; display: inline-block; border-spacing: 15px; border-width:3px; border-style:solid; border-color:red"">  &nbsp; 6 &nbsp; </p><p> Remember, in this case, you would not win or lose ANY points because you did not pet the animal.  </p>","","0","instructions","","","","","","","","","","",""
"learning-instructions","70","413300","0.0-9.0-1.0-0.10","4032","2","16","Male","approach_avoid_spark_v1","""event"",""trial"",""time""
""fullscreenenter"",""1"",""2044""
","
","
","""event"",""trial"",""time""
""fullscreenenter"",""1"",""2044""
","
","","","","","","499","<p> Try to make the best choice for each animal because </p><p> at the end of the game, you will earn bonus money based on how many points you earned. </p>","","0","instructions","","","","","","","","","","",""
"learning-instructions","71","422054","0.0-9.0-1.0-0.11","4032","2","16","Male","approach_avoid_spark_v1","""event"",""trial"",""time""
""fullscreenenter"",""1"",""2044""
","
","
","""event"",""trial"",""time""
""fullscreenenter"",""1"",""2044""
","
","","","","","","570","<p> You will have 3 seconds to make each choice. Try to respond before time runs out! </p><p> You will lose 5 points each time you do not make a response. </p>","","0","instructions","","","","","","","","","","",""
"html-keyboard-response","72","422658","0.0-9.0-2.0-0.0","4032","2","16","Male","approach_avoid_spark_v1","""event"",""trial"",""time""
""fullscreenenter"",""1"",""2044""
","
","
","""event"",""trial"",""time""
""fullscreenenter"",""1"",""2044""
","
","","","","","","null","<div style=""font-size:60px;"">+</div>","null","","fixation","","","","","","","","","","",""
"aa-learning-trial","73","425659","0.0-9.0-2.0-1.0","4032","2","16","Male","approach_avoid_spark_v1","""event"",""trial"",""time""
""fullscreenenter"",""1"",""2044""
","
","
","""event"",""trial"",""time""
""fullscreenenter"",""1"",""2044""
","
","","","","","","1444.9999999999418","images/cat3.png","","","learning","-4","-4","1","1","cat","pets","2","0","","good","[3]"
"html-keyboard-response","74","426161","0.0-9.0-2.0-0.1","4032","2","16","Male","approach_avoid_spark_v1","""event"",""trial"",""time""
""fullscreenenter"",""1"",""2044""
","
","
","""event"",""trial"",""time""
""fullscreenenter"",""1"",""2044""
","
","","","","","","null","<div style=""font-size:60px;"">+</div>","null","","fixation","","","","","","","","","","",""
"aa-learning-trial","75","429163","0.0-9.0-2.0-1.1","4032","2","16","Male","approach_avoid_spark_v1","""event"",""trial"",""time""
""fullscreenenter"",""1"",""2044""
","
","
","""event"",""trial"",""time""
""fullscreenenter"",""1"",""2044""
","
","","","","","","1180","images/rabbit7.png","","","learning","6","0","0","0","rabbit","pets","2","0","","neutral","0"
"html-keyboard-response","76","429665","0.0-9.0-2.0-0.2","4032","2","16","Male","approach_avoid_spark_v1","""event"",""trial"",""time""
""fullscreenenter"",""1"",""2044""
","
","
","""event"",""trial"",""time""
""fullscreenenter"",""1"",""2044""
","
","","","","","","null","<div style=""font-size:60px;"">+</div>","null","","fixation","","","","","","","","","","",""
"aa-learning-trial","77","432667","0.0-9.0-2.0-1.2","4032","2","16","Male","approach_avoid_spark_v1","""event"",""trial"",""time""
""fullscreenenter"",""1"",""2044""
","
","
","""event"",""trial"",""time""
""fullscreenenter"",""1"",""2044""
","
","","","","","","771.9999999999418","images/dog8.png","","","learning","8","8","1","1","dog","pets","2","0","","bad","[-6]"
"html-keyboard-response","78","433168","0.0-9.0-2.0-0.3","4032","2","16","Male","approach_avoid_spark_v1","""event"",""trial"",""time""
""fullscreenenter"",""1"",""2044""
","
","
","""event"",""trial"",""time""
""fullscreenenter"",""1"",""2044""
","
","","","","","","null","<div style=""font-size:60px;"">+</div>","null","","fixation","","","","","","","","","","",""
"aa-learning-trial","79","436170","0.0-9.0-2.0-1.3","4032","2","16","Male","approach_avoid_spark_v1","""event"",""trial"",""time""
""fullscreenenter"",""1"",""2044""
","
","
","""event"",""trial"",""time""
""fullscreenenter"",""1"",""2044""
","
","","","","","","1043","images/cat7.png","","","learning","1","0","0","0","cat","pets","2","0","","good","[3]"
"html-keyboard-response","80","436670","0.0-9.0-2.0-0.4","4032","2","16","Male","approach_avoid_spark_v1","""event"",""trial"",""time""
""fullscreenenter"",""1"",""2044""
","
","
","""event"",""trial"",""time""
""fullscreenenter"",""1"",""2044""
","
","","","","","","null","<div style=""font-size:60px;"">+</div>","null","","fixation","","","","","","","","","","",""
"aa-learning-trial","81","439673","0.0-9.0-2.0-1.4","4032","2","16","Male","approach_avoid_spark_v1","""event"",""trial"",""time""
""fullscreenenter"",""1"",""2044""
","
","
","""event"",""trial"",""time""
""fullscreenenter"",""1"",""2044""
","
","","","","","","1038","images/dog3.png","","","learning","2","2","1","1","dog","pets","2","0","","bad","[-6]"
"html-keyboard-response","82","440175","0.0-9.0-2.0-0.5","4032","2","16","Male","approach_avoid_spark_v1","""event"",""trial"",""time""
""fullscreenenter"",""1"",""2044""
","
","
","""event"",""trial"",""time""
""fullscreenenter"",""1"",""2044""
","
","","","","","","null","<div style=""font-size:60px;"">+</div>","null","","fixation","","","","","","","","","","",""
"aa-learning-trial","83","443176","0.0-9.0-2.0-1.5","4032","2","16","Male","approach_avoid_spark_v1","""event"",""trial"",""time""
""fullscreenenter"",""1"",""2044""
","
","
","""event"",""trial"",""time""
""fullscreenenter"",""1"",""2044""
","
","","","","","","1515","images/dog2.png","","","learning","3","3","1","1","dog","pets","2","0","","bad","[-6]"
"html-keyboard-response","84","443678","0.0-9.0-2.0-0.6","4032","2","16","Male","approach_avoid_spark_v1","""event"",""trial"",""time""
""fullscreenenter"",""1"",""2044""
","
","
","""event"",""trial"",""time""
""fullscreenenter"",""1"",""2044""
","
","","","","","","null","<div style=""font-size:60px;"">+</div>","null","","fixation","","","","","","","","","","",""
"aa-learning-trial","85","446679","0.0-9.0-2.0-1.6","4032","2","16","Male","approach_avoid_spark_v1","""event"",""trial"",""time""
""fullscreenenter"",""1"",""2044""
","
","
","""event"",""trial"",""time""
""fullscreenenter"",""1"",""2044""
","
","","","","","","657","images/dog2.png","","","learning","3","3","1","1","dog","pets","2","0","","bad","[-6]"
"html-keyboard-response","86","447180","0.0-9.0-2.0-0.7","4032","2","16","Male","approach_avoid_spark_v1","""event"",""trial"",""time""
""fullscreenenter"",""1"",""2044""
","
","
","""event"",""trial"",""time""
""fullscreenenter"",""1"",""2044""
","
","","","","","","null","<div style=""font-size:60px;"">+</div>","null","","fixation","","","","","","","","","","",""
"aa-learning-trial","87","450183","0.0-9.0-2.0-1.7","4032","2","16","Male","approach_avoid_spark_v1","""event"",""trial"",""time""
""fullscreenenter"",""1"",""2044""
","
","
","""event"",""trial"",""time""
""fullscreenenter"",""1"",""2044""
","
","","","","","","926","images/rabbit8.png","","","learning","-7","0","0","0","rabbit","pets","2","0","","neutral","0"
"html-keyboard-response","88","450684","0.0-9.0-2.0-0.8","4032","2","16","Male","approach_avoid_spark_v1","""event"",""trial"",""time""
""fullscreenenter"",""1"",""2044""
","
","
","""event"",""trial"",""time""
""fullscreenenter"",""1"",""2044""
","
","","","","","","null","<div style=""font-size:60px;"">+</div>","null","","fixation","","","","","","","","","","",""
"aa-learning-trial","89","453686","0.0-9.0-2.0-1.8","4032","2","16","Male","approach_avoid_spark_v1","""event"",""trial"",""time""
""fullscreenenter"",""1"",""2044""
","
","
","""event"",""trial"",""time""
""fullscreenenter"",""1"",""2044""
","
","","","","","","1008","images/cat3.png","","","learning","-4","0","0","0","cat","pets","2","0","","good","[3]"
"html-keyboard-response","90","454187","0.0-9.0-2.0-0.9","4032","2","16","Male","approach_avoid_spark_v1","""event"",""trial"",""time""
""fullscreenenter"",""1"",""2044""
","
","
","""event"",""trial"",""time""
""fullscreenenter"",""1"",""2044""
","
","","","","","","null","<div style=""font-size:60px;"">+</div>","null","","fixation","","","","","","","","","","",""
"aa-learning-trial","91","457189","0.0-9.0-2.0-1.9","4032","2","16","Male","approach_avoid_spark_v1","""event"",""trial"",""time""
""fullscreenenter"",""1"",""2044""
","
","
","""event"",""trial"",""time""
""fullscreenenter"",""1"",""2044""
","
","","","","","","767","images/dog3.png","","","learning","2","2","1","1","dog","pets","2","0","","bad","[-6]"
"html-keyboard-response","92","457691","0.0-9.0-2.0-0.10","4032","2","16","Male","approach_avoid_spark_v1","""event"",""trial"",""time""
""fullscreenenter"",""1"",""2044""
","
","
","""event"",""trial"",""time""
""fullscreenenter"",""1"",""2044""
","
","","","","","","null","<div style=""font-size:60px;"">+</div>","null","","fixation","","","","","","","","","","",""
"aa-learning-trial","93","460692","0.0-9.0-2.0-1.10","4032","2","16","Male","approach_avoid_spark_v1","""event"",""trial"",""time""
""fullscreenenter"",""1"",""2044""
","
","
","""event"",""trial"",""time""
""fullscreenenter"",""1"",""2044""
","
","","","","","","1352","images/rabbit8.png","","","learning","-7","0","0","0","rabbit","pets","2","0","","neutral","0"
"html-keyboard-response","94","461194","0.0-9.0-2.0-0.11","4032","2","16","Male","approach_avoid_spark_v1","""event"",""trial"",""time""
""fullscreenenter"",""1"",""2044""
","
","
","""event"",""trial"",""time""
""fullscreenenter"",""1"",""2044""
","
","","","","","","null","<div style=""font-size:60px;"">+</div>","null","","fixation","","","","","","","","","","",""
"aa-learning-trial","95","464195","0.0-9.0-2.0-1.11","4032","2","16","Male","approach_avoid_spark_v1","""event"",""trial"",""time""
""fullscreenenter"",""1"",""2044""
","
","
","""event"",""trial"",""time""
""fullscreenenter"",""1"",""2044""
","
","","","","","","1035.0000000000582","images/cat4.png","","","learning","4","0","0","0","cat","pets","2","0","","good","[3]"
"html-keyboard-response","96","464697","0.0-9.0-2.0-0.12","4032","2","16","Male","approach_avoid_spark_v1","""event"",""trial"",""time""
""fullscreenenter"",""1"",""2044""
","
","
","""event"",""trial"",""time""
""fullscreenenter"",""1"",""2044""
","
","","","","","","null","<div style=""font-size:60px;"">+</div>","null","","fixation","","","","","","","","","","",""
"aa-learning-trial","97","467699","0.0-9.0-2.0-1.12","4032","2","16","Male","approach_avoid_spark_v1","""event"",""trial"",""time""
""fullscreenenter"",""1"",""2044""
","
","
","""event"",""trial"",""time""
""fullscreenenter"",""1"",""2044""
","
","","","","","","1290","images/rabbit1.png","","","learning","-1","-1","1","1","rabbit","pets","2","0","","neutral","0"
"html-keyboard-response","98","468201","0.0-9.0-2.0-0.13","4032","2","16","Male","approach_avoid_spark_v1","""event"",""trial"",""time""
""fullscreenenter"",""1"",""2044""
","
","
","""event"",""trial"",""time""
""fullscreenenter"",""1"",""2044""
","
","","","","","","null","<div style=""font-size:60px;"">+</div>","null","","fixation","","","","","","","","","","",""
"aa-learning-trial","99","471203","0.0-9.0-2.0-1.13","4032","2","16","Male","approach_avoid_spark_v1","""event"",""trial"",""time""
""fullscreenenter"",""1"",""2044""
","
","
","""event"",""trial"",""time""
""fullscreenenter"",""1"",""2044""
","
","","","","","","668","images/rabbit1.png","","","learning","-1","-1","1","1","rabbit","pets","2","0","","neutral","0"
"html-keyboard-response","100","471704","0.0-9.0-2.0-0.14","4032","2","16","Male","approach_avoid_spark_v1","""event"",""trial"",""time""
""fullscreenenter"",""1"",""2044""
","
","
","""event"",""trial"",""time""
""fullscreenenter"",""1"",""2044""
","
","","","","","","null","<div style=""font-size:60px;"">+</div>","null","","fixation","","","","","","","","","","",""
"aa-learning-trial","101","474705","0.0-9.0-2.0-1.14","4032","2","16","Male","approach_avoid_spark_v1","""event"",""trial"",""time""
""fullscreenenter"",""1"",""2044""
","
","
","""event"",""trial"",""time""
""fullscreenenter"",""1"",""2044""
","
","","","","","","1046","images/cat7.png","","","learning","1","0","0","0","cat","pets","2","0","","good","[3]"
"html-keyboard-response","102","475207","0.0-9.0-2.0-0.15","4032","2","16","Male","approach_avoid_spark_v1","""event"",""trial"",""time""
""fullscreenenter"",""1"",""2044""
","
","
","""event"",""trial"",""time""
""fullscreenenter"",""1"",""2044""
","
","","","","","","null","<div style=""font-size:60px;"">+</div>","null","","fixation","","","","","","","","","","",""
"aa-learning-trial","103","478208","0.0-9.0-2.0-1.15","4032","2","16","Male","approach_avoid_spark_v1","""event"",""trial"",""time""
""fullscreenenter"",""1"",""2044""
","
","
","""event"",""trial"",""time""
""fullscreenenter"",""1"",""2044""
","
","","","","","","1113","images/rabbit1.png","","","learning","-1","0","0","0","rabbit","pets","2","0","","neutral","0"
"html-keyboard-response","104","478710","0.0-9.0-2.0-0.16","4032","2","16","Male","approach_avoid_spark_v1","""event"",""trial"",""time""
""fullscreenenter"",""1"",""2044""
","
","
","""event"",""trial"",""time""
""fullscreenenter"",""1"",""2044""
","
","","","","","","null","<div style=""font-size:60px;"">+</div>","null","","fixation","","","","","","","","","","",""
"aa-learning-trial","105","481712","0.0-9.0-2.0-1.16","4032","2","16","Male","approach_avoid_spark_v1","""event"",""trial"",""time""
""fullscreenenter"",""1"",""2044""
","
","
","""event"",""trial"",""time""
""fullscreenenter"",""1"",""2044""
","
","","","","","","935","images/dog2.png","","","learning","3","3","1","1","dog","pets","2","0","","bad","[-6]"
"html-keyboard-response","106","482213","0.0-9.0-2.0-0.17","4032","2","16","Male","approach_avoid_spark_v1","""event"",""trial"",""time""
""fullscreenenter"",""1"",""2044""
","
","
","""event"",""trial"",""time""
""fullscreenenter"",""1"",""2044""
","
","","","","","","null","<div style=""font-size:60px;"">+</div>","null","","fixation","","","","","","","","","","",""
"aa-learning-trial","107","485215","0.0-9.0-2.0-1.17","4032","2","16","Male","approach_avoid_spark_v1","""event"",""trial"",""time""
""fullscreenenter"",""1"",""2044""
","
","
","""event"",""trial"",""time""
""fullscreenenter"",""1"",""2044""
","
","","","","","","1648","images/rabbit4.png","","","learning","5","0","0","0","rabbit","pets","2","0","","neutral","0"
"html-keyboard-response","108","485716","0.0-9.0-2.0-0.18","4032","2","16","Male","approach_avoid_spark_v1","""event"",""trial"",""time""
""fullscreenenter"",""1"",""2044""
","
","
","""event"",""trial"",""time""
""fullscreenenter"",""1"",""2044""
","
","","","","","","null","<div style=""font-size:60px;"">+</div>","null","","fixation","","","","","","","","","","",""
"aa-learning-trial","109","488718","0.0-9.0-2.0-1.18","4032","2","16","Male","approach_avoid_spark_v1","""event"",""trial"",""time""
""fullscreenenter"",""1"",""2044""
","
","
","""event"",""trial"",""time""
""fullscreenenter"",""1"",""2044""
","
","","","","","","1002.9999999999418","images/cat1.png","","","learning","-8","0","0","0","cat","pets","2","0","","good","[3]"
"html-keyboard-response","110","489219","0.0-9.0-2.0-0.19","4032","2","16","Male","approach_avoid_spark_v1","""event"",""trial"",""time""
""fullscreenenter"",""1"",""2044""
","
","
","""event"",""trial"",""time""
""fullscreenenter"",""1"",""2044""
","
","","","","","","null","<div style=""font-size:60px;"">+</div>","null","","fixation","","","","","","","","","","",""
"aa-learning-trial","111","492221","0.0-9.0-2.0-1.19","4032","2","16","Male","approach_avoid_spark_v1","""event"",""trial"",""time""
""fullscreenenter"",""1"",""2044""
","
","
","""event"",""trial"",""time""
""fullscreenenter"",""1"",""2044""
","
","","","","","","649","images/dog3.png","","","learning","2","2","1","1","dog","pets","2","0","","bad","[-6]"
"html-keyboard-response","112","492723","0.0-9.0-2.0-0.20","4032","2","16","Male","approach_avoid_spark_v1","""event"",""trial"",""time""
""fullscreenenter"",""1"",""2044""
","
","
","""event"",""trial"",""time""
""fullscreenenter"",""1"",""2044""
","
","","","","","","null","<div style=""font-size:60px;"">+</div>","null","","fixation","","","","","","","","","","",""
"aa-learning-trial","113","495724","0.0-9.0-2.0-1.20","4032","2","16","Male","approach_avoid_spark_v1","""event"",""trial"",""time""
""fullscreenenter"",""1"",""2044""
","
","
","""event"",""trial"",""time""
""fullscreenenter"",""1"",""2044""
","
","","","","","","836","images/rabbit7.png","","","learning","6","6","1","1","rabbit","pets","2","0","","neutral","0"
"html-keyboard-response","114","496226","0.0-9.0-2.0-0.21","4032","2","16","Male","approach_avoid_spark_v1","""event"",""trial"",""time""
""fullscreenenter"",""1"",""2044""
","
","
","""event"",""trial"",""time""
""fullscreenenter"",""1"",""2044""
","
","","","","","","null","<div style=""font-size:60px;"">+</div>","null","","fixation","","","","","","","","","","",""
"aa-learning-trial","115","499227","0.0-9.0-2.0-1.21","4032","2","16","Male","approach_avoid_spark_v1","""event"",""trial"",""time""
""fullscreenenter"",""1"",""2044""
","
","
","""event"",""trial"",""time""
""fullscreenenter"",""1"",""2044""
","
","","","","","","690","images/cat3.png","","","learning","-4","0","0","0","cat","pets","2","0","","good","[3]"
"html-keyboard-response","116","499731","0.0-9.0-2.0-0.22","4032","2","16","Male","approach_avoid_spark_v1","""event"",""trial"",""time""
""fullscreenenter"",""1"",""2044""
","
","
","""event"",""trial"",""time""
""fullscreenenter"",""1"",""2044""
","
","","","","","","null","<div style=""font-size:60px;"">+</div>","null","","fixation","","","","","","","","","","",""
"aa-learning-trial","117","502734","0.0-9.0-2.0-1.22","4032","2","16","Male","approach_avoid_spark_v1","""event"",""trial"",""time""
""fullscreenenter"",""1"",""2044""
","
","
","""event"",""trial"",""time""
""fullscreenenter"",""1"",""2044""
","
","","","","","","1673","images/rabbit8.png","","","learning","-7","-7","1","1","rabbit","pets","2","0","","neutral","0"
"html-keyboard-response","118","503236","0.0-9.0-2.0-0.23","4032","2","16","Male","approach_avoid_spark_v1","""event"",""trial"",""time""
""fullscreenenter"",""1"",""2044""
","
","
","""event"",""trial"",""time""
""fullscreenenter"",""1"",""2044""
","
","","","","","","null","<div style=""font-size:60px;"">+</div>","null","","fixation","","","","","","","","","","",""
"aa-learning-trial","119","506237","0.0-9.0-2.0-1.23","4032","2","16","Male","approach_avoid_spark_v1","""event"",""trial"",""time""
""fullscreenenter"",""1"",""2044""
","
","
","""event"",""trial"",""time""
""fullscreenenter"",""1"",""2044""
","
","","","","","","1058","images/cat7.png","","","learning","1","0","0","0","cat","pets","2","0","","good","[3]"
"html-keyboard-response","120","506739","0.0-9.0-2.0-0.24","4032","2","16","Male","approach_avoid_spark_v1","""event"",""trial"",""time""
""fullscreenenter"",""1"",""2044""
","
","
","""event"",""trial"",""time""
""fullscreenenter"",""1"",""2044""
","
","","","","","","null","<div style=""font-size:60px;"">+</div>","null","","fixation","","","","","","","","","","",""
"aa-learning-trial","121","509740","0.0-9.0-2.0-1.24","4032","2","16","Male","approach_avoid_spark_v1","""event"",""trial"",""time""
""fullscreenenter"",""1"",""2044""
","
","
","""event"",""trial"",""time""
""fullscreenenter"",""1"",""2044""
","
","","","","","","1763.0000000000582","images/rabbit1.png","","","learning","-1","-1","1","1","rabbit","pets","2","0","","neutral","0"
"html-keyboard-response","122","510242","0.0-9.0-2.0-0.25","4032","2","16","Male","approach_avoid_spark_v1","""event"",""trial"",""time""
""fullscreenenter"",""1"",""2044""
","
","
","""event"",""trial"",""time""
""fullscreenenter"",""1"",""2044""
","
","","","","","","null","<div style=""font-size:60px;"">+</div>","null","","fixation","","","","","","","","","","",""
"aa-learning-trial","123","513243","0.0-9.0-2.0-1.25","4032","2","16","Male","approach_avoid_spark_v1","""event"",""trial"",""time""
""fullscreenenter"",""1"",""2044""
","
","
","""event"",""trial"",""time""
""fullscreenenter"",""1"",""2044""
","
","","","","","","842","images/cat3.png","","","learning","-4","0","0","0","cat","pets","2","0","","good","[3]"
"html-keyboard-response","124","513745","0.0-9.0-2.0-0.26","4032","2","16","Male","approach_avoid_spark_v1","""event"",""trial"",""time""
""fullscreenenter"",""1"",""2044""
","
","
","""event"",""trial"",""time""
""fullscreenenter"",""1"",""2044""
","
","","","","","","null","<div style=""font-size:60px;"">+</div>","null","","fixation","","","","","","","","","","",""
"aa-learning-trial","125","516746","0.0-9.0-2.0-1.26","4032","2","16","Male","approach_avoid_spark_v1","""event"",""trial"",""time""
""fullscreenenter"",""1"",""2044""
","
","
","""event"",""trial"",""time""
""fullscreenenter"",""1"",""2044""
","
","","","","","","906.9999999999418","images/cat4.png","","","learning","4","4","1","1","cat","pets","2","0","","good","[3]"
"html-keyboard-response","126","517248","0.0-9.0-2.0-0.27","4032","2","16","Male","approach_avoid_spark_v1","""event"",""trial"",""time""
""fullscreenenter"",""1"",""2044""
","
","
","""event"",""trial"",""time""
""fullscreenenter"",""1"",""2044""
","
","","","","","","null","<div style=""font-size:60px;"">+</div>","null","","fixation","","","","","","","","","","",""
"aa-learning-trial","127","520250","0.0-9.0-2.0-1.27","4032","2","16","Male","approach_avoid_spark_v1","""event"",""trial"",""time""
""fullscreenenter"",""1"",""2044""
","
","
","""event"",""trial"",""time""
""fullscreenenter"",""1"",""2044""
","
","","","","","","686","images/rabbit8.png","","","learning","-7","-7","1","1","rabbit","pets","2","0","","neutral","0"
"html-keyboard-response","128","520751","0.0-9.0-2.0-0.28","4032","2","16","Male","approach_avoid_spark_v1","""event"",""trial"",""time""
""fullscreenenter"",""1"",""2044""
","
","
","""event"",""trial"",""time""
""fullscreenenter"",""1"",""2044""
","
","","","","","","null","<div style=""font-size:60px;"">+</div>","null","","fixation","","","","","","","","","","",""
"aa-learning-trial","129","523753","0.0-9.0-2.0-1.28","4032","2","16","Male","approach_avoid_spark_v1","""event"",""trial"",""time""
""fullscreenenter"",""1"",""2044""
","
","
","""event"",""trial"",""time""
""fullscreenenter"",""1"",""2044""
","
","","","","","","845","images/dog4.png","","","learning","-3","-3","1","1","dog","pets","2","0","","bad","[-6]"
"html-keyboard-response","130","524254","0.0-9.0-2.0-0.29","4032","2","16","Male","approach_avoid_spark_v1","""event"",""trial"",""time""
""fullscreenenter"",""1"",""2044""
","
","
","""event"",""trial"",""time""
""fullscreenenter"",""1"",""2044""
","
","","","","","","null","<div style=""font-size:60px;"">+</div>","null","","fixation","","","","","","","","","","",""
"aa-learning-trial","131","527256","0.0-9.0-2.0-1.29","4032","2","16","Male","approach_avoid_spark_v1","""event"",""trial"",""time""
""fullscreenenter"",""1"",""2044""
","
","
","""event"",""trial"",""time""
""fullscreenenter"",""1"",""2044""
","
","","","","","","767","images/rabbit1.png","","","learning","-1","-1","1","1","rabbit","pets","2","0","","neutral","0"
"html-keyboard-response","132","527758","0.0-9.0-2.0-0.30","4032","2","16","Male","approach_avoid_spark_v1","""event"",""trial"",""time""
""fullscreenenter"",""1"",""2044""
","
","
","""event"",""trial"",""time""
""fullscreenenter"",""1"",""2044""
","
","","","","","","null","<div style=""font-size:60px;"">+</div>","null","","fixation","","","","","","","","","","",""
"aa-learning-trial","133","530760","0.0-9.0-2.0-1.30","4032","2","16","Male","approach_avoid_spark_v1","""event"",""trial"",""time""
""fullscreenenter"",""1"",""2044""
","
","
","""event"",""trial"",""time""
""fullscreenenter"",""1"",""2044""
","
","","","","","","818","images/cat7.png","","","learning","1","0","0","0","cat","pets","2","0","","good","[3]"
"html-keyboard-response","134","531261","0.0-9.0-2.0-0.31","4032","2","16","Male","approach_avoid_spark_v1","""event"",""trial"",""time""
""fullscreenenter"",""1"",""2044""
","
","
","""event"",""trial"",""time""
""fullscreenenter"",""1"",""2044""
","
","","","","","","null","<div style=""font-size:60px;"">+</div>","null","","fixation","","","","","","","","","","",""
"aa-learning-trial","135","534263","0.0-9.0-2.0-1.31","4032","2","16","Male","approach_avoid_spark_v1","""event"",""trial"",""time""
""fullscreenenter"",""1"",""2044""
","
","
","""event"",""trial"",""time""
""fullscreenenter"",""1"",""2044""
","
","","","","","","1551","images/cat7.png","","","learning","1","1","1","1","cat","pets","2","0","","good","[3]"
"html-keyboard-response","136","534764","0.0-9.0-2.0-0.32","4032","2","16","Male","approach_avoid_spark_v1","""event"",""trial"",""time""
""fullscreenenter"",""1"",""2044""
","
","
","""event"",""trial"",""time""
""fullscreenenter"",""1"",""2044""
","
","","","","","","null","<div style=""font-size:60px;"">+</div>","null","","fixation","","","","","","","","","","",""
"aa-learning-trial","137","537766","0.0-9.0-2.0-1.32","4032","2","16","Male","approach_avoid_spark_v1","""event"",""trial"",""time""
""fullscreenenter"",""1"",""2044""
","
","
","""event"",""trial"",""time""
""fullscreenenter"",""1"",""2044""
","
","","","","","","930","images/dog8.png","","","learning","8","8","1","1","dog","pets","2","0","","bad","[-6]"
"html-keyboard-response","138","538267","0.0-9.0-2.0-0.33","4032","2","16","Male","approach_avoid_spark_v1","""event"",""trial"",""time""
""fullscreenenter"",""1"",""2044""
","
","
","""event"",""trial"",""time""
""fullscreenenter"",""1"",""2044""
","
","","","","","","null","<div style=""font-size:60px;"">+</div>","null","","fixation","","","","","","","","","","",""
"aa-learning-trial","139","541269","0.0-9.0-2.0-1.33","4032","2","16","Male","approach_avoid_spark_v1","""event"",""trial"",""time""
""fullscreenenter"",""1"",""2044""
","
","
","""event"",""trial"",""time""
""fullscreenenter"",""1"",""2044""
","
","","","","","","721","images/rabbit7.png","","","learning","6","6","1","1","rabbit","pets","2","0","","neutral","0"
"html-keyboard-response","140","541770","0.0-9.0-2.0-0.34","4032","2","16","Male","approach_avoid_spark_v1","""event"",""trial"",""time""
""fullscreenenter"",""1"",""2044""
","
","
","""event"",""trial"",""time""
""fullscreenenter"",""1"",""2044""
","
","","","","","","null","<div style=""font-size:60px;"">+</div>","null","","fixation","","","","","","","","","","",""
"aa-learning-trial","141","544772","0.0-9.0-2.0-1.34","4032","2","16","Male","approach_avoid_spark_v1","""event"",""trial"",""time""
""fullscreenenter"",""1"",""2044""
","
","
","""event"",""trial"",""time""
""fullscreenenter"",""1"",""2044""
","
","","","","","","900","images/rabbit8.png","","","learning","-7","0","0","0","rabbit","pets","2","0","","neutral","0"
"html-keyboard-response","142","545273","0.0-9.0-2.0-0.35","4032","2","16","Male","approach_avoid_spark_v1","""event"",""trial"",""time""
""fullscreenenter"",""1"",""2044""
","
","
","""event"",""trial"",""time""
""fullscreenenter"",""1"",""2044""
","
","","","","","","null","<div style=""font-size:60px;"">+</div>","null","","fixation","","","","","","","","","","",""
"aa-learning-trial","143","548275","0.0-9.0-2.0-1.35","4032","2","16","Male","approach_avoid_spark_v1","""event"",""trial"",""time""
""fullscreenenter"",""1"",""2044""
","
","
","""event"",""trial"",""time""
""fullscreenenter"",""1"",""2044""
","
","","","","","","1284.9999999998836","images/rabbit5.png","","","learning","-5","0","0","0","rabbit","pets","2","0","","neutral","0"
"html-keyboard-response","144","548777","0.0-9.0-2.0-0.36","4032","2","16","Male","approach_avoid_spark_v1","""event"",""trial"",""time""
""fullscreenenter"",""1"",""2044""
","
","
","""event"",""trial"",""time""
""fullscreenenter"",""1"",""2044""
","
","","","","","","null","<div style=""font-size:60px;"">+</div>","null","","fixation","","","","","","","","","","",""
"aa-learning-trial","145","551778","0.0-9.0-2.0-1.36","4032","2","16","Male","approach_avoid_spark_v1","""event"",""trial"",""time""
""fullscreenenter"",""1"",""2044""
","
","
","""event"",""trial"",""time""
""fullscreenenter"",""1"",""2044""
","
","","","","","","748","images/dog3.png","","","learning","2","2","1","1","dog","pets","2","0","","bad","[-6]"
"html-keyboard-response","146","552280","0.0-9.0-2.0-0.37","4032","2","16","Male","approach_avoid_spark_v1","""event"",""trial"",""time""
""fullscreenenter"",""1"",""2044""
","
","
","""event"",""trial"",""time""
""fullscreenenter"",""1"",""2044""
","
","","","","","","null","<div style=""font-size:60px;"">+</div>","null","","fixation","","","","","","","","","","",""
"aa-learning-trial","147","555281","0.0-9.0-2.0-1.37","4032","2","16","Male","approach_avoid_spark_v1","""event"",""trial"",""time""
""fullscreenenter"",""1"",""2044""
","
","
","""event"",""trial"",""time""
""fullscreenenter"",""1"",""2044""
","
","","","","","","899","images/cat3.png","","","learning","-4","0","0","0","cat","pets","2","0","","good","[3]"
"html-keyboard-response","148","555784","0.0-9.0-2.0-0.38","4032","2","16","Male","approach_avoid_spark_v1","""event"",""trial"",""time""
""fullscreenenter"",""1"",""2044""
","
","
","""event"",""trial"",""time""
""fullscreenenter"",""1"",""2044""
","
","","","","","","null","<div style=""font-size:60px;"">+</div>","null","","fixation","","","","","","","","","","",""
"aa-learning-trial","149","558786","0.0-9.0-2.0-1.38","4032","2","16","Male","approach_avoid_spark_v1","""event"",""trial"",""time""
""fullscreenenter"",""1"",""2044""
","
","
","""event"",""trial"",""time""
""fullscreenenter"",""1"",""2044""
","
","","","","","","676","images/dog3.png","","","learning","2","2","1","1","dog","pets","2","0","","bad","[-6]"
"html-keyboard-response","150","559288","0.0-9.0-2.0-0.39","4032","2","16","Male","approach_avoid_spark_v1","""event"",""trial"",""time""
""fullscreenenter"",""1"",""2044""
","
","
","""event"",""trial"",""time""
""fullscreenenter"",""1"",""2044""
","
","","","","","","null","<div style=""font-size:60px;"">+</div>","null","","fixation","","","","","","","","","","",""
"aa-learning-trial","151","562291","0.0-9.0-2.0-1.39","4032","2","16","Male","approach_avoid_spark_v1","""event"",""trial"",""time""
""fullscreenenter"",""1"",""2044""
","
","
","""event"",""trial"",""time""
""fullscreenenter"",""1"",""2044""
","
","","","","","","783","images/cat4.png","","","learning","4","4","1","1","cat","pets","2","0","","good","[3]"
"html-keyboard-response","152","562792","0.0-9.0-2.0-0.40","4032","2","16","Male","approach_avoid_spark_v1","""event"",""trial"",""time""
""fullscreenenter"",""1"",""2044""
","
","
","""event"",""trial"",""time""
""fullscreenenter"",""1"",""2044""
","
","","","","","","null","<div style=""font-size:60px;"">+</div>","null","","fixation","","","","","","","","","","",""
"aa-learning-trial","153","565794","0.0-9.0-2.0-1.40","4032","2","16","Male","approach_avoid_spark_v1","""event"",""trial"",""time""
""fullscreenenter"",""1"",""2044""
","
","
","""event"",""trial"",""time""
""fullscreenenter"",""1"",""2044""
","
","","","","","","621","images/dog3.png","","","learning","2","2","1","1","dog","pets","2","0","","bad","[-6]"
"html-keyboard-response","154","566295","0.0-9.0-2.0-0.41","4032","2","16","Male","approach_avoid_spark_v1","""event"",""trial"",""time""
""fullscreenenter"",""1"",""2044""
","
","
","""event"",""trial"",""time""
""fullscreenenter"",""1"",""2044""
","
","","","","","","null","<div style=""font-size:60px;"">+</div>","null","","fixation","","","","","","","","","","",""
"aa-learning-trial","155","569297","0.0-9.0-2.0-1.41","4032","2","16","Male","approach_avoid_spark_v1","""event"",""trial"",""time""
""fullscreenenter"",""1"",""2044""
","
","
","""event"",""trial"",""time""
""fullscreenenter"",""1"",""2044""
","
","","","","","","945","images/dog2.png","","","learning","3","3","1","1","dog","pets","2","0","","bad","[-6]"
"html-keyboard-response","156","569799","0.0-9.0-2.0-0.42","4032","2","16","Male","approach_avoid_spark_v1","""event"",""trial"",""time""
""fullscreenenter"",""1"",""2044""
","
","
","""event"",""trial"",""time""
""fullscreenenter"",""1"",""2044""
","
","","","","","","null","<div style=""font-size:60px;"">+</div>","null","","fixation","","","","","","","","","","",""
"aa-learning-trial","157","572800","0.0-9.0-2.0-1.42","4032","2","16","Male","approach_avoid_spark_v1","""event"",""trial"",""time""
""fullscreenenter"",""1"",""2044""
","
","
","""event"",""trial"",""time""
""fullscreenenter"",""1"",""2044""
","
","","","","","","680","images/dog2.png","","","learning","3","3","1","1","dog","pets","2","0","","bad","[-6]"
"html-keyboard-response","158","573302","0.0-9.0-2.0-0.43","4032","2","16","Male","approach_avoid_spark_v1","""event"",""trial"",""time""
""fullscreenenter"",""1"",""2044""
","
","
","""event"",""trial"",""time""
""fullscreenenter"",""1"",""2044""
","
","","","","","","null","<div style=""font-size:60px;"">+</div>","null","","fixation","","","","","","","","","","",""
"aa-learning-trial","159","576304","0.0-9.0-2.0-1.43","4032","2","16","Male","approach_avoid_spark_v1","""event"",""trial"",""time""
""fullscreenenter"",""1"",""2044""
","
","
","""event"",""trial"",""time""
""fullscreenenter"",""1"",""2044""
","
","","","","","","862","images/cat7.png","","","learning","1","0","0","0","cat","pets","2","0","","good","[3]"
"html-keyboard-response","160","576805","0.0-9.0-2.0-0.44","4032","2","16","Male","approach_avoid_spark_v1","""event"",""trial"",""time""
""fullscreenenter"",""1"",""2044""
","
","
","""event"",""trial"",""time""
""fullscreenenter"",""1"",""2044""
","
","","","","","","null","<div style=""font-size:60px;"">+</div>","null","","fixation","","","","","","","","","","",""
"aa-learning-trial","161","579807","0.0-9.0-2.0-1.44","4032","2","16","Male","approach_avoid_spark_v1","""event"",""trial"",""time""
""fullscreenenter"",""1"",""2044""
","
","
","""event"",""trial"",""time""
""fullscreenenter"",""1"",""2044""
","
","","","","","","1304","images/cat6.png","","","learning","7","0","0","0","cat","pets","2","0","","good","[3]"
"html-keyboard-response","162","580308","0.0-9.0-2.0-0.45","4032","2","16","Male","approach_avoid_spark_v1","""event"",""trial"",""time""
""fullscreenenter"",""1"",""2044""
","
","
","""event"",""trial"",""time""
""fullscreenenter"",""1"",""2044""
","
","","","","","","null","<div style=""font-size:60px;"">+</div>","null","","fixation","","","","","","","","","","",""
"aa-learning-trial","163","583310","0.0-9.0-2.0-1.45","4032","2","16","Male","approach_avoid_spark_v1","""event"",""trial"",""time""
""fullscreenenter"",""1"",""2044""
","
","
","""event"",""trial"",""time""
""fullscreenenter"",""1"",""2044""
","
","","","","","","1231","images/rabbit1.png","","","learning","-1","0","0","0","rabbit","pets","2","0","","neutral","0"
"html-keyboard-response","164","583812","0.0-9.0-2.0-0.46","4032","2","16","Male","approach_avoid_spark_v1","""event"",""trial"",""time""
""fullscreenenter"",""1"",""2044""
","
","
","""event"",""trial"",""time""
""fullscreenenter"",""1"",""2044""
","
","","","","","","null","<div style=""font-size:60px;"">+</div>","null","","fixation","","","","","","","","","","",""
"aa-learning-trial","165","586813","0.0-9.0-2.0-1.46","4032","2","16","Male","approach_avoid_spark_v1","""event"",""trial"",""time""
""fullscreenenter"",""1"",""2044""
","
","
","""event"",""trial"",""time""
""fullscreenenter"",""1"",""2044""
","
","","","","","","671","images/dog8.png","","","learning","8","8","1","1","dog","pets","2","0","","bad","[-6]"
"html-keyboard-response","166","587315","0.0-9.0-2.0-0.47","4032","2","16","Male","approach_avoid_spark_v1","""event"",""trial"",""time""
""fullscreenenter"",""1"",""2044""
","
","
","""event"",""trial"",""time""
""fullscreenenter"",""1"",""2044""
","
","","","","","","null","<div style=""font-size:60px;"">+</div>","null","","fixation","","","","","","","","","","",""
"aa-learning-trial","167","590316","0.0-9.0-2.0-1.47","4032","2","16","Male","approach_avoid_spark_v1","""event"",""trial"",""time""
""fullscreenenter"",""1"",""2044""
","
","
","""event"",""trial"",""time""
""fullscreenenter"",""1"",""2044""
","
","","","","","","939.9999999998836","images/rabbit8.png","","","learning","-7","0","0","0","rabbit","pets","2","0","","neutral","0"
"html-keyboard-response","168","590818","0.0-9.0-2.0-0.48","4032","2","16","Male","approach_avoid_spark_v1","""event"",""trial"",""time""
""fullscreenenter"",""1"",""2044""
","
","
","""event"",""trial"",""time""
""fullscreenenter"",""1"",""2044""
","
","","","","","","null","<div style=""font-size:60px;"">+</div>","null","","fixation","","","","","","","","","","",""
"aa-learning-trial","169","593820","0.0-9.0-2.0-1.48","4032","2","16","Male","approach_avoid_spark_v1","""event"",""trial"",""time""
""fullscreenenter"",""1"",""2044""
","
","
","""event"",""trial"",""time""
""fullscreenenter"",""1"",""2044""
","
","","","","","","1691","images/dog7.png","","","learning","-6","-6","1","1","dog","pets","2","0","","bad","[-6]"
"html-keyboard-response","170","594321","0.0-9.0-2.0-0.49","4032","2","16","Male","approach_avoid_spark_v1","""event"",""trial"",""time""
""fullscreenenter"",""1"",""2044""
","
","
","""event"",""trial"",""time""
""fullscreenenter"",""1"",""2044""
","
","","","","","","null","<div style=""font-size:60px;"">+</div>","null","","fixation","","","","","","","","","","",""
"aa-learning-trial","171","597323","0.0-9.0-2.0-1.49","4032","2","16","Male","approach_avoid_spark_v1","""event"",""trial"",""time""
""fullscreenenter"",""1"",""2044""
","
","
","""event"",""trial"",""time""
""fullscreenenter"",""1"",""2044""
","
","","","","","","899","images/cat3.png","","","learning","-4","0","0","0","cat","pets","2","0","","good","[3]"
"html-keyboard-response","172","597825","0.0-9.0-2.0-0.50","4032","2","16","Male","approach_avoid_spark_v1","""event"",""trial"",""time""
""fullscreenenter"",""1"",""2044""
","
","
","""event"",""trial"",""time""
""fullscreenenter"",""1"",""2044""
","
","","","","","","null","<div style=""font-size:60px;"">+</div>","null","","fixation","","","","","","","","","","",""
"aa-learning-trial","173","600827","0.0-9.0-2.0-1.50","4032","2","16","Male","approach_avoid_spark_v1","""event"",""trial"",""time""
""fullscreenenter"",""1"",""2044""
","
","
","""event"",""trial"",""time""
""fullscreenenter"",""1"",""2044""
","
","","","","","","643.0000000001164","images/dog2.png","","","learning","3","3","1","1","dog","pets","2","0","","bad","[-6]"
"html-button-response","174","602776","0.0-9.0-3.0","4032","2","16","Male","approach_avoid_spark_v1","""event"",""trial"",""time""
""fullscreenenter"",""1"",""2044""
","
","
","""event"",""trial"",""time""
""fullscreenenter"",""1"",""2044""
","
","","","","","","1948","<p> You have completed the round! <p> In this round, you earned 44 points! </p>","0","","break","","","","","","","","","","",""
"html-button-response","175","603646","0.0-10.0","4032","2","16","Male","approach_avoid_spark_v1","""event"",""trial"",""time""
""fullscreenenter"",""1"",""2044""
","
","
","""event"",""trial"",""time""
""fullscreenenter"",""1"",""2044""
","
","","","","","","869","<p> Now it's time to play another round. </p>","0","","transition_screen","","","","","","","","","","",""
"preload","176","603754","0.0-11.0-0.0","4032","2","16","Male","approach_avoid_spark_v1","""event"",""trial"",""time""
""fullscreenenter"",""1"",""2044""
","
","
","""event"",""trial"",""time""
""fullscreenenter"",""1"",""2044""
","
","true","false","[]","[]","[]","","","","","","","","","","","","","","","",""
"learning-instructions","177","611598","0.0-11.0-1.0-0.0","4032","2","16","Male","approach_avoid_spark_v1","""event"",""trial"",""time""
""fullscreenenter"",""1"",""2044""
","
","
","""event"",""trial"",""time""
""fullscreenenter"",""1"",""2044""
","
","","","","","","2564","<p> Your goal in this round is to sell different plants to a picky customer. </p></div>","","0","instructions","","","","","","","","","","",""
"learning-instructions","178","621271","0.0-11.0-1.0-0.1","4032","2","16","Male","approach_avoid_spark_v1","""event"",""trial"",""time""
""fullscreenenter"",""1"",""2044""
","
","
","""event"",""trial"",""time""
""fullscreenenter"",""1"",""2044""
","
","","","","","","540","<p> The customer likes some plants and dislikes others.  </p><p> On each turn, you will see a plant.   </p><p> You need to decide whether to offer it to the customer or not.  </p>","","0","instructions","","","","","","","","","","",""
"learning-instructions","179","661417","0.0-11.0-1.0-0.2","4032","2","16","Male","approach_avoid_spark_v1","""event"",""trial"",""time""
""fullscreenenter"",""1"",""2044""
","
","
","""event"",""trial"",""time""
""fullscreenenter"",""1"",""2044""
","
","","","","","","34601","<p> You can offer the plant by pressing 1 and decide to not offer it by pressing 0. </p><br><div class=""choice-instructions-grid""> <div class=""choice-option""><img src=""images/approach.png"" class=""choice-option-img"" stage=""instructions"" position=""0"" ><div class=""choice-option-text""> Press ""1."" </div></div><div class=""choice-option""><img src=""images/avoid.png"" class=""choice-option-img"" stage=""instructions"" position=""1"" ><div class=""choice-option-text""> Press ""0."" </div></div>","","0","instructions","","","","","","","","","","",""
"learning-instructions","180","671889","0.0-11.0-1.0-0.3","4032","2","16","Male","approach_avoid_spark_v1","""event"",""trial"",""time""
""fullscreenenter"",""1"",""2044""
","
","
","""event"",""trial"",""time""
""fullscreenenter"",""1"",""2044""
","
","","","","","","1765","<p> If you offer a plant to the customer that she likes, she will be very pleased! </p><p> But if you offer a plant that she does NOT like, she will be annoyed. </p>","","0","instructions","","","","","","","","","","",""
"learning-instructions","181","684893","0.0-11.0-1.0-0.4","4032","2","16","Male","approach_avoid_spark_v1","""event"",""trial"",""time""
""fullscreenenter"",""1"",""2044""
","
","
","""event"",""trial"",""time""
""fullscreenenter"",""1"",""2044""
","
","","","","","","704","<p> You will earn points based on how you made the customer feel. </p><p> If you made her pleased, you will WIN anywhere from 1 - 9 points, </p><p> but if you made her annoyed, you will LOSE anywhere from 1 - 9 points. </p>","","0","instructions","","","","","","","","","","",""
"learning-instructions","182","692083","0.0-11.0-1.0-0.5","4032","2","16","Male","approach_avoid_spark_v1","""event"",""trial"",""time""
""fullscreenenter"",""1"",""2044""
","
","
","""event"",""trial"",""time""
""fullscreenenter"",""1"",""2044""
","
","","","","","","542","<p> You will see how many points you won or lost in the center of the screen. </p><p> Here is what you would see if you won 5 points: </p><p style=""color:green;font-size:50px;font-weight:bolder"">5</p>","","0","instructions","","","","","","","","","","",""
"learning-instructions","183","698590","0.0-11.0-1.0-0.6","4032","2","16","Male","approach_avoid_spark_v1","""event"",""trial"",""time""
""fullscreenenter"",""1"",""2044""
","
","
","""event"",""trial"",""time""
""fullscreenenter"",""1"",""2044""
","
","","","","","","3675.9999999998836","<p> And here is what you would see if you lost 3 points: </p><p style=""color:red;font-size:50px;font-weight:bolder"">-3</p>","","0","instructions","","","","","","","","","","",""
"learning-instructions","184","713492","0.0-11.0-1.0-0.7","4032","2","16","Male","approach_avoid_spark_v1","""event"",""trial"",""time""
""fullscreenenter"",""1"",""2044""
","
","
","""event"",""trial"",""time""
""fullscreenenter"",""1"",""2044""
","
","","","","","","434.9999999998836","<p> Some plants will make the customer VERY pleased or annoyed. </p><p> These plants will make you win or lose LOTS of points. </p><p> The customer will have less strong feelings about other plants. </p><p> These plants will make you win or lose small amounts of points. </p>","","0","instructions","","","","","","","","","","",""
"learning-instructions","185","727848","0.0-11.0-1.0-0.8","4032","2","16","Male","approach_avoid_spark_v1","""event"",""trial"",""time""
""fullscreenenter"",""1"",""2044""
","
","
","""event"",""trial"",""time""
""fullscreenenter"",""1"",""2044""
","
","","","","","","1026","<p> If you choose to not offer the plant to the customer, you will not win or lose any points. </p><p>  However, in the center of the screen, you will see the number of points you WOULD HAVE won or lost if you had offered the plant. </p>","","0","instructions","","","","","","","","","","",""
"learning-instructions","186","739611","0.0-11.0-1.0-0.9","4032","2","16","Male","approach_avoid_spark_v1","""event"",""trial"",""time""
""fullscreenenter"",""1"",""2044""
","
","
","""event"",""trial"",""time""
""fullscreenenter"",""1"",""2044""
","
","","","","","","535","<p> Here is what you might see if you did not offer the plant but the customer would have liked it: </p><p style=""color:grey; font-size:50px; display: inline-block; border-spacing: 15px; border-width:3px; border-style:solid; border-color:red"">  &nbsp; 6 &nbsp; </p><p> Remember, in this case, you would not win or lose ANY points because you did not offer the plant.  </p>","","0","instructions","","","","","","","","","","",""
"learning-instructions","187","748124","0.0-11.0-1.0-0.10","4032","2","16","Male","approach_avoid_spark_v1","""event"",""trial"",""time""
""fullscreenenter"",""1"",""2044""
","
","
","""event"",""trial"",""time""
""fullscreenenter"",""1"",""2044""
","
","","","","","","1074","<p> Try to make the best choice for each plant because </p><p> at the end of the game, you will earn bonus money based on how many points you earned. </p>","","0","instructions","","","","","","","","","","",""
"learning-instructions","188","756835","0.0-11.0-1.0-0.11","4032","2","16","Male","approach_avoid_spark_v1","""event"",""trial"",""time""
""fullscreenenter"",""1"",""2044""
","
","
","""event"",""trial"",""time""
""fullscreenenter"",""1"",""2044""
","
","","","","","","528","<p> You will have 3 seconds to make each choice. Try to respond before time runs out! </p><p> You will lose 5 points each time you do not make a response. </p>","","0","instructions","","","","","","","","","","",""
"html-keyboard-response","189","757438","0.0-11.0-2.0-0.0","4032","2","16","Male","approach_avoid_spark_v1","""event"",""trial"",""time""
""fullscreenenter"",""1"",""2044""
","
","
","""event"",""trial"",""time""
""fullscreenenter"",""1"",""2044""
","
","","","","","","null","<div style=""font-size:60px;"">+</div>","null","","fixation","","","","","","","","","","",""
"aa-learning-trial","190","760440","0.0-11.0-2.0-1.0","4032","2","16","Male","approach_avoid_spark_v1","""event"",""trial"",""time""
""fullscreenenter"",""1"",""2044""
","
","
","""event"",""trial"",""time""
""fullscreenenter"",""1"",""2044""
","
","","","","","","2269","images/bush5.png","","","learning","-1","-1","1","1","bush","plants","1","1","","bad","[-3]"
"html-keyboard-response","191","760942","0.0-11.0-2.0-0.1","4032","2","16","Male","approach_avoid_spark_v1","""event"",""trial"",""time""
""fullscreenenter"",""1"",""2044""
","
","
","""event"",""trial"",""time""
""fullscreenenter"",""1"",""2044""
","
","","","","","","null","<div style=""font-size:60px;"">+</div>","null","","fixation","","","","","","","","","","",""
"aa-learning-trial","192","763944","0.0-11.0-2.0-1.1","4032","2","16","Male","approach_avoid_spark_v1","""event"",""trial"",""time""
""fullscreenenter"",""1"",""2044""
","
","
","""event"",""trial"",""time""
""fullscreenenter"",""1"",""2044""
","
","","","","","","1052","images/flower7.png","","","learning","-1","0","0","0","flower","plants","1","1","","neutral","0"
"html-keyboard-response","193","764446","0.0-11.0-2.0-0.2","4032","2","16","Male","approach_avoid_spark_v1","""event"",""trial"",""time""
""fullscreenenter"",""1"",""2044""
","
","
","""event"",""trial"",""time""
""fullscreenenter"",""1"",""2044""
","
","","","","","","null","<div style=""font-size:60px;"">+</div>","null","","fixation","","","","","","","","","","",""
"aa-learning-trial","194","767447","0.0-11.0-2.0-1.2","4032","2","16","Male","approach_avoid_spark_v1","""event"",""trial"",""time""
""fullscreenenter"",""1"",""2044""
","
","
","""event"",""trial"",""time""
""fullscreenenter"",""1"",""2044""
","
","","","","","","1077","images/bush5.png","","","learning","-3","0","0","0","bush","plants","1","1","","bad","[-3]"
"html-keyboard-response","195","767949","0.0-11.0-2.0-0.3","4032","2","16","Male","approach_avoid_spark_v1","""event"",""trial"",""time""
""fullscreenenter"",""1"",""2044""
","
","
","""event"",""trial"",""time""
""fullscreenenter"",""1"",""2044""
","
","","","","","","null","<div style=""font-size:60px;"">+</div>","null","","fixation","","","","","","","","","","",""
"aa-learning-trial","196","770950","0.0-11.0-2.0-1.3","4032","2","16","Male","approach_avoid_spark_v1","""event"",""trial"",""time""
""fullscreenenter"",""1"",""2044""
","
","
","""event"",""trial"",""time""
""fullscreenenter"",""1"",""2044""
","
","","","","","","749","images/bush6.png","","","learning","-4","-4","1","1","bush","plants","1","1","","bad","[-3]"
"html-keyboard-response","197","771452","0.0-11.0-2.0-0.4","4032","2","16","Male","approach_avoid_spark_v1","""event"",""trial"",""time""
""fullscreenenter"",""1"",""2044""
","
","
","""event"",""trial"",""time""
""fullscreenenter"",""1"",""2044""
","
","","","","","","null","<div style=""font-size:60px;"">+</div>","null","","fixation","","","","","","","","","","",""
"aa-learning-trial","198","774454","0.0-11.0-2.0-1.4","4032","2","16","Male","approach_avoid_spark_v1","""event"",""trial"",""time""
""fullscreenenter"",""1"",""2044""
","
","
","""event"",""trial"",""time""
""fullscreenenter"",""1"",""2044""
","
","","","","","","950.9999999998836","images/tree4.png","","","learning","5","5","1","1","tree","plants","1","1","","good","[4]"
"html-keyboard-response","199","774955","0.0-11.0-2.0-0.5","4032","2","16","Male","approach_avoid_spark_v1","""event"",""trial"",""time""
""fullscreenenter"",""1"",""2044""
","
","
","""event"",""trial"",""time""
""fullscreenenter"",""1"",""2044""
","
","","","","","","null","<div style=""font-size:60px;"">+</div>","null","","fixation","","","","","","","","","","",""
"aa-learning-trial","200","777957","0.0-11.0-2.0-1.5","4032","2","16","Male","approach_avoid_spark_v1","""event"",""trial"",""time""
""fullscreenenter"",""1"",""2044""
","
","
","""event"",""trial"",""time""
""fullscreenenter"",""1"",""2044""
","
","","","","","","1047","images/flower8.png","","","learning","2","0","0","0","flower","plants","1","1","","neutral","0"
"html-keyboard-response","201","778458","0.0-11.0-2.0-0.6","4032","2","16","Male","approach_avoid_spark_v1","""event"",""trial"",""time""
""fullscreenenter"",""1"",""2044""
","
","
","""event"",""trial"",""time""
""fullscreenenter"",""1"",""2044""
","
","","","","","","null","<div style=""font-size:60px;"">+</div>","null","","fixation","","","","","","","","","","",""
"aa-learning-trial","202","781460","0.0-11.0-2.0-1.6","4032","2","16","Male","approach_avoid_spark_v1","""event"",""trial"",""time""
""fullscreenenter"",""1"",""2044""
","
","
","""event"",""trial"",""time""
""fullscreenenter"",""1"",""2044""
","
","","","","","","1003","images/tree5.png","","","learning","1","1","1","1","tree","plants","1","1","","good","[4]"
"html-keyboard-response","203","781962","0.0-11.0-2.0-0.7","4032","2","16","Male","approach_avoid_spark_v1","""event"",""trial"",""time""
""fullscreenenter"",""1"",""2044""
","
","
","""event"",""trial"",""time""
""fullscreenenter"",""1"",""2044""
","
","","","","","","null","<div style=""font-size:60px;"">+</div>","null","","fixation","","","","","","","","","","",""
"aa-learning-trial","204","784963","0.0-11.0-2.0-1.7","4032","2","16","Male","approach_avoid_spark_v1","""event"",""trial"",""time""
""fullscreenenter"",""1"",""2044""
","
","
","""event"",""trial"",""time""
""fullscreenenter"",""1"",""2044""
","
","","","","","","1275.0000000001164","images/bush2.png","","","learning","-3","0","0","0","bush","plants","1","1","","bad","[-3]"
"html-keyboard-response","205","785465","0.0-11.0-2.0-0.8","4032","2","16","Male","approach_avoid_spark_v1","""event"",""trial"",""time""
""fullscreenenter"",""1"",""2044""
","
","
","""event"",""trial"",""time""
""fullscreenenter"",""1"",""2044""
","
","","","","","","null","<div style=""font-size:60px;"">+</div>","null","","fixation","","","","","","","","","","",""
"aa-learning-trial","206","788466","0.0-11.0-2.0-1.8","4032","2","16","Male","approach_avoid_spark_v1","""event"",""trial"",""time""
""fullscreenenter"",""1"",""2044""
","
","
","""event"",""trial"",""time""
""fullscreenenter"",""1"",""2044""
","
","","","","","","972","images/flower2.png","","","learning","-3","-3","1","1","flower","plants","1","1","","neutral","0"
"html-keyboard-response","207","788968","0.0-11.0-2.0-0.9","4032","2","16","Male","approach_avoid_spark_v1","""event"",""trial"",""time""
""fullscreenenter"",""1"",""2044""
","
","
","""event"",""trial"",""time""
""fullscreenenter"",""1"",""2044""
","
","","","","","","null","<div style=""font-size:60px;"">+</div>","null","","fixation","","","","","","","","","","",""
"aa-learning-trial","208","791969","0.0-11.0-2.0-1.9","4032","2","16","Male","approach_avoid_spark_v1","""event"",""trial"",""time""
""fullscreenenter"",""1"",""2044""
","
","
","""event"",""trial"",""time""
""fullscreenenter"",""1"",""2044""
","
","","","","","","596","images/tree3.png","","","learning","5","0","0","0","tree","plants","1","1","","good","[4]"
"html-keyboard-response","209","792471","0.0-11.0-2.0-0.10","4032","2","16","Male","approach_avoid_spark_v1","""event"",""trial"",""time""
""fullscreenenter"",""1"",""2044""
","
","
","""event"",""trial"",""time""
""fullscreenenter"",""1"",""2044""
","
","","","","","","null","<div style=""font-size:60px;"">+</div>","null","","fixation","","","","","","","","","","",""
"aa-learning-trial","210","795473","0.0-11.0-2.0-1.10","4032","2","16","Male","approach_avoid_spark_v1","""event"",""trial"",""time""
""fullscreenenter"",""1"",""2044""
","
","
","""event"",""trial"",""time""
""fullscreenenter"",""1"",""2044""
","
","","","","","","1082.0000000001164","images/tree4.png","","","learning","4","4","1","1","tree","plants","1","1","","good","[4]"
"html-keyboard-response","211","795975","0.0-11.0-2.0-0.11","4032","2","16","Male","approach_avoid_spark_v1","""event"",""trial"",""time""
""fullscreenenter"",""1"",""2044""
","
","
","""event"",""trial"",""time""
""fullscreenenter"",""1"",""2044""
","
","","","","","","null","<div style=""font-size:60px;"">+</div>","null","","fixation","","","","","","","","","","",""
"aa-learning-trial","212","798976","0.0-11.0-2.0-1.11","4032","2","16","Male","approach_avoid_spark_v1","""event"",""trial"",""time""
""fullscreenenter"",""1"",""2044""
","
","
","""event"",""trial"",""time""
""fullscreenenter"",""1"",""2044""
","
","","","","","","914","images/flower2.png","","","learning","-2","0","0","0","flower","plants","1","1","","neutral","0"
"html-keyboard-response","213","799478","0.0-11.0-2.0-0.12","4032","2","16","Male","approach_avoid_spark_v1","""event"",""trial"",""time""
""fullscreenenter"",""1"",""2044""
","
","
","""event"",""trial"",""time""
""fullscreenenter"",""1"",""2044""
","
","","","","","","null","<div style=""font-size:60px;"">+</div>","null","","fixation","","","","","","","","","","",""
"aa-learning-trial","214","802479","0.0-11.0-2.0-1.12","4032","2","16","Male","approach_avoid_spark_v1","""event"",""trial"",""time""
""fullscreenenter"",""1"",""2044""
","
","
","""event"",""trial"",""time""
""fullscreenenter"",""1"",""2044""
","
","","","","","","803","images/flower8.png","","","learning","[-1]","0","0","0","flower","plants","1","1","","neutral","0"
"html-keyboard-response","215","802981","0.0-11.0-2.0-0.13","4032","2","16","Male","approach_avoid_spark_v1","""event"",""trial"",""time""
""fullscreenenter"",""1"",""2044""
","
","
","""event"",""trial"",""time""
""fullscreenenter"",""1"",""2044""
","
","","","","","","null","<div style=""font-size:60px;"">+</div>","null","","fixation","","","","","","","","","","",""
"aa-learning-trial","216","805982","0.0-11.0-2.0-1.13","4032","2","16","Male","approach_avoid_spark_v1","""event"",""trial"",""time""
""fullscreenenter"",""1"",""2044""
","
","
","""event"",""trial"",""time""
""fullscreenenter"",""1"",""2044""
","
","","","","","","1093.9999999998836","images/tree3.png","","","learning","6","0","0","0","tree","plants","1","1","","good","[4]"
"html-keyboard-response","217","806484","0.0-11.0-2.0-0.14","4032","2","16","Male","approach_avoid_spark_v1","""event"",""trial"",""time""
""fullscreenenter"",""1"",""2044""
","
","
","""event"",""trial"",""time""
""fullscreenenter"",""1"",""2044""
","
","","","","","","null","<div style=""font-size:60px;"">+</div>","null","","fixation","","","","","","","","","","",""
"aa-learning-trial","218","809485","0.0-11.0-2.0-1.14","4032","2","16","Male","approach_avoid_spark_v1","""event"",""trial"",""time""
""fullscreenenter"",""1"",""2044""
","
","
","""event"",""trial"",""time""
""fullscreenenter"",""1"",""2044""
","
","","","","","","1677","images/bush6.png","","","learning","-5","0","0","0","bush","plants","1","1","","bad","[-3]"
"html-keyboard-response","219","809987","0.0-11.0-2.0-0.15","4032","2","16","Male","approach_avoid_spark_v1","""event"",""trial"",""time""
""fullscreenenter"",""1"",""2044""
","
","
","""event"",""trial"",""time""
""fullscreenenter"",""1"",""2044""
","
","","","","","","null","<div style=""font-size:60px;"">+</div>","null","","fixation","","","","","","","","","","",""
"aa-learning-trial","220","812989","0.0-11.0-2.0-1.15","4032","2","16","Male","approach_avoid_spark_v1","""event"",""trial"",""time""
""fullscreenenter"",""1"",""2044""
","
","
","""event"",""trial"",""time""
""fullscreenenter"",""1"",""2044""
","
","","","","","","827","images/tree4.png","","","learning","6","6","1","1","tree","plants","1","1","","good","[4]"
"html-keyboard-response","221","813490","0.0-11.0-2.0-0.16","4032","2","16","Male","approach_avoid_spark_v1","""event"",""trial"",""time""
""fullscreenenter"",""1"",""2044""
","
","
","""event"",""trial"",""time""
""fullscreenenter"",""1"",""2044""
","
","","","","","","null","<div style=""font-size:60px;"">+</div>","null","","fixation","","","","","","","","","","",""
"aa-learning-trial","222","816492","0.0-11.0-2.0-1.16","4032","2","16","Male","approach_avoid_spark_v1","""event"",""trial"",""time""
""fullscreenenter"",""1"",""2044""
","
","
","""event"",""trial"",""time""
""fullscreenenter"",""1"",""2044""
","
","","","","","","1123.9999999998836","images/tree7.png","","","learning","5","0","0","0","tree","plants","1","1","","good","[4]"
"html-keyboard-response","223","816994","0.0-11.0-2.0-0.17","4032","2","16","Male","approach_avoid_spark_v1","""event"",""trial"",""time""
""fullscreenenter"",""1"",""2044""
","
","
","""event"",""trial"",""time""
""fullscreenenter"",""1"",""2044""
","
","","","","","","null","<div style=""font-size:60px;"">+</div>","null","","fixation","","","","","","","","","","",""
"aa-learning-trial","224","819995","0.0-11.0-2.0-1.17","4032","2","16","Male","approach_avoid_spark_v1","""event"",""trial"",""time""
""fullscreenenter"",""1"",""2044""
","
","
","""event"",""trial"",""time""
""fullscreenenter"",""1"",""2044""
","
","","","","","","711","images/flower8.png","","","learning","-2","0","0","0","flower","plants","1","1","","neutral","0"
"html-keyboard-response","225","820497","0.0-11.0-2.0-0.18","4032","2","16","Male","approach_avoid_spark_v1","""event"",""trial"",""time""
""fullscreenenter"",""1"",""2044""
","
","
","""event"",""trial"",""time""
""fullscreenenter"",""1"",""2044""
","
","","","","","","null","<div style=""font-size:60px;"">+</div>","null","","fixation","","","","","","","","","","",""
"aa-learning-trial","226","823498","0.0-11.0-2.0-1.18","4032","2","16","Male","approach_avoid_spark_v1","""event"",""trial"",""time""
""fullscreenenter"",""1"",""2044""
","
","
","""event"",""trial"",""time""
""fullscreenenter"",""1"",""2044""
","
","","","","","","982","images/flower2.png","","","learning","-1","0","0","0","flower","plants","1","1","","neutral","0"
"html-keyboard-response","227","824000","0.0-11.0-2.0-0.19","4032","2","16","Male","approach_avoid_spark_v1","""event"",""trial"",""time""
""fullscreenenter"",""1"",""2044""
","
","
","""event"",""trial"",""time""
""fullscreenenter"",""1"",""2044""
","
","","","","","","null","<div style=""font-size:60px;"">+</div>","null","","fixation","","","","","","","","","","",""
"aa-learning-trial","228","827001","0.0-11.0-2.0-1.19","4032","2","16","Male","approach_avoid_spark_v1","""event"",""trial"",""time""
""fullscreenenter"",""1"",""2044""
","
","
","""event"",""trial"",""time""
""fullscreenenter"",""1"",""2044""
","
","","","","","","1373","images/bush5.png","","","learning","-3","-3","1","1","bush","plants","1","1","","bad","[-3]"
"html-keyboard-response","229","827502","0.0-11.0-2.0-0.20","4032","2","16","Male","approach_avoid_spark_v1","""event"",""trial"",""time""
""fullscreenenter"",""1"",""2044""
","
","
","""event"",""trial"",""time""
""fullscreenenter"",""1"",""2044""
","
","","","","","","null","<div style=""font-size:60px;"">+</div>","null","","fixation","","","","","","","","","","",""
"aa-learning-trial","230","830504","0.0-11.0-2.0-1.20","4032","2","16","Male","approach_avoid_spark_v1","""event"",""trial"",""time""
""fullscreenenter"",""1"",""2044""
","
","
","""event"",""trial"",""time""
""fullscreenenter"",""1"",""2044""
","
","","","","","","1161.0000000001164","images/bush6.png","","","learning","-6","-6","1","1","bush","plants","1","1","","bad","[-3]"
"html-keyboard-response","231","831006","0.0-11.0-2.0-0.21","4032","2","16","Male","approach_avoid_spark_v1","""event"",""trial"",""time""
""fullscreenenter"",""1"",""2044""
","
","
","""event"",""trial"",""time""
""fullscreenenter"",""1"",""2044""
","
","","","","","","null","<div style=""font-size:60px;"">+</div>","null","","fixation","","","","","","","","","","",""
"aa-learning-trial","232","834008","0.0-11.0-2.0-1.21","4032","2","16","Male","approach_avoid_spark_v1","""event"",""trial"",""time""
""fullscreenenter"",""1"",""2044""
","
","
","""event"",""trial"",""time""
""fullscreenenter"",""1"",""2044""
","
","","","","","","980","images/flower7.png","","","learning","3","0","0","0","flower","plants","1","1","","neutral","0"
"html-keyboard-response","233","834509","0.0-11.0-2.0-0.22","4032","2","16","Male","approach_avoid_spark_v1","""event"",""trial"",""time""
""fullscreenenter"",""1"",""2044""
","
","
","""event"",""trial"",""time""
""fullscreenenter"",""1"",""2044""
","
","","","","","","null","<div style=""font-size:60px;"">+</div>","null","","fixation","","","","","","","","","","",""
"aa-learning-trial","234","837511","0.0-11.0-2.0-1.22","4032","2","16","Male","approach_avoid_spark_v1","""event"",""trial"",""time""
""fullscreenenter"",""1"",""2044""
","
","
","""event"",""trial"",""time""
""fullscreenenter"",""1"",""2044""
","
","","","","","","958","images/tree5.png","","","learning","4","0","0","0","tree","plants","1","1","","good","[4]"
"html-keyboard-response","235","838013","0.0-11.0-2.0-0.23","4032","2","16","Male","approach_avoid_spark_v1","""event"",""trial"",""time""
""fullscreenenter"",""1"",""2044""
","
","
","""event"",""trial"",""time""
""fullscreenenter"",""1"",""2044""
","
","","","","","","null","<div style=""font-size:60px;"">+</div>","null","","fixation","","","","","","","","","","",""
"aa-learning-trial","236","841016","0.0-11.0-2.0-1.23","4032","2","16","Male","approach_avoid_spark_v1","""event"",""trial"",""time""
""fullscreenenter"",""1"",""2044""
","
","
","""event"",""trial"",""time""
""fullscreenenter"",""1"",""2044""
","
","","","","","","664.9999999998836","images/flower8.png","","","learning","2","0","0","0","flower","plants","1","1","","neutral","0"
"html-keyboard-response","237","841516","0.0-11.0-2.0-0.24","4032","2","16","Male","approach_avoid_spark_v1","""event"",""trial"",""time""
""fullscreenenter"",""1"",""2044""
","
","
","""event"",""trial"",""time""
""fullscreenenter"",""1"",""2044""
","
","","","","","","null","<div style=""font-size:60px;"">+</div>","null","","fixation","","","","","","","","","","",""
"aa-learning-trial","238","844518","0.0-11.0-2.0-1.24","4032","2","16","Male","approach_avoid_spark_v1","""event"",""trial"",""time""
""fullscreenenter"",""1"",""2044""
","
","
","""event"",""trial"",""time""
""fullscreenenter"",""1"",""2044""
","
","","","","","","859","images/bush6.png","","","learning","-2","0","0","0","bush","plants","1","1","","bad","[-3]"
"html-keyboard-response","239","845019","0.0-11.0-2.0-0.25","4032","2","16","Male","approach_avoid_spark_v1","""event"",""trial"",""time""
""fullscreenenter"",""1"",""2044""
","
","
","""event"",""trial"",""time""
""fullscreenenter"",""1"",""2044""
","
","","","","","","null","<div style=""font-size:60px;"">+</div>","null","","fixation","","","","","","","","","","",""
"aa-learning-trial","240","848021","0.0-11.0-2.0-1.25","4032","2","16","Male","approach_avoid_spark_v1","""event"",""trial"",""time""
""fullscreenenter"",""1"",""2044""
","
","
","""event"",""trial"",""time""
""fullscreenenter"",""1"",""2044""
","
","","","","","","1187","images/tree3.png","","","learning","3","3","1","1","tree","plants","1","1","","good","[4]"
"html-keyboard-response","241","848522","0.0-11.0-2.0-0.26","4032","2","16","Male","approach_avoid_spark_v1","""event"",""trial"",""time""
""fullscreenenter"",""1"",""2044""
","
","
","""event"",""trial"",""time""
""fullscreenenter"",""1"",""2044""
","
