"trial_type","trial_index","time_elapsed","internal_node_id","subject_id","task_condition","age","gender","task_version","interactions","blur_events","focus_events","fullscreenenter_events","fullscreenexit_events","success","timeout","failed_images","failed_audio","failed_video","rt","stimulus","response","button_pressed","task_part","approach_reward","points","key_press","option_selected","stim_cat","task_block","block_condition","block_number","correct","cat_type","mean_cat_reward"
"pavlovia","0","3","0.0-0.0","7196","2","12","Male","approach_avoid_spark_v1","""event"",""trial"",""time""
""fullscreenenter"",""1"",""10121""
","
","
","""event"",""trial"",""time""
""fullscreenenter"",""1"",""10121""
","
","","","","","","","","","","","","","","","","","","","","",""
"fullscreen","1","11077","0.0-1.0","7196","2","12","Male","approach_avoid_spark_v1","""event"",""trial"",""time""
""fullscreenenter"",""1"",""10121""
","
","
","""event"",""trial"",""time""
""fullscreenenter"",""1"",""10121""
","
","true","","","","","","","","","","","","","","","","","","","",""
"preload","2","32497","0.0-2.0","7196","2","12","Male","approach_avoid_spark_v1","""event"",""trial"",""time""
""fullscreenenter"",""1"",""10121""
","
","
","""event"",""trial"",""time""
""fullscreenenter"",""1"",""10121""
","
","true","false","[]","[]","[]","","","","","","","","","","","","","","","",""
"audio-keyboard-response","3","36485","0.0-3.0","7196","2","12","Male","approach_avoid_spark_v1","""event"",""trial"",""time""
""fullscreenenter"",""1"",""10121""
","
","
","""event"",""trial"",""time""
""fullscreenenter"",""1"",""10121""
","
","","","","","","3989.3333333333308","audio/beep_loop.wav"," ","","","","","","","","","","","","",""
"audio-button-response","4","39557","0.0-4.0","7196","2","12","Male","approach_avoid_spark_v1","""event"",""trial"",""time""
""fullscreenenter"",""1"",""10121""
","
","
","""event"",""trial"",""time""
""fullscreenenter"",""1"",""10121""
","
","","","","","","3069","audio/shark.wav","4","","","","","","","","","","","","",""
"audio-button-response","5","42231","0.0-5.0","7196","2","12","Male","approach_avoid_spark_v1","""event"",""trial"",""time""
""fullscreenenter"",""1"",""10121""
","
","
","""event"",""trial"",""time""
""fullscreenenter"",""1"",""10121""
","
","","","","","","1661","audio/turtle.wav","1","","","","","","","","","","","","",""
"preload","6","56773","0.0-6.0","7196","2","12","Male","approach_avoid_spark_v1","""event"",""trial"",""time""
""fullscreenenter"",""1"",""10121""
","
","
","""event"",""trial"",""time""
""fullscreenenter"",""1"",""10121""
","
","true","false","[]","[]","[]","","","","","","","","","","","","","","","",""
"html-keyboard-response","7","60973","0.0-7.0","7196","2","12","Male","approach_avoid_spark_v1","""event"",""trial"",""time""
""fullscreenenter"",""1"",""10121""
","
","
","""event"",""trial"",""time""
""fullscreenenter"",""1"",""10121""
","
","","","","","","4194.099999904633","Welcome to the experiment. Press any key to begin and to advance the instructions."," ","","","","","","","","","","","","",""
"learning-instructions","8","70030","0.0-8.0-0.0-0.0","7196","2","12","Male","approach_avoid_spark_v1","""event"",""trial"",""time""
""fullscreenenter"",""1"",""10121""
","
","
","""event"",""trial"",""time""
""fullscreenenter"",""1"",""10121""
","
","","","","","","2102.100000143051","<p> Welcome! Today you are going to play 6 different rounds of a decision-making game. </p><p> Use the mouse to click next to continue. </p>","","0","instructions","","","","","","","","","","",""
"learning-instructions","9","74088","0.0-8.0-0.0-0.1","7196","2","12","Male","approach_avoid_spark_v1","""event"",""trial"",""time""
""fullscreenenter"",""1"",""10121""
","
","
","""event"",""trial"",""time""
""fullscreenenter"",""1"",""10121""
","
","","","","","","1321.1000001430511","<p> You will start with a practice round to learn the rules. </p>","","0","instructions","","","","","","","","","","",""
"learning-instructions","10","78288","0.0-8.0-0.0-0.2","7196","2","12","Male","approach_avoid_spark_v1","""event"",""trial"",""time""
""fullscreenenter"",""1"",""10121""
","
","
","""event"",""trial"",""time""
""fullscreenenter"",""1"",""10121""
","
","","","","","","740.6000001430511","<p> Your goal in this round is to give out sports equipment to kids. </p></div>","","0","instructions","","","","","","","","","","",""
"learning-instructions","11","86398","0.0-8.0-0.0-0.3","7196","2","12","Male","approach_avoid_spark_v1","""event"",""trial"",""time""
""fullscreenenter"",""1"",""10121""
","
","
","""event"",""trial"",""time""
""fullscreenenter"",""1"",""10121""
","
","","","","","","551.3999998569489","<p> The kids only like some of the equipment.  </p><p> On each turn, you will see a piece of sports equipment.   </p><p> You need to decide whether to give it to the kids or not.  </p>","","0","instructions","","","","","","","","","","",""
"learning-instructions","12","91908","0.0-8.0-0.0-0.4","7196","2","12","Male","approach_avoid_spark_v1","""event"",""trial"",""time""
""fullscreenenter"",""1"",""10121""
","
","
","""event"",""trial"",""time""
""fullscreenenter"",""1"",""10121""
","
","","","","","","740.5999999046326","<p> You can give them the equipment by pressing 1 and choose not to give it to them by pressing 0. </p><br><div class=""choice-instructions-grid""> <div class=""choice-option""><img src=""images/approach.png"" class=""choice-option-img"" stage=""instructions"" position=""0"" ><div class=""choice-option-text""> Press ""1."" </div></div><div class=""choice-option""><img src=""images/avoid.png"" class=""choice-option-img"" stage=""instructions"" position=""1"" ><div class=""choice-option-text""> Press ""0."" </div></div>","","0","instructions","","","","","","","","","","",""
"learning-instructions","13","99801","0.0-8.0-0.0-0.5","7196","2","12","Male","approach_avoid_spark_v1","""event"",""trial"",""time""
""fullscreenenter"",""1"",""10121""
","
","
","""event"",""trial"",""time""
""fullscreenenter"",""1"",""10121""
","
","","","","","","503.2999999523163","<p> If you give them a piece of equipment they like, they will be happy! </p><p> But if you give them a piece of equipment they do not like, they will be sad. </p>","","0","instructions","","","","","","","","","","",""
"learning-instructions","14","111059","0.0-8.0-0.0-0.6","7196","2","12","Male","approach_avoid_spark_v1","""event"",""trial"",""time""
""fullscreenenter"",""1"",""10121""
","
","
","""event"",""trial"",""time""
""fullscreenenter"",""1"",""10121""
","
","","","","","","731.2999999523163","<p> You will earn points based on how you make kids feel. </p><p> If you make them happy, you will WIN anywhere from 1 - 9 points, </p><p> but if you make them sad, you will LOSE anywhere from 1 - 9 points. </p>","","0","instructions","","","","","","","","","","",""
"learning-instructions","15","120939","0.0-8.0-0.0-0.7","7196","2","12","Male","approach_avoid_spark_v1","""event"",""trial"",""time""
""fullscreenenter"",""1"",""10121""
","
","
","""event"",""trial"",""time""
""fullscreenenter"",""1"",""10121""
","
","","","","","","311.2000000476837","<p> You will see how many points you won or lost in the center of the screen. </p><p> Here is what you would see if you won 6 points: </p><p style=""color:green;font-size:50px;font-weight:bolder"">6</p><p style=""color:green"">The text is GREEN because you WON points.</p>","","0","instructions","","","","","","","","","","",""
"learning-instructions","16","126929","0.0-8.0-0.0-0.8","7196","2","12","Male","approach_avoid_spark_v1","""event"",""trial"",""time""
""fullscreenenter"",""1"",""10121""
","
","
","""event"",""trial"",""time""
""fullscreenenter"",""1"",""10121""
","
","","","","","","484.09999990463257","<p> And here is what you would see if you lost 4 points: </p><p style=""color:red;font-size:50px;font-weight:bolder"">-4</p><p style=""color:red"">The text is RED because you LOST points. </p>","","0","instructions","","","","","","","","","","",""
"learning-instructions","17","142264","0.0-8.0-0.0-0.9","7196","2","12","Male","approach_avoid_spark_v1","""event"",""trial"",""time""
""fullscreenenter"",""1"",""10121""
","
","
","""event"",""trial"",""time""
""fullscreenenter"",""1"",""10121""
","
","","","","","","619.4000000953674","<p> Some of the equipment will make the kids VERY happy or sad. </p><p> These pieces of equipment will make you win or lose LOTS of points. </p><p> Other pieces of equipment will only make the kids a little happy or sad. </p><p> These pieces of equipment will make you win or lose small amounts of points. </p>","","0","instructions","","","","","","","","","","",""
"learning-instructions","18","153491","0.0-8.0-0.0-0.10","7196","2","12","Male","approach_avoid_spark_v1","""event"",""trial"",""time""
""fullscreenenter"",""1"",""10121""
","
","
","""event"",""trial"",""time""
""fullscreenenter"",""1"",""10121""
","
","","","","","","586.7999999523163","<p> If you choose not to give them the equipment, you will not win or lose any points. </p><p>  However, in the center of the screen, you will see the number of points you WOULD HAVE won or lost if you had given them the equipment. </p>","","0","instructions","","","","","","","","","","",""
"learning-instructions","19","176100","0.0-8.0-0.0-0.11","7196","2","12","Male","approach_avoid_spark_v1","""event"",""trial"",""time""
""fullscreenenter"",""1"",""10121""
","
","
","""event"",""trial"",""time""
""fullscreenenter"",""1"",""10121""
","
","","","","","","1085.2999999523163","<p> Here is what you might see if you did not give the equipment to the kids but it would have made them happy: </p><p style=""color:grey; font-size:50px; display: inline-block; border-spacing: 15px; border-width:3px; border-style:solid; border-color:red"">  &nbsp; 7 &nbsp; </p><p> Remember, in this case, you would not win or lose ANY points because you did not give them the equipment.  </p><p style=""color:grey"">The text is GREY because you earned ZERO points. </p><p style=""color:red"">However, choosing to give the kids the equipment would have made you win points. The box around the text is RED because you chose the worse option. </p>","","0","instructions","","","","","","","","","","",""
"learning-instructions","20","198206","0.0-8.0-0.0-0.12","7196","2","12","Male","approach_avoid_spark_v1","""event"",""trial"",""time""
""fullscreenenter"",""1"",""10121""
","
","
","""event"",""trial"",""time""
""fullscreenenter"",""1"",""10121""
","
","","","","","","1029.5","<p> Here is what you might see if you did not give the equipment to the kids but it would have made them sad: </p><p style=""color:grey;font-size:50px; display: inline-block; border-spacing: 15px; border-width:3px; border-style:solid; border-color:green"">  &nbsp; -8 &nbsp; </p><p> Remember, in this case, you would not win or lose ANY points because you did not give them the equipment.  </p><p style=""color:grey"">The text is GREY because you earned ZERO points. </p><p  style=""color:green""> Choosing to give the kids the equipment would have made you lose points. The box around the text is GREEN because you chose the better option.</p>","","0","instructions","","","","","","","","","","",""
"learning-instructions","21","209084","0.0-8.0-0.0-0.13","7196","2","12","Male","approach_avoid_spark_v1","""event"",""trial"",""time""
""fullscreenenter"",""1"",""10121""
","
","
","""event"",""trial"",""time""
""fullscreenenter"",""1"",""10121""
","
","","","","","","1117.7999999523163","<p> You will have 3 seconds to make each choice. Try to respond before time runs out! </p><p> You will lose 5 points each time you do not make a response. </p>","","0","instructions","","","","","","","","","","",""
"learning-instructions","22","215191","0.0-8.0-0.0-0.14","7196","2","12","Male","approach_avoid_spark_v1","""event"",""trial"",""time""
""fullscreenenter"",""1"",""10121""
","
","
","""event"",""trial"",""time""
""fullscreenenter"",""1"",""10121""
","
","","","","","","695.0999999046326","<p> This is just a practice round, but in the real game, your bonus payment will depend on your total number of points.","","0","instructions","","","","","","","","","","",""
"learning-instructions","23","221427","0.0-8.0-0.0-0.15","7196","2","12","Male","approach_avoid_spark_v1","""event"",""trial"",""time""
""fullscreenenter"",""1"",""10121""
","
","
","""event"",""trial"",""time""
""fullscreenenter"",""1"",""10121""
","
","","","","","","470.60000014305115","<p> Remember, you can give them the equipment by pressing 1 and choose not to give it to them by pressing 0. </p><br><div class=""choice-instructions-grid""> <div class=""choice-option""><img src=""images/approach.png"" class=""choice-option-img"" stage=""instructions"" position=""0"" ><div class=""choice-option-text""> Press ""1."" </div></div><div class=""choice-option""><img src=""images/avoid.png"" class=""choice-option-img"" stage=""instructions"" position=""1"" ><div class=""choice-option-text""> Press ""0."" </div></div>","","0","instructions","","","","","","","","","","",""
"html-button-response","24","222928","0.0-8.0-1.0","7196","2","12","Male","approach_avoid_spark_v1","""event"",""trial"",""time""
""fullscreenenter"",""1"",""10121""
","
","
","""event"",""trial"",""time""
""fullscreenenter"",""1"",""10121""
","
","","","","","","1392.9000000953674","<p> Ready to practice? </p>","0","","","","","","","","","","","","",""
"html-keyboard-response","25","223564","0.0-8.0-2.0-0.0","7196","2","12","Male","approach_avoid_spark_v1","""event"",""trial"",""time""
""fullscreenenter"",""1"",""10121""
","
","
","""event"",""trial"",""time""
""fullscreenenter"",""1"",""10121""
","
","","","","","","null","<div style=""font-size:60px;"">+</div>","null","","fixation","","","","","","","","","","",""
"aa-learning-trial","26","226574","0.0-8.0-2.0-1.0","7196","2","12","Male","approach_avoid_spark_v1","""event"",""trial"",""time""
""fullscreenenter"",""1"",""10121""
","
","
","""event"",""trial"",""time""
""fullscreenenter"",""1"",""10121""
","
","","","","","","null","images/ball2.png","","","learning","6","-5","","null","practice","practice","practice","-1","","",""
"html-keyboard-response","27","227076","0.0-8.0-2.0-0.1","7196","2","12","Male","approach_avoid_spark_v1","""event"",""trial"",""time""
""fullscreenenter"",""1"",""10121""
","
","
","""event"",""trial"",""time""
""fullscreenenter"",""1"",""10121""
","
","","","","","","null","<div style=""font-size:60px;"">+</div>","null","","fixation","","","","","","","","","","",""
"aa-learning-trial","28","230084","0.0-8.0-2.0-1.1","7196","2","12","Male","approach_avoid_spark_v1","""event"",""trial"",""time""
""fullscreenenter"",""1"",""10121""
","
","
","""event"",""trial"",""time""
""fullscreenenter"",""1"",""10121""
","
","","","","","","2819.7999999523163","images/racket2.png","","","learning","8","8","1","1","practice","practice","practice","-1","","",""
"html-keyboard-response","29","230595","0.0-8.0-2.0-0.2","7196","2","12","Male","approach_avoid_spark_v1","""event"",""trial"",""time""
""fullscreenenter"",""1"",""10121""
","
","
","""event"",""trial"",""time""
""fullscreenenter"",""1"",""10121""
","
","","","","","","null","<div style=""font-size:60px;"">+</div>","null","","fixation","","","","","","","","","","",""
"aa-learning-trial","30","233611","0.0-8.0-2.0-1.2","7196","2","12","Male","approach_avoid_spark_v1","""event"",""trial"",""time""
""fullscreenenter"",""1"",""10121""
","
","
","""event"",""trial"",""time""
""fullscreenenter"",""1"",""10121""
","
","","","","","","1469.6000001430511","images/racket4.png","","","learning","-7","-7","1","1","practice","practice","practice","-1","","",""
"html-keyboard-response","31","234125","0.0-8.0-2.0-0.3","7196","2","12","Male","approach_avoid_spark_v1","""event"",""trial"",""time""
""fullscreenenter"",""1"",""10121""
","
","
","""event"",""trial"",""time""
""fullscreenenter"",""1"",""10121""
","
","","","","","","null","<div style=""font-size:60px;"">+</div>","null","","fixation","","","","","","","","","","",""
"aa-learning-trial","32","237134","0.0-8.0-2.0-1.3","7196","2","12","Male","approach_avoid_spark_v1","""event"",""trial"",""time""
""fullscreenenter"",""1"",""10121""
","
","
","""event"",""trial"",""time""
""fullscreenenter"",""1"",""10121""
","
","","","","","","1119.2000000476837","images/ball1.png","","","learning","-8","-8","1","1","practice","practice","practice","-1","","",""
"html-keyboard-response","33","237647","0.0-8.0-2.0-0.4","7196","2","12","Male","approach_avoid_spark_v1","""event"",""trial"",""time""
""fullscreenenter"",""1"",""10121""
","
","
","""event"",""trial"",""time""
""fullscreenenter"",""1"",""10121""
","
","","","","","","null","<div style=""font-size:60px;"">+</div>","null","","fixation","","","","","","","","","","",""
"aa-learning-trial","34","240654","0.0-8.0-2.0-1.4","7196","2","12","Male","approach_avoid_spark_v1","""event"",""trial"",""time""
""fullscreenenter"",""1"",""10121""
","
","
","""event"",""trial"",""time""
""fullscreenenter"",""1"",""10121""
","
","","","","","","1481.7999999523163","images/racket2.png","","","learning","-6","-6","1","1","practice","practice","practice","-1","","",""
"html-keyboard-response","35","241164","0.0-8.0-2.0-0.5","7196","2","12","Male","approach_avoid_spark_v1","""event"",""trial"",""time""
""fullscreenenter"",""1"",""10121""
","
","
","""event"",""trial"",""time""
""fullscreenenter"",""1"",""10121""
","
","","","","","","null","<div style=""font-size:60px;"">+</div>","null","","fixation","","","","","","","","","","",""
"aa-learning-trial","36","244173","0.0-8.0-2.0-1.5","7196","2","12","Male","approach_avoid_spark_v1","""event"",""trial"",""time""
""fullscreenenter"",""1"",""10121""
","
","
","""event"",""trial"",""time""
""fullscreenenter"",""1"",""10121""
","
","","","","","","1923.1999998092651","images/racket1.png","","","learning","-4","-4","1","1","practice","practice","practice","-1","","",""
"html-keyboard-response","37","244674","0.0-8.0-2.0-0.6","7196","2","12","Male","approach_avoid_spark_v1","""event"",""trial"",""time""
""fullscreenenter"",""1"",""10121""
","
","
","""event"",""trial"",""time""
""fullscreenenter"",""1"",""10121""
","
","","","","","","null","<div style=""font-size:60px;"">+</div>","null","","fixation","","","","","","","","","","",""
"aa-learning-trial","38","247695","0.0-8.0-2.0-1.6","7196","2","12","Male","approach_avoid_spark_v1","""event"",""trial"",""time""
""fullscreenenter"",""1"",""10121""
","
","
","""event"",""trial"",""time""
""fullscreenenter"",""1"",""10121""
","
","","","","","","874.9000000953674","images/ball2.png","","","learning","-6","-6","1","1","practice","practice","practice","-1","","",""
"html-keyboard-response","39","248204","0.0-8.0-2.0-0.7","7196","2","12","Male","approach_avoid_spark_v1","""event"",""trial"",""time""
""fullscreenenter"",""1"",""10121""
","
","
","""event"",""trial"",""time""
""fullscreenenter"",""1"",""10121""
","
","","","","","","null","<div style=""font-size:60px;"">+</div>","null","","fixation","","","","","","","","","","",""
"aa-learning-trial","40","251209","0.0-8.0-2.0-1.7","7196","2","12","Male","approach_avoid_spark_v1","""event"",""trial"",""time""
""fullscreenenter"",""1"",""10121""
","
","
","""event"",""trial"",""time""
""fullscreenenter"",""1"",""10121""
","
","","","","","","2589.7000000476837","images/racket1.png","","","learning","3","0","0","0","practice","practice","practice","-1","","",""
"html-keyboard-response","41","251714","0.0-8.0-2.0-0.8","7196","2","12","Male","approach_avoid_spark_v1","""event"",""trial"",""time""
""fullscreenenter"",""1"",""10121""
","
","
","""event"",""trial"",""time""
""fullscreenenter"",""1"",""10121""
","
","","","","","","null","<div style=""font-size:60px;"">+</div>","null","","fixation","","","","","","","","","","",""
"aa-learning-trial","42","254725","0.0-8.0-2.0-1.8","7196","2","12","Male","approach_avoid_spark_v1","""event"",""trial"",""time""
""fullscreenenter"",""1"",""10121""
","
","
","""event"",""trial"",""time""
""fullscreenenter"",""1"",""10121""
","
","","","","","","1026.2000000476837","images/ball3.png","","","learning","9","0","0","0","practice","practice","practice","-1","","",""
"html-keyboard-response","43","255229","0.0-8.0-2.0-0.9","7196","2","12","Male","approach_avoid_spark_v1","""event"",""trial"",""time""
""fullscreenenter"",""1"",""10121""
","
","
","""event"",""trial"",""time""
""fullscreenenter"",""1"",""10121""
","
","","","","","","null","<div style=""font-size:60px;"">+</div>","null","","fixation","","","","","","","","","","",""
"aa-learning-trial","44","258236","0.0-8.0-2.0-1.9","7196","2","12","Male","approach_avoid_spark_v1","""event"",""trial"",""time""
""fullscreenenter"",""1"",""10121""
","
","
","""event"",""trial"",""time""
""fullscreenenter"",""1"",""10121""
","
","","","","","","2520.2000000476837","images/racket4.png","","","learning","5","0","0","0","practice","practice","practice","-1","","",""
"html-keyboard-response","45","258743","0.0-8.0-2.0-0.10","7196","2","12","Male","approach_avoid_spark_v1","""event"",""trial"",""time""
""fullscreenenter"",""1"",""10121""
","
","
","""event"",""trial"",""time""
""fullscreenenter"",""1"",""10121""
","
","","","","","","null","<div style=""font-size:60px;"">+</div>","null","","fixation","","","","","","","","","","",""
"aa-learning-trial","46","261747","0.0-8.0-2.0-1.10","7196","2","12","Male","approach_avoid_spark_v1","""event"",""trial"",""time""
""fullscreenenter"",""1"",""10121""
","
","
","""event"",""trial"",""time""
""fullscreenenter"",""1"",""10121""
","
","","","","","","1468.9000000953674","images/racket1.png","","","learning","5","0","0","0","practice","practice","practice","-1","","",""
"html-keyboard-response","47","262256","0.0-8.0-2.0-0.11","7196","2","12","Male","approach_avoid_spark_v1","""event"",""trial"",""time""
""fullscreenenter"",""1"",""10121""
","
","
","""event"",""trial"",""time""
""fullscreenenter"",""1"",""10121""
","
","","","","","","null","<div style=""font-size:60px;"">+</div>","null","","fixation","","","","","","","","","","",""
"aa-learning-trial","48","265263","0.0-8.0-2.0-1.11","7196","2","12","Male","approach_avoid_spark_v1","""event"",""trial"",""time""
""fullscreenenter"",""1"",""10121""
","
","
","""event"",""trial"",""time""
""fullscreenenter"",""1"",""10121""
","
","","","","","","1336.4000000953674","images/ball2.png","","","learning","-7","0","0","0","practice","practice","practice","-1","","",""
"html-button-response","49","272016","0.0-8.0-3.0","7196","2","12","Male","approach_avoid_spark_v1","""event"",""trial"",""time""
""fullscreenenter"",""1"",""10121""
","
","
","""event"",""trial"",""time""
""fullscreenenter"",""1"",""10121""
","
","","","","","","6750.600000143051","<p> You earned -28 points in the practice round! </p>","0","","break","","","","","","","","","","",""
"learning-instructions","50","284564","0.0-8.0-4.0-0.0","7196","2","12","Male","approach_avoid_spark_v1","""event"",""trial"",""time""
""fullscreenenter"",""1"",""10121""
","
","
","""event"",""trial"",""time""
""fullscreenenter"",""1"",""10121""
","
","","","","","","6081.700000047684","<p> It's almost time to start the real game. </p><p> Before you start, we're going to ask you a few questions about how the game works. </p>","","0","instructions","","","","","","","","","","",""
"preload","51","289901","0.0-8.0-5.0","7196","2","12","Male","approach_avoid_spark_v1","""event"",""trial"",""time""
""fullscreenenter"",""1"",""10121""
","
","
","""event"",""trial"",""time""
""fullscreenenter"",""1"",""10121""
","
","true","false","[]","[]","[]","","","","","","","","","","","","","","","",""
"comp-q","52","296305","0.0-8.0-6.0-0.0","7196","2","12","Male","approach_avoid_spark_v1","""event"",""trial"",""time""
""fullscreenenter"",""1"",""10121""
","
","
","""event"",""trial"",""time""
""fullscreenenter"",""1"",""10121""
","
","","","","","","1401.9000000953674","<p> <b> True or False? </b> </p><p> If you see a number in GREY, that means you earned that many points. </p>","","1","comp_question","","","","","","","","","true","",""
"comp-q","53","306683","0.0-8.0-6.0-1.0","7196","2","12","Male","approach_avoid_spark_v1","""event"",""trial"",""time""
""fullscreenenter"",""1"",""10121""
","
","
","""event"",""trial"",""time""
""fullscreenenter"",""1"",""10121""
","
","","","","","","2010.6000001430511","<p><b> That's right! </b> If you see a grey number, it means you earned ZERO points. <br> The grey numbers show the points you WOULD HAVE earned if you had made the other choice. </p>","","0","comp_answer","","","","","","","","","","",""
"comp-q","54","311922","0.0-8.0-7.0-0.0","7196","2","12","Male","approach_avoid_spark_v1","""event"",""trial"",""time""
""fullscreenenter"",""1"",""10121""
","
","
","""event"",""trial"",""time""
""fullscreenenter"",""1"",""10121""
","
","","","","","","539.2000000476837","<p> <b> True or False? </b> </p><p> You will have as much time as you want to make each choice. </p>","","1","comp_question","","","","","","","","","true","",""
"comp-q","55","317005","0.0-8.0-7.0-1.0","7196","2","12","Male","approach_avoid_spark_v1","""event"",""trial"",""time""
""fullscreenenter"",""1"",""10121""
","
","
","""event"",""trial"",""time""
""fullscreenenter"",""1"",""10121""
","
","","","","","","1022.8999998569489","<p> <b> That's right! </b> You will only have 3 seconds to make each choice. </p>","","0","comp_answer","","","","","","","","","","",""
"comp-q","56","324628","0.0-8.0-8.0-0.0","7196","2","12","Male","approach_avoid_spark_v1","""event"",""trial"",""time""
""fullscreenenter"",""1"",""10121""
","
","
","""event"",""trial"",""time""
""fullscreenenter"",""1"",""10121""
","
","","","","","","2957","<p> <b> True or False? </b> </p><p> You should use the '1' and '0' keys to make your choices. </p>","","0","comp_question","","","","","","","","","true","",""
"comp-q","57","330741","0.0-8.0-8.0-1.0","7196","2","12","Male","approach_avoid_spark_v1","""event"",""trial"",""time""
""fullscreenenter"",""1"",""10121""
","
","
","""event"",""trial"",""time""
""fullscreenenter"",""1"",""10121""
","
","","","","","","1490.5","<p> <b> That's right! </b> You should use the '1' and '0' keys to make each choice. </p>","","0","comp_answer","","","","","","","","","","",""
"learning-instructions","58","338565","0.0-8.0-9.0-0.0","7196","2","12","Male","approach_avoid_spark_v1","""event"",""trial"",""time""
""fullscreenenter"",""1"",""10121""
","
","
","""event"",""trial"",""time""
""fullscreenenter"",""1"",""10121""
","
","","","","","","1543.9000000953674","<p> It's now time to start the real game. </p>Do your best, because the points you earn in the next rounds will influence your bonus payment. </p>","","0","instructions","","","","","","","","","","",""
"preload","59","338691","0.0-9.0-0.0","7196","2","12","Male","approach_avoid_spark_v1","""event"",""trial"",""time""
""fullscreenenter"",""1"",""10121""
","
","
","""event"",""trial"",""time""
""fullscreenenter"",""1"",""10121""
","
","true","false","[]","[]","[]","","","","","","","","","","","","","","","",""
"learning-instructions","60","344466","0.0-9.0-1.0-0.0","7196","2","12","Male","approach_avoid_spark_v1","""event"",""trial"",""time""
""fullscreenenter"",""1"",""10121""
","
","
","""event"",""trial"",""time""
""fullscreenenter"",""1"",""10121""
","
","","","","","","1534.7000000476837","<p> Your goal in this round is to take care of lots of animals. </p></div>","","0","instructions","","","","","","","","","","",""
"learning-instructions","61","355169","0.0-9.0-1.0-0.1","7196","2","12","Male","approach_avoid_spark_v1","""event"",""trial"",""time""
""fullscreenenter"",""1"",""10121""
","
","
","""event"",""trial"",""time""
""fullscreenenter"",""1"",""10121""
","
","","","","","","717.7999999523163","<p> Some animals want to be pet, while other animals want to be left alone.  </p><p> On each turn, you will see an animal.   </p><p> You need to decide whether to pet it or not.  </p>","","0","instructions","","","","","","","","","","",""
"learning-instructions","62","361405","0.0-9.0-1.0-0.2","7196","2","12","Male","approach_avoid_spark_v1","""event"",""trial"",""time""
""fullscreenenter"",""1"",""10121""
","
","
","""event"",""trial"",""time""
""fullscreenenter"",""1"",""10121""
","
","","","","","","794","<p> You can pet the animal by pressing 1 and leave the animal alone by pressing 0. </p><br><div class=""choice-instructions-grid""> <div class=""choice-option""><img src=""images/approach.png"" class=""choice-option-img"" stage=""instructions"" position=""0"" ><div class=""choice-option-text""> Press ""1."" </div></div><div class=""choice-option""><img src=""images/avoid.png"" class=""choice-option-img"" stage=""instructions"" position=""1"" ><div class=""choice-option-text""> Press ""0."" </div></div>","","0","instructions","","","","","","","","","","",""
"learning-instructions","63","373367","0.0-9.0-1.0-0.3","7196","2","12","Male","approach_avoid_spark_v1","""event"",""trial"",""time""
""fullscreenenter"",""1"",""10121""
","
","
","""event"",""trial"",""time""
""fullscreenenter"",""1"",""10121""
","
","","","","","","2745.7999999523163","<p> If you pet an animal that wants to be pet, you will make it feel happy! </p><p> But if you pet an animal that wants to be left alone, you will make it feel angry. </p>","","0","instructions","","","","","","","","","","",""
"learning-instructions","64","387509","0.0-9.0-1.0-0.4","7196","2","12","Male","approach_avoid_spark_v1","""event"",""trial"",""time""
""fullscreenenter"",""1"",""10121""
","
","
","""event"",""trial"",""time""
""fullscreenenter"",""1"",""10121""
","
","","","","","","1338.2000000476837","<p> You will earn points based on how you made the animal feel. </p><p> If you made it feel happy, you will WIN anywhere from 1 - 9 points, </p><p> but if you made it feel angry, you will LOSE anywhere from 1 - 9 points. </p>","","0","instructions","","","","","","","","","","",""
"learning-instructions","65","396624","0.0-9.0-1.0-0.5","7196","2","12","Male","approach_avoid_spark_v1","""event"",""trial"",""time""
""fullscreenenter"",""1"",""10121""
","
","
","""event"",""trial"",""time""
""fullscreenenter"",""1"",""10121""
","
","","","","","","843.2000000476837","<p> You will see how many points you won or lost in the center of the screen. </p><p> Here is what you would see if you won 5 points: </p><p style=""color:green;font-size:50px;font-weight:bolder"">5</p>","","0","instructions","","","","","","","","","","",""
"learning-instructions","66","401153","0.0-9.0-1.0-0.6","7196","2","12","Male","approach_avoid_spark_v1","""event"",""trial"",""time""
""fullscreenenter"",""1"",""10121""
","
","
","""event"",""trial"",""time""
""fullscreenenter"",""1"",""10121""
","
","","","","","","902.0999999046326","<p> And here is what you would see if you lost 3 points: </p><p style=""color:red;font-size:50px;font-weight:bolder"">-3</p>","","0","instructions","","","","","","","","","","",""
"learning-instructions","67","416549","0.0-9.0-1.0-0.7","7196","2","12","Male","approach_avoid_spark_v1","""event"",""trial"",""time""
""fullscreenenter"",""1"",""10121""
","
","
","""event"",""trial"",""time""
""fullscreenenter"",""1"",""10121""
","
","","","","","","837.7999999523163","<p> Some animals will become very happy or very angry. </p><p> These animals will make you win or lose LOTS of points. </p><p> Other animals have less strong feelings. </p><p> These animals will make you win or lose small amounts of points. </p>","","0","instructions","","","","","","","","","","",""
"learning-instructions","68","429715","0.0-9.0-1.0-0.8","7196","2","12","Male","approach_avoid_spark_v1","""event"",""trial"",""time""
""fullscreenenter"",""1"",""10121""
","
","
","""event"",""trial"",""time""
""fullscreenenter"",""1"",""10121""
","
","","","","","","1203.7999999523163","<p> If you choose to leave the animal alone, you will not win or lose any points. </p><p>  However, in the center of the screen, you will see the number of points you WOULD HAVE won or lost if you had pet the animal. </p>","","0","instructions","","","","","","","","","","",""
"learning-instructions","69","443793","0.0-9.0-1.0-0.9","7196","2","12","Male","approach_avoid_spark_v1","""event"",""trial"",""time""
""fullscreenenter"",""1"",""10121""
","
","
","""event"",""trial"",""time""
""fullscreenenter"",""1"",""10121""
","
","","","","","","1991.9000000953674","<p> Here is what you might see if you did not pet the animal but the animal wanted to be pet: </p><p style=""color:grey; font-size:50px; display: inline-block; border-spacing: 15px; border-width:3px; border-style:solid; border-color:red"">  &nbsp; 6 &nbsp; </p><p> Remember, in this case, you would not win or lose ANY points because you did not pet the animal.  </p>","","0","instructions","","","","","","","","","","",""
"learning-instructions","70","452291","0.0-9.0-1.0-0.10","7196","2","12","Male","approach_avoid_spark_v1","""event"",""trial"",""time""
""fullscreenenter"",""1"",""10121""
","
","
","""event"",""trial"",""time""
""fullscreenenter"",""1"",""10121""
","
","","","","","","997.9000000953674","<p> Try to make the best choice for each animal because </p><p> at the end of the game, you will earn bonus money based on how many points you earned. </p>","","0","instructions","","","","","","","","","","",""
"learning-instructions","71","462401","0.0-9.0-1.0-0.11","7196","2","12","Male","approach_avoid_spark_v1","""event"",""trial"",""time""
""fullscreenenter"",""1"",""10121""
","
","
","""event"",""trial"",""time""
""fullscreenenter"",""1"",""10121""
","
","","","","","","1909.0999999046326","<p> You will have 3 seconds to make each choice. Try to respond before time runs out! </p><p> You will lose 5 points each time you do not make a response. </p>","","0","instructions","","","","","","","","","","",""
"html-keyboard-response","72","463021","0.0-9.0-2.0-0.0","7196","2","12","Male","approach_avoid_spark_v1","""event"",""trial"",""time""
""fullscreenenter"",""1"",""10121""
","
","
","""event"",""trial"",""time""
""fullscreenenter"",""1"",""10121""
","
","","","","","","null","<div style=""font-size:60px;"">+</div>","null","","fixation","","","","","","","","","","",""
"aa-learning-trial","73","466041","0.0-9.0-2.0-1.0","7196","2","12","Male","approach_avoid_spark_v1","""event"",""trial"",""time""
""fullscreenenter"",""1"",""10121""
","
","
","""event"",""trial"",""time""
""fullscreenenter"",""1"",""10121""
","
","","","","","","1024.6999998092651","images/dog1.png","","","learning","-8","-8","1","1","dog","pets","2","0","","bad","[-4]"
"html-keyboard-response","74","466561","0.0-9.0-2.0-0.1","7196","2","12","Male","approach_avoid_spark_v1","""event"",""trial"",""time""
""fullscreenenter"",""1"",""10121""
","
","
","""event"",""trial"",""time""
""fullscreenenter"",""1"",""10121""
","
","","","","","","null","<div style=""font-size:60px;"">+</div>","null","","fixation","","","","","","","","","","",""
"aa-learning-trial","75","469581","0.0-9.0-2.0-1.1","7196","2","12","Male","approach_avoid_spark_v1","""event"",""trial"",""time""
""fullscreenenter"",""1"",""10121""
","
","
","""event"",""trial"",""time""
""fullscreenenter"",""1"",""10121""
","
","","","","","","746.3999998569489","images/rabbit4.png","","","learning","5","5","1","1","rabbit","pets","2","0","","good","[6]"
"html-keyboard-response","76","470101","0.0-9.0-2.0-0.2","7196","2","12","Male","approach_avoid_spark_v1","""event"",""trial"",""time""
""fullscreenenter"",""1"",""10121""
","
","
","""event"",""trial"",""time""
""fullscreenenter"",""1"",""10121""
","
","","","","","","null","<div style=""font-size:60px;"">+</div>","null","","fixation","","","","","","","","","","",""
"aa-learning-trial","77","473111","0.0-9.0-2.0-1.2","7196","2","12","Male","approach_avoid_spark_v1","""event"",""trial"",""time""
""fullscreenenter"",""1"",""10121""
","
","
","""event"",""trial"",""time""
""fullscreenenter"",""1"",""10121""
","
","","","","","","684.7999999523163","images/cat5.png","","","learning","-4","-4","1","1","cat","pets","2","0","","neutral","0"
"html-keyboard-response","78","473631","0.0-9.0-2.0-0.3","7196","2","12","Male","approach_avoid_spark_v1","""event"",""trial"",""time""
""fullscreenenter"",""1"",""10121""
","
","
","""event"",""trial"",""time""
""fullscreenenter"",""1"",""10121""
","
","","","","","","null","<div style=""font-size:60px;"">+</div>","null","","fixation","","","","","","","","","","",""
"aa-learning-trial","79","476651","0.0-9.0-2.0-1.3","7196","2","12","Male","approach_avoid_spark_v1","""event"",""trial"",""time""
""fullscreenenter"",""1"",""10121""
","
","
","""event"",""trial"",""time""
""fullscreenenter"",""1"",""10121""
","
","","","","","","826","images/cat3.png","","","learning","2","0","0","0","cat","pets","2","0","","neutral","0"
"html-keyboard-response","80","477171","0.0-9.0-2.0-0.4","7196","2","12","Male","approach_avoid_spark_v1","""event"",""trial"",""time""
""fullscreenenter"",""1"",""10121""
","
","
","""event"",""trial"",""time""
""fullscreenenter"",""1"",""10121""
","
","","","","","","null","<div style=""font-size:60px;"">+</div>","null","","fixation","","","","","","","","","","",""
"aa-learning-trial","81","480181","0.0-9.0-2.0-1.4","7196","2","12","Male","approach_avoid_spark_v1","""event"",""trial"",""time""
""fullscreenenter"",""1"",""10121""
","
","
","""event"",""trial"",""time""
""fullscreenenter"",""1"",""10121""
","
","","","","","","983.0999999046326","images/dog2.png","","","learning","-5","0","0","0","dog","pets","2","0","","bad","[-4]"
"html-keyboard-response","82","480701","0.0-9.0-2.0-0.5","7196","2","12","Male","approach_avoid_spark_v1","""event"",""trial"",""time""
""fullscreenenter"",""1"",""10121""
","
","
","""event"",""trial"",""time""
""fullscreenenter"",""1"",""10121""
","
","","","","","","null","<div style=""font-size:60px;"">+</div>","null","","fixation","","","","","","","","","","",""
"aa-learning-trial","83","483711","0.0-9.0-2.0-1.5","7196","2","12","Male","approach_avoid_spark_v1","""event"",""trial"",""time""
""fullscreenenter"",""1"",""10121""
","
","
","""event"",""trial"",""time""
""fullscreenenter"",""1"",""10121""
","
","","","","","","1047.2999999523163","images/dog5.png","","","learning","7","0","0","0","dog","pets","2","0","","bad","[-4]"
"html-keyboard-response","84","484231","0.0-9.0-2.0-0.6","7196","2","12","Male","approach_avoid_spark_v1","""event"",""trial"",""time""
""fullscreenenter"",""1"",""10121""
","
","
","""event"",""trial"",""time""
""fullscreenenter"",""1"",""10121""
","
","","","","","","null","<div style=""font-size:60px;"">+</div>","null","","fixation","","","","","","","","","","",""
"aa-learning-trial","85","487250","0.0-9.0-2.0-1.6","7196","2","12","Male","approach_avoid_spark_v1","""event"",""trial"",""time""
""fullscreenenter"",""1"",""10121""
","
","
","""event"",""trial"",""time""
""fullscreenenter"",""1"",""10121""
","
","","","","","","685.0999999046326","images/rabbit5.png","","","learning","-2","-2","1","1","rabbit","pets","2","0","","good","[6]"
"html-keyboard-response","86","487760","0.0-9.0-2.0-0.7","7196","2","12","Male","approach_avoid_spark_v1","""event"",""trial"",""time""
""fullscreenenter"",""1"",""10121""
","
","
","""event"",""trial"",""time""
""fullscreenenter"",""1"",""10121""
","
","","","","","","null","<div style=""font-size:60px;"">+</div>","null","","fixation","","","","","","","","","","",""
"aa-learning-trial","87","490770","0.0-9.0-2.0-1.7","7196","2","12","Male","approach_avoid_spark_v1","""event"",""trial"",""time""
""fullscreenenter"",""1"",""10121""
","
","
","""event"",""trial"",""time""
""fullscreenenter"",""1"",""10121""
","
","","","","","","1266.1000001430511","images/rabbit4.png","","","learning","5","5","1","1","rabbit","pets","2","0","","good","[6]"
"html-keyboard-response","88","491277","0.0-9.0-2.0-0.8","7196","2","12","Male","approach_avoid_spark_v1","""event"",""trial"",""time""
""fullscreenenter"",""1"",""10121""
","
","
","""event"",""trial"",""time""
""fullscreenenter"",""1"",""10121""
","
","","","","","","null","<div style=""font-size:60px;"">+</div>","null","","fixation","","","","","","","","","","",""
"aa-learning-trial","89","494284","0.0-9.0-2.0-1.8","7196","2","12","Male","approach_avoid_spark_v1","""event"",""trial"",""time""
""fullscreenenter"",""1"",""10121""
","
","
","""event"",""trial"",""time""
""fullscreenenter"",""1"",""10121""
","
","","","","","","894.1000001430511","images/rabbit3.png","","","learning","9","9","1","1","rabbit","pets","2","0","","good","[6]"
"html-keyboard-response","90","494791","0.0-9.0-2.0-0.9","7196","2","12","Male","approach_avoid_spark_v1","""event"",""trial"",""time""
""fullscreenenter"",""1"",""10121""
","
","
","""event"",""trial"",""time""
""fullscreenenter"",""1"",""10121""
","
","","","","","","null","<div style=""font-size:60px;"">+</div>","null","","fixation","","","","","","","","","","",""
"aa-learning-trial","91","497805","0.0-9.0-2.0-1.9","7196","2","12","Male","approach_avoid_spark_v1","""event"",""trial"",""time""
""fullscreenenter"",""1"",""10121""
","
","
","""event"",""trial"",""time""
""fullscreenenter"",""1"",""10121""
","
","","","","","","834.6999998092651","images/cat3.png","","","learning","2","0","0","0","cat","pets","2","0","","neutral","0"
"html-keyboard-response","92","498317","0.0-9.0-2.0-0.10","7196","2","12","Male","approach_avoid_spark_v1","""event"",""trial"",""time""
""fullscreenenter"",""1"",""10121""
","
","
","""event"",""trial"",""time""
""fullscreenenter"",""1"",""10121""
","
","","","","","","null","<div style=""font-size:60px;"">+</div>","null","","fixation","","","","","","","","","","",""
"aa-learning-trial","93","501321","0.0-9.0-2.0-1.10","7196","2","12","Male","approach_avoid_spark_v1","""event"",""trial"",""time""
""fullscreenenter"",""1"",""10121""
","
","
","""event"",""trial"",""time""
""fullscreenenter"",""1"",""10121""
","
","","","","","","1014.9000000953674","images/rabbit3.png","","","learning","9","9","1","1","rabbit","pets","2","0","","good","[6]"
"html-keyboard-response","94","501824","0.0-9.0-2.0-0.11","7196","2","12","Male","approach_avoid_spark_v1","""event"",""trial"",""time""
""fullscreenenter"",""1"",""10121""
","
","
","""event"",""trial"",""time""
""fullscreenenter"",""1"",""10121""
","
","","","","","","null","<div style=""font-size:60px;"">+</div>","null","","fixation","","","","","","","","","","",""
"aa-learning-trial","95","504833","0.0-9.0-2.0-1.11","7196","2","12","Male","approach_avoid_spark_v1","""event"",""trial"",""time""
""fullscreenenter"",""1"",""10121""
","
","
","""event"",""trial"",""time""
""fullscreenenter"",""1"",""10121""
","
","","","","","","1202.7999999523163","images/cat5.png","","","learning","-4","0","0","0","cat","pets","2","0","","neutral","0"
"html-keyboard-response","96","505336","0.0-9.0-2.0-0.12","7196","2","12","Male","approach_avoid_spark_v1","""event"",""trial"",""time""
""fullscreenenter"",""1"",""10121""
","
","
","""event"",""trial"",""time""
""fullscreenenter"",""1"",""10121""
","
","","","","","","null","<div style=""font-size:60px;"">+</div>","null","","fixation","","","","","","","","","","",""
"aa-learning-trial","97","508345","0.0-9.0-2.0-1.12","7196","2","12","Male","approach_avoid_spark_v1","""event"",""trial"",""time""
""fullscreenenter"",""1"",""10121""
","
","
","""event"",""trial"",""time""
""fullscreenenter"",""1"",""10121""
","
","","","","","","1034.0999999046326","images/cat1.png","","","learning","-9","0","0","0","cat","pets","2","0","","neutral","0"
"html-keyboard-response","98","508849","0.0-9.0-2.0-0.13","7196","2","12","Male","approach_avoid_spark_v1","""event"",""trial"",""time""
""fullscreenenter"",""1"",""10121""
","
","
","""event"",""trial"",""time""
""fullscreenenter"",""1"",""10121""
","
","","","","","","null","<div style=""font-size:60px;"">+</div>","null","","fixation","","","","","","","","","","",""
"aa-learning-trial","99","511861","0.0-9.0-2.0-1.13","7196","2","12","Male","approach_avoid_spark_v1","""event"",""trial"",""time""
""fullscreenenter"",""1"",""10121""
","
","
","""event"",""trial"",""time""
""fullscreenenter"",""1"",""10121""
","
","","","","","","826.2999999523163","images/dog1.png","","","learning","-8","0","0","0","dog","pets","2","0","","bad","[-4]"
"html-keyboard-response","100","512371","0.0-9.0-2.0-0.14","7196","2","12","Male","approach_avoid_spark_v1","""event"",""trial"",""time""
""fullscreenenter"",""1"",""10121""
","
","
","""event"",""trial"",""time""
""fullscreenenter"",""1"",""10121""
","
","","","","","","null","<div style=""font-size:60px;"">+</div>","null","","fixation","","","","","","","","","","",""
"aa-learning-trial","101","515374","0.0-9.0-2.0-1.14","7196","2","12","Male","approach_avoid_spark_v1","""event"",""trial"",""time""
""fullscreenenter"",""1"",""10121""
","
","
","""event"",""trial"",""time""
""fullscreenenter"",""1"",""10121""
","
","","","","","","1007.8000001907349","images/dog2.png","","","learning","-5","0","0","0","dog","pets","2","0","","bad","[-4]"
"html-keyboard-response","102","515883","0.0-9.0-2.0-0.15","7196","2","12","Male","approach_avoid_spark_v1","""event"",""trial"",""time""
""fullscreenenter"",""1"",""10121""
","
","
","""event"",""trial"",""time""
""fullscreenenter"",""1"",""10121""
","
","","","","","","null","<div style=""font-size:60px;"">+</div>","null","","fixation","","","","","","","","","","",""
"aa-learning-trial","103","518888","0.0-9.0-2.0-1.15","7196","2","12","Male","approach_avoid_spark_v1","""event"",""trial"",""time""
""fullscreenenter"",""1"",""10121""
","
","
","""event"",""trial"",""time""
""fullscreenenter"",""1"",""10121""
","
","","","","","","600.7999999523163","images/dog1.png","","","learning","-8","0","0","0","dog","pets","2","0","","bad","[-4]"
"html-keyboard-response","104","519396","0.0-9.0-2.0-0.16","7196","2","12","Male","approach_avoid_spark_v1","""event"",""trial"",""time""
""fullscreenenter"",""1"",""10121""
","
","
","""event"",""trial"",""time""
""fullscreenenter"",""1"",""10121""
","
","","","","","","null","<div style=""font-size:60px;"">+</div>","null","","fixation","","","","","","","","","","",""
"aa-learning-trial","105","522404","0.0-9.0-2.0-1.16","7196","2","12","Male","approach_avoid_spark_v1","""event"",""trial"",""time""
""fullscreenenter"",""1"",""10121""
","
","
","""event"",""trial"",""time""
""fullscreenenter"",""1"",""10121""
","
","","","","","","760.2000000476837","images/rabbit4.png","","","learning","5","5","1","1","rabbit","pets","2","0","","good","[6]"
"html-keyboard-response","106","522911","0.0-9.0-2.0-0.17","7196","2","12","Male","approach_avoid_spark_v1","""event"",""trial"",""time""
""fullscreenenter"",""1"",""10121""
","
","
","""event"",""trial"",""time""
""fullscreenenter"",""1"",""10121""
","
","","","","","","null","<div style=""font-size:60px;"">+</div>","null","","fixation","","","","","","","","","","",""
"aa-learning-trial","107","525924","0.0-9.0-2.0-1.17","7196","2","12","Male","approach_avoid_spark_v1","""event"",""trial"",""time""
""fullscreenenter"",""1"",""10121""
","
","
","""event"",""trial"",""time""
""fullscreenenter"",""1"",""10121""
","
","","","","","","919.5","images/cat3.png","","","learning","2","2","1","1","cat","pets","2","0","","neutral","0"
"html-keyboard-response","108","526433","0.0-9.0-2.0-0.18","7196","2","12","Male","approach_avoid_spark_v1","""event"",""trial"",""time""
""fullscreenenter"",""1"",""10121""
","
","
","""event"",""trial"",""time""
""fullscreenenter"",""1"",""10121""
","
","","","","","","null","<div style=""font-size:60px;"">+</div>","null","","fixation","","","","","","","","","","",""
"aa-learning-trial","109","529442","0.0-9.0-2.0-1.18","7196","2","12","Male","approach_avoid_spark_v1","""event"",""trial"",""time""
""fullscreenenter"",""1"",""10121""
","
","
","""event"",""trial"",""time""
""fullscreenenter"",""1"",""10121""
","
","","","","","","593.8000001907349","images/dog5.png","","","learning","7","0","0","0","dog","pets","2","0","","bad","[-4]"
"html-keyboard-response","110","529948","0.0-9.0-2.0-0.19","7196","2","12","Male","approach_avoid_spark_v1","""event"",""trial"",""time""
""fullscreenenter"",""1"",""10121""
","
","
","""event"",""trial"",""time""
""fullscreenenter"",""1"",""10121""
","
","","","","","","null","<div style=""font-size:60px;"">+</div>","null","","fixation","","","","","","","","","","",""
"aa-learning-trial","111","532952","0.0-9.0-2.0-1.19","7196","2","12","Male","approach_avoid_spark_v1","""event"",""trial"",""time""
""fullscreenenter"",""1"",""10121""
","
","
","""event"",""trial"",""time""
""fullscreenenter"",""1"",""10121""
","
","","","","","","1053.6000001430511","images/rabbit3.png","","","learning","9","9","1","1","rabbit","pets","2","0","","good","[6]"
"html-keyboard-response","112","533457","0.0-9.0-2.0-0.20","7196","2","12","Male","approach_avoid_spark_v1","""event"",""trial"",""time""
""fullscreenenter"",""1"",""10121""
","
","
","""event"",""trial"",""time""
""fullscreenenter"",""1"",""10121""
","
","","","","","","null","<div style=""font-size:60px;"">+</div>","null","","fixation","","","","","","","","","","",""
"aa-learning-trial","113","536461","0.0-9.0-2.0-1.20","7196","2","12","Male","approach_avoid_spark_v1","""event"",""trial"",""time""
""fullscreenenter"",""1"",""10121""
","
","
","""event"",""trial"",""time""
""fullscreenenter"",""1"",""10121""
","
","","","","","","946.0999999046326","images/dog5.png","","","learning","7","7","1","1","dog","pets","2","0","","bad","[-4]"
"html-keyboard-response","114","536964","0.0-9.0-2.0-0.21","7196","2","12","Male","approach_avoid_spark_v1","""event"",""trial"",""time""
""fullscreenenter"",""1"",""10121""
","
","
","""event"",""trial"",""time""
""fullscreenenter"",""1"",""10121""
","
","","","","","","null","<div style=""font-size:60px;"">+</div>","null","","fixation","","","","","","","","","","",""
"aa-learning-trial","115","539978","0.0-9.0-2.0-1.21","7196","2","12","Male","approach_avoid_spark_v1","""event"",""trial"",""time""
""fullscreenenter"",""1"",""10121""
","
","
","""event"",""trial"",""time""
""fullscreenenter"",""1"",""10121""
","
","","","","","","659.7999999523163","images/dog2.png","","","learning","-5","0","0","0","dog","pets","2","0","","bad","[-4]"
"html-keyboard-response","116","540479","0.0-9.0-2.0-0.22","7196","2","12","Male","approach_avoid_spark_v1","""event"",""trial"",""time""
""fullscreenenter"",""1"",""10121""
","
","
","""event"",""trial"",""time""
""fullscreenenter"",""1"",""10121""
","
","","","","","","null","<div style=""font-size:60px;"">+</div>","null","","fixation","","","","","","","","","","",""
"aa-learning-trial","117","543486","0.0-9.0-2.0-1.22","7196","2","12","Male","approach_avoid_spark_v1","""event"",""trial"",""time""
""fullscreenenter"",""1"",""10121""
","
","
","""event"",""trial"",""time""
""fullscreenenter"",""1"",""10121""
","
","","","","","","1966.7999999523163","images/cat6.png","","","learning","6","0","0","0","cat","pets","2","0","","neutral","0"
"html-keyboard-response","118","543993","0.0-9.0-2.0-0.23","7196","2","12","Male","approach_avoid_spark_v1","""event"",""trial"",""time""
""fullscreenenter"",""1"",""10121""
","
","
","""event"",""trial"",""time""
""fullscreenenter"",""1"",""10121""
","
","","","","","","null","<div style=""font-size:60px;"">+</div>","null","","fixation","","","","","","","","","","",""
"aa-learning-trial","119","547002","0.0-9.0-2.0-1.23","7196","2","12","Male","approach_avoid_spark_v1","""event"",""trial"",""time""
""fullscreenenter"",""1"",""10121""
","
","
","""event"",""trial"",""time""
""fullscreenenter"",""1"",""10121""
","
","","","","","","1540.8999998569489","images/cat3.png","","","learning","2","2","1","1","cat","pets","2","0","","neutral","0"
"html-keyboard-response","120","547507","0.0-9.0-2.0-0.24","7196","2","12","Male","approach_avoid_spark_v1","""event"",""trial"",""time""
""fullscreenenter"",""1"",""10121""
","
","
","""event"",""trial"",""time""
""fullscreenenter"",""1"",""10121""
","
","","","","","","null","<div style=""font-size:60px;"">+</div>","null","","fixation","","","","","","","","","","",""
"aa-learning-trial","121","550511","0.0-9.0-2.0-1.24","7196","2","12","Male","approach_avoid_spark_v1","""event"",""trial"",""time""
""fullscreenenter"",""1"",""10121""
","
","
","""event"",""trial"",""time""
""fullscreenenter"",""1"",""10121""
","
","","","","","","1128.0999999046326","images/rabbit5.png","","","learning","-2","-2","1","1","rabbit","pets","2","0","","good","[6]"
"html-keyboard-response","122","551014","0.0-9.0-2.0-0.25","7196","2","12","Male","approach_avoid_spark_v1","""event"",""trial"",""time""
""fullscreenenter"",""1"",""10121""
","
","
","""event"",""trial"",""time""
""fullscreenenter"",""1"",""10121""
","
","","","","","","null","<div style=""font-size:60px;"">+</div>","null","","fixation","","","","","","","","","","",""
"aa-learning-trial","123","554031","0.0-9.0-2.0-1.25","7196","2","12","Male","approach_avoid_spark_v1","""event"",""trial"",""time""
""fullscreenenter"",""1"",""10121""
","
","
","""event"",""trial"",""time""
""fullscreenenter"",""1"",""10121""
","
","","","","","","926.5999999046326","images/rabbit3.png","","","learning","9","9","1","1","rabbit","pets","2","0","","good","[6]"
"html-keyboard-response","124","554537","0.0-9.0-2.0-0.26","7196","2","12","Male","approach_avoid_spark_v1","""event"",""trial"",""time""
""fullscreenenter"",""1"",""10121""
","
","
","""event"",""trial"",""time""
""fullscreenenter"",""1"",""10121""
","
","","","","","","null","<div style=""font-size:60px;"">+</div>","null","","fixation","","","","","","","","","","",""
"aa-learning-trial","125","557541","0.0-9.0-2.0-1.26","7196","2","12","Male","approach_avoid_spark_v1","""event"",""trial"",""time""
""fullscreenenter"",""1"",""10121""
","
","
","""event"",""trial"",""time""
""fullscreenenter"",""1"",""10121""
","
","","","","","","813.6999998092651","images/dog1.png","","","learning","-8","0","0","0","dog","pets","2","0","","bad","[-4]"
"html-keyboard-response","126","558047","0.0-9.0-2.0-0.27","7196","2","12","Male","approach_avoid_spark_v1","""event"",""trial"",""time""
""fullscreenenter"",""1"",""10121""
","
","
","""event"",""trial"",""time""
""fullscreenenter"",""1"",""10121""
","
","","","","","","null","<div style=""font-size:60px;"">+</div>","null","","fixation","","","","","","","","","","",""
"aa-learning-trial","127","561051","0.0-9.0-2.0-1.27","7196","2","12","Male","approach_avoid_spark_v1","""event"",""trial"",""time""
""fullscreenenter"",""1"",""10121""
","
","
","""event"",""trial"",""time""
""fullscreenenter"",""1"",""10121""
","
","","","","","","634.9000000953674","images/dog1.png","","","learning","-8","0","0","0","dog","pets","2","0","","bad","[-4]"
"html-keyboard-response","128","561554","0.0-9.0-2.0-0.28","7196","2","12","Male","approach_avoid_spark_v1","""event"",""trial"",""time""
""fullscreenenter"",""1"",""10121""
","
","
","""event"",""trial"",""time""
""fullscreenenter"",""1"",""10121""
","
","","","","","","null","<div style=""font-size:60px;"">+</div>","null","","fixation","","","","","","","","","","",""
"aa-learning-trial","129","564562","0.0-9.0-2.0-1.28","7196","2","12","Male","approach_avoid_spark_v1","""event"",""trial"",""time""
""fullscreenenter"",""1"",""10121""
","
","
","""event"",""trial"",""time""
""fullscreenenter"",""1"",""10121""
","
","","","","","","1006.2999999523163","images/dog8.png","","","learning","1","1","1","1","dog","pets","2","0","","bad","[-4]"
"html-keyboard-response","130","565078","0.0-9.0-2.0-0.29","7196","2","12","Male","approach_avoid_spark_v1","""event"",""trial"",""time""
""fullscreenenter"",""1"",""10121""
","
","
","""event"",""trial"",""time""
""fullscreenenter"",""1"",""10121""
","
","","","","","","null","<div style=""font-size:60px;"">+</div>","null","","fixation","","","","","","","","","","",""
"aa-learning-trial","131","568081","0.0-9.0-2.0-1.29","7196","2","12","Male","approach_avoid_spark_v1","""event"",""trial"",""time""
""fullscreenenter"",""1"",""10121""
","
","
","""event"",""trial"",""time""
""fullscreenenter"",""1"",""10121""
","
","","","","","","692.7999999523163","images/rabbit4.png","","","learning","5","5","1","1","rabbit","pets","2","0","","good","[6]"
"html-keyboard-response","132","568597","0.0-9.0-2.0-0.30","7196","2","12","Male","approach_avoid_spark_v1","""event"",""trial"",""time""
""fullscreenenter"",""1"",""10121""
","
","
","""event"",""trial"",""time""
""fullscreenenter"",""1"",""10121""
","
","","","","","","null","<div style=""font-size:60px;"">+</div>","null","","fixation","","","","","","","","","","",""
"aa-learning-trial","133","571601","0.0-9.0-2.0-1.30","7196","2","12","Male","approach_avoid_spark_v1","""event"",""trial"",""time""
""fullscreenenter"",""1"",""10121""
","
","
","""event"",""trial"",""time""
""fullscreenenter"",""1"",""10121""
","
","","","","","","633","images/rabbit3.png","","","learning","9","9","1","1","rabbit","pets","2","0","","good","[6]"
"html-keyboard-response","134","572107","0.0-9.0-2.0-0.31","7196","2","12","Male","approach_avoid_spark_v1","""event"",""trial"",""time""
""fullscreenenter"",""1"",""10121""
","
","
","""event"",""trial"",""time""
""fullscreenenter"",""1"",""10121""
","
","","","","","","null","<div style=""font-size:60px;"">+</div>","null","","fixation","","","","","","","","","","",""
"aa-learning-trial","135","575112","0.0-9.0-2.0-1.31","7196","2","12","Male","approach_avoid_spark_v1","""event"",""trial"",""time""
""fullscreenenter"",""1"",""10121""
","
","
","""event"",""trial"",""time""
""fullscreenenter"",""1"",""10121""
","
","","","","","","1515.6000001430511","images/cat7.png","","","learning","4","0","0","0","cat","pets","2","0","","neutral","0"
"html-keyboard-response","136","575621","0.0-9.0-2.0-0.32","7196","2","12","Male","approach_avoid_spark_v1","""event"",""trial"",""time""
""fullscreenenter"",""1"",""10121""
","
","
","""event"",""trial"",""time""
""fullscreenenter"",""1"",""10121""
","
","","","","","","null","<div style=""font-size:60px;"">+</div>","null","","fixation","","","","","","","","","","",""
"aa-learning-trial","137","578637","0.0-9.0-2.0-1.32","7196","2","12","Male","approach_avoid_spark_v1","""event"",""trial"",""time""
""fullscreenenter"",""1"",""10121""
","
","
","""event"",""trial"",""time""
""fullscreenenter"",""1"",""10121""
","
","","","","","","1210.8999998569489","images/cat5.png","","","learning","-4","-4","1","1","cat","pets","2","0","","neutral","0"
"html-keyboard-response","138","579140","0.0-9.0-2.0-0.33","7196","2","12","Male","approach_avoid_spark_v1","""event"",""trial"",""time""
""fullscreenenter"",""1"",""10121""
","
","
","""event"",""trial"",""time""
""fullscreenenter"",""1"",""10121""
","
","","","","","","null","<div style=""font-size:60px;"">+</div>","null","","fixation","","","","","","","","","","",""
"aa-learning-trial","139","582145","0.0-9.0-2.0-1.33","7196","2","12","Male","approach_avoid_spark_v1","""event"",""trial"",""time""
""fullscreenenter"",""1"",""10121""
","
","
","""event"",""trial"",""time""
""fullscreenenter"",""1"",""10121""
","
","","","","","","1585.7999999523163","images/cat3.png","","","learning","2","2","1","1","cat","pets","2","0","","neutral","0"
"html-keyboard-response","140","582647","0.0-9.0-2.0-0.34","7196","2","12","Male","approach_avoid_spark_v1","""event"",""trial"",""time""
""fullscreenenter"",""1"",""10121""
","
","
","""event"",""trial"",""time""
""fullscreenenter"",""1"",""10121""
","
","","","","","","null","<div style=""font-size:60px;"">+</div>","null","","fixation","","","","","","","","","","",""
"aa-learning-trial","141","585658","0.0-9.0-2.0-1.34","7196","2","12","Male","approach_avoid_spark_v1","""event"",""trial"",""time""
""fullscreenenter"",""1"",""10121""
","
","
","""event"",""trial"",""time""
""fullscreenenter"",""1"",""10121""
","
","","","","","","857.3999998569489","images/rabbit3.png","","","learning","9","9","1","1","rabbit","pets","2","0","","good","[6]"
"html-keyboard-response","142","586160","0.0-9.0-2.0-0.35","7196","2","12","Male","approach_avoid_spark_v1","""event"",""trial"",""time""
""fullscreenenter"",""1"",""10121""
","
","
","""event"",""trial"",""time""
""fullscreenenter"",""1"",""10121""
","
","","","","","","null","<div style=""font-size:60px;"">+</div>","null","","fixation","","","","","","","","","","",""
"aa-learning-trial","143","589164","0.0-9.0-2.0-1.35","7196","2","12","Male","approach_avoid_spark_v1","""event"",""trial"",""time""
""fullscreenenter"",""1"",""10121""
","
","
","""event"",""trial"",""time""
""fullscreenenter"",""1"",""10121""
","
","","","","","","622.7999999523163","images/rabbit4.png","","","learning","5","5","1","1","rabbit","pets","2","0","","good","[6]"
"html-keyboard-response","144","589668","0.0-9.0-2.0-0.36","7196","2","12","Male","approach_avoid_spark_v1","""event"",""trial"",""time""
""fullscreenenter"",""1"",""10121""
","
","
","""event"",""trial"",""time""
""fullscreenenter"",""1"",""10121""
","
","","","","","","null","<div style=""font-size:60px;"">+</div>","null","","fixation","","","","","","","","","","",""
"aa-learning-trial","145","592681","0.0-9.0-2.0-1.36","7196","2","12","Male","approach_avoid_spark_v1","""event"",""trial"",""time""
""fullscreenenter"",""1"",""10121""
","
","
","""event"",""trial"",""time""
""fullscreenenter"",""1"",""10121""
","
","","","","","","627.5999999046326","images/dog2.png","","","learning","-5","0","0","0","dog","pets","2","0","","bad","[-4]"
"html-keyboard-response","146","593198","0.0-9.0-2.0-0.37","7196","2","12","Male","approach_avoid_spark_v1","""event"",""trial"",""time""
""fullscreenenter"",""1"",""10121""
","
","
","""event"",""trial"",""time""
""fullscreenenter"",""1"",""10121""
","
","","","","","","null","<div style=""font-size:60px;"">+</div>","null","","fixation","","","","","","","","","","",""
"aa-learning-trial","147","596201","0.0-9.0-2.0-1.37","7196","2","12","Male","approach_avoid_spark_v1","""event"",""trial"",""time""
""fullscreenenter"",""1"",""10121""
","
","
","""event"",""trial"",""time""
""fullscreenenter"",""1"",""10121""
","
","","","","","","1877.1000001430511","images/cat1.png","","","learning","-9","0","0","0","cat","pets","2","0","","neutral","0"
"html-keyboard-response","148","596717","0.0-9.0-2.0-0.38","7196","2","12","Male","approach_avoid_spark_v1","""event"",""trial"",""time""
""fullscreenenter"",""1"",""10121""
","
","
","""event"",""trial"",""time""
""fullscreenenter"",""1"",""10121""
","
","","","","","","null","<div style=""font-size:60px;"">+</div>","null","","fixation","","","","","","","","","","",""
"aa-learning-trial","149","599727","0.0-9.0-2.0-1.38","7196","2","12","Male","approach_avoid_spark_v1","""event"",""trial"",""time""
""fullscreenenter"",""1"",""10121""
","
","
","""event"",""trial"",""time""
""fullscreenenter"",""1"",""10121""
","
","","","","","","1275","images/rabbit8.png","","","learning","-7","0","0","0","rabbit","pets","2","0","","good","[6]"
"html-keyboard-response","150","600235","0.0-9.0-2.0-0.39","7196","2","12","Male","approach_avoid_spark_v1","""event"",""trial"",""time""
""fullscreenenter"",""1"",""10121""
","
","
","""event"",""trial"",""time""
""fullscreenenter"",""1"",""10121""
","
","","","","","","null","<div style=""font-size:60px;"">+</div>","null","","fixation","","","","","","","","","","",""
"aa-learning-trial","151","603250","0.0-9.0-2.0-1.39","7196","2","12","Male","approach_avoid_spark_v1","""event"",""trial"",""time""
""fullscreenenter"",""1"",""10121""
","
","
","""event"",""trial"",""time""
""fullscreenenter"",""1"",""10121""
","
","","","","","","881.5999999046326","images/cat3.png","","","learning","2","2","1","1","cat","pets","2","0","","neutral","0"
"html-keyboard-response","152","603757","0.0-9.0-2.0-0.40","7196","2","12","Male","approach_avoid_spark_v1","""event"",""trial"",""time""
""fullscreenenter"",""1"",""10121""
","
","
","""event"",""trial"",""time""
""fullscreenenter"",""1"",""10121""
","
","","","","","","null","<div style=""font-size:60px;"">+</div>","null","","fixation","","","","","","","","","","",""
"aa-learning-trial","153","606761","0.0-9.0-2.0-1.40","7196","2","12","Male","approach_avoid_spark_v1","""event"",""trial"",""time""
""fullscreenenter"",""1"",""10121""
","
","
","""event"",""trial"",""time""
""fullscreenenter"",""1"",""10121""
","
","","","","","","1201.8999998569489","images/cat5.png","","","learning","-4","0","0","0","cat","pets","2","0","","neutral","0"
"html-keyboard-response","154","607264","0.0-9.0-2.0-0.41","7196","2","12","Male","approach_avoid_spark_v1","""event"",""trial"",""time""
""fullscreenenter"",""1"",""10121""
","
","
","""event"",""trial"",""time""
""fullscreenenter"",""1"",""10121""
","
","","","","","","null","<div style=""font-size:60px;"">+</div>","null","","fixation","","","","","","","","","","",""
"aa-learning-trial","155","610268","0.0-9.0-2.0-1.41","7196","2","12","Male","approach_avoid_spark_v1","""event"",""trial"",""time""
""fullscreenenter"",""1"",""10121""
","
","
","""event"",""trial"",""time""
""fullscreenenter"",""1"",""10121""
","
","","","","","","1371.6999998092651","images/dog4.png","","","learning","3","3","1","1","dog","pets","2","0","","bad","[-4]"
"html-keyboard-response","156","610772","0.0-9.0-2.0-0.42","7196","2","12","Male","approach_avoid_spark_v1","""event"",""trial"",""time""
""fullscreenenter"",""1"",""10121""
","
","
","""event"",""trial"",""time""
""fullscreenenter"",""1"",""10121""
","
","","","","","","null","<div style=""font-size:60px;"">+</div>","null","","fixation","","","","","","","","","","",""
"aa-learning-trial","157","613785","0.0-9.0-2.0-1.42","7196","2","12","Male","approach_avoid_spark_v1","""event"",""trial"",""time""
""fullscreenenter"",""1"",""10121""
","
","
","""event"",""trial"",""time""
""fullscreenenter"",""1"",""10121""
","
","","","","","","1625.4000000953674","images/cat1.png","","","learning","-9","0","0","0","cat","pets","2","0","","neutral","0"
"html-keyboard-response","158","614291","0.0-9.0-2.0-0.43","7196","2","12","Male","approach_avoid_spark_v1","""event"",""trial"",""time""
""fullscreenenter"",""1"",""10121""
","
","
","""event"",""trial"",""time""
""fullscreenenter"",""1"",""10121""
","
","","","","","","null","<div style=""font-size:60px;"">+</div>","null","","fixation","","","","","","","","","","",""
"aa-learning-trial","159","617307","0.0-9.0-2.0-1.43","7196","2","12","Male","approach_avoid_spark_v1","""event"",""trial"",""time""
""fullscreenenter"",""1"",""10121""
","
","
","""event"",""trial"",""time""
""fullscreenenter"",""1"",""10121""
","
","","","","","","1172.2000000476837","images/dog1.png","","","learning","-8","0","0","0","dog","pets","2","0","","bad","[-4]"
"html-keyboard-response","160","617811","0.0-9.0-2.0-0.44","7196","2","12","Male","approach_avoid_spark_v1","""event"",""trial"",""time""
""fullscreenenter"",""1"",""10121""
","
","
","""event"",""trial"",""time""
""fullscreenenter"",""1"",""10121""
","
","","","","","","null","<div style=""font-size:60px;"">+</div>","null","","fixation","","","","","","","","","","",""
"aa-learning-trial","161","620821","0.0-9.0-2.0-1.44","7196","2","12","Male","approach_avoid_spark_v1","""event"",""trial"",""time""
""fullscreenenter"",""1"",""10121""
","
","
","""event"",""trial"",""time""
""fullscreenenter"",""1"",""10121""
","
","","","","","","863.5","images/dog2.png","","","learning","-5","0","0","0","dog","pets","2","0","","bad","[-4]"
"html-keyboard-response","162","621322","0.0-9.0-2.0-0.45","7196","2","12","Male","approach_avoid_spark_v1","""event"",""trial"",""time""
""fullscreenenter"",""1"",""10121""
","
","
","""event"",""trial"",""time""
""fullscreenenter"",""1"",""10121""
","
","","","","","","null","<div style=""font-size:60px;"">+</div>","null","","fixation","","","","","","","","","","",""
"aa-learning-trial","163","624334","0.0-9.0-2.0-1.45","7196","2","12","Male","approach_avoid_spark_v1","""event"",""trial"",""time""
""fullscreenenter"",""1"",""10121""
","
","
","""event"",""trial"",""time""
""fullscreenenter"",""1"",""10121""
","
","","","","","","1343.9000000953674","images/rabbit1.png","","","learning","-3","0","0","0","rabbit","pets","2","0","","good","[6]"
"html-keyboard-response","164","624851","0.0-9.0-2.0-0.46","7196","2","12","Male","approach_avoid_spark_v1","""event"",""trial"",""time""
""fullscreenenter"",""1"",""10121""
","
","
","""event"",""trial"",""time""
""fullscreenenter"",""1"",""10121""
","
","","","","","","null","<div style=""font-size:60px;"">+</div>","null","","fixation","","","","","","","","","","",""
"aa-learning-trial","165","627857","0.0-9.0-2.0-1.46","7196","2","12","Male","approach_avoid_spark_v1","""event"",""trial"",""time""
""fullscreenenter"",""1"",""10121""
","
","
","""event"",""trial"",""time""
""fullscreenenter"",""1"",""10121""
","
","","","","","","656.5","images/dog2.png","","","learning","-5","0","0","0","dog","pets","2","0","","bad","[-4]"
"html-keyboard-response","166","628363","0.0-9.0-2.0-0.47","7196","2","12","Male","approach_avoid_spark_v1","""event"",""trial"",""time""
""fullscreenenter"",""1"",""10121""
","
","
","""event"",""trial"",""time""
""fullscreenenter"",""1"",""10121""
","
","","","","","","null","<div style=""font-size:60px;"">+</div>","null","","fixation","","","","","","","","","","",""
"aa-learning-trial","167","631373","0.0-9.0-2.0-1.47","7196","2","12","Male","approach_avoid_spark_v1","""event"",""trial"",""time""
""fullscreenenter"",""1"",""10121""
","
","
","""event"",""trial"",""time""
""fullscreenenter"",""1"",""10121""
","
","","","","","","912.1999998092651","images/rabbit5.png","","","learning","-2","0","0","0","rabbit","pets","2","0","","good","[6]"
"html-keyboard-response","168","631880","0.0-9.0-2.0-0.48","7196","2","12","Male","approach_avoid_spark_v1","""event"",""trial"",""time""
""fullscreenenter"",""1"",""10121""
","
","
","""event"",""trial"",""time""
""fullscreenenter"",""1"",""10121""
","
","","","","","","null","<div style=""font-size:60px;"">+</div>","null","","fixation","","","","","","","","","","",""
"aa-learning-trial","169","634891","0.0-9.0-2.0-1.48","7196","2","12","Male","approach_avoid_spark_v1","""event"",""trial"",""time""
""fullscreenenter"",""1"",""10121""
","
","
","""event"",""trial"",""time""
""fullscreenenter"",""1"",""10121""
","
","","","","","","639.9000000953674","images/rabbit4.png","","","learning","5","5","1","1","rabbit","pets","2","0","","good","[6]"
"html-keyboard-response","170","635408","0.0-9.0-2.0-0.49","7196","2","12","Male","approach_avoid_spark_v1","""event"",""trial"",""time""
""fullscreenenter"",""1"",""10121""
","
","
","""event"",""trial"",""time""
""fullscreenenter"",""1"",""10121""
","
","","","","","","null","<div style=""font-size:60px;"">+</div>","null","","fixation","","","","","","","","","","",""
"aa-learning-trial","171","638412","0.0-9.0-2.0-1.49","7196","2","12","Male","approach_avoid_spark_v1","""event"",""trial"",""time""
""fullscreenenter"",""1"",""10121""
","
","
","""event"",""trial"",""time""
""fullscreenenter"",""1"",""10121""
","
","","","","","","862.9000000953674","images/cat5.png","","","learning","-4","-4","1","1","cat","pets","2","0","","neutral","0"
"html-keyboard-response","172","638918","0.0-9.0-2.0-0.50","7196","2","12","Male","approach_avoid_spark_v1","""event"",""trial"",""time""
""fullscreenenter"",""1"",""10121""
","
","
","""event"",""trial"",""time""
""fullscreenenter"",""1"",""10121""
","
","","","","","","null","<div style=""font-size:60px;"">+</div>","null","","fixation","","","","","","","","","","",""
"aa-learning-trial","173","641927","0.0-9.0-2.0-1.50","7196","2","12","Male","approach_avoid_spark_v1","""event"",""trial"",""time""
""fullscreenenter"",""1"",""10121""
","
","
","""event"",""trial"",""time""
""fullscreenenter"",""1"",""10121""
","
","","","","","","868.6000001430511","images/cat5.png","","","learning","-4","0","0","0","cat","pets","2","0","","neutral","0"
"html-button-response","174","648773","0.0-9.0-3.0","7196","2","12","Male","approach_avoid_spark_v1","""event"",""trial"",""time""
""fullscreenenter"",""1"",""10121""
","
","
","""event"",""trial"",""time""
""fullscreenenter"",""1"",""10121""
","
","","","","","","6844.200000047684","<p> You have completed the round! <p> In this round, you earned 79 points! </p>","0","","break","","","","","","","","","","",""
"html-button-response","175","650397","0.0-10.0","7196","2","12","Male","approach_avoid_spark_v1","""event"",""trial"",""time""
""fullscreenenter"",""1"",""10121""
","
","
","""event"",""trial"",""time""
""fullscreenenter"",""1"",""10121""
","
","","","","","","1623.7000000476837","<p> Now it's time to play another round. </p>","0","","transition_screen","","","","","","","","","","",""
"preload","176","650522","0.0-11.0-0.0","7196","2","12","Male","approach_avoid_spark_v1","""event"",""trial"",""time""
""fullscreenenter"",""1"",""10121""
","
","
","""event"",""trial"",""time""
""fullscreenenter"",""1"",""10121""
","
","true","false","[]","[]","[]","","","","","","","","","","","","","","","",""
"learning-instructions","177","658453","0.0-11.0-1.0-0.0","7196","2","12","Male","approach_avoid_spark_v1","""event"",""trial"",""time""
""fullscreenenter"",""1"",""10121""
","
","
","""event"",""trial"",""time""
""fullscreenenter"",""1"",""10121""
","
","","","","","","1166.5999999046326","<p> Your goal in this round is to take your friend for rides in different vehicles. </p></div>","","0","instructions","","","","","","","","","","",""
"learning-instructions","178","672154","0.0-11.0-1.0-0.1","7196","2","12","Male","approach_avoid_spark_v1","""event"",""trial"",""time""
""fullscreenenter"",""1"",""10121""
","
","
","""event"",""trial"",""time""
""fullscreenenter"",""1"",""10121""
","
","","","","","","2918","<p> Your friend enjoys riding in some vehicles but not in others.  </p><p> On each turn, you will see a vehicle.   </p><p> You need to decide whether to take your friend for a ride or not.  </p>","","0","instructions","","","","","","","","","","",""
"learning-instructions","179","681443","0.0-11.0-1.0-0.2","7196","2","12","Male","approach_avoid_spark_v1","""event"",""trial"",""time""
""fullscreenenter"",""1"",""10121""
","
","
","""event"",""trial"",""time""
""fullscreenenter"",""1"",""10121""
","
","","","","","","1076.5","<p> You can take your friend for a ride in the vehicle by pressing 1 and skip the ride by pressing 0. </p><br><div class=""choice-instructions-grid""> <div class=""choice-option""><img src=""images/approach.png"" class=""choice-option-img"" stage=""instructions"" position=""0"" ><div class=""choice-option-text""> Press ""1."" </div></div><div class=""choice-option""><img src=""images/avoid.png"" class=""choice-option-img"" stage=""instructions"" position=""1"" ><div class=""choice-option-text""> Press ""0."" </div></div>","","0","instructions","","","","","","","","","","",""
"learning-instructions","180","692254","0.0-11.0-1.0-0.3","7196","2","12","Male","approach_avoid_spark_v1","""event"",""trial"",""time""
""fullscreenenter"",""1"",""10121""
","
","
","""event"",""trial"",""time""
""fullscreenenter"",""1"",""10121""
","
","","","","","","1244.8999998569489","<p> If you take them for a ride in a vehicle they like, they will be thrilled! </p><p> But if you take them for a ride in a vehicle they do not like, they will be upset. </p>","","0","instructions","","","","","","","","","","",""
"learning-instructions","181","706168","0.0-11.0-1.0-0.4","7196","2","12","Male","approach_avoid_spark_v1","""event"",""trial"",""time""
""fullscreenenter"",""1"",""10121""
","
","
","""event"",""trial"",""time""
""fullscreenenter"",""1"",""10121""
","
","","","","","","1279.0999999046326","<p> You will earn points based on how you made your friend feel. </p><p> If you made him thrilled, you will WIN anywhere from 1 - 9 points, </p><p> but if you made him upset, you will LOSE anywhere from 1 - 9 points. </p>","","0","instructions","","","","","","","","","","",""
"learning-instructions","182","714429","0.0-11.0-1.0-0.5","7196","2","12","Male","approach_avoid_spark_v1","""event"",""trial"",""time""
""fullscreenenter"",""1"",""10121""
","
","
","""event"",""trial"",""time""
""fullscreenenter"",""1"",""10121""
","
","","","","","","1600.3999998569489","<p> You will see how many points you won or lost in the center of the screen. </p><p> Here is what you would see if you won 5 points: </p><p style=""color:green;font-size:50px;font-weight:bolder"">5</p>","","0","instructions","","","","","","","","","","",""
"learning-instructions","183","717871","0.0-11.0-1.0-0.6","7196","2","12","Male","approach_avoid_spark_v1","""event"",""trial"",""time""
""fullscreenenter"",""1"",""10121""
","
","
","""event"",""trial"",""time""
""fullscreenenter"",""1"",""10121""
","
","","","","","","592.5999999046326","<p> And here is what you would see if you lost 3 points: </p><p style=""color:red;font-size:50px;font-weight:bolder"">-3</p>","","0","instructions","","","","","","","","","","",""
"learning-instructions","184","736102","0.0-11.0-1.0-0.7","7196","2","12","Male","approach_avoid_spark_v1","""event"",""trial"",""time""
""fullscreenenter"",""1"",""10121""
","
","
","""event"",""trial"",""time""
""fullscreenenter"",""1"",""10121""
","
","","","","","","1993.3999998569489","<p> Some vehicles will make your friend REALLY thrilled or upset. </p><p> These vehicles will make you win or lose LOTS of points. </p><p> Other vehicles will only make him feel a little thrilled or upset. </p><p> These vehicles will make you win or lose small amounts of points. </p>","","0","instructions","","","","","","","","","","",""
"learning-instructions","185","750008","0.0-11.0-1.0-0.8","7196","2","12","Male","approach_avoid_spark_v1","""event"",""trial"",""time""
""fullscreenenter"",""1"",""10121""
","
","
","""event"",""trial"",""time""
""fullscreenenter"",""1"",""10121""
","
","","","","","","1328.7999999523163","<p> If you choose to skip the ride, you will not win or lose any points. </p><p>  However, in the center of the screen, you will see the number of points you WOULD HAVE won or lost if you had taken your friend for a ride. </p>","","0","instructions","","","","","","","","","","",""
"learning-instructions","186","762232","0.0-11.0-1.0-0.9","7196","2","12","Male","approach_avoid_spark_v1","""event"",""trial"",""time""
""fullscreenenter"",""1"",""10121""
","
","
","""event"",""trial"",""time""
""fullscreenenter"",""1"",""10121""
","
","","","","","","736.2999999523163","<p> Here is what you might see if you did not take your friend for a ride but he would have enjoyed it: </p><p style=""color:grey; font-size:50px; display: inline-block; border-spacing: 15px; border-width:3px; border-style:solid; border-color:red"">  &nbsp; 6 &nbsp; </p><p> Remember, in this case, you would not win or lose ANY points because you skipped the ride.  </p>","","0","instructions","","","","","","","","","","",""
"learning-instructions","187","771146","0.0-11.0-1.0-0.10","7196","2","12","Male","approach_avoid_spark_v1","""event"",""trial"",""time""
""fullscreenenter"",""1"",""10121""
","
","
","""event"",""trial"",""time""
""fullscreenenter"",""1"",""10121""
","
","","","","","","1040.7000000476837","<p> Try to make the best choice for each vehicle because </p><p> at the end of the game, you will earn bonus money based on how many points you earned. </p>","","0","instructions","","","","","","","","","","",""
"learning-instructions","188","780121","0.0-11.0-1.0-0.11","7196","2","12","Male","approach_avoid_spark_v1","""event"",""trial"",""time""
""fullscreenenter"",""1"",""10121""
","
","
","""event"",""trial"",""time""
""fullscreenenter"",""1"",""10121""
","
","","","","","","776.2000000476837","<p> You will have 3 seconds to make each choice. Try to respond before time runs out! </p><p> You will lose 5 points each time you do not make a response. </p>","","0","instructions","","","","","","","","","","",""
"html-keyboard-response","189","780744","0.0-11.0-2.0-0.0","7196","2","12","Male","approach_avoid_spark_v1","""event"",""trial"",""time""
""fullscreenenter"",""1"",""10121""
","
","
","""event"",""trial"",""time""
""fullscreenenter"",""1"",""10121""
","
","","","","","","null","<div style=""font-size:60px;"">+</div>","null","","fixation","","","","","","","","","","",""
"aa-learning-trial","190","783754","0.0-11.0-2.0-1.0","7196","2","12","Male","approach_avoid_spark_v1","""event"",""trial"",""time""
""fullscreenenter"",""1"",""10121""
","
","
","""event"",""trial"",""time""
""fullscreenenter"",""1"",""10121""
","
","","","","","","1351.1000001430511","images/boat3.png","","","learning","-4","-4","1","1","boat","vehicles","1","1","","bad","[-6]"
"html-keyboard-response","191","784274","0.0-11.0-2.0-0.1","7196","2","12","Male","approach_avoid_spark_v1","""event"",""trial"",""time""
""fullscreenenter"",""1"",""10121""
","
","
","""event"",""trial"",""time""
""fullscreenenter"",""1"",""10121""
","
","","","","","","null","<div style=""font-size:60px;"">+</div>","null","","fixation","","","","","","","","","","",""
"aa-learning-trial","192","787294","0.0-11.0-2.0-1.1","7196","2","12","Male","approach_avoid_spark_v1","""event"",""trial"",""time""
""fullscreenenter"",""1"",""10121""
","
","
","""event"",""trial"",""time""
""fullscreenenter"",""1"",""10121""
","
","","","","","","1065.0999999046326","images/boat6.png","","","learning","-5","-5","1","1","boat","vehicles","1","1","","bad","[-6]"
"html-keyboard-response","193","787804","0.0-11.0-2.0-0.2","7196","2","12","Male","approach_avoid_spark_v1","""event"",""trial"",""time""
""fullscreenenter"",""1"",""10121""
","
","
","""event"",""trial"",""time""
""fullscreenenter"",""1"",""10121""
","
","","","","","","null","<div style=""font-size:60px;"">+</div>","null","","fixation","","","","","","","","","","",""
"aa-learning-trial","194","790824","0.0-11.0-2.0-1.2","7196","2","12","Male","approach_avoid_spark_v1","""event"",""trial"",""time""
""fullscreenenter"",""1"",""10121""
","
","
","""event"",""trial"",""time""
""fullscreenenter"",""1"",""10121""
","
","","","","","","673.0999999046326","images/boat6.png","","","learning","-6","0","0","0","boat","vehicles","1","1","","bad","[-6]"
"html-keyboard-response","195","791344","0.0-11.0-2.0-0.3","7196","2","12","Male","approach_avoid_spark_v1","""event"",""trial"",""time""
""fullscreenenter"",""1"",""10121""
","
","
","""event"",""trial"",""time""
""fullscreenenter"",""1"",""10121""
","
","","","","","","null","<div style=""font-size:60px;"">+</div>","null","","fixation","","","","","","","","","","",""
"aa-learning-trial","196","794354","0.0-11.0-2.0-1.3","7196","2","12","Male","approach_avoid_spark_v1","""event"",""trial"",""time""
""fullscreenenter"",""1"",""10121""
","
","
","""event"",""trial"",""time""
""fullscreenenter"",""1"",""10121""
","
","","","","","","1151.6000001430511","images/plane8.png","","","learning","7","7","1","1","plane","vehicles","1","1","","good","[6]"
"html-keyboard-response","197","794874","0.0-11.0-2.0-0.4","7196","2","12","Male","approach_avoid_spark_v1","""event"",""trial"",""time""
""fullscreenenter"",""1"",""10121""
","
","
","""event"",""trial"",""time""
""fullscreenenter"",""1"",""10121""
","
","","","","","","null","<div style=""font-size:60px;"">+</div>","null","","fixation","","","","","","","","","","",""
"aa-learning-trial","198","797894","0.0-11.0-2.0-1.4","7196","2","12","Male","approach_avoid_spark_v1","""event"",""trial"",""time""
""fullscreenenter"",""1"",""10121""
","
","
","""event"",""trial"",""time""
""fullscreenenter"",""1"",""10121""
","
","","","","","","714.5999999046326","images/truck4.png","","","learning","-2","-2","1","1","truck","vehicles","1","1","","neutral","0"
"html-keyboard-response","199","798403","0.0-11.0-2.0-0.5","7196","2","12","Male","approach_avoid_spark_v1","""event"",""trial"",""time""
""fullscreenenter"",""1"",""10121""
","
","
","""event"",""trial"",""time""
""fullscreenenter"",""1"",""10121""
","
","","","","","","null","<div style=""font-size:60px;"">+</div>","null","","fixation","","","","","","","","","","",""
"aa-learning-trial","200","801424","0.0-11.0-2.0-1.5","7196","2","12","Male","approach_avoid_spark_v1","""event"",""trial"",""time""
""fullscreenenter"",""1"",""10121""
","
","
","""event"",""trial"",""time""
""fullscreenenter"",""1"",""10121""
","
","","","","","","1411.8000001907349","images/truck7.png","","","learning","-1","-1","1","1","truck","vehicles","1","1","","neutral","0"
"html-keyboard-response","201","801944","0.0-11.0-2.0-0.6","7196","2","12","Male","approach_avoid_spark_v1","""event"",""trial"",""time""
""fullscreenenter"",""1"",""10121""
","
","
","""event"",""trial"",""time""
""fullscreenenter"",""1"",""10121""
","
","","","","","","null","<div style=""font-size:60px;"">+</div>","null","","fixation","","","","","","","","","","",""
"aa-learning-trial","202","804964","0.0-11.0-2.0-1.6","7196","2","12","Male","approach_avoid_spark_v1","""event"",""trial"",""time""
""fullscreenenter"",""1"",""10121""
","
","
","""event"",""trial"",""time""
""fullscreenenter"",""1"",""10121""
","
","","","","","","1188.7000000476837","images/boat4.png","","","learning","-7","0","0","0","boat","vehicles","1","1","","bad","[-6]"
"html-keyboard-response","203","805484","0.0-11.0-2.0-0.7","7196","2","12","Male","approach_avoid_spark_v1","""event"",""trial"",""time""
""fullscreenenter"",""1"",""10121""
","
","
","""event"",""trial"",""time""
""fullscreenenter"",""1"",""10121""
","
","","","","","","null","<div style=""font-size:60px;"">+</div>","null","","fixation","","","","","","","","","","",""
"aa-learning-trial","204","808494","0.0-11.0-2.0-1.7","7196","2","12","Male","approach_avoid_spark_v1","""event"",""trial"",""time""
""fullscreenenter"",""1"",""10121""
","
","
","""event"",""trial"",""time""
""fullscreenenter"",""1"",""10121""
","
","","","","","","1106.7000000476837","images/truck5.png","","","learning","-2","0","0","0","truck","vehicles","1","1","","neutral","0"
"html-keyboard-response","205","809014","0.0-11.0-2.0-0.8","7196","2","12","Male","approach_avoid_spark_v1","""event"",""trial"",""time""
""fullscreenenter"",""1"",""10121""
","
","
","""event"",""trial"",""time""
""fullscreenenter"",""1"",""10121""
","
","","","","","","null","<div style=""font-size:60px;"">+</div>","null","","fixation","","","","","","","","","","",""
"aa-learning-trial","206","812010","0.0-11.0-2.0-1.8","7196","2","12","Male","approach_avoid_spark_v1","""event"",""trial"",""time""
""fullscreenenter"",""1"",""10121""
","
","
","""event"",""trial"",""time""
""fullscreenenter"",""1"",""10121""
","
","","","","","","1615.8999998569489","images/plane7.png","","","learning","7","7","1","1","plane","vehicles","1","1","","good","[6]"
"html-keyboard-response","207","812514","0.0-11.0-2.0-0.9","7196","2","12","Male","approach_avoid_spark_v1","""event"",""trial"",""time""
""fullscreenenter"",""1"",""10121""
","
","
","""event"",""trial"",""time""
""fullscreenenter"",""1"",""10121""
","
","","","","","","null","<div style=""font-size:60px;"">+</div>","null","","fixation","","","","","","","","","","",""
"aa-learning-trial","208","815530","0.0-11.0-2.0-1.9","7196","2","12","Male","approach_avoid_spark_v1","""event"",""trial"",""time""
""fullscreenenter"",""1"",""10121""
","
","
","""event"",""trial"",""time""
""fullscreenenter"",""1"",""10121""
","
","","","","","","917.9000000953674","images/plane8.png","","","learning","4","4","1","1","plane","vehicles","1","1","","good","[6]"
"html-keyboard-response","209","816033","0.0-11.0-2.0-0.10","7196","2","12","Male","approach_avoid_spark_v1","""event"",""trial"",""time""
""fullscreenenter"",""1"",""10121""
","
","
","""event"",""trial"",""time""
""fullscreenenter"",""1"",""10121""
","
","","","","","","null","<div style=""font-size:60px;"">+</div>","null","","fixation","","","","","","","","","","",""
"aa-learning-trial","210","819050","0.0-11.0-2.0-1.10","7196","2","12","Male","approach_avoid_spark_v1","""event"",""trial"",""time""
""fullscreenenter"",""1"",""10121""
","
","
","""event"",""trial"",""time""
""fullscreenenter"",""1"",""10121""
","
","","","","","","868","images/plane7.png","","","learning","6","6","1","1","plane","vehicles","1","1","","good","[6]"
"html-keyboard-response","211","819558","0.0-11.0-2.0-0.11","7196","2","12","Male","approach_avoid_spark_v1","""event"",""trial"",""time""
""fullscreenenter"",""1"",""10121""
","
","
","""event"",""trial"",""time""
""fullscreenenter"",""1"",""10121""
","
","","","","","","null","<div style=""font-size:60px;"">+</div>","null","","fixation","","","","","","","","","","",""
"aa-learning-trial","212","822571","0.0-11.0-2.0-1.11","7196","2","12","Male","approach_avoid_spark_v1","""event"",""trial"",""time""
""fullscreenenter"",""1"",""10121""
","
","
","""event"",""trial"",""time""
""fullscreenenter"",""1"",""10121""
","
","","","","","","761.2000000476837","images/truck5.png","","","learning","1","0","0","0","truck","vehicles","1","1","","neutral","0"
"html-keyboard-response","213","823074","0.0-11.0-2.0-0.12","7196","2","12","Male","approach_avoid_spark_v1","""event"",""trial"",""time""
""fullscreenenter"",""1"",""10121""
","
","
","""event"",""trial"",""time""
""fullscreenenter"",""1"",""10121""
","
","","","","","","null","<div style=""font-size:60px;"">+</div>","null","","fixation","","","","","","","","","","",""
"aa-learning-trial","214","826086","0.0-11.0-2.0-1.12","7196","2","12","Male","approach_avoid_spark_v1","""event"",""trial"",""time""
""fullscreenenter"",""1"",""10121""
","
","
","""event"",""trial"",""time""
""fullscreenenter"",""1"",""10121""
","
","","","","","","1204.5999999046326","images/truck7.png","","","learning","-1","0","0","0","truck","vehicles","1","1","","neutral","0"
"html-keyboard-response","215","826590","0.0-11.0-2.0-0.13","7196","2","12","Male","approach_avoid_spark_v1","""event"",""trial"",""time""
""fullscreenenter"",""1"",""10121""
","
","
","""event"",""trial"",""time""
""fullscreenenter"",""1"",""10121""
","
","","","","","","null","<div style=""font-size:60px;"">+</div>","null","","fixation","","","","","","","","","","",""
"aa-learning-trial","216","829596","0.0-11.0-2.0-1.13","7196","2","12","Male","approach_avoid_spark_v1","""event"",""trial"",""time""
""fullscreenenter"",""1"",""10121""
","
","
","""event"",""trial"",""time""
""fullscreenenter"",""1"",""10121""
","
","","","","","","963.8000001907349","images/plane5.png","","","learning","6","6","1","1","plane","vehicles","1","1","","good","[6]"
"html-keyboard-response","217","830107","0.0-11.0-2.0-0.14","7196","2","12","Male","approach_avoid_spark_v1","""event"",""trial"",""time""
""fullscreenenter"",""1"",""10121""
","
","
","""event"",""trial"",""time""
""fullscreenenter"",""1"",""10121""
","
","","","","","","null","<div style=""font-size:60px;"">+</div>","null","","fixation","","","","","","","","","","",""
"aa-learning-trial","218","833116","0.0-11.0-2.0-1.14","7196","2","12","Male","approach_avoid_spark_v1","""event"",""trial"",""time""
""fullscreenenter"",""1"",""10121""
","
","
","""event"",""trial"",""time""
""fullscreenenter"",""1"",""10121""
","
","","","","","","846.2000000476837","images/boat3.png","","","learning","-4","0","0","0","boat","vehicles","1","1","","bad","[-6]"
"html-keyboard-response","219","833626","0.0-11.0-2.0-0.15","7196","2","12","Male","approach_avoid_spark_v1","""event"",""trial"",""time""
""fullscreenenter"",""1"",""10121""
","
","
","""event"",""trial"",""time""
""fullscreenenter"",""1"",""10121""
","
","","","","","","null","<div style=""font-size:60px;"">+</div>","null","","fixation","","","","","","","","","","",""
"aa-learning-trial","220","836637","0.0-11.0-2.0-1.15","7196","2","12","Male","approach_avoid_spark_v1","""event"",""trial"",""time""
""fullscreenenter"",""1"",""10121""
","
","
","""event"",""trial"",""time""
""fullscreenenter"",""1"",""10121""
","
","","","","","","1635.7000000476837","images/truck8.png","","","learning","1","0","0","0","truck","vehicles","1","1","","neutral","0"
"html-keyboard-response","221","837145","0.0-11.0-2.0-0.16","7196","2","12","Male","approach_avoid_spark_v1","""event"",""trial"",""time""
""fullscreenenter"",""1"",""10121""
","
","
","""event"",""trial"",""time""
""fullscreenenter"",""1"",""10121""
","
","","","","","","null","<div style=""font-size:60px;"">+</div>","null","","fixation","","","","","","","","","","",""
"aa-learning-trial","222","840153","0.0-11.0-2.0-1.16","7196","2","12","Male","approach_avoid_spark_v1","""event"",""trial"",""time""
""fullscreenenter"",""1"",""10121""
","
","
","""event"",""trial"",""time""
""fullscreenenter"",""1"",""10121""
","
","","","","","","894.4000000953674","images/truck5.png","","","learning","[-1]","-1","1","1","truck","vehicles","1","1","","neutral","0"
"html-keyboard-response","223","840664","0.0-11.0-2.0-0.17","7196","2","12","Male","approach_avoid_spark_v1","""event"",""trial"",""time""
""fullscreenenter"",""1"",""10121""
","
","
","""event"",""trial"",""time""
""fullscreenenter"",""1"",""10121""
","
","","","","","","null","<div style=""font-size:60px;"">+</div>","null","","fixation","","","","","","","","","","",""
"aa-learning-trial","224","843672","0.0-11.0-2.0-1.17","7196","2","12","Male","approach_avoid_spark_v1","""event"",""trial"",""time""
""fullscreenenter"",""1"",""10121""
","
","
","""event"",""trial"",""time""
""fullscreenenter"",""1"",""10121""
","
","","","","","","860.2999999523163","images/boat6.png","","","learning","-6","0","0","0","boat","vehicles","1","1","","bad","[-6]"
"html-keyboard-response","225","844181","0.0-11.0-2.0-0.18","7196","2","12","Male","approach_avoid_spark_v1","""event"",""trial"",""time""
""fullscreenenter"",""1"",""10121""
","
","
","""event"",""trial"",""time""
""fullscreenenter"",""1"",""10121""
","
","","","","","","null","<div style=""font-size:60px;"">+</div>","null","","fixation","","","","","","","","","","",""
"aa-learning-trial","226","847193","0.0-11.0-2.0-1.18","7196","2","12","Male","approach_avoid_spark_v1","""event"",""trial"",""time""
""fullscreenenter"",""1"",""10121""
","
","
","""event"",""trial"",""time""
""fullscreenenter"",""1"",""10121""
","
","","","","","","1231.7999999523163","images/truck4.png","","","learning","1","0","0","0","truck","vehicles","1","1","","neutral","0"
"html-keyboard-response","227","847696","0.0-11.0-2.0-0.19","7196","2","12","Male","approach_avoid_spark_v1","""event"",""trial"",""time""
""fullscreenenter"",""1"",""10121""
","
","
","""event"",""trial"",""time""
""fullscreenenter"",""1"",""10121""
","
","","","","","","null","<div style=""font-size:60px;"">+</div>","null","","fixation","","","","","","","","","","",""
"aa-learning-trial","228","850700","0.0-11.0-2.0-1.19","7196","2","12","Male","approach_avoid_spark_v1","""event"",""trial"",""time""
""fullscreenenter"",""1"",""10121""
","
","
","""event"",""trial"",""time""
""fullscreenenter"",""1"",""10121""
","
","","","","","","1103.2999999523163","images/boat3.png","","","learning","-7","0","0","0","boat","vehicles","1","1","","bad","[-6]"
"html-keyboard-response","229","851206","0.0-11.0-2.0-0.20","7196","2","12","Male","approach_avoid_spark_v1","""event"",""trial"",""time""
""fullscreenenter"",""1"",""10121""
","
","
","""event"",""trial"",""time""
""fullscreenenter"",""1"",""10121""
","
","","","","","","null","<div style=""font-size:60px;"">+</div>","null","","fixation","","","","","","","","","","",""
"aa-learning-trial","230","854222","0.0-11.0-2.0-1.20","7196","2","12","Male","approach_avoid_spark_v1","""event"",""trial"",""time""
""fullscreenenter"",""1"",""10121""
","
","
","""event"",""trial"",""time""
""fullscreenenter"",""1"",""10121""
","
","","","","","","447.2000000476837","images/plane7.png","","","learning","3","3","1","1","plane","vehicles","1","1","","good","[6]"
"html-keyboard-response","231","854736","0.0-11.0-2.0-0.21","7196","2","12","Male","approach_avoid_spark_v1","""event"",""trial"",""time""
""fullscreenenter"",""1"",""10121""
","
","
","""event"",""trial"",""time""
""fullscreenenter"",""1"",""10121""
","
","","","","","","null","<div style=""font-size:60px;"">+</div>","null","","fixation","","","","","","","","","","",""
"aa-learning-trial","232","857740","0.0-11.0-2.0-1.21","7196","2","12","Male","approach_avoid_spark_v1","""event"",""trial"",""time""
""fullscreenenter"",""1"",""10121""
","
","
","""event"",""trial"",""time""
""fullscreenenter"",""1"",""10121""
","
","","","","","","678.7000000476837","images/plane7.png","","","learning","3","3","1","1","plane","vehicles","1","1","","good","[6]"
"html-keyboard-response","233","858256","0.0-11.0-2.0-0.22","7196","2","12","Male","approach_avoid_spark_v1","""event"",""trial"",""time""
""fullscreenenter"",""1"",""10121""
","
","
","""event"",""trial"",""time""
""fullscreenenter"",""1"",""10121""
","
","","","","","","null","<div style=""font-size:60px;"">+</div>","null","","fixation","","","","","","","","","","",""
"aa-learning-trial","234","861264","0.0-11.0-2.0-1.22","7196","2","12","Male","approach_avoid_spark_v1","""event"",""trial"",""time""
""fullscreenenter"",""1"",""10121""
","
","
","""event"",""trial"",""time""
""fullscreenenter"",""1"",""10121""
","
","","","","","","1434.9000000953674","images/boat5.png","","","learning","-5","0","0","0","boat","vehicles","1","1","","bad","[-6]"
"html-keyboard-response","235","861766","0.0-11.0-2.0-0.23","7196","2","12","Male","approach_avoid_spark_v1","""event"",""trial"",""time""
""fullscreenenter"",""1"",""10121""
","
","
","""event"",""trial"",""time""
""fullscreenenter"",""1"",""10121""
","
","","","","","","null","<div style=""font-size:60px;"">+</div>","null","","fixation","","","","","","","","","","",""
"aa-learning-trial","236","864771","0.0-11.0-2.0-1.23","7196","2","12","Male","approach_avoid_spark_v1","""event"",""trial"",""time""
""fullscreenenter"",""1"",""10121""
","
","
","""event"",""trial"",""time""
