"trial_type","trial_index","time_elapsed","internal_node_id","subject_id","task_condition","age","gender","task_version","interactions","blur_events","focus_events","fullscreenenter_events","fullscreenexit_events","success","timeout","failed_images","failed_audio","failed_video","rt","stimulus","response","button_pressed","task_part","approach_reward","points","key_press","option_selected","stim_cat","task_block","block_condition","block_number","correct","cat_type","mean_cat_reward"
"pavlovia","0","4","0.0-0.0","4016","1","14","Male","approach_avoid_spark_v1","""event"",""trial"",""time""
""fullscreenenter"",""1"",""4249""
","
","
","""event"",""trial"",""time""
""fullscreenenter"",""1"",""4249""
","
","","","","","","","","","","","","","","","","","","","","",""
"fullscreen","1","5223","0.0-1.0","4016","1","14","Male","approach_avoid_spark_v1","""event"",""trial"",""time""
""fullscreenenter"",""1"",""4249""
","
","
","""event"",""trial"",""time""
""fullscreenenter"",""1"",""4249""
","
","true","","","","","","","","","","","","","","","","","","","",""
"preload","2","65767","0.0-2.0","4016","1","14","Male","approach_avoid_spark_v1","""event"",""trial"",""time""
""fullscreenenter"",""1"",""4249""
","
","
","""event"",""trial"",""time""
""fullscreenenter"",""1"",""4249""
","
","true","false","[]","[]","[]","","","","","","","","","","","","","","","",""
"audio-keyboard-response","3","73094","0.0-3.0","4016","1","14","Male","approach_avoid_spark_v1","""event"",""trial"",""time""
""fullscreenenter"",""1"",""4249""
","
","
","""event"",""trial"",""time""
""fullscreenenter"",""1"",""4249""
","
","","","","","","0","audio/beep_loop.wav"," ","","","","","","","","","","","","",""
"audio-button-response","4","78971","0.0-4.0","4016","1","14","Male","approach_avoid_spark_v1","""event"",""trial"",""time""
""fullscreenenter"",""1"",""4249""
","
","
","""event"",""trial"",""time""
""fullscreenenter"",""1"",""4249""
","
","","","","","","5381","audio/shark.wav","4","","","","","","","","","","","","",""
"audio-button-response","5","81459","0.0-5.0","4016","1","14","Male","approach_avoid_spark_v1","""event"",""trial"",""time""
""fullscreenenter"",""1"",""4249""
","
","
","""event"",""trial"",""time""
""fullscreenenter"",""1"",""4249""
","
","","","","","","1486","audio/turtle.wav","1","","","","","","","","","","","","",""
"preload","6","103282","0.0-6.0","4016","1","14","Male","approach_avoid_spark_v1","""event"",""trial"",""time""
""fullscreenenter"",""1"",""4249""
","
","
","""event"",""trial"",""time""
""fullscreenenter"",""1"",""4249""
","
","true","false","[]","[]","[]","","","","","","","","","","","","","","","",""
"html-keyboard-response","7","106557","0.0-7.0","4016","1","14","Male","approach_avoid_spark_v1","""event"",""trial"",""time""
""fullscreenenter"",""1"",""4249""
","
","
","""event"",""trial"",""time""
""fullscreenenter"",""1"",""4249""
","
","","","","","","3273","Welcome to the experiment. Press any key to begin and to advance the instructions."," ","","","","","","","","","","","","",""
"learning-instructions","8","114867","0.0-8.0-0.0-0.0","4016","1","14","Male","approach_avoid_spark_v1","""event"",""trial"",""time""
""fullscreenenter"",""1"",""4249""
","
","
","""event"",""trial"",""time""
""fullscreenenter"",""1"",""4249""
","
","","","","","","1356.0000000000146","<p> Welcome! Today you are going to play 6 different rounds of a decision-making game. </p><p> Use the mouse to click next to continue. </p>","","0","instructions","","","","","","","","","","",""
"learning-instructions","9","119259","0.0-8.0-0.0-0.1","4016","1","14","Male","approach_avoid_spark_v1","""event"",""trial"",""time""
""fullscreenenter"",""1"",""4249""
","
","
","""event"",""trial"",""time""
""fullscreenenter"",""1"",""4249""
","
","","","","","","1667","<p> You will start with a practice round to learn the rules. </p>","","0","instructions","","","","","","","","","","",""
"learning-instructions","10","124370","0.0-8.0-0.0-0.2","4016","1","14","Male","approach_avoid_spark_v1","""event"",""trial"",""time""
""fullscreenenter"",""1"",""4249""
","
","
","""event"",""trial"",""time""
""fullscreenenter"",""1"",""4249""
","
","","","","","","1668","<p> Your goal in this round is to give out sports equipment to kids. </p></div>","","0","instructions","","","","","","","","","","",""
"learning-instructions","11","132650","0.0-8.0-0.0-0.3","4016","1","14","Male","approach_avoid_spark_v1","""event"",""trial"",""time""
""fullscreenenter"",""1"",""4249""
","
","
","""event"",""trial"",""time""
""fullscreenenter"",""1"",""4249""
","
","","","","","","738","<p> The kids only like some of the equipment.  </p><p> On each turn, you will see a piece of sports equipment.   </p><p> You need to decide whether to give it to the kids or not.  </p>","","0","instructions","","","","","","","","","","",""
"learning-instructions","12","140850","0.0-8.0-0.0-0.4","4016","1","14","Male","approach_avoid_spark_v1","""event"",""trial"",""time""
""fullscreenenter"",""1"",""4249""
","
","
","""event"",""trial"",""time""
""fullscreenenter"",""1"",""4249""
","
","","","","","","3456.000000000029","<p> You can give them the equipment by pressing 1 and choose not to give it to them by pressing 0. </p><br><div class=""choice-instructions-grid""> <div class=""choice-option""><img src=""images/approach.png"" class=""choice-option-img"" stage=""instructions"" position=""0"" ><div class=""choice-option-text""> Press ""1."" </div></div><div class=""choice-option""><img src=""images/avoid.png"" class=""choice-option-img"" stage=""instructions"" position=""1"" ><div class=""choice-option-text""> Press ""0."" </div></div>","","0","instructions","","","","","","","","","","",""
"learning-instructions","13","149658","0.0-8.0-0.0-0.5","4016","1","14","Male","approach_avoid_spark_v1","""event"",""trial"",""time""
""fullscreenenter"",""1"",""4249""
","
","
","""event"",""trial"",""time""
""fullscreenenter"",""1"",""4249""
","
","","","","","","1429","<p> If you give them a piece of equipment they like, they will be happy! </p><p> But if you give them a piece of equipment they do not like, they will be sad. </p>","","0","instructions","","","","","","","","","","",""
"learning-instructions","14","160802","0.0-8.0-0.0-0.6","4016","1","14","Male","approach_avoid_spark_v1","""event"",""trial"",""time""
""fullscreenenter"",""1"",""4249""
","
","
","""event"",""trial"",""time""
""fullscreenenter"",""1"",""4249""
","
","","","","","","642","<p> You will earn points based on how you make kids feel. </p><p> If you make them happy, you will WIN anywhere from 1 - 9 points, </p><p> but if you make them sad, you will LOSE anywhere from 1 - 9 points. </p>","","0","instructions","","","","","","","","","","",""
"learning-instructions","15","171010","0.0-8.0-0.0-0.7","4016","1","14","Male","approach_avoid_spark_v1","""event"",""trial"",""time""
""fullscreenenter"",""1"",""4249""
","
","
","""event"",""trial"",""time""
""fullscreenenter"",""1"",""4249""
","
","","","","","","655","<p> You will see how many points you won or lost in the center of the screen. </p><p> Here is what you would see if you won 6 points: </p><p style=""color:green;font-size:50px;font-weight:bolder"">6</p><p style=""color:green"">The text is GREEN because you WON points.</p>","","0","instructions","","","","","","","","","","",""
"learning-instructions","16","177074","0.0-8.0-0.0-0.8","4016","1","14","Male","approach_avoid_spark_v1","""event"",""trial"",""time""
""fullscreenenter"",""1"",""4249""
","
","
","""event"",""trial"",""time""
""fullscreenenter"",""1"",""4249""
","
","","","","","","563","<p> And here is what you would see if you lost 4 points: </p><p style=""color:red;font-size:50px;font-weight:bolder"">-4</p><p style=""color:red"">The text is RED because you LOST points. </p>","","0","instructions","","","","","","","","","","",""
"learning-instructions","17","192305","0.0-8.0-0.0-0.9","4016","1","14","Male","approach_avoid_spark_v1","""event"",""trial"",""time""
""fullscreenenter"",""1"",""4249""
","
","
","""event"",""trial"",""time""
""fullscreenenter"",""1"",""4249""
","
","","","","","","525","<p> Some of the equipment will make the kids VERY happy or sad. </p><p> These pieces of equipment will make you win or lose LOTS of points. </p><p> Other pieces of equipment will only make the kids a little happy or sad. </p><p> These pieces of equipment will make you win or lose small amounts of points. </p>","","0","instructions","","","","","","","","","","",""
"learning-instructions","18","209457","0.0-8.0-0.0-0.10","4016","1","14","Male","approach_avoid_spark_v1","""event"",""trial"",""time""
""fullscreenenter"",""1"",""4249""
","
","
","""event"",""trial"",""time""
""fullscreenenter"",""1"",""4249""
","
","","","","","","6530.999999999971","<p> If you choose not to give them the equipment, you will not win or lose any points. </p><p>  However, in the center of the screen, you will see the number of points you WOULD HAVE won or lost if you had given them the equipment. </p>","","0","instructions","","","","","","","","","","",""
"learning-instructions","19","232689","0.0-8.0-0.0-0.11","4016","1","14","Male","approach_avoid_spark_v1","""event"",""trial"",""time""
""fullscreenenter"",""1"",""4249""
","
","
","""event"",""trial"",""time""
""fullscreenenter"",""1"",""4249""
","
","","","","","","1711","<p> Here is what you might see if you did not give the equipment to the kids but it would have made them happy: </p><p style=""color:grey; font-size:50px; display: inline-block; border-spacing: 15px; border-width:3px; border-style:solid; border-color:red"">  &nbsp; 7 &nbsp; </p><p> Remember, in this case, you would not win or lose ANY points because you did not give them the equipment.  </p><p style=""color:grey"">The text is GREY because you earned ZERO points. </p><p style=""color:red"">However, choosing to give the kids the equipment would have made you win points. The box around the text is RED because you chose the worse option. </p>","","0","instructions","","","","","","","","","","",""
"learning-instructions","20","254256","0.0-8.0-0.0-0.12","4016","1","14","Male","approach_avoid_spark_v1","""event"",""trial"",""time""
""fullscreenenter"",""1"",""4249""
","
","
","""event"",""trial"",""time""
""fullscreenenter"",""1"",""4249""
","
","","","","","","500","<p> Here is what you might see if you did not give the equipment to the kids but it would have made them sad: </p><p style=""color:grey;font-size:50px; display: inline-block; border-spacing: 15px; border-width:3px; border-style:solid; border-color:green"">  &nbsp; -8 &nbsp; </p><p> Remember, in this case, you would not win or lose ANY points because you did not give them the equipment.  </p><p style=""color:grey"">The text is GREY because you earned ZERO points. </p><p  style=""color:green""> Choosing to give the kids the equipment would have made you lose points. The box around the text is GREEN because you chose the better option.</p>","","0","instructions","","","","","","","","","","",""
"learning-instructions","21","264088","0.0-8.0-0.0-0.13","4016","1","14","Male","approach_avoid_spark_v1","""event"",""trial"",""time""
""fullscreenenter"",""1"",""4249""
","
","
","""event"",""trial"",""time""
""fullscreenenter"",""1"",""4249""
","
","","","","","","513","<p> You will have 3 seconds to make each choice. Try to respond before time runs out! </p><p> You will lose 5 points each time you do not make a response. </p>","","0","instructions","","","","","","","","","","",""
"learning-instructions","22","270240","0.0-8.0-0.0-0.14","4016","1","14","Male","approach_avoid_spark_v1","""event"",""trial"",""time""
""fullscreenenter"",""1"",""4249""
","
","
","""event"",""trial"",""time""
""fullscreenenter"",""1"",""4249""
","
","","","","","","747","<p> This is just a practice round, but in the real game, your bonus payment will depend on your total number of points.","","0","instructions","","","","","","","","","","",""
"learning-instructions","23","278112","0.0-8.0-0.0-0.15","4016","1","14","Male","approach_avoid_spark_v1","""event"",""trial"",""time""
""fullscreenenter"",""1"",""4249""
","
","
","""event"",""trial"",""time""
""fullscreenenter"",""1"",""4249""
","
","","","","","","2117","<p> Remember, you can give them the equipment by pressing 1 and choose not to give it to them by pressing 0. </p><br><div class=""choice-instructions-grid""> <div class=""choice-option""><img src=""images/approach.png"" class=""choice-option-img"" stage=""instructions"" position=""0"" ><div class=""choice-option-text""> Press ""1."" </div></div><div class=""choice-option""><img src=""images/avoid.png"" class=""choice-option-img"" stage=""instructions"" position=""1"" ><div class=""choice-option-text""> Press ""0."" </div></div>","","0","instructions","","","","","","","","","","",""
"html-button-response","24","279848","0.0-8.0-1.0","4016","1","14","Male","approach_avoid_spark_v1","""event"",""trial"",""time""
""fullscreenenter"",""1"",""4249""
","
","
","""event"",""trial"",""time""
""fullscreenenter"",""1"",""4249""
","
","","","","","","1633.9999999999418","<p> Ready to practice? </p>","0","","","","","","","","","","","","",""
"html-keyboard-response","25","280450","0.0-8.0-2.0-0.0","4016","1","14","Male","approach_avoid_spark_v1","""event"",""trial"",""time""
""fullscreenenter"",""1"",""4249""
","
","
","""event"",""trial"",""time""
""fullscreenenter"",""1"",""4249""
","
","","","","","","null","<div style=""font-size:60px;"">+</div>","null","","fixation","","","","","","","","","","",""
"aa-learning-trial","26","283452","0.0-8.0-2.0-1.0","4016","1","14","Male","approach_avoid_spark_v1","""event"",""trial"",""time""
""fullscreenenter"",""1"",""4249""
","
","
","""event"",""trial"",""time""
""fullscreenenter"",""1"",""4249""
","
","","","","","","743","images/racket4.png","","","learning","7","0","0","0","practice","practice","practice","-1","","",""
"html-keyboard-response","27","283953","0.0-8.0-2.0-0.1","4016","1","14","Male","approach_avoid_spark_v1","""event"",""trial"",""time""
""fullscreenenter"",""1"",""4249""
","
","
","""event"",""trial"",""time""
""fullscreenenter"",""1"",""4249""
","
","","","","","","null","<div style=""font-size:60px;"">+</div>","null","","fixation","","","","","","","","","","",""
"aa-learning-trial","28","286954","0.0-8.0-2.0-1.1","4016","1","14","Male","approach_avoid_spark_v1","""event"",""trial"",""time""
""fullscreenenter"",""1"",""4249""
","
","
","""event"",""trial"",""time""
""fullscreenenter"",""1"",""4249""
","
","","","","","","1016","images/racket4.png","","","learning","7","-5","2","","practice","practice","practice","-1","","",""
"html-keyboard-response","29","287455","0.0-8.0-2.0-0.2","4016","1","14","Male","approach_avoid_spark_v1","""event"",""trial"",""time""
""fullscreenenter"",""1"",""4249""
","
","
","""event"",""trial"",""time""
""fullscreenenter"",""1"",""4249""
","
","","","","","","null","<div style=""font-size:60px;"">+</div>","null","","fixation","","","","","","","","","","",""
"aa-learning-trial","30","290456","0.0-8.0-2.0-1.2","4016","1","14","Male","approach_avoid_spark_v1","""event"",""trial"",""time""
""fullscreenenter"",""1"",""4249""
","
","
","""event"",""trial"",""time""
""fullscreenenter"",""1"",""4249""
","
","","","","","","1274","images/racket2.png","","","learning","-7","0","0","0","practice","practice","practice","-1","","",""
"html-keyboard-response","31","290957","0.0-8.0-2.0-0.3","4016","1","14","Male","approach_avoid_spark_v1","""event"",""trial"",""time""
""fullscreenenter"",""1"",""4249""
","
","
","""event"",""trial"",""time""
""fullscreenenter"",""1"",""4249""
","
","","","","","","null","<div style=""font-size:60px;"">+</div>","null","","fixation","","","","","","","","","","",""
"aa-learning-trial","32","293958","0.0-8.0-2.0-1.3","4016","1","14","Male","approach_avoid_spark_v1","""event"",""trial"",""time""
""fullscreenenter"",""1"",""4249""
","
","
","""event"",""trial"",""time""
""fullscreenenter"",""1"",""4249""
","
","","","","","","1308","images/racket2.png","","","learning","-1","0","0","0","practice","practice","practice","-1","","",""
"html-keyboard-response","33","294460","0.0-8.0-2.0-0.4","4016","1","14","Male","approach_avoid_spark_v1","""event"",""trial"",""time""
""fullscreenenter"",""1"",""4249""
","
","
","""event"",""trial"",""time""
""fullscreenenter"",""1"",""4249""
","
","","","","","","null","<div style=""font-size:60px;"">+</div>","null","","fixation","","","","","","","","","","",""
"aa-learning-trial","34","297461","0.0-8.0-2.0-1.4","4016","1","14","Male","approach_avoid_spark_v1","""event"",""trial"",""time""
""fullscreenenter"",""1"",""4249""
","
","
","""event"",""trial"",""time""
""fullscreenenter"",""1"",""4249""
","
","","","","","","1501","images/racket3.png","","","learning","5","-5","2","","practice","practice","practice","-1","","",""
"html-keyboard-response","35","297963","0.0-8.0-2.0-0.5","4016","1","14","Male","approach_avoid_spark_v1","""event"",""trial"",""time""
""fullscreenenter"",""1"",""4249""
","
","
","""event"",""trial"",""time""
""fullscreenenter"",""1"",""4249""
","
","","","","","","null","<div style=""font-size:60px;"">+</div>","null","","fixation","","","","","","","","","","",""
"aa-learning-trial","36","300964","0.0-8.0-2.0-1.5","4016","1","14","Male","approach_avoid_spark_v1","""event"",""trial"",""time""
""fullscreenenter"",""1"",""4249""
","
","
","""event"",""trial"",""time""
""fullscreenenter"",""1"",""4249""
","
","","","","","","null","images/ball2.png","","","learning","-5","-5","","null","practice","practice","practice","-1","","",""
"html-keyboard-response","37","301466","0.0-8.0-2.0-0.6","4016","1","14","Male","approach_avoid_spark_v1","""event"",""trial"",""time""
""fullscreenenter"",""1"",""4249""
","
","
","""event"",""trial"",""time""
""fullscreenenter"",""1"",""4249""
","
","","","","","","null","<div style=""font-size:60px;"">+</div>","null","","fixation","","","","","","","","","","",""
"aa-learning-trial","38","304467","0.0-8.0-2.0-1.6","4016","1","14","Male","approach_avoid_spark_v1","""event"",""trial"",""time""
""fullscreenenter"",""1"",""4249""
","
","
","""event"",""trial"",""time""
""fullscreenenter"",""1"",""4249""
","
","","","","","","926","images/racket1.png","","","learning","6","0","0","0","practice","practice","practice","-1","","",""
"html-keyboard-response","39","304968","0.0-8.0-2.0-0.7","4016","1","14","Male","approach_avoid_spark_v1","""event"",""trial"",""time""
""fullscreenenter"",""1"",""4249""
","
","
","""event"",""trial"",""time""
""fullscreenenter"",""1"",""4249""
","
","","","","","","null","<div style=""font-size:60px;"">+</div>","null","","fixation","","","","","","","","","","",""
"aa-learning-trial","40","307969","0.0-8.0-2.0-1.7","4016","1","14","Male","approach_avoid_spark_v1","""event"",""trial"",""time""
""fullscreenenter"",""1"",""4249""
","
","
","""event"",""trial"",""time""
""fullscreenenter"",""1"",""4249""
","
","","","","","","423","images/racket1.png","","","learning","8","-5","2","","practice","practice","practice","-1","","",""
"html-keyboard-response","41","308471","0.0-8.0-2.0-0.8","4016","1","14","Male","approach_avoid_spark_v1","""event"",""trial"",""time""
""fullscreenenter"",""1"",""4249""
","
","
","""event"",""trial"",""time""
""fullscreenenter"",""1"",""4249""
","
","","","","","","null","<div style=""font-size:60px;"">+</div>","null","","fixation","","","","","","","","","","",""
"aa-learning-trial","42","311473","0.0-8.0-2.0-1.8","4016","1","14","Male","approach_avoid_spark_v1","""event"",""trial"",""time""
""fullscreenenter"",""1"",""4249""
","
","
","""event"",""trial"",""time""
""fullscreenenter"",""1"",""4249""
","
","","","","","","1465","images/ball1.png","","","learning","-8","0","0","0","practice","practice","practice","-1","","",""
"html-keyboard-response","43","311975","0.0-8.0-2.0-0.9","4016","1","14","Male","approach_avoid_spark_v1","""event"",""trial"",""time""
""fullscreenenter"",""1"",""4249""
","
","
","""event"",""trial"",""time""
""fullscreenenter"",""1"",""4249""
","
","","","","","","null","<div style=""font-size:60px;"">+</div>","null","","fixation","","","","","","","","","","",""
"aa-learning-trial","44","314977","0.0-8.0-2.0-1.9","4016","1","14","Male","approach_avoid_spark_v1","""event"",""trial"",""time""
""fullscreenenter"",""1"",""4249""
","
","
","""event"",""trial"",""time""
""fullscreenenter"",""1"",""4249""
","
","","","","","","1322","images/racket2.png","","","learning","5","-5","2","","practice","practice","practice","-1","","",""
"html-keyboard-response","45","315479","0.0-8.0-2.0-0.10","4016","1","14","Male","approach_avoid_spark_v1","""event"",""trial"",""time""
""fullscreenenter"",""1"",""4249""
","
","
","""event"",""trial"",""time""
""fullscreenenter"",""1"",""4249""
","
","","","","","","null","<div style=""font-size:60px;"">+</div>","null","","fixation","","","","","","","","","","",""
"aa-learning-trial","46","318480","0.0-8.0-2.0-1.10","4016","1","14","Male","approach_avoid_spark_v1","""event"",""trial"",""time""
""fullscreenenter"",""1"",""4249""
","
","
","""event"",""trial"",""time""
""fullscreenenter"",""1"",""4249""
","
","","","","","","2146","images/ball1.png","","","learning","-4","0","0","0","practice","practice","practice","-1","","",""
"html-keyboard-response","47","318981","0.0-8.0-2.0-0.11","4016","1","14","Male","approach_avoid_spark_v1","""event"",""trial"",""time""
""fullscreenenter"",""1"",""4249""
","
","
","""event"",""trial"",""time""
""fullscreenenter"",""1"",""4249""
","
","","","","","","null","<div style=""font-size:60px;"">+</div>","null","","fixation","","","","","","","","","","",""
"aa-learning-trial","48","321982","0.0-8.0-2.0-1.11","4016","1","14","Male","approach_avoid_spark_v1","""event"",""trial"",""time""
""fullscreenenter"",""1"",""4249""
","
","
","""event"",""trial"",""time""
""fullscreenenter"",""1"",""4249""
","
","","","","","","827.0000000000582","images/racket2.png","","","learning","-6","-5","2","","practice","practice","practice","-1","","",""
"html-button-response","49","328391","0.0-8.0-3.0","4016","1","14","Male","approach_avoid_spark_v1","""event"",""trial"",""time""
""fullscreenenter"",""1"",""4249""
","
","
","""event"",""trial"",""time""
""fullscreenenter"",""1"",""4249""
","
","","","","","","6407","<p> You earned -30 points in the practice round! </p>","0","","break","","","","","","","","","","",""
"learning-instructions","50","336303","0.0-8.0-4.0-0.0","4016","1","14","Male","approach_avoid_spark_v1","""event"",""trial"",""time""
""fullscreenenter"",""1"",""4249""
","
","
","""event"",""trial"",""time""
""fullscreenenter"",""1"",""4249""
","
","","","","","","1957","<p> It's almost time to start the real game. </p><p> Before you start, we're going to ask you a few questions about how the game works. </p>","","0","instructions","","","","","","","","","","",""
"preload","51","347240","0.0-8.0-5.0","4016","1","14","Male","approach_avoid_spark_v1","""event"",""trial"",""time""
""fullscreenenter"",""1"",""4249""
","
","
","""event"",""trial"",""time""
""fullscreenenter"",""1"",""4249""
","
","true","false","[]","[]","[]","","","","","","","","","","","","","","","",""
"comp-q","52","353119","0.0-8.0-6.0-0.0","4016","1","14","Male","approach_avoid_spark_v1","""event"",""trial"",""time""
""fullscreenenter"",""1"",""4249""
","
","
","""event"",""trial"",""time""
""fullscreenenter"",""1"",""4249""
","
","","","","","","886","<p> <b> True or False? </b> </p><p> If you see a number in GREY, that means you earned that many points. </p>","","1","comp_question","","","","","","","","","true","",""
"comp-q","53","362487","0.0-8.0-6.0-1.0","4016","1","14","Male","approach_avoid_spark_v1","""event"",""trial"",""time""
""fullscreenenter"",""1"",""4249""
","
","
","""event"",""trial"",""time""
""fullscreenenter"",""1"",""4249""
","
","","","","","","1012","<p><b> That's right! </b> If you see a grey number, it means you earned ZERO points. <br> The grey numbers show the points you WOULD HAVE earned if you had made the other choice. </p>","","0","comp_answer","","","","","","","","","","",""
"comp-q","54","367767","0.0-8.0-7.0-0.0","4016","1","14","Male","approach_avoid_spark_v1","""event"",""trial"",""time""
""fullscreenenter"",""1"",""4249""
","
","
","""event"",""trial"",""time""
""fullscreenenter"",""1"",""4249""
","
","","","","","","594","<p> <b> True or False? </b> </p><p> You will have as much time as you want to make each choice. </p>","","1","comp_question","","","","","","","","","true","",""
"comp-q","55","372391","0.0-8.0-7.0-1.0","4016","1","14","Male","approach_avoid_spark_v1","""event"",""trial"",""time""
""fullscreenenter"",""1"",""4249""
","
","
","""event"",""trial"",""time""
""fullscreenenter"",""1"",""4249""
","
","","","","","","588.9999999999418","<p> <b> That's right! </b> You will only have 3 seconds to make each choice. </p>","","0","comp_answer","","","","","","","","","","",""
"comp-q","56","377495","0.0-8.0-8.0-0.0","4016","1","14","Male","approach_avoid_spark_v1","""event"",""trial"",""time""
""fullscreenenter"",""1"",""4249""
","
","
","""event"",""trial"",""time""
""fullscreenenter"",""1"",""4249""
","
","","","","","","451","<p> <b> True or False? </b> </p><p> You should use the '1' and '0' keys to make your choices. </p>","","0","comp_question","","","","","","","","","true","",""
"comp-q","57","382622","0.0-8.0-8.0-1.0","4016","1","14","Male","approach_avoid_spark_v1","""event"",""trial"",""time""
""fullscreenenter"",""1"",""4249""
","
","
","""event"",""trial"",""time""
""fullscreenenter"",""1"",""4249""
","
","","","","","","522","<p> <b> That's right! </b> You should use the '1' and '0' keys to make each choice. </p>","","0","comp_answer","","","","","","","","","","",""
"learning-instructions","58","390174","0.0-8.0-9.0-0.0","4016","1","14","Male","approach_avoid_spark_v1","""event"",""trial"",""time""
""fullscreenenter"",""1"",""4249""
","
","
","""event"",""trial"",""time""
""fullscreenenter"",""1"",""4249""
","
","","","","","","1286","<p> It's now time to start the real game. </p>Do your best, because the points you earn in the next rounds will influence your bonus payment. </p>","","0","instructions","","","","","","","","","","",""
"preload","59","390283","0.0-9.0-0.0","4016","1","14","Male","approach_avoid_spark_v1","""event"",""trial"",""time""
""fullscreenenter"",""1"",""4249""
","
","
","""event"",""trial"",""time""
""fullscreenenter"",""1"",""4249""
","
","true","false","[]","[]","[]","","","","","","","","","","","","","","","",""
"learning-instructions","60","397206","0.0-9.0-1.0-0.0","4016","1","14","Male","approach_avoid_spark_v1","""event"",""trial"",""time""
""fullscreenenter"",""1"",""4249""
","
","
","""event"",""trial"",""time""
""fullscreenenter"",""1"",""4249""
","
","","","","","","1421","<p> Your goal in this round is to sell different plants to a picky customer. </p></div>","","0","instructions","","","","","","","","","","",""
"learning-instructions","61","409414","0.0-9.0-1.0-0.1","4016","1","14","Male","approach_avoid_spark_v1","""event"",""trial"",""time""
""fullscreenenter"",""1"",""4249""
","
","
","""event"",""trial"",""time""
""fullscreenenter"",""1"",""4249""
","
","","","","","","1992.9999999999418","<p> The customer likes some plants and dislikes others.  </p><p> On each turn, you will see a plant.   </p><p> You need to decide whether to offer it to the customer or not.  </p>","","0","instructions","","","","","","","","","","",""
"learning-instructions","62","418198","0.0-9.0-1.0-0.2","4016","1","14","Male","approach_avoid_spark_v1","""event"",""trial"",""time""
""fullscreenenter"",""1"",""4249""
","
","
","""event"",""trial"",""time""
""fullscreenenter"",""1"",""4249""
","
","","","","","","613","<p> You can offer the plant by pressing 1 and decide to not offer it by pressing 0. </p><br><div class=""choice-instructions-grid""> <div class=""choice-option""><img src=""images/approach.png"" class=""choice-option-img"" stage=""instructions"" position=""0"" ><div class=""choice-option-text""> Press ""1."" </div></div><div class=""choice-option""><img src=""images/avoid.png"" class=""choice-option-img"" stage=""instructions"" position=""1"" ><div class=""choice-option-text""> Press ""0."" </div></div>","","0","instructions","","","","","","","","","","",""
"learning-instructions","63","430942","0.0-9.0-1.0-0.3","4016","1","14","Male","approach_avoid_spark_v1","""event"",""trial"",""time""
""fullscreenenter"",""1"",""4249""
","
","
","""event"",""trial"",""time""
""fullscreenenter"",""1"",""4249""
","
","","","","","","986","<p> If you offer a plant to the customer that she likes, she will be very pleased! </p><p> But if you offer a plant that she does NOT like, she will be annoyed. </p>","","0","instructions","","","","","","","","","","",""
"learning-instructions","64","449022","0.0-9.0-1.0-0.4","4016","1","14","Male","approach_avoid_spark_v1","""event"",""trial"",""time""
""fullscreenenter"",""1"",""4249""
","
","
","""event"",""trial"",""time""
""fullscreenenter"",""1"",""4249""
","
","","","","","","2673.999999999942","<p> You will earn points based on how you made the customer feel. </p><p> If you made her pleased, you will WIN anywhere from 1 - 9 points, </p><p> but if you made her annoyed, you will LOSE anywhere from 1 - 9 points. </p>","","0","instructions","","","","","","","","","","",""
"learning-instructions","65","458997","0.0-9.0-1.0-0.5","4016","1","14","Male","approach_avoid_spark_v1","""event"",""trial"",""time""
""fullscreenenter"",""1"",""4249""
","
","
","""event"",""trial"",""time""
""fullscreenenter"",""1"",""4249""
","
","","","","","","1825.0000000000582","<p> You will see how many points you won or lost in the center of the screen. </p><p> Here is what you would see if you won 5 points: </p><p style=""color:green;font-size:50px;font-weight:bolder"">5</p>","","0","instructions","","","","","","","","","","",""
"learning-instructions","66","463077","0.0-9.0-1.0-0.6","4016","1","14","Male","approach_avoid_spark_v1","""event"",""trial"",""time""
""fullscreenenter"",""1"",""4249""
","
","
","""event"",""trial"",""time""
""fullscreenenter"",""1"",""4249""
","
","","","","","","442.9999999999418","<p> And here is what you would see if you lost 3 points: </p><p style=""color:red;font-size:50px;font-weight:bolder"">-3</p>","","0","instructions","","","","","","","","","","",""
"learning-instructions","67","478733","0.0-9.0-1.0-0.7","4016","1","14","Male","approach_avoid_spark_v1","""event"",""trial"",""time""
""fullscreenenter"",""1"",""4249""
","
","
","""event"",""trial"",""time""
""fullscreenenter"",""1"",""4249""
","
","","","","","","384.9999999999418","<p> Some plants will make the customer VERY pleased or annoyed. </p><p> These plants will make you win or lose LOTS of points. </p><p> The customer will have less strong feelings about other plants. </p><p> These plants will make you win or lose small amounts of points. </p>","","0","instructions","","","","","","","","","","",""
"learning-instructions","68","491781","0.0-9.0-1.0-0.8","4016","1","14","Male","approach_avoid_spark_v1","""event"",""trial"",""time""
""fullscreenenter"",""1"",""4249""
","
","
","""event"",""trial"",""time""
""fullscreenenter"",""1"",""4249""
","
","","","","","","287","<p> If you choose to not offer the plant to the customer, you will not win or lose any points. </p><p>  However, in the center of the screen, you will see the number of points you WOULD HAVE won or lost if you had offered the plant. </p>","","0","instructions","","","","","","","","","","",""
"learning-instructions","69","505773","0.0-9.0-1.0-0.9","4016","1","14","Male","approach_avoid_spark_v1","""event"",""trial"",""time""
""fullscreenenter"",""1"",""4249""
","
","
","""event"",""trial"",""time""
""fullscreenenter"",""1"",""4249""
","
","","","","","","1316.9999999999418","<p> Here is what you might see if you did not offer the plant but the customer would have liked it: </p><p style=""color:grey; font-size:50px; display: inline-block; border-spacing: 15px; border-width:3px; border-style:solid; border-color:red"">  &nbsp; 6 &nbsp; </p><p> Remember, in this case, you would not win or lose ANY points because you did not offer the plant.  </p>","","0","instructions","","","","","","","","","","",""
"learning-instructions","70","514565","0.0-9.0-1.0-0.10","4016","1","14","Male","approach_avoid_spark_v1","""event"",""trial"",""time""
""fullscreenenter"",""1"",""4249""
","
","
","""event"",""trial"",""time""
""fullscreenenter"",""1"",""4249""
","
","","","","","","739.9999999998836","<p> Try to make the best choice for each plant because </p><p> at the end of the game, you will earn bonus money based on how many points you earned. </p>","","0","instructions","","","","","","","","","","",""
"learning-instructions","71","523108","0.0-9.0-1.0-0.11","4016","1","14","Male","approach_avoid_spark_v1","""event"",""trial"",""time""
""fullscreenenter"",""1"",""4249""
","
","
","""event"",""trial"",""time""
""fullscreenenter"",""1"",""4249""
","
","","","","","","360.9999999998836","<p> You will have 3 seconds to make each choice. Try to respond before time runs out! </p><p> You will lose 5 points each time you do not make a response. </p>","","0","instructions","","","","","","","","","","",""
"html-keyboard-response","72","523710","0.0-9.0-2.0-0.0","4016","1","14","Male","approach_avoid_spark_v1","""event"",""trial"",""time""
""fullscreenenter"",""1"",""4249""
","
","
","""event"",""trial"",""time""
""fullscreenenter"",""1"",""4249""
","
","","","","","","null","<div style=""font-size:60px;"">+</div>","null","","fixation","","","","","","","","","","",""
"aa-learning-trial","73","526711","0.0-9.0-2.0-1.0","4016","1","14","Male","approach_avoid_spark_v1","""event"",""trial"",""time""
""fullscreenenter"",""1"",""4249""
","
","
","""event"",""trial"",""time""
""fullscreenenter"",""1"",""4249""
","
","","","","","","930","images/cactus3.png","","","learning","6","0","0","0","cactus","plants","1","0","","good","[3]"
"html-keyboard-response","74","527213","0.0-9.0-2.0-0.1","4016","1","14","Male","approach_avoid_spark_v1","""event"",""trial"",""time""
""fullscreenenter"",""1"",""4249""
","
","
","""event"",""trial"",""time""
""fullscreenenter"",""1"",""4249""
","
","","","","","","null","<div style=""font-size:60px;"">+</div>","null","","fixation","","","","","","","","","","",""
"aa-learning-trial","75","530214","0.0-9.0-2.0-1.1","4016","1","14","Male","approach_avoid_spark_v1","""event"",""trial"",""time""
""fullscreenenter"",""1"",""4249""
","
","
","""event"",""trial"",""time""
""fullscreenenter"",""1"",""4249""
","
","","","","","","736","images/cactus3.png","","","learning","4","4","1","1","cactus","plants","1","0","","good","[3]"
"html-keyboard-response","76","530715","0.0-9.0-2.0-0.2","4016","1","14","Male","approach_avoid_spark_v1","""event"",""trial"",""time""
""fullscreenenter"",""1"",""4249""
","
","
","""event"",""trial"",""time""
""fullscreenenter"",""1"",""4249""
","
","","","","","","null","<div style=""font-size:60px;"">+</div>","null","","fixation","","","","","","","","","","",""
"aa-learning-trial","77","533716","0.0-9.0-2.0-1.2","4016","1","14","Male","approach_avoid_spark_v1","""event"",""trial"",""time""
""fullscreenenter"",""1"",""4249""
","
","
","""event"",""trial"",""time""
""fullscreenenter"",""1"",""4249""
","
","","","","","","506","images/cactus2.png","","","learning","1","0","0","0","cactus","plants","1","0","","good","[3]"
"html-keyboard-response","78","534217","0.0-9.0-2.0-0.3","4016","1","14","Male","approach_avoid_spark_v1","""event"",""trial"",""time""
""fullscreenenter"",""1"",""4249""
","
","
","""event"",""trial"",""time""
""fullscreenenter"",""1"",""4249""
","
","","","","","","null","<div style=""font-size:60px;"">+</div>","null","","fixation","","","","","","","","","","",""
"aa-learning-trial","79","537218","0.0-9.0-2.0-1.3","4016","1","14","Male","approach_avoid_spark_v1","""event"",""trial"",""time""
""fullscreenenter"",""1"",""4249""
","
","
","""event"",""trial"",""time""
""fullscreenenter"",""1"",""4249""
","
","","","","","","948","images/bush2.png","","","learning","-4","0","0","0","bush","plants","1","0","","bad","[-6]"
"html-keyboard-response","80","537720","0.0-9.0-2.0-0.4","4016","1","14","Male","approach_avoid_spark_v1","""event"",""trial"",""time""
""fullscreenenter"",""1"",""4249""
","
","
","""event"",""trial"",""time""
""fullscreenenter"",""1"",""4249""
","
","","","","","","null","<div style=""font-size:60px;"">+</div>","null","","fixation","","","","","","","","","","",""
"aa-learning-trial","81","540721","0.0-9.0-2.0-1.4","4016","1","14","Male","approach_avoid_spark_v1","""event"",""trial"",""time""
""fullscreenenter"",""1"",""4249""
","
","
","""event"",""trial"",""time""
""fullscreenenter"",""1"",""4249""
","
","","","","","","1205","images/cactus1.png","","","learning","3","0","0","0","cactus","plants","1","0","","good","[3]"
"html-keyboard-response","82","541222","0.0-9.0-2.0-0.5","4016","1","14","Male","approach_avoid_spark_v1","""event"",""trial"",""time""
""fullscreenenter"",""1"",""4249""
","
","
","""event"",""trial"",""time""
""fullscreenenter"",""1"",""4249""
","
","","","","","","null","<div style=""font-size:60px;"">+</div>","null","","fixation","","","","","","","","","","",""
"aa-learning-trial","83","544223","0.0-9.0-2.0-1.5","4016","1","14","Male","approach_avoid_spark_v1","""event"",""trial"",""time""
""fullscreenenter"",""1"",""4249""
","
","
","""event"",""trial"",""time""
""fullscreenenter"",""1"",""4249""
","
","","","","","","1078.9999999998836","images/flower8.png","","","learning","[1]","0","0","0","flower","plants","1","0","","neutral","0"
"html-keyboard-response","84","544724","0.0-9.0-2.0-0.6","4016","1","14","Male","approach_avoid_spark_v1","""event"",""trial"",""time""
""fullscreenenter"",""1"",""4249""
","
","
","""event"",""trial"",""time""
""fullscreenenter"",""1"",""4249""
","
","","","","","","null","<div style=""font-size:60px;"">+</div>","null","","fixation","","","","","","","","","","",""
"aa-learning-trial","85","547725","0.0-9.0-2.0-1.6","4016","1","14","Male","approach_avoid_spark_v1","""event"",""trial"",""time""
""fullscreenenter"",""1"",""4249""
","
","
","""event"",""trial"",""time""
""fullscreenenter"",""1"",""4249""
","
","","","","","","881","images/flower3.png","","","learning","[1]","0","0","0","flower","plants","1","0","","neutral","0"
"html-keyboard-response","86","548227","0.0-9.0-2.0-0.7","4016","1","14","Male","approach_avoid_spark_v1","""event"",""trial"",""time""
""fullscreenenter"",""1"",""4249""
","
","
","""event"",""trial"",""time""
""fullscreenenter"",""1"",""4249""
","
","","","","","","null","<div style=""font-size:60px;"">+</div>","null","","fixation","","","","","","","","","","",""
"aa-learning-trial","87","551228","0.0-9.0-2.0-1.7","4016","1","14","Male","approach_avoid_spark_v1","""event"",""trial"",""time""
""fullscreenenter"",""1"",""4249""
","
","
","""event"",""trial"",""time""
""fullscreenenter"",""1"",""4249""
","
","","","","","","1473.9999999998836","images/bush8.png","","","learning","-3","0","0","0","bush","plants","1","0","","bad","[-6]"
"html-keyboard-response","88","551729","0.0-9.0-2.0-0.8","4016","1","14","Male","approach_avoid_spark_v1","""event"",""trial"",""time""
""fullscreenenter"",""1"",""4249""
","
","
","""event"",""trial"",""time""
""fullscreenenter"",""1"",""4249""
","
","","","","","","null","<div style=""font-size:60px;"">+</div>","null","","fixation","","","","","","","","","","",""
"aa-learning-trial","89","554730","0.0-9.0-2.0-1.8","4016","1","14","Male","approach_avoid_spark_v1","""event"",""trial"",""time""
""fullscreenenter"",""1"",""4249""
","
","
","""event"",""trial"",""time""
""fullscreenenter"",""1"",""4249""
","
","","","","","","2476","images/cactus2.png","","","learning","2","2","1","1","cactus","plants","1","0","","good","[3]"
"html-keyboard-response","90","555231","0.0-9.0-2.0-0.9","4016","1","14","Male","approach_avoid_spark_v1","""event"",""trial"",""time""
""fullscreenenter"",""1"",""4249""
","
","
","""event"",""trial"",""time""
""fullscreenenter"",""1"",""4249""
","
","","","","","","null","<div style=""font-size:60px;"">+</div>","null","","fixation","","","","","","","","","","",""
"aa-learning-trial","91","558232","0.0-9.0-2.0-1.9","4016","1","14","Male","approach_avoid_spark_v1","""event"",""trial"",""time""
""fullscreenenter"",""1"",""4249""
","
","
","""event"",""trial"",""time""
""fullscreenenter"",""1"",""4249""
","
","","","","","","1118","images/bush2.png","","","learning","-6","0","0","0","bush","plants","1","0","","bad","[-6]"
"html-keyboard-response","92","558733","0.0-9.0-2.0-0.10","4016","1","14","Male","approach_avoid_spark_v1","""event"",""trial"",""time""
""fullscreenenter"",""1"",""4249""
","
","
","""event"",""trial"",""time""
""fullscreenenter"",""1"",""4249""
","
","","","","","","null","<div style=""font-size:60px;"">+</div>","null","","fixation","","","","","","","","","","",""
"aa-learning-trial","93","561735","0.0-9.0-2.0-1.10","4016","1","14","Male","approach_avoid_spark_v1","""event"",""trial"",""time""
""fullscreenenter"",""1"",""4249""
","
","
","""event"",""trial"",""time""
""fullscreenenter"",""1"",""4249""
","
","","","","","","951","images/flower1.png","","","learning","[1]","1","1","1","flower","plants","1","0","","neutral","0"
"html-keyboard-response","94","562236","0.0-9.0-2.0-0.11","4016","1","14","Male","approach_avoid_spark_v1","""event"",""trial"",""time""
""fullscreenenter"",""1"",""4249""
","
","
","""event"",""trial"",""time""
""fullscreenenter"",""1"",""4249""
","
","","","","","","null","<div style=""font-size:60px;"">+</div>","null","","fixation","","","","","","","","","","",""
"aa-learning-trial","95","565237","0.0-9.0-2.0-1.11","4016","1","14","Male","approach_avoid_spark_v1","""event"",""trial"",""time""
""fullscreenenter"",""1"",""4249""
","
","
","""event"",""trial"",""time""
""fullscreenenter"",""1"",""4249""
","
","","","","","","785","images/flower3.png","","","learning","[1]","1","1","1","flower","plants","1","0","","neutral","0"
"html-keyboard-response","96","565737","0.0-9.0-2.0-0.12","4016","1","14","Male","approach_avoid_spark_v1","""event"",""trial"",""time""
""fullscreenenter"",""1"",""4249""
","
","
","""event"",""trial"",""time""
""fullscreenenter"",""1"",""4249""
","
","","","","","","null","<div style=""font-size:60px;"">+</div>","null","","fixation","","","","","","","","","","",""
"aa-learning-trial","97","568739","0.0-9.0-2.0-1.12","4016","1","14","Male","approach_avoid_spark_v1","""event"",""trial"",""time""
""fullscreenenter"",""1"",""4249""
","
","
","""event"",""trial"",""time""
""fullscreenenter"",""1"",""4249""
","
","","","","","","827","images/flower1.png","","","learning","[-1]","-1","1","1","flower","plants","1","0","","neutral","0"
"html-keyboard-response","98","569239","0.0-9.0-2.0-0.13","4016","1","14","Male","approach_avoid_spark_v1","""event"",""trial"",""time""
""fullscreenenter"",""1"",""4249""
","
","
","""event"",""trial"",""time""
""fullscreenenter"",""1"",""4249""
","
","","","","","","null","<div style=""font-size:60px;"">+</div>","null","","fixation","","","","","","","","","","",""
"aa-learning-trial","99","572241","0.0-9.0-2.0-1.13","4016","1","14","Male","approach_avoid_spark_v1","""event"",""trial"",""time""
""fullscreenenter"",""1"",""4249""
","
","
","""event"",""trial"",""time""
""fullscreenenter"",""1"",""4249""
","
","","","","","","1405.0000000001164","images/bush7.png","","","learning","-6","0","0","0","bush","plants","1","0","","bad","[-6]"
"html-keyboard-response","100","572742","0.0-9.0-2.0-0.14","4016","1","14","Male","approach_avoid_spark_v1","""event"",""trial"",""time""
""fullscreenenter"",""1"",""4249""
","
","
","""event"",""trial"",""time""
""fullscreenenter"",""1"",""4249""
","
","","","","","","null","<div style=""font-size:60px;"">+</div>","null","","fixation","","","","","","","","","","",""
"aa-learning-trial","101","575744","0.0-9.0-2.0-1.14","4016","1","14","Male","approach_avoid_spark_v1","""event"",""trial"",""time""
""fullscreenenter"",""1"",""4249""
","
","
","""event"",""trial"",""time""
""fullscreenenter"",""1"",""4249""
","
","","","","","","590","images/bush8.png","","","learning","-7","0","0","0","bush","plants","1","0","","bad","[-6]"
"html-keyboard-response","102","576246","0.0-9.0-2.0-0.15","4016","1","14","Male","approach_avoid_spark_v1","""event"",""trial"",""time""
""fullscreenenter"",""1"",""4249""
","
","
","""event"",""trial"",""time""
""fullscreenenter"",""1"",""4249""
","
","","","","","","null","<div style=""font-size:60px;"">+</div>","null","","fixation","","","","","","","","","","",""
"aa-learning-trial","103","579247","0.0-9.0-2.0-1.15","4016","1","14","Male","approach_avoid_spark_v1","""event"",""trial"",""time""
""fullscreenenter"",""1"",""4249""
","
","
","""event"",""trial"",""time""
""fullscreenenter"",""1"",""4249""
","
","","","","","","1446.0000000001164","images/cactus6.png","","","learning","1","1","1","1","cactus","plants","1","0","","good","[3]"
"html-keyboard-response","104","579748","0.0-9.0-2.0-0.16","4016","1","14","Male","approach_avoid_spark_v1","""event"",""trial"",""time""
""fullscreenenter"",""1"",""4249""
","
","
","""event"",""trial"",""time""
""fullscreenenter"",""1"",""4249""
","
","","","","","","null","<div style=""font-size:60px;"">+</div>","null","","fixation","","","","","","","","","","",""
"aa-learning-trial","105","582749","0.0-9.0-2.0-1.16","4016","1","14","Male","approach_avoid_spark_v1","""event"",""trial"",""time""
""fullscreenenter"",""1"",""4249""
","
","
","""event"",""trial"",""time""
""fullscreenenter"",""1"",""4249""
","
","","","","","","592","images/cactus2.png","","","learning","4","4","1","1","cactus","plants","1","0","","good","[3]"
"html-keyboard-response","106","583251","0.0-9.0-2.0-0.17","4016","1","14","Male","approach_avoid_spark_v1","""event"",""trial"",""time""
""fullscreenenter"",""1"",""4249""
","
","
","""event"",""trial"",""time""
""fullscreenenter"",""1"",""4249""
","
","","","","","","null","<div style=""font-size:60px;"">+</div>","null","","fixation","","","","","","","","","","",""
"aa-learning-trial","107","586252","0.0-9.0-2.0-1.17","4016","1","14","Male","approach_avoid_spark_v1","""event"",""trial"",""time""
""fullscreenenter"",""1"",""4249""
","
","
","""event"",""trial"",""time""
""fullscreenenter"",""1"",""4249""
","
","","","","","","721","images/bush8.png","","","learning","-4","0","0","0","bush","plants","1","0","","bad","[-6]"
"html-keyboard-response","108","586753","0.0-9.0-2.0-0.18","4016","1","14","Male","approach_avoid_spark_v1","""event"",""trial"",""time""
""fullscreenenter"",""1"",""4249""
","
","
","""event"",""trial"",""time""
""fullscreenenter"",""1"",""4249""
","
","","","","","","null","<div style=""font-size:60px;"">+</div>","null","","fixation","","","","","","","","","","",""
"aa-learning-trial","109","589755","0.0-9.0-2.0-1.18","4016","1","14","Male","approach_avoid_spark_v1","""event"",""trial"",""time""
""fullscreenenter"",""1"",""4249""
","
","
","""event"",""trial"",""time""
""fullscreenenter"",""1"",""4249""
","
","","","","","","876","images/cactus3.png","","","learning","1","1","1","1","cactus","plants","1","0","","good","[3]"
"html-keyboard-response","110","590256","0.0-9.0-2.0-0.19","4016","1","14","Male","approach_avoid_spark_v1","""event"",""trial"",""time""
""fullscreenenter"",""1"",""4249""
","
","
","""event"",""trial"",""time""
""fullscreenenter"",""1"",""4249""
","
","","","","","","null","<div style=""font-size:60px;"">+</div>","null","","fixation","","","","","","","","","","",""
"aa-learning-trial","111","593257","0.0-9.0-2.0-1.19","4016","1","14","Male","approach_avoid_spark_v1","""event"",""trial"",""time""
""fullscreenenter"",""1"",""4249""
","
","
","""event"",""trial"",""time""
""fullscreenenter"",""1"",""4249""
","
","","","","","","804","images/flower8.png","","","learning","1","1","1","1","flower","plants","1","0","","neutral","0"
"html-keyboard-response","112","593758","0.0-9.0-2.0-0.20","4016","1","14","Male","approach_avoid_spark_v1","""event"",""trial"",""time""
""fullscreenenter"",""1"",""4249""
","
","
","""event"",""trial"",""time""
""fullscreenenter"",""1"",""4249""
","
","","","","","","null","<div style=""font-size:60px;"">+</div>","null","","fixation","","","","","","","","","","",""
"aa-learning-trial","113","596759","0.0-9.0-2.0-1.20","4016","1","14","Male","approach_avoid_spark_v1","""event"",""trial"",""time""
""fullscreenenter"",""1"",""4249""
","
","
","""event"",""trial"",""time""
""fullscreenenter"",""1"",""4249""
","
","","","","","","1558","images/cactus1.png","","","learning","2","0","0","0","cactus","plants","1","0","","good","[3]"
"html-keyboard-response","114","597261","0.0-9.0-2.0-0.21","4016","1","14","Male","approach_avoid_spark_v1","""event"",""trial"",""time""
""fullscreenenter"",""1"",""4249""
","
","
","""event"",""trial"",""time""
""fullscreenenter"",""1"",""4249""
","
","","","","","","null","<div style=""font-size:60px;"">+</div>","null","","fixation","","","","","","","","","","",""
"aa-learning-trial","115","600262","0.0-9.0-2.0-1.21","4016","1","14","Male","approach_avoid_spark_v1","""event"",""trial"",""time""
""fullscreenenter"",""1"",""4249""
","
","
","""event"",""trial"",""time""
""fullscreenenter"",""1"",""4249""
","
","","","","","","735","images/bush2.png","","","learning","-6","0","0","0","bush","plants","1","0","","bad","[-6]"
"html-keyboard-response","116","600764","0.0-9.0-2.0-0.22","4016","1","14","Male","approach_avoid_spark_v1","""event"",""trial"",""time""
""fullscreenenter"",""1"",""4249""
","
","
","""event"",""trial"",""time""
""fullscreenenter"",""1"",""4249""
","
","","","","","","null","<div style=""font-size:60px;"">+</div>","null","","fixation","","","","","","","","","","",""
"aa-learning-trial","117","603765","0.0-9.0-2.0-1.22","4016","1","14","Male","approach_avoid_spark_v1","""event"",""trial"",""time""
""fullscreenenter"",""1"",""4249""
","
","
","""event"",""trial"",""time""
""fullscreenenter"",""1"",""4249""
","
","","","","","","832.0000000001164","images/cactus2.png","","","learning","1","1","1","1","cactus","plants","1","0","","good","[3]"
"html-keyboard-response","118","604266","0.0-9.0-2.0-0.23","4016","1","14","Male","approach_avoid_spark_v1","""event"",""trial"",""time""
""fullscreenenter"",""1"",""4249""
","
","
","""event"",""trial"",""time""
""fullscreenenter"",""1"",""4249""
","
","","","","","","null","<div style=""font-size:60px;"">+</div>","null","","fixation","","","","","","","","","","",""
"aa-learning-trial","119","607268","0.0-9.0-2.0-1.23","4016","1","14","Male","approach_avoid_spark_v1","""event"",""trial"",""time""
""fullscreenenter"",""1"",""4249""
","
","
","""event"",""trial"",""time""
""fullscreenenter"",""1"",""4249""
","
","","","","","","482","images/cactus3.png","","","learning","4","4","1","1","cactus","plants","1","0","","good","[3]"
"html-keyboard-response","120","607769","0.0-9.0-2.0-0.24","4016","1","14","Male","approach_avoid_spark_v1","""event"",""trial"",""time""
""fullscreenenter"",""1"",""4249""
","
","
","""event"",""trial"",""time""
""fullscreenenter"",""1"",""4249""
","
","","","","","","null","<div style=""font-size:60px;"">+</div>","null","","fixation","","","","","","","","","","",""
"aa-learning-trial","121","610770","0.0-9.0-2.0-1.24","4016","1","14","Male","approach_avoid_spark_v1","""event"",""trial"",""time""
""fullscreenenter"",""1"",""4249""
","
","
","""event"",""trial"",""time""
""fullscreenenter"",""1"",""4249""
","
","","","","","","666.9999999998836","images/cactus1.png","","","learning","2","2","1","1","cactus","plants","1","0","","good","[3]"
"html-keyboard-response","122","611271","0.0-9.0-2.0-0.25","4016","1","14","Male","approach_avoid_spark_v1","""event"",""trial"",""time""
""fullscreenenter"",""1"",""4249""
","
","
","""event"",""trial"",""time""
""fullscreenenter"",""1"",""4249""
","
","","","","","","null","<div style=""font-size:60px;"">+</div>","null","","fixation","","","","","","","","","","",""
"aa-learning-trial","123","614272","0.0-9.0-2.0-1.25","4016","1","14","Male","approach_avoid_spark_v1","""event"",""trial"",""time""
""fullscreenenter"",""1"",""4249""
","
","
","""event"",""trial"",""time""
""fullscreenenter"",""1"",""4249""
","
","","","","","","933","images/flower1.png","","","learning","2","2","1","1","flower","plants","1","0","","neutral","0"
"html-keyboard-response","124","614773","0.0-9.0-2.0-0.26","4016","1","14","Male","approach_avoid_spark_v1","""event"",""trial"",""time""
""fullscreenenter"",""1"",""4249""
","
","
","""event"",""trial"",""time""
""fullscreenenter"",""1"",""4249""
","
","","","","","","null","<div style=""font-size:60px;"">+</div>","null","","fixation","","","","","","","","","","",""
"aa-learning-trial","125","617775","0.0-9.0-2.0-1.26","4016","1","14","Male","approach_avoid_spark_v1","""event"",""trial"",""time""
""fullscreenenter"",""1"",""4249""
","
","
","""event"",""trial"",""time""
""fullscreenenter"",""1"",""4249""
","
","","","","","","660.9999999998836","images/bush2.png","","","learning","-7","0","0","0","bush","plants","1","0","","bad","[-6]"
"html-keyboard-response","126","618276","0.0-9.0-2.0-0.27","4016","1","14","Male","approach_avoid_spark_v1","""event"",""trial"",""time""
""fullscreenenter"",""1"",""4249""
","
","
","""event"",""trial"",""time""
""fullscreenenter"",""1"",""4249""
","
","","","","","","null","<div style=""font-size:60px;"">+</div>","null","","fixation","","","","","","","","","","",""
"aa-learning-trial","127","621277","0.0-9.0-2.0-1.27","4016","1","14","Male","approach_avoid_spark_v1","""event"",""trial"",""time""
""fullscreenenter"",""1"",""4249""
","
","
","""event"",""trial"",""time""
""fullscreenenter"",""1"",""4249""
","
","","","","","","672","images/cactus3.png","","","learning","1","1","1","1","cactus","plants","1","0","","good","[3]"
"html-keyboard-response","128","621778","0.0-9.0-2.0-0.28","4016","1","14","Male","approach_avoid_spark_v1","""event"",""trial"",""time""
""fullscreenenter"",""1"",""4249""
","
","
","""event"",""trial"",""time""
""fullscreenenter"",""1"",""4249""
","
","","","","","","null","<div style=""font-size:60px;"">+</div>","null","","fixation","","","","","","","","","","",""
"aa-learning-trial","129","624779","0.0-9.0-2.0-1.28","4016","1","14","Male","approach_avoid_spark_v1","""event"",""trial"",""time""
""fullscreenenter"",""1"",""4249""
","
","
","""event"",""trial"",""time""
""fullscreenenter"",""1"",""4249""
","
","","","","","","722.0000000001164","images/flower1.png","","","learning","-1","-1","1","1","flower","plants","1","0","","neutral","0"
"html-keyboard-response","130","625281","0.0-9.0-2.0-0.29","4016","1","14","Male","approach_avoid_spark_v1","""event"",""trial"",""time""
""fullscreenenter"",""1"",""4249""
","
","
","""event"",""trial"",""time""
""fullscreenenter"",""1"",""4249""
","
","","","","","","null","<div style=""font-size:60px;"">+</div>","null","","fixation","","","","","","","","","","",""
"aa-learning-trial","131","628282","0.0-9.0-2.0-1.29","4016","1","14","Male","approach_avoid_spark_v1","""event"",""trial"",""time""
""fullscreenenter"",""1"",""4249""
","
","
","""event"",""trial"",""time""
""fullscreenenter"",""1"",""4249""
","
","","","","","","1411.0000000001164","images/cactus4.png","","","learning","3","3","1","1","cactus","plants","1","0","","good","[3]"
"html-keyboard-response","132","628783","0.0-9.0-2.0-0.30","4016","1","14","Male","approach_avoid_spark_v1","""event"",""trial"",""time""
""fullscreenenter"",""1"",""4249""
","
","
","""event"",""trial"",""time""
""fullscreenenter"",""1"",""4249""
","
","","","","","","null","<div style=""font-size:60px;"">+</div>","null","","fixation","","","","","","","","","","",""
"aa-learning-trial","133","631785","0.0-9.0-2.0-1.30","4016","1","14","Male","approach_avoid_spark_v1","""event"",""trial"",""time""
""fullscreenenter"",""1"",""4249""
","
","
","""event"",""trial"",""time""
""fullscreenenter"",""1"",""4249""
","
","","","","","","621","images/bush3.png","","","learning","-8","0","0","0","bush","plants","1","0","","bad","[-6]"
"html-keyboard-response","134","632287","0.0-9.0-2.0-0.31","4016","1","14","Male","approach_avoid_spark_v1","""event"",""trial"",""time""
""fullscreenenter"",""1"",""4249""
","
","
","""event"",""trial"",""time""
""fullscreenenter"",""1"",""4249""
","
","","","","","","null","<div style=""font-size:60px;"">+</div>","null","","fixation","","","","","","","","","","",""
"aa-learning-trial","135","635289","0.0-9.0-2.0-1.31","4016","1","14","Male","approach_avoid_spark_v1","""event"",""trial"",""time""
""fullscreenenter"",""1"",""4249""
","
","
","""event"",""trial"",""time""
""fullscreenenter"",""1"",""4249""
","
","","","","","","564","images/bush7.png","","","learning","-4","0","0","0","bush","plants","1","0","","bad","[-6]"
"html-keyboard-response","136","635790","0.0-9.0-2.0-0.32","4016","1","14","Male","approach_avoid_spark_v1","""event"",""trial"",""time""
""fullscreenenter"",""1"",""4249""
","
","
","""event"",""trial"",""time""
""fullscreenenter"",""1"",""4249""
","
","","","","","","null","<div style=""font-size:60px;"">+</div>","null","","fixation","","","","","","","","","","",""
"aa-learning-trial","137","638791","0.0-9.0-2.0-1.32","4016","1","14","Male","approach_avoid_spark_v1","""event"",""trial"",""time""
""fullscreenenter"",""1"",""4249""
","
","
","""event"",""trial"",""time""
""fullscreenenter"",""1"",""4249""
","
","","","","","","518","images/flower1.png","","","learning","1","1","1","1","flower","plants","1","0","","neutral","0"
"html-keyboard-response","138","639291","0.0-9.0-2.0-0.33","4016","1","14","Male","approach_avoid_spark_v1","""event"",""trial"",""time""
""fullscreenenter"",""1"",""4249""
","
","
","""event"",""trial"",""time""
""fullscreenenter"",""1"",""4249""
","
","","","","","","null","<div style=""font-size:60px;"">+</div>","null","","fixation","","","","","","","","","","",""
"aa-learning-trial","139","642292","0.0-9.0-2.0-1.33","4016","1","14","Male","approach_avoid_spark_v1","""event"",""trial"",""time""
""fullscreenenter"",""1"",""4249""
","
","
","""event"",""trial"",""time""
""fullscreenenter"",""1"",""4249""
","
","","","","","","952","images/bush1.png","","","learning","-10","0","0","0","bush","plants","1","0","","bad","[-6]"
"html-keyboard-response","140","642793","0.0-9.0-2.0-0.34","4016","1","14","Male","approach_avoid_spark_v1","""event"",""trial"",""time""
""fullscreenenter"",""1"",""4249""
","
","
","""event"",""trial"",""time""
""fullscreenenter"",""1"",""4249""
","
","","","","","","null","<div style=""font-size:60px;"">+</div>","null","","fixation","","","","","","","","","","",""
"aa-learning-trial","141","645795","0.0-9.0-2.0-1.34","4016","1","14","Male","approach_avoid_spark_v1","""event"",""trial"",""time""
""fullscreenenter"",""1"",""4249""
","
","
","""event"",""trial"",""time""
""fullscreenenter"",""1"",""4249""
","
","","","","","","705","images/bush8.png","","","learning","-5","0","0","0","bush","plants","1","0","","bad","[-6]"
"html-keyboard-response","142","646297","0.0-9.0-2.0-0.35","4016","1","14","Male","approach_avoid_spark_v1","""event"",""trial"",""time""
""fullscreenenter"",""1"",""4249""
","
","
","""event"",""trial"",""time""
""fullscreenenter"",""1"",""4249""
","
","","","","","","null","<div style=""font-size:60px;"">+</div>","null","","fixation","","","","","","","","","","",""
"aa-learning-trial","143","649299","0.0-9.0-2.0-1.35","4016","1","14","Male","approach_avoid_spark_v1","""event"",""trial"",""time""
""fullscreenenter"",""1"",""4249""
","
","
","""event"",""trial"",""time""
""fullscreenenter"",""1"",""4249""
","
","","","","","","769.9999999998836","images/cactus2.png","","","learning","4","4","1","1","cactus","plants","1","0","","good","[3]"
"html-keyboard-response","144","649799","0.0-9.0-2.0-0.36","4016","1","14","Male","approach_avoid_spark_v1","""event"",""trial"",""time""
""fullscreenenter"",""1"",""4249""
","
","
","""event"",""trial"",""time""
""fullscreenenter"",""1"",""4249""
","
","","","","","","null","<div style=""font-size:60px;"">+</div>","null","","fixation","","","","","","","","","","",""
"aa-learning-trial","145","652802","0.0-9.0-2.0-1.36","4016","1","14","Male","approach_avoid_spark_v1","""event"",""trial"",""time""
""fullscreenenter"",""1"",""4249""
","
","
","""event"",""trial"",""time""
""fullscreenenter"",""1"",""4249""
","
","","","","","","820.0000000001164","images/flower6.png","","","learning","-1","-1","1","1","flower","plants","1","0","","neutral","0"
"html-keyboard-response","146","653303","0.0-9.0-2.0-0.37","4016","1","14","Male","approach_avoid_spark_v1","""event"",""trial"",""time""
""fullscreenenter"",""1"",""4249""
","
","
","""event"",""trial"",""time""
""fullscreenenter"",""1"",""4249""
","
","","","","","","null","<div style=""font-size:60px;"">+</div>","null","","fixation","","","","","","","","","","",""
"aa-learning-trial","147","656304","0.0-9.0-2.0-1.37","4016","1","14","Male","approach_avoid_spark_v1","""event"",""trial"",""time""
""fullscreenenter"",""1"",""4249""
","
","
","""event"",""trial"",""time""
""fullscreenenter"",""1"",""4249""
","
","","","","","","540","images/bush2.png","","","learning","-5","0","0","0","bush","plants","1","0","","bad","[-6]"
"html-keyboard-response","148","656806","0.0-9.0-2.0-0.38","4016","1","14","Male","approach_avoid_spark_v1","""event"",""trial"",""time""
""fullscreenenter"",""1"",""4249""
","
","
","""event"",""trial"",""time""
""fullscreenenter"",""1"",""4249""
","
","","","","","","null","<div style=""font-size:60px;"">+</div>","null","","fixation","","","","","","","","","","",""
"aa-learning-trial","149","659808","0.0-9.0-2.0-1.38","4016","1","14","Male","approach_avoid_spark_v1","""event"",""trial"",""time""
""fullscreenenter"",""1"",""4249""
","
","
","""event"",""trial"",""time""
""fullscreenenter"",""1"",""4249""
","
","","","","","","677","images/bush8.png","","","learning","-6","0","0","0","bush","plants","1","0","","bad","[-6]"
"html-keyboard-response","150","660309","0.0-9.0-2.0-0.39","4016","1","14","Male","approach_avoid_spark_v1","""event"",""trial"",""time""
""fullscreenenter"",""1"",""4249""
","
","
","""event"",""trial"",""time""
""fullscreenenter"",""1"",""4249""
","
","","","","","","null","<div style=""font-size:60px;"">+</div>","null","","fixation","","","","","","","","","","",""
"aa-learning-trial","151","663310","0.0-9.0-2.0-1.39","4016","1","14","Male","approach_avoid_spark_v1","""event"",""trial"",""time""
""fullscreenenter"",""1"",""4249""
","
","
","""event"",""trial"",""time""
""fullscreenenter"",""1"",""4249""
","
","","","","","","870","images/flower3.png","","","learning","1","1","1","1","flower","plants","1","0","","neutral","0"
"html-keyboard-response","152","663811","0.0-9.0-2.0-0.40","4016","1","14","Male","approach_avoid_spark_v1","""event"",""trial"",""time""
""fullscreenenter"",""1"",""4249""
","
","
","""event"",""trial"",""time""
""fullscreenenter"",""1"",""4249""
","
","","","","","","null","<div style=""font-size:60px;"">+</div>","null","","fixation","","","","","","","","","","",""
"aa-learning-trial","153","666812","0.0-9.0-2.0-1.40","4016","1","14","Male","approach_avoid_spark_v1","""event"",""trial"",""time""
""fullscreenenter"",""1"",""4249""
","
","
","""event"",""trial"",""time""
""fullscreenenter"",""1"",""4249""
","
","","","","","","680","images/flower3.png","","","learning","-1","-1","1","1","flower","plants","1","0","","neutral","0"
"html-keyboard-response","154","667313","0.0-9.0-2.0-0.41","4016","1","14","Male","approach_avoid_spark_v1","""event"",""trial"",""time""
""fullscreenenter"",""1"",""4249""
","
","
","""event"",""trial"",""time""
""fullscreenenter"",""1"",""4249""
","
","","","","","","null","<div style=""font-size:60px;"">+</div>","null","","fixation","","","","","","","","","","",""
"aa-learning-trial","155","670315","0.0-9.0-2.0-1.41","4016","1","14","Male","approach_avoid_spark_v1","""event"",""trial"",""time""
""fullscreenenter"",""1"",""4249""
","
","
","""event"",""trial"",""time""
""fullscreenenter"",""1"",""4249""
","
","","","","","","850","images/cactus3.png","","","learning","2","2","1","1","cactus","plants","1","0","","good","[3]"
"html-keyboard-response","156","670816","0.0-9.0-2.0-0.42","4016","1","14","Male","approach_avoid_spark_v1","""event"",""trial"",""time""
""fullscreenenter"",""1"",""4249""
","
","
","""event"",""trial"",""time""
""fullscreenenter"",""1"",""4249""
","
","","","","","","null","<div style=""font-size:60px;"">+</div>","null","","fixation","","","","","","","","","","",""
"aa-learning-trial","157","673817","0.0-9.0-2.0-1.42","4016","1","14","Male","approach_avoid_spark_v1","""event"",""trial"",""time""
""fullscreenenter"",""1"",""4249""
","
","
","""event"",""trial"",""time""
""fullscreenenter"",""1"",""4249""
","
","","","","","","522.9999999998836","images/cactus2.png","","","learning","4","4","1","1","cactus","plants","1","0","","good","[3]"
"html-keyboard-response","158","674318","0.0-9.0-2.0-0.43","4016","1","14","Male","approach_avoid_spark_v1","""event"",""trial"",""time""
""fullscreenenter"",""1"",""4249""
","
","
","""event"",""trial"",""time""
""fullscreenenter"",""1"",""4249""
","
","","","","","","null","<div style=""font-size:60px;"">+</div>","null","","fixation","","","","","","","","","","",""
"aa-learning-trial","159","677319","0.0-9.0-2.0-1.43","4016","1","14","Male","approach_avoid_spark_v1","""event"",""trial"",""time""
""fullscreenenter"",""1"",""4249""
","
","
","""event"",""trial"",""time""
""fullscreenenter"",""1"",""4249""
","
","","","","","","749","images/bush7.png","","","learning","-8","0","0","0","bush","plants","1","0","","bad","[-6]"
"html-keyboard-response","160","677821","0.0-9.0-2.0-0.44","4016","1","14","Male","approach_avoid_spark_v1","""event"",""trial"",""time""
""fullscreenenter"",""1"",""4249""
","
","
","""event"",""trial"",""time""
""fullscreenenter"",""1"",""4249""
","
","","","","","","null","<div style=""font-size:60px;"">+</div>","null","","fixation","","","","","","","","","","",""
"aa-learning-trial","161","680822","0.0-9.0-2.0-1.44","4016","1","14","Male","approach_avoid_spark_v1","""event"",""trial"",""time""
""fullscreenenter"",""1"",""4249""
","
","
","""event"",""trial"",""time""
""fullscreenenter"",""1"",""4249""
","
","","","","","","532.9999999998836","images/bush2.png","","","learning","-5","0","0","0","bush","plants","1","0","","bad","[-6]"
"html-keyboard-response","162","681323","0.0-9.0-2.0-0.45","4016","1","14","Male","approach_avoid_spark_v1","""event"",""trial"",""time""
""fullscreenenter"",""1"",""4249""
","
","
","""event"",""trial"",""time""
""fullscreenenter"",""1"",""4249""
","
","","","","","","null","<div style=""font-size:60px;"">+</div>","null","","fixation","","","","","","","","","","",""
"aa-learning-trial","163","684324","0.0-9.0-2.0-1.45","4016","1","14","Male","approach_avoid_spark_v1","""event"",""trial"",""time""
""fullscreenenter"",""1"",""4249""
","
","
","""event"",""trial"",""time""
""fullscreenenter"",""1"",""4249""
","
","","","","","","632","images/flower3.png","","","learning","[1]","1","1","1","flower","plants","1","0","","neutral","0"
"html-keyboard-response","164","684825","0.0-9.0-2.0-0.46","4016","1","14","Male","approach_avoid_spark_v1","""event"",""trial"",""time""
""fullscreenenter"",""1"",""4249""
","
","
","""event"",""trial"",""time""
""fullscreenenter"",""1"",""4249""
","
","","","","","","null","<div style=""font-size:60px;"">+</div>","null","","fixation","","","","","","","","","","",""
"aa-learning-trial","165","687826","0.0-9.0-2.0-1.46","4016","1","14","Male","approach_avoid_spark_v1","""event"",""trial"",""time""
""fullscreenenter"",""1"",""4249""
","
","
","""event"",""trial"",""time""
""fullscreenenter"",""1"",""4249""
","
","","","","","","514","images/flower3.png","","","learning","[1]","1","1","1","flower","plants","1","0","","neutral","0"
"html-keyboard-response","166","688328","0.0-9.0-2.0-0.47","4016","1","14","Male","approach_avoid_spark_v1","""event"",""trial"",""time""
""fullscreenenter"",""1"",""4249""
","
","
","""event"",""trial"",""time""
""fullscreenenter"",""1"",""4249""
","
","","","","","","null","<div style=""font-size:60px;"">+</div>","null","","fixation","","","","","","","","","","",""
"aa-learning-trial","167","691329","0.0-9.0-2.0-1.47","4016","1","14","Male","approach_avoid_spark_v1","""event"",""trial"",""time""
""fullscreenenter"",""1"",""4249""
","
","
","""event"",""trial"",""time""
""fullscreenenter"",""1"",""4249""
","
","","","","","","531","images/flower5.png","","","learning","-1","-1","1","1","flower","plants","1","0","","neutral","0"
"html-keyboard-response","168","691831","0.0-9.0-2.0-0.48","4016","1","14","Male","approach_avoid_spark_v1","""event"",""trial"",""time""
""fullscreenenter"",""1"",""4249""
","
","
","""event"",""trial"",""time""
""fullscreenenter"",""1"",""4249""
","
","","","","","","null","<div style=""font-size:60px;"">+</div>","null","","fixation","","","","","","","","","","",""
"aa-learning-trial","169","694833","0.0-9.0-2.0-1.48","4016","1","14","Male","approach_avoid_spark_v1","""event"",""trial"",""time""
""fullscreenenter"",""1"",""4249""
","
","
","""event"",""trial"",""time""
""fullscreenenter"",""1"",""4249""
","
","","","","","","611","images/flower1.png","","","learning","-2","-2","1","1","flower","plants","1","0","","neutral","0"
"html-keyboard-response","170","695334","0.0-9.0-2.0-0.49","4016","1","14","Male","approach_avoid_spark_v1","""event"",""trial"",""time""
""fullscreenenter"",""1"",""4249""
","
","
","""event"",""trial"",""time""
""fullscreenenter"",""1"",""4249""
","
","","","","","","null","<div style=""font-size:60px;"">+</div>","null","","fixation","","","","","","","","","","",""
"aa-learning-trial","171","698336","0.0-9.0-2.0-1.49","4016","1","14","Male","approach_avoid_spark_v1","""event"",""trial"",""time""
""fullscreenenter"",""1"",""4249""
","
","
","""event"",""trial"",""time""
""fullscreenenter"",""1"",""4249""
","
","","","","","","612","images/flower8.png","","","learning","-3","-3","1","1","flower","plants","1","0","","neutral","0"
"html-keyboard-response","172","698838","0.0-9.0-2.0-0.50","4016","1","14","Male","approach_avoid_spark_v1","""event"",""trial"",""time""
""fullscreenenter"",""1"",""4249""
","
","
","""event"",""trial"",""time""
""fullscreenenter"",""1"",""4249""
","
","","","","","","null","<div style=""font-size:60px;"">+</div>","null","","fixation","","","","","","","","","","",""
"aa-learning-trial","173","701839","0.0-9.0-2.0-1.50","4016","1","14","Male","approach_avoid_spark_v1","""event"",""trial"",""time""
""fullscreenenter"",""1"",""4249""
","
","
","""event"",""trial"",""time""
""fullscreenenter"",""1"",""4249""
","
","","","","","","588","images/bush8.png","","","learning","-6","0","0","0","bush","plants","1","0","","bad","[-6]"
"html-button-response","174","704825","0.0-9.0-3.0","4016","1","14","Male","approach_avoid_spark_v1","""event"",""trial"",""time""
""fullscreenenter"",""1"",""4249""
","
","
","""event"",""trial"",""time""
""fullscreenenter"",""1"",""4249""
","
","","","","","","2984.9999999998836","<p> You have completed the round! <p> In this round, you earned 32 points! </p>","0","","break","","","","","","","","","","",""
"html-button-response","175","705905","0.0-10.0","4016","1","14","Male","approach_avoid_spark_v1","""event"",""trial"",""time""
""fullscreenenter"",""1"",""4249""
","
","
","""event"",""trial"",""time""
""fullscreenenter"",""1"",""4249""
","
","","","","","","1078.9999999998836","<p> Now it's time to play another round. </p>","0","","transition_screen","","","","","","","","","","",""
"preload","176","706013","0.0-11.0-0.0","4016","1","14","Male","approach_avoid_spark_v1","""event"",""trial"",""time""
""fullscreenenter"",""1"",""4249""
","
","
","""event"",""trial"",""time""
""fullscreenenter"",""1"",""4249""
","
","true","false","[]","[]","[]","","","","","","","","","","","","","","","",""
"learning-instructions","177","714001","0.0-11.0-1.0-0.0","4016","1","14","Male","approach_avoid_spark_v1","""event"",""trial"",""time""
""fullscreenenter"",""1"",""4249""
","
","
","""event"",""trial"",""time""
""fullscreenenter"",""1"",""4249""
","
","","","","","","2720","<p> Your goal in this round is to decorate your friend's new house with furniture. </p></div>","","0","instructions","","","","","","","","","","",""
"learning-instructions","178","725353","0.0-11.0-1.0-0.1","4016","1","14","Male","approach_avoid_spark_v1","""event"",""trial"",""time""
""fullscreenenter"",""1"",""4249""
","
","
","""event"",""trial"",""time""
""fullscreenenter"",""1"",""4249""
","
","","","","","","1512.9999999998836","<p> Your friend likes some pieces of furniture but not others.  </p><p> On each turn, you will see a piece of furniture.   </p><p> You need to decide whether to put it in your friend's house or not.  </p>","","0","instructions","","","","","","","","","","",""
"learning-instructions","179","733209","0.0-11.0-1.0-0.2","4016","1","14","Male","approach_avoid_spark_v1","""event"",""trial"",""time""
""fullscreenenter"",""1"",""4249""
","
","
","""event"",""trial"",""time""
""fullscreenenter"",""1"",""4249""
","
","","","","","","2065.9999999998836","<p> You can put the furniture in her house by pressing 1 and deliver it elsewhere by pressing 0. </p><br><div class=""choice-instructions-grid""> <div class=""choice-option""><img src=""images/approach.png"" class=""choice-option-img"" stage=""instructions"" position=""0"" ><div class=""choice-option-text""> Press ""1."" </div></div><div class=""choice-option""><img src=""images/avoid.png"" class=""choice-option-img"" stage=""instructions"" position=""1"" ><div class=""choice-option-text""> Press ""0."" </div></div>","","0","instructions","","","","","","","","","","",""
"learning-instructions","180","744081","0.0-11.0-1.0-0.3","4016","1","14","Male","approach_avoid_spark_v1","""event"",""trial"",""time""
""fullscreenenter"",""1"",""4249""
","
","
","""event"",""trial"",""time""
""fullscreenenter"",""1"",""4249""
","
","","","","","","1922","<p> If you decorate your friend's house with furniture she likes, she will be happy! </p><p> But if you give her furniture that she does not like, she will be annoyed. </p>","","0","instructions","","","","","","","","","","",""
"learning-instructions","181","757481","0.0-11.0-1.0-0.4","4016","1","14","Male","approach_avoid_spark_v1","""event"",""trial"",""time""
""fullscreenenter"",""1"",""4249""
","
","
","""event"",""trial"",""time""
""fullscreenenter"",""1"",""4249""
","
","","","","","","407","<p> You will earn points based on how you made your friend feel. </p><p> If you made her happy, you will WIN anywhere from 1 - 9 points, </p><p> but if you made her annoyed you will LOSE anywhere from 1 - 9 points. </p>","","0","instructions","","","","","","","","","","",""
"learning-instructions","182","765864","0.0-11.0-1.0-0.5","4016","1","14","Male","approach_avoid_spark_v1","""event"",""trial"",""time""
""fullscreenenter"",""1"",""4249""
","
","
","""event"",""trial"",""time""
""fullscreenenter"",""1"",""4249""
","
","","","","","","1735","<p> You will see how many points you won or lost in the center of the screen. </p><p> Here is what you would see if you won 5 points: </p><p style=""color:green;font-size:50px;font-weight:bolder"">5</p>","","0","instructions","","","","","","","","","","",""
"learning-instructions","183","771472","0.0-11.0-1.0-0.6","4016","1","14","Male","approach_avoid_spark_v1","""event"",""trial"",""time""
""fullscreenenter"",""1"",""4249""
","
","
","""event"",""trial"",""time""
""fullscreenenter"",""1"",""4249""
","
","","","","","","2778","<p> And here is what you would see if you lost 3 points: </p><p style=""color:red;font-size:50px;font-weight:bolder"">-3</p>","","0","instructions","","","","","","","","","","",""
"learning-instructions","184","792505","0.0-11.0-1.0-0.7","4016","1","14","Male","approach_avoid_spark_v1","""event"",""trial"",""time""
""fullscreenenter"",""1"",""4249""
","
","
","""event"",""trial"",""time""
""fullscreenenter"",""1"",""4249""
","
","","","","","","2903","<p> Some pieces of furniture will make her feel very happy or very annoyed. </p><p> These pieces of furniture will make you win or lose LOTS of points. </p><p> Other pieces of furniture will only make her feel a little happy or a little annoyed. </p><p> These pieces of furniture will make you win or lose small amounts of points. </p>","","0","instructions","","","","","","","","","","",""
"learning-instructions","185","813104","0.0-11.0-1.0-0.8","4016","1","14","Male","approach_avoid_spark_v1","""event"",""trial"",""time""
""fullscreenenter"",""1"",""4249""
","
","
","""event"",""trial"",""time""
""fullscreenenter"",""1"",""4249""
","
","","","","","","7187.999999999884","<p> If you choose to deliver a piece of furniture elsewhere, you will not win or lose any points. </p><p>  However, in the center of the screen, you will see the number of points you WOULD HAVE won or lost if you had given the furniture to your friend. </p>","","0","instructions","","","","","","","","","","",""
"learning-instructions","186","827519","0.0-11.0-1.0-0.9","4016","1","14","Male","approach_avoid_spark_v1","""event"",""trial"",""time""
""fullscreenenter"",""1"",""4249""
","
","
","""event"",""trial"",""time""
""fullscreenenter"",""1"",""4249""
","
","","","","","","991","<p> Here is what you might see if you did not give a piece of furniture to your friend that would have made her happy: </p><p style=""color:grey; font-size:50px; display: inline-block; border-spacing: 15px; border-width:3px; border-style:solid; border-color:red"">  &nbsp; 6 &nbsp; </p><p> Remember, in this case, you would not win or lose ANY points because you did not give her the furniture.  </p>","","0","instructions","","","","","","","","","","",""
"learning-instructions","187","838175","0.0-11.0-1.0-0.10","4016","1","14","Male","approach_avoid_spark_v1","""event"",""trial"",""time""
""fullscreenenter"",""1"",""4249""
","
","
","""event"",""trial"",""time""
""fullscreenenter"",""1"",""4249""
","
","","","","","","2177.9999999998836","<p> Try to make the best choice for each piece of furniture because </p><p> at the end of the game, you will earn bonus money based on how many points you earned. </p>","","0","instructions","","","","","","","","","","",""
"learning-instructions","188","846727","0.0-11.0-1.0-0.11","4016","1","14","Male","approach_avoid_spark_v1","""event"",""trial"",""time""
""fullscreenenter"",""1"",""4249""
","
","
","""event"",""trial"",""time""
""fullscreenenter"",""1"",""4249""
","
","","","","","","372","<p> You will have 3 seconds to make each choice. Try to respond before time runs out! </p><p> You will lose 5 points each time you do not make a response. </p>","","0","instructions","","","","","","","","","","",""
"html-keyboard-response","189","847330","0.0-11.0-2.0-0.0","4016","1","14","Male","approach_avoid_spark_v1","""event"",""trial"",""time""
""fullscreenenter"",""1"",""4249""
","
","
","""event"",""trial"",""time""
""fullscreenenter"",""1"",""4249""
","
","","","","","","null","<div style=""font-size:60px;"">+</div>","null","","fixation","","","","","","","","","","",""
"aa-learning-trial","190","850331","0.0-11.0-2.0-1.0","4016","1","14","Male","approach_avoid_spark_v1","""event"",""trial"",""time""
""fullscreenenter"",""1"",""4249""
","
","
","""event"",""trial"",""time""
""fullscreenenter"",""1"",""4249""
","
","","","","","","1400","images/table3.png","","","learning","6","0","0","0","table","furniture","2","1","","bad","[-6]"
"html-keyboard-response","191","850833","0.0-11.0-2.0-0.1","4016","1","14","Male","approach_avoid_spark_v1","""event"",""trial"",""time""
""fullscreenenter"",""1"",""4249""
","
","
","""event"",""trial"",""time""
""fullscreenenter"",""1"",""4249""
","
","","","","","","null","<div style=""font-size:60px;"">+</div>","null","","fixation","","","","","","","","","","",""
"aa-learning-trial","192","853835","0.0-11.0-2.0-1.1","4016","1","14","Male","approach_avoid_spark_v1","""event"",""trial"",""time""
""fullscreenenter"",""1"",""4249""
","
","
","""event"",""trial"",""time""
""fullscreenenter"",""1"",""4249""
","
","","","","","","927.0000000001164","images/sofa1.png","","","learning","-5","0","0","0","sofa","furniture","2","1","","good","[3]"
"html-keyboard-response","193","854336","0.0-11.0-2.0-0.2","4016","1","14","Male","approach_avoid_spark_v1","""event"",""trial"",""time""
""fullscreenenter"",""1"",""4249""
","
","
","""event"",""trial"",""time""
""fullscreenenter"",""1"",""4249""
","
","","","","","","null","<div style=""font-size:60px;"">+</div>","null","","fixation","","","","","","","","","","",""
"aa-learning-trial","194","857338","0.0-11.0-2.0-1.2","4016","1","14","Male","approach_avoid_spark_v1","""event"",""trial"",""time""
""fullscreenenter"",""1"",""4249""
","
","
","""event"",""trial"",""time""
""fullscreenenter"",""1"",""4249""
","
","","","","","","1152","images/bed5.png","","","learning","1","0","0","0","bed","furniture","2","1","","neutral","0"
"html-keyboard-response","195","857838","0.0-11.0-2.0-0.3","4016","1","14","Male","approach_avoid_spark_v1","""event"",""trial"",""time""
""fullscreenenter"",""1"",""4249""
","
","
","""event"",""trial"",""time""
""fullscreenenter"",""1"",""4249""
","
","","","","","","null","<div style=""font-size:60px;"">+</div>","null","","fixation","","","","","","","","","","",""
"aa-learning-trial","196","860840","0.0-11.0-2.0-1.3","4016","1","14","Male","approach_avoid_spark_v1","""event"",""trial"",""time""
""fullscreenenter"",""1"",""4249""
","
","
","""event"",""trial"",""time""
""fullscreenenter"",""1"",""4249""
","
","","","","","","1209","images/sofa4.png","","","learning","5","0","0","0","sofa","furniture","2","1","","good","[3]"
"html-keyboard-response","197","861340","0.0-11.0-2.0-0.4","4016","1","14","Male","approach_avoid_spark_v1","""event"",""trial"",""time""
""fullscreenenter"",""1"",""4249""
","
","
","""event"",""trial"",""time""
""fullscreenenter"",""1"",""4249""
","
","","","","","","null","<div style=""font-size:60px;"">+</div>","null","","fixation","","","","","","","","","","",""
"aa-learning-trial","198","864341","0.0-11.0-2.0-1.4","4016","1","14","Male","approach_avoid_spark_v1","""event"",""trial"",""time""
""fullscreenenter"",""1"",""4249""
","
","
","""event"",""trial"",""time""
""fullscreenenter"",""1"",""4249""
","
","","","","","","1740","images/bed3.png","","","learning","3","3","1","1","bed","furniture","2","1","","neutral","0"
"html-keyboard-response","199","864843","0.0-11.0-2.0-0.5","4016","1","14","Male","approach_avoid_spark_v1","""event"",""trial"",""time""
""fullscreenenter"",""1"",""4249""
","
","
","""event"",""trial"",""time""
""fullscreenenter"",""1"",""4249""
","
","","","","","","null","<div style=""font-size:60px;"">+</div>","null","","fixation","","","","","","","","","","",""
"aa-learning-trial","200","867845","0.0-11.0-2.0-1.5","4016","1","14","Male","approach_avoid_spark_v1","""event"",""trial"",""time""
""fullscreenenter"",""1"",""4249""
","
","
","""event"",""trial"",""time""
""fullscreenenter"",""1"",""4249""
","
","","","","","","781","images/bed7.png","","","learning","9","9","1","1","bed","furniture","2","1","","neutral","0"
"html-keyboard-response","201","868347","0.0-11.0-2.0-0.6","4016","1","14","Male","approach_avoid_spark_v1","""event"",""trial"",""time""
""fullscreenenter"",""1"",""4249""
","
","
","""event"",""trial"",""time""
""fullscreenenter"",""1"",""4249""
","
","","","","","","null","<div style=""font-size:60px;"">+</div>","null","","fixation","","","","","","","","","","",""
"aa-learning-trial","202","871348","0.0-11.0-2.0-1.6","4016","1","14","Male","approach_avoid_spark_v1","""event"",""trial"",""time""
""fullscreenenter"",""1"",""4249""
","
","
","""event"",""trial"",""time""
""fullscreenenter"",""1"",""4249""
","
","","","","","","940.9999999998836","images/bed3.png","","","learning","3","3","1","1","bed","furniture","2","1","","neutral","0"
"html-keyboard-response","203","871850","0.0-11.0-2.0-0.7","4016","1","14","Male","approach_avoid_spark_v1","""event"",""trial"",""time""
""fullscreenenter"",""1"",""4249""
","
","
","""event"",""trial"",""time""
""fullscreenenter"",""1"",""4249""
","
","","","","","","null","<div style=""font-size:60px;"">+</div>","null","","fixation","","","","","","","","","","",""
"aa-learning-trial","204","874851","0.0-11.0-2.0-1.7","4016","1","14","Male","approach_avoid_spark_v1","""event"",""trial"",""time""
""fullscreenenter"",""1"",""4249""
","
","
","""event"",""trial"",""time""
""fullscreenenter"",""1"",""4249""
","
","","","","","","1614","images/sofa6.png","","","learning","8","0","0","0","sofa","furniture","2","1","","good","[3]"
"html-keyboard-response","205","875352","0.0-11.0-2.0-0.8","4016","1","14","Male","approach_avoid_spark_v1","""event"",""trial"",""time""
""fullscreenenter"",""1"",""4249""
","
","
","""event"",""trial"",""time""
""fullscreenenter"",""1"",""4249""
","
","","","","","","null","<div style=""font-size:60px;"">+</div>","null","","fixation","","","","","","","","","","",""
"aa-learning-trial","206","878354","0.0-11.0-2.0-1.8","4016","1","14","Male","approach_avoid_spark_v1","""event"",""trial"",""time""
""fullscreenenter"",""1"",""4249""
","
","
","""event"",""trial"",""time""
""fullscreenenter"",""1"",""4249""
","
","","","","","","1520","images/table2.png","","","learning","-4","-4","1","1","table","furniture","2","1","","bad","[-6]"
"html-keyboard-response","207","878856","0.0-11.0-2.0-0.9","4016","1","14","Male","approach_avoid_spark_v1","""event"",""trial"",""time""
""fullscreenenter"",""1"",""4249""
","
","
","""event"",""trial"",""time""
""fullscreenenter"",""1"",""4249""
","
","","","","","","null","<div style=""font-size:60px;"">+</div>","null","","fixation","","","","","","","","","","",""
"aa-learning-trial","208","881857","0.0-11.0-2.0-1.9","4016","1","14","Male","approach_avoid_spark_v1","""event"",""trial"",""time""
""fullscreenenter"",""1"",""4249""
","
","
","""event"",""trial"",""time""
""fullscreenenter"",""1"",""4249""
","
","","","","","","1183","images/table4.png","","","learning","2","0","0","0","table","furniture","2","1","","bad","[-6]"
"html-keyboard-response","209","882358","0.0-11.0-2.0-0.10","4016","1","14","Male","approach_avoid_spark_v1","""event"",""trial"",""time""
""fullscreenenter"",""1"",""4249""
","
","
","""event"",""trial"",""time""
""fullscreenenter"",""1"",""4249""
","
","","","","","","null","<div style=""font-size:60px;"">+</div>","null","","fixation","","","","","","","","","","",""
"aa-learning-trial","210","885360","0.0-11.0-2.0-1.10","4016","1","14","Male","approach_avoid_spark_v1","""event"",""trial"",""time""
""fullscreenenter"",""1"",""4249""
","
","
","""event"",""trial"",""time""
""fullscreenenter"",""1"",""4249""
","
","","","","","","1177","images/table4.png","","","learning","2","2","1","1","table","furniture","2","1","","bad","[-6]"
"html-keyboard-response","211","885860","0.0-11.0-2.0-0.11","4016","1","14","Male","approach_avoid_spark_v1","""event"",""trial"",""time""
""fullscreenenter"",""1"",""4249""
","
","
","""event"",""trial"",""time""
""fullscreenenter"",""1"",""4249""
","
","","","","","","null","<div style=""font-size:60px;"">+</div>","null","","fixation","","","","","","","","","","",""
"aa-learning-trial","212","888861","0.0-11.0-2.0-1.11","4016","1","14","Male","approach_avoid_spark_v1","""event"",""trial"",""time""
""fullscreenenter"",""1"",""4249""
","
","
","""event"",""trial"",""time""
""fullscreenenter"",""1"",""4249""
","
","","","","","","978.9999999998836","images/sofa4.png","","","learning","5","5","1","1","sofa","furniture","2","1","","good","[3]"
"html-keyboard-response","213","889363","0.0-11.0-2.0-0.12","4016","1","14","Male","approach_avoid_spark_v1","""event"",""trial"",""time""
""fullscreenenter"",""1"",""4249""
","
","
","""event"",""trial"",""time""
""fullscreenenter"",""1"",""4249""
","
","","","","","","null","<div style=""font-size:60px;"">+</div>","null","","fixation","","","","","","","","","","",""
"aa-learning-trial","214","892365","0.0-11.0-2.0-1.12","4016","1","14","Male","approach_avoid_spark_v1","""event"",""trial"",""time""
""fullscreenenter"",""1"",""4249""
","
","
","""event"",""trial"",""time""
""fullscreenenter"",""1"",""4249""
","
","","","","","","1203","images/bed7.png","","","learning","9","9","1","1","bed","furniture","2","1","","neutral","0"
"html-keyboard-response","215","892865","0.0-11.0-2.0-0.13","4016","1","14","Male","approach_avoid_spark_v1","""event"",""trial"",""time""
""fullscreenenter"",""1"",""4249""
","
","
","""event"",""trial"",""time""
""fullscreenenter"",""1"",""4249""
","
","","","","","","null","<div style=""font-size:60px;"">+</div>","null","","fixation","","","","","","","","","","",""
"aa-learning-trial","216","895866","0.0-11.0-2.0-1.13","4016","1","14","Male","approach_avoid_spark_v1","""event"",""trial"",""time""
""fullscreenenter"",""1"",""4249""
","
","
","""event"",""trial"",""time""
""fullscreenenter"",""1"",""4249""
","
","","","","","","885.9999999998836","images/table2.png","","","learning","-4","0","0","0","table","furniture","2","1","","bad","[-6]"
"html-keyboard-response","217","896367","0.0-11.0-2.0-0.14","4016","1","14","Male","approach_avoid_spark_v1","""event"",""trial"",""time""
""fullscreenenter"",""1"",""4249""
","
","
","""event"",""trial"",""time""
""fullscreenenter"",""1"",""4249""
","
","","","","","","null","<div style=""font-size:60px;"">+</div>","null","","fixation","","","","","","","","","","",""
"aa-learning-trial","218","899368","0.0-11.0-2.0-1.14","4016","1","14","Male","approach_avoid_spark_v1","""event"",""trial"",""time""
""fullscreenenter"",""1"",""4249""
","
","
","""event"",""trial"",""time""
""fullscreenenter"",""1"",""4249""
","
","","","","","","1176.0000000001164","images/sofa6.png","","","learning","8","0","0","0","sofa","furniture","2","1","","good","[3]"
"html-keyboard-response","219","899870","0.0-11.0-2.0-0.15","4016","1","14","Male","approach_avoid_spark_v1","""event"",""trial"",""time""
""fullscreenenter"",""1"",""4249""
","
","
","""event"",""trial"",""time""
""fullscreenenter"",""1"",""4249""
","
","","","","","","null","<div style=""font-size:60px;"">+</div>","null","","fixation","","","","","","","","","","",""
"aa-learning-trial","220","902872","0.0-11.0-2.0-1.15","4016","1","14","Male","approach_avoid_spark_v1","""event"",""trial"",""time""
""fullscreenenter"",""1"",""4249""
","
","
","""event"",""trial"",""time""
""fullscreenenter"",""1"",""4249""
","
","","","","","","824.9999999998836","images/bed6.png","","","learning","-3","-3","1","1","bed","furniture","2","1","","neutral","0"
"html-keyboard-response","221","903373","0.0-11.0-2.0-0.16","4016","1","14","Male","approach_avoid_spark_v1","""event"",""trial"",""time""
""fullscreenenter"",""1"",""4249""
","
","
","""event"",""trial"",""time""
""fullscreenenter"",""1"",""4249""
","
","","","","","","null","<div style=""font-size:60px;"">+</div>","null","","fixation","","","","","","","","","","",""
"aa-learning-trial","222","906375","0.0-11.0-2.0-1.16","4016","1","14","Male","approach_avoid_spark_v1","""event"",""trial"",""time""
""fullscreenenter"",""1"",""4249""
","
","
","""event"",""trial"",""time""
""fullscreenenter"",""1"",""4249""
","
","","","","","","842","images/bed5.png","","","learning","1","1","1","1","bed","furniture","2","1","","neutral","0"
"html-keyboard-response","223","906877","0.0-11.0-2.0-0.17","4016","1","14","Male","approach_avoid_spark_v1","""event"",""trial"",""time""
""fullscreenenter"",""1"",""4249""
","
","
","""event"",""trial"",""time""
""fullscreenenter"",""1"",""4249""
","
","","","","","","null","<div style=""font-size:60px;"">+</div>","null","","fixation","","","","","","","","","","",""
"aa-learning-trial","224","909879","0.0-11.0-2.0-1.17","4016","1","14","Male","approach_avoid_spark_v1","""event"",""trial"",""time""
""fullscreenenter"",""1"",""4249""
","
","
","""event"",""trial"",""time""
""fullscreenenter"",""1"",""4249""
","
","","","","","","746","images/bed3.png","","","learning","3","3","1","1","bed","furniture","2","1","","neutral","0"
"html-keyboard-response","225","910380","0.0-11.0-2.0-0.18","4016","1","14","Male","approach_avoid_spark_v1","""event"",""trial"",""time""
""fullscreenenter"",""1"",""4249""
","
","
","""event"",""trial"",""time""
""fullscreenenter"",""1"",""4249""
","
","","","","","","null","<div style=""font-size:60px;"">+</div>","null","","fixation","","","","","","","","","","",""
"aa-learning-trial","226","913381","0.0-11.0-2.0-1.18","4016","1","14","Male","approach_avoid_spark_v1","""event"",""trial"",""time""
""fullscreenenter"",""1"",""4249""
","
","
","""event"",""trial"",""time""
""fullscreenenter"",""1"",""4249""
","
","","","","","","987","images/sofa6.png","","","learning","8","8","1","1","sofa","furniture","2","1","","good","[3]"
"html-keyboard-response","227","913883","0.0-11.0-2.0-0.19","4016","1","14","Male","approach_avoid_spark_v1","""event"",""trial"",""time""
""fullscreenenter"",""1"",""4249""
","
","
","""event"",""trial"",""time""
""fullscreenenter"",""1"",""4249""
","
","","","","","","null","<div style=""font-size:60px;"">+</div>","null","","fixation","","","","","","","","","","",""
"aa-learning-trial","228","916885","0.0-11.0-2.0-1.19","4016","1","14","Male","approach_avoid_spark_v1","""event"",""trial"",""time""
""fullscreenenter"",""1"",""4249""
","
","
","""event"",""trial"",""time""
""fullscreenenter"",""1"",""4249""
","
","","","","","","844","images/bed7.png","","","learning","9","9","1","1","bed","furniture","2","1","","neutral","0"
"html-keyboard-response","229","917385","0.0-11.0-2.0-0.20","4016","1","14","Male","approach_avoid_spark_v1","""event"",""trial"",""time""
""fullscreenenter"",""1"",""4249""
","
","
","""event"",""trial"",""time""
""fullscreenenter"",""1"",""4249""
","
","","","","","","null","<div style=""font-size:60px;"">+</div>","null","","fixation","","","","","","","","","","",""
"aa-learning-trial","230","920386","0.0-11.0-2.0-1.20","4016","1","14","Male","approach_avoid_spark_v1","""event"",""trial"",""time""
""fullscreenenter"",""1"",""4249""
","
","
","""event"",""trial"",""time""
""fullscreenenter"",""1"",""4249""
","
","","","","","","782","images/table2.png","","","learning","-4","0","0","0","table","furniture","2","1","","bad","[-6]"
"html-keyboard-response","231","920887","0.0-11.0-2.0-0.21","4016","1","14","Male","approach_avoid_spark_v1","""event"",""trial"",""time""
""fullscreenenter"",""1"",""4249""
","
","
","""event"",""trial"",""time""
""fullscreenenter"",""1"",""4249""
","
","","","","","","null","<div style=""font-size:60px;"">+</div>","null","","fixation","","","","","","","","","","",""
"aa-learning-trial","232","923888","0.0-11.0-2.0-1.21","4016","1","14","Male","approach_avoid_spark_v1","""event"",""trial"",""time""
""fullscreenenter"",""1"",""4249""
","
","
","""event"",""trial"",""time""
""fullscreenenter"",""1"",""4249""
","
","","","","","","992.0000000001164","images/sofa6.png","","","learning","8","8","1","1","sofa","furniture","2","1","","good","[3]"
"html-keyboard-response","233","924389","0.0-11.0-2.0-0.22","4016","1","14","Male","approach_avoid_spark_v1","""event"",""trial"",""time""
""fullscreenenter"",""1"",""4249""
","
","
","""event"",""trial"",""time""
""fullscreenenter"",""1"",""4249""
","
","","","","","","null","<div style=""font-size:60px;"">+</div>","null","","fixation","","","","","","","","","","",""
"aa-learning-trial","234","927391","0.0-11.0-2.0-1.22","4016","1","14","Male","approach_avoid_spark_v1","""event"",""trial"",""time""
""fullscreenenter"",""1"",""4249""
","
","
","""event"",""trial"",""time""
""fullscreenenter"",""1"",""4249""
","
","","","","","","801.9999999998836","images/sofa4.png","","","learning","5","5","1","1","sofa","furniture","2","1","","good","[3]"
"html-keyboard-response","235","927892","0.0-11.0-2.0-0.23","4016","1","14","Male","approach_avoid_spark_v1","""event"",""trial"",""time""
""fullscreenenter"",""1"",""4249""
","
","
","""event"",""trial"",""time""
""fullscreenenter"",""1"",""4249""
","
","","","","","","null","<div style=""font-size:60px;"">+</div>","null","","fixation","","","","","","","","","","",""
"aa-learning-trial","236","930893","0.0-11.0-2.0-1.23","4016","1","14","Male","approach_avoid_spark_v1","""event"",""trial"",""time""
""fullscreenenter"",""1"",""4249""
","
","
","""event"",""trial"",""time""
""fullscreenenter"",""1"",""4249""
","
","","","","","","675.0000000001164","images/bed7.png","","","learning","9","9","1","1","bed","furniture","2","1","","neutral","0"
"html-keyboard-response","237","931395","0.0-11.0-2.0-0.24","4016","1","14","Male","approach_avoid_spark_v1","""event"",""trial"",""time""
""fullscreenenter"",""1"",""4249""
","
","
","""event"",""trial"",""time""
""fullscreenenter"",""1"",""4249""
","
","","","","","","null","<div style=""font-size:60px;"">+</div>","null","","fixation","","","","","","","","","","",""
"aa-learning-trial","238","934396","0.0-11.0-2.0-1.24","4016","1","14","Male","approach_avoid_spark_v1","""event"",""trial"",""time""
""fullscreenenter"",""1"",""4249""
","
","
","""event"",""trial"",""time""
""fullscreenenter"",""1"",""4249""
","
","","","","","","1236","images/table4.png","","","learning","2","2","1","1","table","furniture","2","1","","bad","[-6]"
"html-keyboard-response","239","934897","0.0-11.0-2.0-0.25","4016","1","14","Male","approach_avoid_spark_v1","""event"",""trial"",""time""
""fullscreenenter"",""1"",""4249""
","
","
","""event"",""trial"",""time""
""fullscreenenter"",""1"",""4249""
","
","","","","","","null","<div style=""font-size:60px;"">+</div>","null","","fixation","","","","","","","","","","",""
