"trial_type","trial_index","time_elapsed","internal_node_id","subject_id","task_condition","age","gender","task_version","interactions","blur_events","focus_events","fullscreenenter_events","fullscreenexit_events","success","timeout","failed_images","failed_audio","failed_video","rt","stimulus","response","button_pressed","task_part","approach_reward","points","key_press","option_selected","stim_cat","task_block","block_condition","block_number","correct","cat_type","mean_cat_reward"
"pavlovia","0","171","0.0-0.0","6286","2","9","Female","approach_avoid_spark_v1","""event"",""trial"",""time""
""fullscreenenter"",""1"",""10814""
","
","
","""event"",""trial"",""time""
""fullscreenenter"",""1"",""10814""
","
","","","","","","","","","","","","","","","","","","","","",""
"fullscreen","1","11253","0.0-1.0","6286","2","9","Female","approach_avoid_spark_v1","""event"",""trial"",""time""
""fullscreenenter"",""1"",""10814""
","
","
","""event"",""trial"",""time""
""fullscreenenter"",""1"",""10814""
","
","true","","","","","","","","","","","","","","","","","","","",""
"preload","2","27193","0.0-2.0","6286","2","9","Female","approach_avoid_spark_v1","""event"",""trial"",""time""
""fullscreenenter"",""1"",""10814""
","
","
","""event"",""trial"",""time""
""fullscreenenter"",""1"",""10814""
","
","true","false","[]","[]","[]","","","","","","","","","","","","","","","",""
"audio-keyboard-response","3","35679","0.0-3.0","6286","2","9","Female","approach_avoid_spark_v1","""event"",""trial"",""time""
""fullscreenenter"",""1"",""10814""
","
","
","""event"",""trial"",""time""
""fullscreenenter"",""1"",""10814""
","
","","","","","","7669.333333333334","audio/beep_loop.wav"," ","","","","","","","","","","","","",""
"audio-button-response","4","41149","0.0-4.0","6286","2","9","Female","approach_avoid_spark_v1","""event"",""trial"",""time""
""fullscreenenter"",""1"",""10814""
","
","
","""event"",""trial"",""time""
""fullscreenenter"",""1"",""10814""
","
","","","","","","5459","audio/shark.wav","4","","","","","","","","","","","","",""
"audio-button-response","5","43950","0.0-5.0","6286","2","9","Female","approach_avoid_spark_v1","""event"",""trial"",""time""
""fullscreenenter"",""1"",""10814""
","
","
","""event"",""trial"",""time""
""fullscreenenter"",""1"",""10814""
","
","","","","","","1779","audio/turtle.wav","1","","","","","","","","","","","","",""
"preload","6","50312","0.0-6.0","6286","2","9","Female","approach_avoid_spark_v1","""event"",""trial"",""time""
""fullscreenenter"",""1"",""10814""
","
","
","""event"",""trial"",""time""
""fullscreenenter"",""1"",""10814""
","
","true","false","[]","[]","[]","","","","","","","","","","","","","","","",""
"html-keyboard-response","7","54898","0.0-7.0","6286","2","9","Female","approach_avoid_spark_v1","""event"",""trial"",""time""
""fullscreenenter"",""1"",""10814""
","
","
","""event"",""trial"",""time""
""fullscreenenter"",""1"",""10814""
","
","","","","","","4567","Welcome to the experiment. Press any key to begin and to advance the instructions."," ","","","","","","","","","","","","",""
"learning-instructions","8","63728","0.0-8.0-0.0-0.0","6286","2","9","Female","approach_avoid_spark_v1","""event"",""trial"",""time""
""fullscreenenter"",""1"",""10814""
","
","
","""event"",""trial"",""time""
""fullscreenenter"",""1"",""10814""
","
","","","","","","1853.5999999999767","<p> Welcome! Today you are going to play 6 different rounds of a decision-making game. </p><p> Use the mouse to click next to continue. </p>","","0","instructions","","","","","","","","","","",""
"learning-instructions","9","69297","0.0-8.0-0.0-0.1","6286","2","9","Female","approach_avoid_spark_v1","""event"",""trial"",""time""
""fullscreenenter"",""1"",""10814""
","
","
","""event"",""trial"",""time""
""fullscreenenter"",""1"",""10814""
","
","","","","","","2836.0999999999767","<p> You will start with a practice round to learn the rules. </p>","","0","instructions","","","","","","","","","","",""
"learning-instructions","10","75859","0.0-8.0-0.0-0.2","6286","2","9","Female","approach_avoid_spark_v1","""event"",""trial"",""time""
""fullscreenenter"",""1"",""10814""
","
","
","""event"",""trial"",""time""
""fullscreenenter"",""1"",""10814""
","
","","","","","","2106.79999999993","<p> Your goal in this round is to give out sports equipment to kids. </p></div>","","0","instructions","","","","","","","","","","",""
"learning-instructions","11","85572","0.0-8.0-0.0-0.3","6286","2","9","Female","approach_avoid_spark_v1","""event"",""trial"",""time""
""fullscreenenter"",""1"",""10814""
","
","
","""event"",""trial"",""time""
""fullscreenenter"",""1"",""10814""
","
","","","","","","2160.5","<p> The kids only like some of the equipment.  </p><p> On each turn, you will see a piece of sports equipment.   </p><p> You need to decide whether to give it to the kids or not.  </p>","","0","instructions","","","","","","","","","","",""
"learning-instructions","12","92543","0.0-8.0-0.0-0.4","6286","2","9","Female","approach_avoid_spark_v1","""event"",""trial"",""time""
""fullscreenenter"",""1"",""10814""
","
","
","""event"",""trial"",""time""
""fullscreenenter"",""1"",""10814""
","
","","","","","","2220.9000000000233","<p> You can give them the equipment by pressing 1 and choose not to give it to them by pressing 0. </p><br><div class=""choice-instructions-grid""> <div class=""choice-option""><img src=""images/approach.png"" class=""choice-option-img"" stage=""instructions"" position=""0"" ><div class=""choice-option-text""> Press ""1."" </div></div><div class=""choice-option""><img src=""images/avoid.png"" class=""choice-option-img"" stage=""instructions"" position=""1"" ><div class=""choice-option-text""> Press ""0."" </div></div>","","0","instructions","","","","","","","","","","",""
"learning-instructions","13","103166","0.0-8.0-0.0-0.5","6286","2","9","Female","approach_avoid_spark_v1","""event"",""trial"",""time""
""fullscreenenter"",""1"",""10814""
","
","
","""event"",""trial"",""time""
""fullscreenenter"",""1"",""10814""
","
","","","","","","3214","<p> If you give them a piece of equipment they like, they will be happy! </p><p> But if you give them a piece of equipment they do not like, they will be sad. </p>","","0","instructions","","","","","","","","","","",""
"learning-instructions","14","115794","0.0-8.0-0.0-0.6","6286","2","9","Female","approach_avoid_spark_v1","""event"",""trial"",""time""
""fullscreenenter"",""1"",""10814""
","
","
","""event"",""trial"",""time""
""fullscreenenter"",""1"",""10814""
","
","","","","","","2117","<p> You will earn points based on how you make kids feel. </p><p> If you make them happy, you will WIN anywhere from 1 - 9 points, </p><p> but if you make them sad, you will LOSE anywhere from 1 - 9 points. </p>","","0","instructions","","","","","","","","","","",""
"learning-instructions","15","128052","0.0-8.0-0.0-0.7","6286","2","9","Female","approach_avoid_spark_v1","""event"",""trial"",""time""
""fullscreenenter"",""1"",""10814""
","
","
","""event"",""trial"",""time""
""fullscreenenter"",""1"",""10814""
","
","","","","","","2692.1999999999534","<p> You will see how many points you won or lost in the center of the screen. </p><p> Here is what you would see if you won 6 points: </p><p style=""color:green;font-size:50px;font-weight:bolder"">6</p><p style=""color:green"">The text is GREEN because you WON points.</p>","","0","instructions","","","","","","","","","","",""
"learning-instructions","16","135312","0.0-8.0-0.0-0.8","6286","2","9","Female","approach_avoid_spark_v1","""event"",""trial"",""time""
""fullscreenenter"",""1"",""10814""
","
","
","""event"",""trial"",""time""
""fullscreenenter"",""1"",""10814""
","
","","","","","","1745","<p> And here is what you would see if you lost 4 points: </p><p style=""color:red;font-size:50px;font-weight:bolder"">-4</p><p style=""color:red"">The text is RED because you LOST points. </p>","","0","instructions","","","","","","","","","","",""
"learning-instructions","17","153006","0.0-8.0-0.0-0.9","6286","2","9","Female","approach_avoid_spark_v1","""event"",""trial"",""time""
""fullscreenenter"",""1"",""10814""
","
","
","""event"",""trial"",""time""
""fullscreenenter"",""1"",""10814""
","
","","","","","","2975.399999999907","<p> Some of the equipment will make the kids VERY happy or sad. </p><p> These pieces of equipment will make you win or lose LOTS of points. </p><p> Other pieces of equipment will only make the kids a little happy or sad. </p><p> These pieces of equipment will make you win or lose small amounts of points. </p>","","0","instructions","","","","","","","","","","",""
"learning-instructions","18","169147","0.0-8.0-0.0-0.10","6286","2","9","Female","approach_avoid_spark_v1","""event"",""trial"",""time""
""fullscreenenter"",""1"",""10814""
","
","
","""event"",""trial"",""time""
""fullscreenenter"",""1"",""10814""
","
","","","","","","5515.70000000007","<p> If you choose not to give them the equipment, you will not win or lose any points. </p><p>  However, in the center of the screen, you will see the number of points you WOULD HAVE won or lost if you had given them the equipment. </p>","","0","instructions","","","","","","","","","","",""
"learning-instructions","19","194898","0.0-8.0-0.0-0.11","6286","2","9","Female","approach_avoid_spark_v1","""event"",""trial"",""time""
""fullscreenenter"",""1"",""10814""
","
","
","""event"",""trial"",""time""
""fullscreenenter"",""1"",""10814""
","
","","","","","","4203.599999999977","<p> Here is what you might see if you did not give the equipment to the kids but it would have made them happy: </p><p style=""color:grey; font-size:50px; display: inline-block; border-spacing: 15px; border-width:3px; border-style:solid; border-color:red"">  &nbsp; 7 &nbsp; </p><p> Remember, in this case, you would not win or lose ANY points because you did not give them the equipment.  </p><p style=""color:grey"">The text is GREY because you earned ZERO points. </p><p style=""color:red"">However, choosing to give the kids the equipment would have made you win points. The box around the text is RED because you chose the worse option. </p>","","0","instructions","","","","","","","","","","",""
"learning-instructions","20","219021","0.0-8.0-0.0-0.12","6286","2","9","Female","approach_avoid_spark_v1","""event"",""trial"",""time""
""fullscreenenter"",""1"",""10814""
","
","
","""event"",""trial"",""time""
""fullscreenenter"",""1"",""10814""
","
","","","","","","2988","<p> Here is what you might see if you did not give the equipment to the kids but it would have made them sad: </p><p style=""color:grey;font-size:50px; display: inline-block; border-spacing: 15px; border-width:3px; border-style:solid; border-color:green"">  &nbsp; -8 &nbsp; </p><p> Remember, in this case, you would not win or lose ANY points because you did not give them the equipment.  </p><p style=""color:grey"">The text is GREY because you earned ZERO points. </p><p  style=""color:green""> Choosing to give the kids the equipment would have made you lose points. The box around the text is GREEN because you chose the better option.</p>","","0","instructions","","","","","","","","","","",""
"learning-instructions","21","232911","0.0-8.0-0.0-0.13","6286","2","9","Female","approach_avoid_spark_v1","""event"",""trial"",""time""
""fullscreenenter"",""1"",""10814""
","
","
","""event"",""trial"",""time""
""fullscreenenter"",""1"",""10814""
","
","","","","","","3207.5","<p> You will have 3 seconds to make each choice. Try to respond before time runs out! </p><p> You will lose 5 points each time you do not make a response. </p>","","0","instructions","","","","","","","","","","",""
"learning-instructions","22","241571","0.0-8.0-0.0-0.14","6286","2","9","Female","approach_avoid_spark_v1","""event"",""trial"",""time""
""fullscreenenter"",""1"",""10814""
","
","
","""event"",""trial"",""time""
""fullscreenenter"",""1"",""10814""
","
","","","","","","3247.3000000000466","<p> This is just a practice round, but in the real game, your bonus payment will depend on your total number of points.","","0","instructions","","","","","","","","","","",""
"learning-instructions","23","250923","0.0-8.0-0.0-0.15","6286","2","9","Female","approach_avoid_spark_v1","""event"",""trial"",""time""
""fullscreenenter"",""1"",""10814""
","
","
","""event"",""trial"",""time""
""fullscreenenter"",""1"",""10814""
","
","","","","","","3572.79999999993","<p> Remember, you can give them the equipment by pressing 1 and choose not to give it to them by pressing 0. </p><br><div class=""choice-instructions-grid""> <div class=""choice-option""><img src=""images/approach.png"" class=""choice-option-img"" stage=""instructions"" position=""0"" ><div class=""choice-option-text""> Press ""1."" </div></div><div class=""choice-option""><img src=""images/avoid.png"" class=""choice-option-img"" stage=""instructions"" position=""1"" ><div class=""choice-option-text""> Press ""0."" </div></div>","","0","instructions","","","","","","","","","","",""
"html-button-response","24","253507","0.0-8.0-1.0","6286","2","9","Female","approach_avoid_spark_v1","""event"",""trial"",""time""
""fullscreenenter"",""1"",""10814""
","
","
","""event"",""trial"",""time""
""fullscreenenter"",""1"",""10814""
","
","","","","","","2476.0999999999767","<p> Ready to practice? </p>","0","","","","","","","","","","","","",""
"html-keyboard-response","25","254124","0.0-8.0-2.0-0.0","6286","2","9","Female","approach_avoid_spark_v1","""event"",""trial"",""time""
""fullscreenenter"",""1"",""10814""
","
","
","""event"",""trial"",""time""
""fullscreenenter"",""1"",""10814""
","
","","","","","","null","<div style=""font-size:60px;"">+</div>","null","","fixation","","","","","","","","","","",""
"aa-learning-trial","26","257136","0.0-8.0-2.0-1.0","6286","2","9","Female","approach_avoid_spark_v1","""event"",""trial"",""time""
""fullscreenenter"",""1"",""10814""
","
","
","""event"",""trial"",""time""
""fullscreenenter"",""1"",""10814""
","
","","","","","","2300.600000000093","images/ball3.png","","","learning","9","9","1","1","practice","practice","practice","-1","","",""
"html-keyboard-response","27","257639","0.0-8.0-2.0-0.1","6286","2","9","Female","approach_avoid_spark_v1","""event"",""trial"",""time""
""fullscreenenter"",""1"",""10814""
","
","
","""event"",""trial"",""time""
""fullscreenenter"",""1"",""10814""
","
","","","","","","null","<div style=""font-size:60px;"">+</div>","null","","fixation","","","","","","","","","","",""
"aa-learning-trial","28","260643","0.0-8.0-2.0-1.1","6286","2","9","Female","approach_avoid_spark_v1","""event"",""trial"",""time""
""fullscreenenter"",""1"",""10814""
","
","
","""event"",""trial"",""time""
""fullscreenenter"",""1"",""10814""
","
","","","","","","1461","images/ball1.png","","","learning","1","1","1","1","practice","practice","practice","-1","","",""
"html-keyboard-response","29","261146","0.0-8.0-2.0-0.2","6286","2","9","Female","approach_avoid_spark_v1","""event"",""trial"",""time""
""fullscreenenter"",""1"",""10814""
","
","
","""event"",""trial"",""time""
""fullscreenenter"",""1"",""10814""
","
","","","","","","null","<div style=""font-size:60px;"">+</div>","null","","fixation","","","","","","","","","","",""
"aa-learning-trial","30","264161","0.0-8.0-2.0-1.2","6286","2","9","Female","approach_avoid_spark_v1","""event"",""trial"",""time""
""fullscreenenter"",""1"",""10814""
","
","
","""event"",""trial"",""time""
""fullscreenenter"",""1"",""10814""
","
","","","","","","2800.4000000000233","images/racket3.png","","","learning","-5","0","0","0","practice","practice","practice","-1","","",""
"html-keyboard-response","31","264679","0.0-8.0-2.0-0.3","6286","2","9","Female","approach_avoid_spark_v1","""event"",""trial"",""time""
""fullscreenenter"",""1"",""10814""
","
","
","""event"",""trial"",""time""
""fullscreenenter"",""1"",""10814""
","
","","","","","","null","<div style=""font-size:60px;"">+</div>","null","","fixation","","","","","","","","","","",""
"aa-learning-trial","32","267688","0.0-8.0-2.0-1.3","6286","2","9","Female","approach_avoid_spark_v1","""event"",""trial"",""time""
""fullscreenenter"",""1"",""10814""
","
","
","""event"",""trial"",""time""
""fullscreenenter"",""1"",""10814""
","
","","","","","","2843","images/racket2.png","","","learning","5","0","0","0","practice","practice","practice","-1","","",""
"html-keyboard-response","33","268204","0.0-8.0-2.0-0.4","6286","2","9","Female","approach_avoid_spark_v1","""event"",""trial"",""time""
""fullscreenenter"",""1"",""10814""
","
","
","""event"",""trial"",""time""
""fullscreenenter"",""1"",""10814""
","
","","","","","","null","<div style=""font-size:60px;"">+</div>","null","","fixation","","","","","","","","","","",""
"aa-learning-trial","34","271226","0.0-8.0-2.0-1.4","6286","2","9","Female","approach_avoid_spark_v1","""event"",""trial"",""time""
""fullscreenenter"",""1"",""10814""
","
","
","""event"",""trial"",""time""
""fullscreenenter"",""1"",""10814""
","
","","","","","","null","images/ball3.png","","","learning","9","-5","","null","practice","practice","practice","-1","","",""
"html-keyboard-response","35","271753","0.0-8.0-2.0-0.5","6286","2","9","Female","approach_avoid_spark_v1","""event"",""trial"",""time""
""fullscreenenter"",""1"",""10814""
","
","
","""event"",""trial"",""time""
""fullscreenenter"",""1"",""10814""
","
","","","","","","null","<div style=""font-size:60px;"">+</div>","null","","fixation","","","","","","","","","","",""
"aa-learning-trial","36","274777","0.0-8.0-2.0-1.5","6286","2","9","Female","approach_avoid_spark_v1","""event"",""trial"",""time""
""fullscreenenter"",""1"",""10814""
","
","
","""event"",""trial"",""time""
""fullscreenenter"",""1"",""10814""
","
","","","","","","1084.5999999999767","images/racket2.png","","","learning","-6","-6","1","1","practice","practice","practice","-1","","",""
"html-keyboard-response","37","275296","0.0-8.0-2.0-0.6","6286","2","9","Female","approach_avoid_spark_v1","""event"",""trial"",""time""
""fullscreenenter"",""1"",""10814""
","
","
","""event"",""trial"",""time""
""fullscreenenter"",""1"",""10814""
","
","","","","","","null","<div style=""font-size:60px;"">+</div>","null","","fixation","","","","","","","","","","",""
"aa-learning-trial","38","278307","0.0-8.0-2.0-1.6","6286","2","9","Female","approach_avoid_spark_v1","""event"",""trial"",""time""
""fullscreenenter"",""1"",""10814""
","
","
","""event"",""trial"",""time""
""fullscreenenter"",""1"",""10814""
","
","","","","","","1364.2999999999302","images/racket3.png","","","learning","-5","0","0","0","practice","practice","practice","-1","","",""
"html-keyboard-response","39","278812","0.0-8.0-2.0-0.7","6286","2","9","Female","approach_avoid_spark_v1","""event"",""trial"",""time""
""fullscreenenter"",""1"",""10814""
","
","
","""event"",""trial"",""time""
""fullscreenenter"",""1"",""10814""
","
","","","","","","null","<div style=""font-size:60px;"">+</div>","null","","fixation","","","","","","","","","","",""
"aa-learning-trial","40","281820","0.0-8.0-2.0-1.7","6286","2","9","Female","approach_avoid_spark_v1","""event"",""trial"",""time""
""fullscreenenter"",""1"",""10814""
","
","
","""event"",""trial"",""time""
""fullscreenenter"",""1"",""10814""
","
","","","","","","1257.3000000000466","images/ball1.png","","","learning","7","7","1","1","practice","practice","practice","-1","","",""
"html-keyboard-response","41","282332","0.0-8.0-2.0-0.8","6286","2","9","Female","approach_avoid_spark_v1","""event"",""trial"",""time""
""fullscreenenter"",""1"",""10814""
","
","
","""event"",""trial"",""time""
""fullscreenenter"",""1"",""10814""
","
","","","","","","null","<div style=""font-size:60px;"">+</div>","null","","fixation","","","","","","","","","","",""
"aa-learning-trial","42","285351","0.0-8.0-2.0-1.8","6286","2","9","Female","approach_avoid_spark_v1","""event"",""trial"",""time""
""fullscreenenter"",""1"",""10814""
","
","
","""event"",""trial"",""time""
""fullscreenenter"",""1"",""10814""
","
","","","","","","1782","images/racket1.png","","","learning","-2","-2","1","1","practice","practice","practice","-1","","",""
"html-keyboard-response","43","285863","0.0-8.0-2.0-0.9","6286","2","9","Female","approach_avoid_spark_v1","""event"",""trial"",""time""
""fullscreenenter"",""1"",""10814""
","
","
","""event"",""trial"",""time""
""fullscreenenter"",""1"",""10814""
","
","","","","","","null","<div style=""font-size:60px;"">+</div>","null","","fixation","","","","","","","","","","",""
"aa-learning-trial","44","288876","0.0-8.0-2.0-1.9","6286","2","9","Female","approach_avoid_spark_v1","""event"",""trial"",""time""
""fullscreenenter"",""1"",""10814""
","
","
","""event"",""trial"",""time""
""fullscreenenter"",""1"",""10814""
","
","","","","","","1677","images/ball2.png","","","learning","7","7","1","1","practice","practice","practice","-1","","",""
"html-keyboard-response","45","289392","0.0-8.0-2.0-0.10","6286","2","9","Female","approach_avoid_spark_v1","""event"",""trial"",""time""
""fullscreenenter"",""1"",""10814""
","
","
","""event"",""trial"",""time""
""fullscreenenter"",""1"",""10814""
","
","","","","","","null","<div style=""font-size:60px;"">+</div>","null","","fixation","","","","","","","","","","",""
"aa-learning-trial","46","292408","0.0-8.0-2.0-1.10","6286","2","9","Female","approach_avoid_spark_v1","""event"",""trial"",""time""
""fullscreenenter"",""1"",""10814""
","
","
","""event"",""trial"",""time""
""fullscreenenter"",""1"",""10814""
","
","","","","","","738.6999999999534","images/ball4.png","","","learning","-5","-5","1","1","practice","practice","practice","-1","","",""
"html-keyboard-response","47","292917","0.0-8.0-2.0-0.11","6286","2","9","Female","approach_avoid_spark_v1","""event"",""trial"",""time""
""fullscreenenter"",""1"",""10814""
","
","
","""event"",""trial"",""time""
""fullscreenenter"",""1"",""10814""
","
","","","","","","null","<div style=""font-size:60px;"">+</div>","null","","fixation","","","","","","","","","","",""
"aa-learning-trial","48","295929","0.0-8.0-2.0-1.11","6286","2","9","Female","approach_avoid_spark_v1","""event"",""trial"",""time""
""fullscreenenter"",""1"",""10814""
","
","
","""event"",""trial"",""time""
""fullscreenenter"",""1"",""10814""
","
","","","","","","1093.4000000000233","images/racket3.png","","","learning","-1","0","0","0","practice","practice","practice","-1","","",""
"html-button-response","49","300389","0.0-8.0-3.0","6286","2","9","Female","approach_avoid_spark_v1","""event"",""trial"",""time""
""fullscreenenter"",""1"",""10814""
","
","
","""event"",""trial"",""time""
""fullscreenenter"",""1"",""10814""
","
","","","","","","4447.600000000093","<p> You earned 6 points in the practice round! </p>","0","","break","","","","","","","","","","",""
"learning-instructions","50","308713","0.0-8.0-4.0-0.0","6286","2","9","Female","approach_avoid_spark_v1","""event"",""trial"",""time""
""fullscreenenter"",""1"",""10814""
","
","
","""event"",""trial"",""time""
""fullscreenenter"",""1"",""10814""
","
","","","","","","2069.3000000000466","<p> It's almost time to start the real game. </p><p> Before you start, we're going to ask you a few questions about how the game works. </p>","","0","instructions","","","","","","","","","","",""
"preload","51","311742","0.0-8.0-5.0","6286","2","9","Female","approach_avoid_spark_v1","""event"",""trial"",""time""
""fullscreenenter"",""1"",""10814""
","
","
","""event"",""trial"",""time""
""fullscreenenter"",""1"",""10814""
","
","true","false","[]","[]","[]","","","","","","","","","","","","","","","",""
"comp-q","52","319864","0.0-8.0-6.0-0.0","6286","2","9","Female","approach_avoid_spark_v1","""event"",""trial"",""time""
""fullscreenenter"",""1"",""10814""
","
","
","""event"",""trial"",""time""
""fullscreenenter"",""1"",""10814""
","
","","","","","","3101","<p> <b> True or False? </b> </p><p> If you see a number in GREY, that means you earned that many points. </p>","","1","comp_question","","","","","","","","","true","",""
"comp-q","53","331195","0.0-8.0-6.0-1.0","6286","2","9","Female","approach_avoid_spark_v1","""event"",""trial"",""time""
""fullscreenenter"",""1"",""10814""
","
","
","""event"",""trial"",""time""
""fullscreenenter"",""1"",""10814""
","
","","","","","","2711.5","<p><b> That's right! </b> If you see a grey number, it means you earned ZERO points. <br> The grey numbers show the points you WOULD HAVE earned if you had made the other choice. </p>","","0","comp_answer","","","","","","","","","","",""
"comp-q","54","337336","0.0-8.0-7.0-0.0","6286","2","9","Female","approach_avoid_spark_v1","""event"",""trial"",""time""
""fullscreenenter"",""1"",""10814""
","
","
","""event"",""trial"",""time""
""fullscreenenter"",""1"",""10814""
","
","","","","","","1434.1999999999534","<p> <b> True or False? </b> </p><p> You will have as much time as you want to make each choice. </p>","","1","comp_question","","","","","","","","","true","",""
"comp-q","55","343591","0.0-8.0-7.0-1.0","6286","2","9","Female","approach_avoid_spark_v1","""event"",""trial"",""time""
""fullscreenenter"",""1"",""10814""
","
","
","""event"",""trial"",""time""
""fullscreenenter"",""1"",""10814""
","
","","","","","","2210","<p> <b> That's right! </b> You will only have 3 seconds to make each choice. </p>","","0","comp_answer","","","","","","","","","","",""
"comp-q","56","351675","0.0-8.0-8.0-0.0","6286","2","9","Female","approach_avoid_spark_v1","""event"",""trial"",""time""
""fullscreenenter"",""1"",""10814""
","
","
","""event"",""trial"",""time""
""fullscreenenter"",""1"",""10814""
","
","","","","","","3413.0999999999767","<p> <b> True or False? </b> </p><p> You should use the '1' and '0' keys to make your choices. </p>","","0","comp_question","","","","","","","","","true","",""
"comp-q","57","359471","0.0-8.0-8.0-1.0","6286","2","9","Female","approach_avoid_spark_v1","""event"",""trial"",""time""
""fullscreenenter"",""1"",""10814""
","
","
","""event"",""trial"",""time""
""fullscreenenter"",""1"",""10814""
","
","","","","","","3177.5999999999767","<p> <b> That's right! </b> You should use the '1' and '0' keys to make each choice. </p>","","0","comp_answer","","","","","","","","","","",""
"learning-instructions","58","367482","0.0-8.0-9.0-0.0","6286","2","9","Female","approach_avoid_spark_v1","""event"",""trial"",""time""
""fullscreenenter"",""1"",""10814""
","
","
","""event"",""trial"",""time""
""fullscreenenter"",""1"",""10814""
","
","","","","","","1700.2999999999302","<p> It's now time to start the real game. </p>Do your best, because the points you earn in the next rounds will influence your bonus payment. </p>","","0","instructions","","","","","","","","","","",""
"preload","59","367709","0.0-9.0-0.0","6286","2","9","Female","approach_avoid_spark_v1","""event"",""trial"",""time""
""fullscreenenter"",""1"",""10814""
","
","
","""event"",""trial"",""time""
""fullscreenenter"",""1"",""10814""
","
","true","false","[]","[]","[]","","","","","","","","","","","","","","","",""
"learning-instructions","60","375097","0.0-9.0-1.0-0.0","6286","2","9","Female","approach_avoid_spark_v1","""event"",""trial"",""time""
""fullscreenenter"",""1"",""10814""
","
","
","""event"",""trial"",""time""
""fullscreenenter"",""1"",""10814""
","
","","","","","","1746.2999999999302","<p> Your goal in this round is to take your friend for rides in different vehicles. </p></div>","","0","instructions","","","","","","","","","","",""
"learning-instructions","61","388142","0.0-9.0-1.0-0.1","6286","2","9","Female","approach_avoid_spark_v1","""event"",""trial"",""time""
""fullscreenenter"",""1"",""10814""
","
","
","""event"",""trial"",""time""
""fullscreenenter"",""1"",""10814""
","
","","","","","","1389.4000000000233","<p> Your friend enjoys riding in some vehicles but not in others.  </p><p> On each turn, you will see a vehicle.   </p><p> You need to decide whether to take your friend for a ride or not.  </p>","","0","instructions","","","","","","","","","","",""
"learning-instructions","62","400388","0.0-9.0-1.0-0.2","6286","2","9","Female","approach_avoid_spark_v1","""event"",""trial"",""time""
""fullscreenenter"",""1"",""10814""
","
","
","""event"",""trial"",""time""
""fullscreenenter"",""1"",""10814""
","
","","","","","","1780.7999999999302","<p> You can take your friend for a ride in the vehicle by pressing 1 and skip the ride by pressing 0. </p><br><div class=""choice-instructions-grid""> <div class=""choice-option""><img src=""images/approach.png"" class=""choice-option-img"" stage=""instructions"" position=""0"" ><div class=""choice-option-text""> Press ""1."" </div></div><div class=""choice-option""><img src=""images/avoid.png"" class=""choice-option-img"" stage=""instructions"" position=""1"" ><div class=""choice-option-text""> Press ""0."" </div></div>","","0","instructions","","","","","","","","","","",""
"learning-instructions","63","412543","0.0-9.0-1.0-0.3","6286","2","9","Female","approach_avoid_spark_v1","""event"",""trial"",""time""
""fullscreenenter"",""1"",""10814""
","
","
","""event"",""trial"",""time""
""fullscreenenter"",""1"",""10814""
","
","","","","","","1660.6000000000931","<p> If you take them for a ride in a vehicle they like, they will be thrilled! </p><p> But if you take them for a ride in a vehicle they do not like, they will be upset. </p>","","0","instructions","","","","","","","","","","",""
"learning-instructions","64","426985","0.0-9.0-1.0-0.4","6286","2","9","Female","approach_avoid_spark_v1","""event"",""trial"",""time""
""fullscreenenter"",""1"",""10814""
","
","
","""event"",""trial"",""time""
""fullscreenenter"",""1"",""10814""
","
","","","","","","1891.5999999999767","<p> You will earn points based on how you made your friend feel. </p><p> If you made him thrilled, you will WIN anywhere from 1 - 9 points, </p><p> but if you made him upset, you will LOSE anywhere from 1 - 9 points. </p>","","0","instructions","","","","","","","","","","",""
"learning-instructions","65","437508","0.0-9.0-1.0-0.5","6286","2","9","Female","approach_avoid_spark_v1","""event"",""trial"",""time""
""fullscreenenter"",""1"",""10814""
","
","
","""event"",""trial"",""time""
""fullscreenenter"",""1"",""10814""
","
","","","","","","2114","<p> You will see how many points you won or lost in the center of the screen. </p><p> Here is what you would see if you won 5 points: </p><p style=""color:green;font-size:50px;font-weight:bolder"">5</p>","","0","instructions","","","","","","","","","","",""
"learning-instructions","66","442852","0.0-9.0-1.0-0.6","6286","2","9","Female","approach_avoid_spark_v1","""event"",""trial"",""time""
""fullscreenenter"",""1"",""10814""
","
","
","""event"",""trial"",""time""
""fullscreenenter"",""1"",""10814""
","
","","","","","","1366.5","<p> And here is what you would see if you lost 3 points: </p><p style=""color:red;font-size:50px;font-weight:bolder"">-3</p>","","0","instructions","","","","","","","","","","",""
"learning-instructions","67","463587","0.0-9.0-1.0-0.7","6286","2","9","Female","approach_avoid_spark_v1","""event"",""trial"",""time""
""fullscreenenter"",""1"",""10814""
","
","
","""event"",""trial"",""time""
""fullscreenenter"",""1"",""10814""
","
","","","","","","2489.7000000001863","<p> Some vehicles will make your friend REALLY thrilled or upset. </p><p> These vehicles will make you win or lose LOTS of points. </p><p> Other vehicles will only make him feel a little thrilled or upset. </p><p> These vehicles will make you win or lose small amounts of points. </p>","","0","instructions","","","","","","","","","","",""
"learning-instructions","68","478567","0.0-9.0-1.0-0.8","6286","2","9","Female","approach_avoid_spark_v1","""event"",""trial"",""time""
""fullscreenenter"",""1"",""10814""
","
","
","""event"",""trial"",""time""
""fullscreenenter"",""1"",""10814""
","
","","","","","","1659.3000000000466","<p> If you choose to skip the ride, you will not win or lose any points. </p><p>  However, in the center of the screen, you will see the number of points you WOULD HAVE won or lost if you had taken your friend for a ride. </p>","","0","instructions","","","","","","","","","","",""
"learning-instructions","69","492817","0.0-9.0-1.0-0.9","6286","2","9","Female","approach_avoid_spark_v1","""event"",""trial"",""time""
""fullscreenenter"",""1"",""10814""
","
","
","""event"",""trial"",""time""
""fullscreenenter"",""1"",""10814""
","
","","","","","","1789.6000000000931","<p> Here is what you might see if you did not take your friend for a ride but he would have enjoyed it: </p><p style=""color:grey; font-size:50px; display: inline-block; border-spacing: 15px; border-width:3px; border-style:solid; border-color:red"">  &nbsp; 6 &nbsp; </p><p> Remember, in this case, you would not win or lose ANY points because you skipped the ride.  </p>","","0","instructions","","","","","","","","","","",""
"learning-instructions","70","503691","0.0-9.0-1.0-0.10","6286","2","9","Female","approach_avoid_spark_v1","""event"",""trial"",""time""
""fullscreenenter"",""1"",""10814""
","
","
","""event"",""trial"",""time""
""fullscreenenter"",""1"",""10814""
","
","","","","","","1925.1000000000931","<p> Try to make the best choice for each vehicle because </p><p> at the end of the game, you will earn bonus money based on how many points you earned. </p>","","0","instructions","","","","","","","","","","",""
"learning-instructions","71","514435","0.0-9.0-1.0-0.11","6286","2","9","Female","approach_avoid_spark_v1","""event"",""trial"",""time""
""fullscreenenter"",""1"",""10814""
","
","
","""event"",""trial"",""time""
""fullscreenenter"",""1"",""10814""
","
","","","","","","2548.3000000000466","<p> You will have 3 seconds to make each choice. Try to respond before time runs out! </p><p> You will lose 5 points each time you do not make a response. </p>","","0","instructions","","","","","","","","","","",""
"html-keyboard-response","72","515059","0.0-9.0-2.0-0.0","6286","2","9","Female","approach_avoid_spark_v1","""event"",""trial"",""time""
""fullscreenenter"",""1"",""10814""
","
","
","""event"",""trial"",""time""
""fullscreenenter"",""1"",""10814""
","
","","","","","","null","<div style=""font-size:60px;"">+</div>","null","","fixation","","","","","","","","","","",""
"aa-learning-trial","73","518078","0.0-9.0-2.0-1.0","6286","2","9","Female","approach_avoid_spark_v1","""event"",""trial"",""time""
""fullscreenenter"",""1"",""10814""
","
","
","""event"",""trial"",""time""
""fullscreenenter"",""1"",""10814""
","
","","","","","","1205.8000000000466","images/boat1.png","","","learning","-8","-8","1","1","boat","vehicles","2","0","","bad","[-5]"
"html-keyboard-response","74","518597","0.0-9.0-2.0-0.1","6286","2","9","Female","approach_avoid_spark_v1","""event"",""trial"",""time""
""fullscreenenter"",""1"",""10814""
","
","
","""event"",""trial"",""time""
""fullscreenenter"",""1"",""10814""
","
","","","","","","null","<div style=""font-size:60px;"">+</div>","null","","fixation","","","","","","","","","","",""
"aa-learning-trial","75","521608","0.0-9.0-2.0-1.1","6286","2","9","Female","approach_avoid_spark_v1","""event"",""trial"",""time""
""fullscreenenter"",""1"",""10814""
","
","
","""event"",""trial"",""time""
""fullscreenenter"",""1"",""10814""
","
","","","","","","1853.3000000000466","images/plane8.png","","","learning","3","3","1","1","plane","vehicles","2","0","","neutral","0"
"html-keyboard-response","76","522128","0.0-9.0-2.0-0.2","6286","2","9","Female","approach_avoid_spark_v1","""event"",""trial"",""time""
""fullscreenenter"",""1"",""10814""
","
","
","""event"",""trial"",""time""
""fullscreenenter"",""1"",""10814""
","
","","","","","","null","<div style=""font-size:60px;"">+</div>","null","","fixation","","","","","","","","","","",""
"aa-learning-trial","77","525137","0.0-9.0-2.0-1.2","6286","2","9","Female","approach_avoid_spark_v1","""event"",""trial"",""time""
""fullscreenenter"",""1"",""10814""
","
","
","""event"",""trial"",""time""
""fullscreenenter"",""1"",""10814""
","
","","","","","","2029.9000000001397","images/plane8.png","","","learning","3","3","1","1","plane","vehicles","2","0","","neutral","0"
"html-keyboard-response","78","525646","0.0-9.0-2.0-0.3","6286","2","9","Female","approach_avoid_spark_v1","""event"",""trial"",""time""
""fullscreenenter"",""1"",""10814""
","
","
","""event"",""trial"",""time""
""fullscreenenter"",""1"",""10814""
","
","","","","","","null","<div style=""font-size:60px;"">+</div>","null","","fixation","","","","","","","","","","",""
"aa-learning-trial","79","528677","0.0-9.0-2.0-1.3","6286","2","9","Female","approach_avoid_spark_v1","""event"",""trial"",""time""
""fullscreenenter"",""1"",""10814""
","
","
","""event"",""trial"",""time""
""fullscreenenter"",""1"",""10814""
","
","","","","","","1759.1000000000931","images/boat1.png","","","learning","-8","0","0","0","boat","vehicles","2","0","","bad","[-5]"
"html-keyboard-response","80","529193","0.0-9.0-2.0-0.4","6286","2","9","Female","approach_avoid_spark_v1","""event"",""trial"",""time""
""fullscreenenter"",""1"",""10814""
","
","
","""event"",""trial"",""time""
""fullscreenenter"",""1"",""10814""
","
","","","","","","null","<div style=""font-size:60px;"">+</div>","null","","fixation","","","","","","","","","","",""
"aa-learning-trial","81","532213","0.0-9.0-2.0-1.4","6286","2","9","Female","approach_avoid_spark_v1","""event"",""trial"",""time""
""fullscreenenter"",""1"",""10814""
","
","
","""event"",""trial"",""time""
""fullscreenenter"",""1"",""10814""
","
","","","","","","1667.6000000000931","images/truck2.png","","","learning","4","4","1","1","truck","vehicles","2","0","","good","[6]"
"html-keyboard-response","82","532744","0.0-9.0-2.0-0.5","6286","2","9","Female","approach_avoid_spark_v1","""event"",""trial"",""time""
""fullscreenenter"",""1"",""10814""
","
","
","""event"",""trial"",""time""
""fullscreenenter"",""1"",""10814""
","
","","","","","","null","<div style=""font-size:60px;"">+</div>","null","","fixation","","","","","","","","","","",""
"aa-learning-trial","83","535748","0.0-9.0-2.0-1.5","6286","2","9","Female","approach_avoid_spark_v1","""event"",""trial"",""time""
""fullscreenenter"",""1"",""10814""
","
","
","""event"",""trial"",""time""
""fullscreenenter"",""1"",""10814""
","
","","","","","","1620.0999999998603","images/plane6.png","","","learning","7","7","1","1","plane","vehicles","2","0","","neutral","0"
"html-keyboard-response","84","536255","0.0-9.0-2.0-0.6","6286","2","9","Female","approach_avoid_spark_v1","""event"",""trial"",""time""
""fullscreenenter"",""1"",""10814""
","
","
","""event"",""trial"",""time""
""fullscreenenter"",""1"",""10814""
","
","","","","","","null","<div style=""font-size:60px;"">+</div>","null","","fixation","","","","","","","","","","",""
"aa-learning-trial","85","539348","0.0-9.0-2.0-1.6","6286","2","9","Female","approach_avoid_spark_v1","""event"",""trial"",""time""
""fullscreenenter"",""1"",""10814""
","
","
","""event"",""trial"",""time""
""fullscreenenter"",""1"",""10814""
","
","","","","","","1652.8000000000466","images/boat6.png","","","learning","-2","-2","1","1","boat","vehicles","2","0","","bad","[-5]"
"html-keyboard-response","86","539870","0.0-9.0-2.0-0.7","6286","2","9","Female","approach_avoid_spark_v1","""event"",""trial"",""time""
""fullscreenenter"",""1"",""10814""
","
","
","""event"",""trial"",""time""
""fullscreenenter"",""1"",""10814""
","
","","","","","","null","<div style=""font-size:60px;"">+</div>","null","","fixation","","","","","","","","","","",""
"aa-learning-trial","87","542888","0.0-9.0-2.0-1.7","6286","2","9","Female","approach_avoid_spark_v1","""event"",""trial"",""time""
""fullscreenenter"",""1"",""10814""
","
","
","""event"",""trial"",""time""
""fullscreenenter"",""1"",""10814""
","
","","","","","","849.8000000000466","images/plane6.png","","","learning","7","7","1","1","plane","vehicles","2","0","","neutral","0"
"html-keyboard-response","88","543402","0.0-9.0-2.0-0.8","6286","2","9","Female","approach_avoid_spark_v1","""event"",""trial"",""time""
""fullscreenenter"",""1"",""10814""
","
","
","""event"",""trial"",""time""
""fullscreenenter"",""1"",""10814""
","
","","","","","","null","<div style=""font-size:60px;"">+</div>","null","","fixation","","","","","","","","","","",""
"aa-learning-trial","89","546414","0.0-9.0-2.0-1.8","6286","2","9","Female","approach_avoid_spark_v1","""event"",""trial"",""time""
""fullscreenenter"",""1"",""10814""
","
","
","""event"",""trial"",""time""
""fullscreenenter"",""1"",""10814""
","
","","","","","","1337.6000000000931","images/truck1.png","","","learning","-1","-1","1","1","truck","vehicles","2","0","","good","[6]"
"html-keyboard-response","90","546934","0.0-9.0-2.0-0.9","6286","2","9","Female","approach_avoid_spark_v1","""event"",""trial"",""time""
""fullscreenenter"",""1"",""10814""
","
","
","""event"",""trial"",""time""
""fullscreenenter"",""1"",""10814""
","
","","","","","","null","<div style=""font-size:60px;"">+</div>","null","","fixation","","","","","","","","","","",""
"aa-learning-trial","91","549948","0.0-9.0-2.0-1.9","6286","2","9","Female","approach_avoid_spark_v1","""event"",""trial"",""time""
""fullscreenenter"",""1"",""10814""
","
","
","""event"",""trial"",""time""
""fullscreenenter"",""1"",""10814""
","
","","","","","","993.7000000001863","images/plane4.png","","","learning","-9","-9","1","1","plane","vehicles","2","0","","neutral","0"
"html-keyboard-response","92","550455","0.0-9.0-2.0-0.10","6286","2","9","Female","approach_avoid_spark_v1","""event"",""trial"",""time""
""fullscreenenter"",""1"",""10814""
","
","
","""event"",""trial"",""time""
""fullscreenenter"",""1"",""10814""
","
","","","","","","null","<div style=""font-size:60px;"">+</div>","null","","fixation","","","","","","","","","","",""
"aa-learning-trial","93","553471","0.0-9.0-2.0-1.10","6286","2","9","Female","approach_avoid_spark_v1","""event"",""trial"",""time""
""fullscreenenter"",""1"",""10814""
","
","
","""event"",""trial"",""time""
""fullscreenenter"",""1"",""10814""
","
","","","","","","1175","images/truck2.png","","","learning","4","4","1","1","truck","vehicles","2","0","","good","[6]"
"html-keyboard-response","94","553989","0.0-9.0-2.0-0.11","6286","2","9","Female","approach_avoid_spark_v1","""event"",""trial"",""time""
""fullscreenenter"",""1"",""10814""
","
","
","""event"",""trial"",""time""
""fullscreenenter"",""1"",""10814""
","
","","","","","","null","<div style=""font-size:60px;"">+</div>","null","","fixation","","","","","","","","","","",""
"aa-learning-trial","95","556999","0.0-9.0-2.0-1.11","6286","2","9","Female","approach_avoid_spark_v1","""event"",""trial"",""time""
""fullscreenenter"",""1"",""10814""
","
","
","""event"",""trial"",""time""
""fullscreenenter"",""1"",""10814""
","
","","","","","","1069.8999999999069","images/truck8.png","","","learning","6","0","0","0","truck","vehicles","2","0","","good","[6]"
"html-keyboard-response","96","557518","0.0-9.0-2.0-0.12","6286","2","9","Female","approach_avoid_spark_v1","""event"",""trial"",""time""
""fullscreenenter"",""1"",""10814""
","
","
","""event"",""trial"",""time""
""fullscreenenter"",""1"",""10814""
","
","","","","","","null","<div style=""font-size:60px;"">+</div>","null","","fixation","","","","","","","","","","",""
"aa-learning-trial","97","560531","0.0-9.0-2.0-1.12","6286","2","9","Female","approach_avoid_spark_v1","""event"",""trial"",""time""
""fullscreenenter"",""1"",""10814""
","
","
","""event"",""trial"",""time""
""fullscreenenter"",""1"",""10814""
","
","","","","","","1371.7999999998137","images/truck1.png","","","learning","-1","-1","1","1","truck","vehicles","2","0","","good","[6]"
"html-keyboard-response","98","561039","0.0-9.0-2.0-0.13","6286","2","9","Female","approach_avoid_spark_v1","""event"",""trial"",""time""
""fullscreenenter"",""1"",""10814""
","
","
","""event"",""trial"",""time""
""fullscreenenter"",""1"",""10814""
","
","","","","","","null","<div style=""font-size:60px;"">+</div>","null","","fixation","","","","","","","","","","",""
"aa-learning-trial","99","564062","0.0-9.0-2.0-1.13","6286","2","9","Female","approach_avoid_spark_v1","""event"",""trial"",""time""
""fullscreenenter"",""1"",""10814""
","
","
","""event"",""trial"",""time""
""fullscreenenter"",""1"",""10814""
","
","","","","","","2726.6999999999534","images/boat4.png","","","learning","9","0","0","0","boat","vehicles","2","0","","bad","[-5]"
"html-keyboard-response","100","564570","0.0-9.0-2.0-0.14","6286","2","9","Female","approach_avoid_spark_v1","""event"",""trial"",""time""
""fullscreenenter"",""1"",""10814""
","
","
","""event"",""trial"",""time""
""fullscreenenter"",""1"",""10814""
","
","","","","","","null","<div style=""font-size:60px;"">+</div>","null","","fixation","","","","","","","","","","",""
"aa-learning-trial","101","567589","0.0-9.0-2.0-1.14","6286","2","9","Female","approach_avoid_spark_v1","""event"",""trial"",""time""
""fullscreenenter"",""1"",""10814""
","
","
","""event"",""trial"",""time""
""fullscreenenter"",""1"",""10814""
","
","","","","","","1524.5","images/boat6.png","","","learning","-2","-2","1","1","boat","vehicles","2","0","","bad","[-5]"
"html-keyboard-response","102","568101","0.0-9.0-2.0-0.15","6286","2","9","Female","approach_avoid_spark_v1","""event"",""trial"",""time""
""fullscreenenter"",""1"",""10814""
","
","
","""event"",""trial"",""time""
""fullscreenenter"",""1"",""10814""
","
","","","","","","null","<div style=""font-size:60px;"">+</div>","null","","fixation","","","","","","","","","","",""
"aa-learning-trial","103","571115","0.0-9.0-2.0-1.15","6286","2","9","Female","approach_avoid_spark_v1","""event"",""trial"",""time""
""fullscreenenter"",""1"",""10814""
","
","
","""event"",""trial"",""time""
""fullscreenenter"",""1"",""10814""
","
","","","","","","924.5","images/boat4.png","","","learning","9","0","0","0","boat","vehicles","2","0","","bad","[-5]"
"html-keyboard-response","104","571626","0.0-9.0-2.0-0.16","6286","2","9","Female","approach_avoid_spark_v1","""event"",""trial"",""time""
""fullscreenenter"",""1"",""10814""
","
","
","""event"",""trial"",""time""
""fullscreenenter"",""1"",""10814""
","
","","","","","","null","<div style=""font-size:60px;"">+</div>","null","","fixation","","","","","","","","","","",""
"aa-learning-trial","105","574643","0.0-9.0-2.0-1.16","6286","2","9","Female","approach_avoid_spark_v1","""event"",""trial"",""time""
""fullscreenenter"",""1"",""10814""
","
","
","""event"",""trial"",""time""
""fullscreenenter"",""1"",""10814""
","
","","","","","","1202.2999999998137","images/plane8.png","","","learning","3","3","1","1","plane","vehicles","2","0","","neutral","0"
"html-keyboard-response","106","575158","0.0-9.0-2.0-0.17","6286","2","9","Female","approach_avoid_spark_v1","""event"",""trial"",""time""
""fullscreenenter"",""1"",""10814""
","
","
","""event"",""trial"",""time""
""fullscreenenter"",""1"",""10814""
","
","","","","","","null","<div style=""font-size:60px;"">+</div>","null","","fixation","","","","","","","","","","",""
"aa-learning-trial","107","578180","0.0-9.0-2.0-1.17","6286","2","9","Female","approach_avoid_spark_v1","""event"",""trial"",""time""
""fullscreenenter"",""1"",""10814""
","
","
","""event"",""trial"",""time""
""fullscreenenter"",""1"",""10814""
","
","","","","","","763.0999999998603","images/truck2.png","","","learning","4","4","1","1","truck","vehicles","2","0","","good","[6]"
"html-keyboard-response","108","578691","0.0-9.0-2.0-0.18","6286","2","9","Female","approach_avoid_spark_v1","""event"",""trial"",""time""
""fullscreenenter"",""1"",""10814""
","
","
","""event"",""trial"",""time""
""fullscreenenter"",""1"",""10814""
","
","","","","","","null","<div style=""font-size:60px;"">+</div>","null","","fixation","","","","","","","","","","",""
"aa-learning-trial","109","581711","0.0-9.0-2.0-1.18","6286","2","9","Female","approach_avoid_spark_v1","""event"",""trial"",""time""
""fullscreenenter"",""1"",""10814""
","
","
","""event"",""trial"",""time""
""fullscreenenter"",""1"",""10814""
","
","","","","","","1586.7999999998137","images/plane4.png","","","learning","-9","0","0","0","plane","vehicles","2","0","","neutral","0"
"html-keyboard-response","110","582218","0.0-9.0-2.0-0.19","6286","2","9","Female","approach_avoid_spark_v1","""event"",""trial"",""time""
""fullscreenenter"",""1"",""10814""
","
","
","""event"",""trial"",""time""
""fullscreenenter"",""1"",""10814""
","
","","","","","","null","<div style=""font-size:60px;"">+</div>","null","","fixation","","","","","","","","","","",""
"aa-learning-trial","111","585242","0.0-9.0-2.0-1.19","6286","2","9","Female","approach_avoid_spark_v1","""event"",""trial"",""time""
""fullscreenenter"",""1"",""10814""
","
","
","""event"",""trial"",""time""
""fullscreenenter"",""1"",""10814""
","
","","","","","","1159.3999999999069","images/truck1.png","","","learning","-1","-1","1","1","truck","vehicles","2","0","","good","[6]"
"html-keyboard-response","112","585754","0.0-9.0-2.0-0.20","6286","2","9","Female","approach_avoid_spark_v1","""event"",""trial"",""time""
""fullscreenenter"",""1"",""10814""
","
","
","""event"",""trial"",""time""
""fullscreenenter"",""1"",""10814""
","
","","","","","","null","<div style=""font-size:60px;"">+</div>","null","","fixation","","","","","","","","","","",""
"aa-learning-trial","113","588777","0.0-9.0-2.0-1.20","6286","2","9","Female","approach_avoid_spark_v1","""event"",""trial"",""time""
""fullscreenenter"",""1"",""10814""
","
","
","""event"",""trial"",""time""
""fullscreenenter"",""1"",""10814""
","
","","","","","","1784.8999999999069","images/boat6.png","","","learning","-2","0","0","0","boat","vehicles","2","0","","bad","[-5]"
"html-keyboard-response","114","589292","0.0-9.0-2.0-0.21","6286","2","9","Female","approach_avoid_spark_v1","""event"",""trial"",""time""
""fullscreenenter"",""1"",""10814""
","
","
","""event"",""trial"",""time""
""fullscreenenter"",""1"",""10814""
","
","","","","","","null","<div style=""font-size:60px;"">+</div>","null","","fixation","","","","","","","","","","",""
"aa-learning-trial","115","592311","0.0-9.0-2.0-1.21","6286","2","9","Female","approach_avoid_spark_v1","""event"",""trial"",""time""
""fullscreenenter"",""1"",""10814""
","
","
","""event"",""trial"",""time""
""fullscreenenter"",""1"",""10814""
","
","","","","","","1696.5","images/plane2.png","","","learning","-5","0","0","0","plane","vehicles","2","0","","neutral","0"
"html-keyboard-response","116","592819","0.0-9.0-2.0-0.22","6286","2","9","Female","approach_avoid_spark_v1","""event"",""trial"",""time""
""fullscreenenter"",""1"",""10814""
","
","
","""event"",""trial"",""time""
""fullscreenenter"",""1"",""10814""
","
","","","","","","null","<div style=""font-size:60px;"">+</div>","null","","fixation","","","","","","","","","","",""
"aa-learning-trial","117","595856","0.0-9.0-2.0-1.22","6286","2","9","Female","approach_avoid_spark_v1","""event"",""trial"",""time""
""fullscreenenter"",""1"",""10814""
","
","
","""event"",""trial"",""time""
""fullscreenenter"",""1"",""10814""
","
","","","","","","1543.8000000000466","images/boat1.png","","","learning","-8","0","0","0","boat","vehicles","2","0","","bad","[-5]"
"html-keyboard-response","118","596364","0.0-9.0-2.0-0.23","6286","2","9","Female","approach_avoid_spark_v1","""event"",""trial"",""time""
""fullscreenenter"",""1"",""10814""
","
","
","""event"",""trial"",""time""
""fullscreenenter"",""1"",""10814""
","
","","","","","","null","<div style=""font-size:60px;"">+</div>","null","","fixation","","","","","","","","","","",""
"aa-learning-trial","119","599384","0.0-9.0-2.0-1.23","6286","2","9","Female","approach_avoid_spark_v1","""event"",""trial"",""time""
""fullscreenenter"",""1"",""10814""
","
","
","""event"",""trial"",""time""
""fullscreenenter"",""1"",""10814""
","
","","","","","","1426.2999999998137","images/plane6.png","","","learning","7","7","1","1","plane","vehicles","2","0","","neutral","0"
"html-keyboard-response","120","599895","0.0-9.0-2.0-0.24","6286","2","9","Female","approach_avoid_spark_v1","""event"",""trial"",""time""
""fullscreenenter"",""1"",""10814""
","
","
","""event"",""trial"",""time""
""fullscreenenter"",""1"",""10814""
","
","","","","","","null","<div style=""font-size:60px;"">+</div>","null","","fixation","","","","","","","","","","",""
"aa-learning-trial","121","602914","0.0-9.0-2.0-1.24","6286","2","9","Female","approach_avoid_spark_v1","""event"",""trial"",""time""
""fullscreenenter"",""1"",""10814""
","
","
","""event"",""trial"",""time""
""fullscreenenter"",""1"",""10814""
","
","","","","","","2105.2000000001863","images/plane4.png","","","learning","-9","0","0","0","plane","vehicles","2","0","","neutral","0"
"html-keyboard-response","122","603429","0.0-9.0-2.0-0.25","6286","2","9","Female","approach_avoid_spark_v1","""event"",""trial"",""time""
""fullscreenenter"",""1"",""10814""
","
","
","""event"",""trial"",""time""
""fullscreenenter"",""1"",""10814""
","
","","","","","","null","<div style=""font-size:60px;"">+</div>","null","","fixation","","","","","","","","","","",""
"aa-learning-trial","123","606451","0.0-9.0-2.0-1.25","6286","2","9","Female","approach_avoid_spark_v1","""event"",""trial"",""time""
""fullscreenenter"",""1"",""10814""
","
","
","""event"",""trial"",""time""
""fullscreenenter"",""1"",""10814""
","
","","","","","","1831.1000000000931","images/boat1.png","","","learning","-8","0","0","0","boat","vehicles","2","0","","bad","[-5]"
"html-keyboard-response","124","606967","0.0-9.0-2.0-0.26","6286","2","9","Female","approach_avoid_spark_v1","""event"",""trial"",""time""
""fullscreenenter"",""1"",""10814""
","
","
","""event"",""trial"",""time""
""fullscreenenter"",""1"",""10814""
","
","","","","","","null","<div style=""font-size:60px;"">+</div>","null","","fixation","","","","","","","","","","",""
"aa-learning-trial","125","609990","0.0-9.0-2.0-1.26","6286","2","9","Female","approach_avoid_spark_v1","""event"",""trial"",""time""
""fullscreenenter"",""1"",""10814""
","
","
","""event"",""trial"",""time""
""fullscreenenter"",""1"",""10814""
","
","","","","","","2133.2000000001863","images/truck2.png","","","learning","4","0","0","0","truck","vehicles","2","0","","good","[6]"
"html-keyboard-response","126","610499","0.0-9.0-2.0-0.27","6286","2","9","Female","approach_avoid_spark_v1","""event"",""trial"",""time""
""fullscreenenter"",""1"",""10814""
","
","
","""event"",""trial"",""time""
""fullscreenenter"",""1"",""10814""
","
","","","","","","null","<div style=""font-size:60px;"">+</div>","null","","fixation","","","","","","","","","","",""
"aa-learning-trial","127","613510","0.0-9.0-2.0-1.27","6286","2","9","Female","approach_avoid_spark_v1","""event"",""trial"",""time""
""fullscreenenter"",""1"",""10814""
","
","
","""event"",""trial"",""time""
""fullscreenenter"",""1"",""10814""
","
","","","","","","2644.2999999998137","images/boat4.png","","","learning","9","0","0","0","boat","vehicles","2","0","","bad","[-5]"
"html-keyboard-response","128","614016","0.0-9.0-2.0-0.28","6286","2","9","Female","approach_avoid_spark_v1","""event"",""trial"",""time""
""fullscreenenter"",""1"",""10814""
","
","
","""event"",""trial"",""time""
""fullscreenenter"",""1"",""10814""
","
","","","","","","null","<div style=""font-size:60px;"">+</div>","null","","fixation","","","","","","","","","","",""
"aa-learning-trial","129","617041","0.0-9.0-2.0-1.28","6286","2","9","Female","approach_avoid_spark_v1","""event"",""trial"",""time""
""fullscreenenter"",""1"",""10814""
","
","
","""event"",""trial"",""time""
""fullscreenenter"",""1"",""10814""
","
","","","","","","1734.1999999999534","images/plane6.png","","","learning","7","7","1","1","plane","vehicles","2","0","","neutral","0"
"html-keyboard-response","130","617552","0.0-9.0-2.0-0.29","6286","2","9","Female","approach_avoid_spark_v1","""event"",""trial"",""time""
""fullscreenenter"",""1"",""10814""
","
","
","""event"",""trial"",""time""
""fullscreenenter"",""1"",""10814""
","
","","","","","","null","<div style=""font-size:60px;"">+</div>","null","","fixation","","","","","","","","","","",""
"aa-learning-trial","131","620575","0.0-9.0-2.0-1.29","6286","2","9","Female","approach_avoid_spark_v1","""event"",""trial"",""time""
""fullscreenenter"",""1"",""10814""
","
","
","""event"",""trial"",""time""
""fullscreenenter"",""1"",""10814""
","
","","","","","","653.4000000001397","images/truck1.png","","","learning","-1","0","0","0","truck","vehicles","2","0","","good","[6]"
"html-keyboard-response","132","621086","0.0-9.0-2.0-0.30","6286","2","9","Female","approach_avoid_spark_v1","""event"",""trial"",""time""
""fullscreenenter"",""1"",""10814""
","
","
","""event"",""trial"",""time""
""fullscreenenter"",""1"",""10814""
","
","","","","","","null","<div style=""font-size:60px;"">+</div>","null","","fixation","","","","","","","","","","",""
"aa-learning-trial","133","624098","0.0-9.0-2.0-1.30","6286","2","9","Female","approach_avoid_spark_v1","""event"",""trial"",""time""
""fullscreenenter"",""1"",""10814""
","
","
","""event"",""trial"",""time""
""fullscreenenter"",""1"",""10814""
","
","","","","","","1219","images/plane8.png","","","learning","3","3","1","1","plane","vehicles","2","0","","neutral","0"
"html-keyboard-response","134","624610","0.0-9.0-2.0-0.31","6286","2","9","Female","approach_avoid_spark_v1","""event"",""trial"",""time""
""fullscreenenter"",""1"",""10814""
","
","
","""event"",""trial"",""time""
""fullscreenenter"",""1"",""10814""
","
","","","","","","null","<div style=""font-size:60px;"">+</div>","null","","fixation","","","","","","","","","","",""
"aa-learning-trial","135","627617","0.0-9.0-2.0-1.31","6286","2","9","Female","approach_avoid_spark_v1","""event"",""trial"",""time""
""fullscreenenter"",""1"",""10814""
","
","
","""event"",""trial"",""time""
""fullscreenenter"",""1"",""10814""
","
","","","","","","977.0999999998603","images/boat6.png","","","learning","-2","-2","1","1","boat","vehicles","2","0","","bad","[-5]"
"html-keyboard-response","136","628124","0.0-9.0-2.0-0.32","6286","2","9","Female","approach_avoid_spark_v1","""event"",""trial"",""time""
""fullscreenenter"",""1"",""10814""
","
","
","""event"",""trial"",""time""
""fullscreenenter"",""1"",""10814""
","
","","","","","","null","<div style=""font-size:60px;"">+</div>","null","","fixation","","","","","","","","","","",""
"aa-learning-trial","137","631145","0.0-9.0-2.0-1.32","6286","2","9","Female","approach_avoid_spark_v1","""event"",""trial"",""time""
""fullscreenenter"",""1"",""10814""
","
","
","""event"",""trial"",""time""
""fullscreenenter"",""1"",""10814""
","
","","","","","","974.0999999998603","images/truck2.png","","","learning","4","0","0","0","truck","vehicles","2","0","","good","[6]"
"html-keyboard-response","138","631653","0.0-9.0-2.0-0.33","6286","2","9","Female","approach_avoid_spark_v1","""event"",""trial"",""time""
""fullscreenenter"",""1"",""10814""
","
","
","""event"",""trial"",""time""
""fullscreenenter"",""1"",""10814""
","
","","","","","","null","<div style=""font-size:60px;"">+</div>","null","","fixation","","","","","","","","","","",""
"aa-learning-trial","139","634678","0.0-9.0-2.0-1.33","6286","2","9","Female","approach_avoid_spark_v1","""event"",""trial"",""time""
""fullscreenenter"",""1"",""10814""
","
","
","""event"",""trial"",""time""
""fullscreenenter"",""1"",""10814""
","
","","","","","","1494.8999999999069","images/truck8.png","","","learning","6","0","0","0","truck","vehicles","2","0","","good","[6]"
"html-keyboard-response","140","635194","0.0-9.0-2.0-0.34","6286","2","9","Female","approach_avoid_spark_v1","""event"",""trial"",""time""
""fullscreenenter"",""1"",""10814""
","
","
","""event"",""trial"",""time""
""fullscreenenter"",""1"",""10814""
","
","","","","","","null","<div style=""font-size:60px;"">+</div>","null","","fixation","","","","","","","","","","",""
"aa-learning-trial","141","638218","0.0-9.0-2.0-1.34","6286","2","9","Female","approach_avoid_spark_v1","""event"",""trial"",""time""
""fullscreenenter"",""1"",""10814""
","
","
","""event"",""trial"",""time""
""fullscreenenter"",""1"",""10814""
","
","","","","","","1174.8000000000466","images/truck1.png","","","learning","-1","0","0","0","truck","vehicles","2","0","","good","[6]"
"html-keyboard-response","142","638732","0.0-9.0-2.0-0.35","6286","2","9","Female","approach_avoid_spark_v1","""event"",""trial"",""time""
""fullscreenenter"",""1"",""10814""
","
","
","""event"",""trial"",""time""
""fullscreenenter"",""1"",""10814""
","
","","","","","","null","<div style=""font-size:60px;"">+</div>","null","","fixation","","","","","","","","","","",""
"aa-learning-trial","143","641753","0.0-9.0-2.0-1.35","6286","2","9","Female","approach_avoid_spark_v1","""event"",""trial"",""time""
""fullscreenenter"",""1"",""10814""
","
","
","""event"",""trial"",""time""
""fullscreenenter"",""1"",""10814""
","
","","","","","","1895.5","images/truck3.png","","","learning","-7","0","0","0","truck","vehicles","2","0","","good","[6]"
"html-keyboard-response","144","642272","0.0-9.0-2.0-0.36","6286","2","9","Female","approach_avoid_spark_v1","""event"",""trial"",""time""
""fullscreenenter"",""1"",""10814""
","
","
","""event"",""trial"",""time""
""fullscreenenter"",""1"",""10814""
","
","","","","","","null","<div style=""font-size:60px;"">+</div>","null","","fixation","","","","","","","","","","",""
"aa-learning-trial","145","645302","0.0-9.0-2.0-1.36","6286","2","9","Female","approach_avoid_spark_v1","""event"",""trial"",""time""
""fullscreenenter"",""1"",""10814""
","
","
","""event"",""trial"",""time""
""fullscreenenter"",""1"",""10814""
","
","","","","","","1325.3999999999069","images/truck2.png","","","learning","4","0","0","0","truck","vehicles","2","0","","good","[6]"
"html-keyboard-response","146","645808","0.0-9.0-2.0-0.37","6286","2","9","Female","approach_avoid_spark_v1","""event"",""trial"",""time""
""fullscreenenter"",""1"",""10814""
","
","
","""event"",""trial"",""time""
""fullscreenenter"",""1"",""10814""
","
","","","","","","null","<div style=""font-size:60px;"">+</div>","null","","fixation","","","","","","","","","","",""
"aa-learning-trial","147","648823","0.0-9.0-2.0-1.37","6286","2","9","Female","approach_avoid_spark_v1","""event"",""trial"",""time""
""fullscreenenter"",""1"",""10814""
","
","
","""event"",""trial"",""time""
""fullscreenenter"",""1"",""10814""
","
","","","","","","1248.5","images/truck4.png","","","learning","-3","-3","1","1","truck","vehicles","2","0","","good","[6]"
"html-keyboard-response","148","649329","0.0-9.0-2.0-0.38","6286","2","9","Female","approach_avoid_spark_v1","""event"",""trial"",""time""
""fullscreenenter"",""1"",""10814""
","
","
","""event"",""trial"",""time""
""fullscreenenter"",""1"",""10814""
","
","","","","","","null","<div style=""font-size:60px;"">+</div>","null","","fixation","","","","","","","","","","",""
"aa-learning-trial","149","652352","0.0-9.0-2.0-1.38","6286","2","9","Female","approach_avoid_spark_v1","""event"",""trial"",""time""
""fullscreenenter"",""1"",""10814""
","
","
","""event"",""trial"",""time""
""fullscreenenter"",""1"",""10814""
","
","","","","","","1395.8000000000466","images/boat1.png","","","learning","-8","0","0","0","boat","vehicles","2","0","","bad","[-5]"
"html-keyboard-response","150","652867","0.0-9.0-2.0-0.39","6286","2","9","Female","approach_avoid_spark_v1","""event"",""trial"",""time""
""fullscreenenter"",""1"",""10814""
","
","
","""event"",""trial"",""time""
""fullscreenenter"",""1"",""10814""
","
","","","","","","null","<div style=""font-size:60px;"">+</div>","null","","fixation","","","","","","","","","","",""
"aa-learning-trial","151","655891","0.0-9.0-2.0-1.39","6286","2","9","Female","approach_avoid_spark_v1","""event"",""trial"",""time""
""fullscreenenter"",""1"",""10814""
","
","
","""event"",""trial"",""time""
""fullscreenenter"",""1"",""10814""
","
","","","","","","1258.3999999999069","images/plane8.png","","","learning","3","3","1","1","plane","vehicles","2","0","","neutral","0"
"html-keyboard-response","152","656405","0.0-9.0-2.0-0.40","6286","2","9","Female","approach_avoid_spark_v1","""event"",""trial"",""time""
""fullscreenenter"",""1"",""10814""
","
","
","""event"",""trial"",""time""
""fullscreenenter"",""1"",""10814""
","
","","","","","","null","<div style=""font-size:60px;"">+</div>","null","","fixation","","","","","","","","","","",""
"aa-learning-trial","153","659425","0.0-9.0-2.0-1.40","6286","2","9","Female","approach_avoid_spark_v1","""event"",""trial"",""time""
""fullscreenenter"",""1"",""10814""
","
","
","""event"",""trial"",""time""
""fullscreenenter"",""1"",""10814""
","
","","","","","","1410.3000000000466","images/boat2.png","","","learning","5","0","0","0","boat","vehicles","2","0","","bad","[-5]"
"html-keyboard-response","154","659941","0.0-9.0-2.0-0.41","6286","2","9","Female","approach_avoid_spark_v1","""event"",""trial"",""time""
""fullscreenenter"",""1"",""10814""
","
","
","""event"",""trial"",""time""
""fullscreenenter"",""1"",""10814""
","
","","","","","","null","<div style=""font-size:60px;"">+</div>","null","","fixation","","","","","","","","","","",""
"aa-learning-trial","155","662960","0.0-9.0-2.0-1.41","6286","2","9","Female","approach_avoid_spark_v1","""event"",""trial"",""time""
""fullscreenenter"",""1"",""10814""
","
","
","""event"",""trial"",""time""
""fullscreenenter"",""1"",""10814""
","
","","","","","","948.5","images/plane6.png","","","learning","7","7","1","1","plane","vehicles","2","0","","neutral","0"
"html-keyboard-response","156","663470","0.0-9.0-2.0-0.42","6286","2","9","Female","approach_avoid_spark_v1","""event"",""trial"",""time""
""fullscreenenter"",""1"",""10814""
","
","
","""event"",""trial"",""time""
""fullscreenenter"",""1"",""10814""
","
","","","","","","null","<div style=""font-size:60px;"">+</div>","null","","fixation","","","","","","","","","","",""
"aa-learning-trial","157","666484","0.0-9.0-2.0-1.42","6286","2","9","Female","approach_avoid_spark_v1","""event"",""trial"",""time""
""fullscreenenter"",""1"",""10814""
","
","
","""event"",""trial"",""time""
""fullscreenenter"",""1"",""10814""
","
","","","","","","855.5","images/plane3.png","","","learning","1","0","0","0","plane","vehicles","2","0","","neutral","0"
"html-keyboard-response","158","666997","0.0-9.0-2.0-0.43","6286","2","9","Female","approach_avoid_spark_v1","""event"",""trial"",""time""
""fullscreenenter"",""1"",""10814""
","
","
","""event"",""trial"",""time""
""fullscreenenter"",""1"",""10814""
","
","","","","","","null","<div style=""font-size:60px;"">+</div>","null","","fixation","","","","","","","","","","",""
"aa-learning-trial","159","670024","0.0-9.0-2.0-1.43","6286","2","9","Female","approach_avoid_spark_v1","""event"",""trial"",""time""
""fullscreenenter"",""1"",""10814""
","
","
","""event"",""trial"",""time""
""fullscreenenter"",""1"",""10814""
","
","","","","","","1317.5","images/truck1.png","","","learning","-1","0","0","0","truck","vehicles","2","0","","good","[6]"
"html-keyboard-response","160","670528","0.0-9.0-2.0-0.44","6286","2","9","Female","approach_avoid_spark_v1","""event"",""trial"",""time""
""fullscreenenter"",""1"",""10814""
","
","
","""event"",""trial"",""time""
""fullscreenenter"",""1"",""10814""
","
","","","","","","null","<div style=""font-size:60px;"">+</div>","null","","fixation","","","","","","","","","","",""
"aa-learning-trial","161","673541","0.0-9.0-2.0-1.44","6286","2","9","Female","approach_avoid_spark_v1","""event"",""trial"",""time""
""fullscreenenter"",""1"",""10814""
","
","
","""event"",""trial"",""time""
""fullscreenenter"",""1"",""10814""
","
","","","","","","936.8999999999069","images/boat6.png","","","learning","-2","0","0","0","boat","vehicles","2","0","","bad","[-5]"
"html-keyboard-response","162","674049","0.0-9.0-2.0-0.45","6286","2","9","Female","approach_avoid_spark_v1","""event"",""trial"",""time""
""fullscreenenter"",""1"",""10814""
","
","
","""event"",""trial"",""time""
""fullscreenenter"",""1"",""10814""
","
","","","","","","null","<div style=""font-size:60px;"">+</div>","null","","fixation","","","","","","","","","","",""
"aa-learning-trial","163","677056","0.0-9.0-2.0-1.45","6286","2","9","Female","approach_avoid_spark_v1","""event"",""trial"",""time""
""fullscreenenter"",""1"",""10814""
","
","
","""event"",""trial"",""time""
""fullscreenenter"",""1"",""10814""
","
","","","","","","814.6999999999534","images/boat8.png","","","learning","-4","0","0","0","boat","vehicles","2","0","","bad","[-5]"
"html-keyboard-response","164","677562","0.0-9.0-2.0-0.46","6286","2","9","Female","approach_avoid_spark_v1","""event"",""trial"",""time""
""fullscreenenter"",""1"",""10814""
","
","
","""event"",""trial"",""time""
""fullscreenenter"",""1"",""10814""
","
","","","","","","null","<div style=""font-size:60px;"">+</div>","null","","fixation","","","","","","","","","","",""
"aa-learning-trial","165","680572","0.0-9.0-2.0-1.46","6286","2","9","Female","approach_avoid_spark_v1","""event"",""trial"",""time""
""fullscreenenter"",""1"",""10814""
","
","
","""event"",""trial"",""time""
""fullscreenenter"",""1"",""10814""
","
","","","","","","1651.6000000000931","images/truck8.png","","","learning","6","6","1","1","truck","vehicles","2","0","","good","[6]"
"html-keyboard-response","166","681086","0.0-9.0-2.0-0.47","6286","2","9","Female","approach_avoid_spark_v1","""event"",""trial"",""time""
""fullscreenenter"",""1"",""10814""
","
","
","""event"",""trial"",""time""
""fullscreenenter"",""1"",""10814""
","
","","","","","","null","<div style=""font-size:60px;"">+</div>","null","","fixation","","","","","","","","","","",""
"aa-learning-trial","167","684101","0.0-9.0-2.0-1.47","6286","2","9","Female","approach_avoid_spark_v1","""event"",""trial"",""time""
""fullscreenenter"",""1"",""10814""
","
","
","""event"",""trial"",""time""
""fullscreenenter"",""1"",""10814""
","
","","","","","","1162.1000000000931","images/boat1.png","","","learning","-8","0","0","0","boat","vehicles","2","0","","bad","[-5]"
"html-keyboard-response","168","684617","0.0-9.0-2.0-0.48","6286","2","9","Female","approach_avoid_spark_v1","""event"",""trial"",""time""
""fullscreenenter"",""1"",""10814""
","
","
","""event"",""trial"",""time""
""fullscreenenter"",""1"",""10814""
","
","","","","","","null","<div style=""font-size:60px;"">+</div>","null","","fixation","","","","","","","","","","",""
"aa-learning-trial","169","687630","0.0-9.0-2.0-1.48","6286","2","9","Female","approach_avoid_spark_v1","""event"",""trial"",""time""
""fullscreenenter"",""1"",""10814""
","
","
","""event"",""trial"",""time""
""fullscreenenter"",""1"",""10814""
","
","","","","","","1289.0999999998603","images/boat6.png","","","learning","-2","-2","1","1","boat","vehicles","2","0","","bad","[-5]"
"html-keyboard-response","170","688142","0.0-9.0-2.0-0.49","6286","2","9","Female","approach_avoid_spark_v1","""event"",""trial"",""time""
""fullscreenenter"",""1"",""10814""
","
","
","""event"",""trial"",""time""
""fullscreenenter"",""1"",""10814""
","
","","","","","","null","<div style=""font-size:60px;"">+</div>","null","","fixation","","","","","","","","","","",""
"aa-learning-trial","171","691168","0.0-9.0-2.0-1.49","6286","2","9","Female","approach_avoid_spark_v1","""event"",""trial"",""time""
""fullscreenenter"",""1"",""10814""
","
","
","""event"",""trial"",""time""
""fullscreenenter"",""1"",""10814""
","
","","","","","","1263.2999999998137","images/plane8.png","","","learning","3","3","1","1","plane","vehicles","2","0","","neutral","0"
"html-keyboard-response","172","691673","0.0-9.0-2.0-0.50","6286","2","9","Female","approach_avoid_spark_v1","""event"",""trial"",""time""
""fullscreenenter"",""1"",""10814""
","
","
","""event"",""trial"",""time""
""fullscreenenter"",""1"",""10814""
","
","","","","","","null","<div style=""font-size:60px;"">+</div>","null","","fixation","","","","","","","","","","",""
"aa-learning-trial","173","694693","0.0-9.0-2.0-1.50","6286","2","9","Female","approach_avoid_spark_v1","""event"",""trial"",""time""
""fullscreenenter"",""1"",""10814""
","
","
","""event"",""trial"",""time""
""fullscreenenter"",""1"",""10814""
","
","","","","","","865.8000000000466","images/plane6.png","","","learning","7","7","1","1","plane","vehicles","2","0","","neutral","0"
"html-button-response","174","701174","0.0-9.0-3.0","6286","2","9","Female","approach_avoid_spark_v1","""event"",""trial"",""time""
""fullscreenenter"",""1"",""10814""
","
","
","""event"",""trial"",""time""
""fullscreenenter"",""1"",""10814""
","
","","","","","","6473.5","<p> You have completed the round! <p> In this round, you earned 47 points! </p>","0","","break","","","","","","","","","","",""
"html-button-response","175","702021","0.0-10.0","6286","2","9","Female","approach_avoid_spark_v1","""event"",""trial"",""time""
""fullscreenenter"",""1"",""10814""
","
","
","""event"",""trial"",""time""
""fullscreenenter"",""1"",""10814""
","
","","","","","","844","<p> Now it's time to play another round. </p>","0","","transition_screen","","","","","","","","","","",""
"preload","176","702301","0.0-11.0-0.0","6286","2","9","Female","approach_avoid_spark_v1","""event"",""trial"",""time""
""fullscreenenter"",""1"",""10814""
","
","
","""event"",""trial"",""time""
""fullscreenenter"",""1"",""10814""
","
","true","false","[]","[]","[]","","","","","","","","","","","","","","","",""
"learning-instructions","177","710733","0.0-11.0-1.0-0.0","6286","2","9","Female","approach_avoid_spark_v1","""event"",""trial"",""time""
""fullscreenenter"",""1"",""10814""
","
","
","""event"",""trial"",""time""
""fullscreenenter"",""1"",""10814""
","
","","","","","","1989.5","<p> Your goal in this round is to decorate your friend's new house with furniture. </p></div>","","0","instructions","","","","","","","","","","",""
"learning-instructions","178","724975","0.0-11.0-1.0-0.1","6286","2","9","Female","approach_avoid_spark_v1","""event"",""trial"",""time""
""fullscreenenter"",""1"",""10814""
","
","
","""event"",""trial"",""time""
""fullscreenenter"",""1"",""10814""
","
","","","","","","2530.3000000000466","<p> Your friend likes some pieces of furniture but not others.  </p><p> On each turn, you will see a piece of furniture.   </p><p> You need to decide whether to put it in your friend's house or not.  </p>","","0","instructions","","","","","","","","","","",""
"learning-instructions","179","733449","0.0-11.0-1.0-0.2","6286","2","9","Female","approach_avoid_spark_v1","""event"",""trial"",""time""
""fullscreenenter"",""1"",""10814""
","
","
","""event"",""trial"",""time""
""fullscreenenter"",""1"",""10814""
","
","","","","","","1651.3000000000466","<p> You can put the furniture in her house by pressing 1 and deliver it elsewhere by pressing 0. </p><br><div class=""choice-instructions-grid""> <div class=""choice-option""><img src=""images/approach.png"" class=""choice-option-img"" stage=""instructions"" position=""0"" ><div class=""choice-option-text""> Press ""1."" </div></div><div class=""choice-option""><img src=""images/avoid.png"" class=""choice-option-img"" stage=""instructions"" position=""1"" ><div class=""choice-option-text""> Press ""0."" </div></div>","","0","instructions","","","","","","","","","","",""
"learning-instructions","180","750672","0.0-11.0-1.0-0.3","6286","2","9","Female","approach_avoid_spark_v1","""event"",""trial"",""time""
""fullscreenenter"",""1"",""10814""
","
","
","""event"",""trial"",""time""
""fullscreenenter"",""1"",""10814""
","
","","","","","","6688.799999999814","<p> If you decorate your friend's house with furniture she likes, she will be happy! </p><p> But if you give her furniture that she does not like, she will be annoyed. </p>","","0","instructions","","","","","","","","","","",""
"learning-instructions","181","765826","0.0-11.0-1.0-0.4","6286","2","9","Female","approach_avoid_spark_v1","""event"",""trial"",""time""
""fullscreenenter"",""1"",""10814""
","
","
","""event"",""trial"",""time""
""fullscreenenter"",""1"",""10814""
","
","","","","","","1479.5","<p> You will earn points based on how you made your friend feel. </p><p> If you made her happy, you will WIN anywhere from 1 - 9 points, </p><p> but if you made her annoyed you will LOSE anywhere from 1 - 9 points. </p>","","0","instructions","","","","","","","","","","",""
"learning-instructions","182","775170","0.0-11.0-1.0-0.5","6286","2","9","Female","approach_avoid_spark_v1","""event"",""trial"",""time""
""fullscreenenter"",""1"",""10814""
","
","
","""event"",""trial"",""time""
""fullscreenenter"",""1"",""10814""
","
","","","","","","2684.1999999999534","<p> You will see how many points you won or lost in the center of the screen. </p><p> Here is what you would see if you won 5 points: </p><p style=""color:green;font-size:50px;font-weight:bolder"">5</p>","","0","instructions","","","","","","","","","","",""
"learning-instructions","183","779750","0.0-11.0-1.0-0.6","6286","2","9","Female","approach_avoid_spark_v1","""event"",""trial"",""time""
""fullscreenenter"",""1"",""10814""
","
","
","""event"",""trial"",""time""
""fullscreenenter"",""1"",""10814""
","
","","","","","","1743.5","<p> And here is what you would see if you lost 3 points: </p><p style=""color:red;font-size:50px;font-weight:bolder"">-3</p>","","0","instructions","","","","","","","","","","",""
"learning-instructions","184","800235","0.0-11.0-1.0-0.7","6286","2","9","Female","approach_avoid_spark_v1","""event"",""trial"",""time""
""fullscreenenter"",""1"",""10814""
","
","
","""event"",""trial"",""time""
""fullscreenenter"",""1"",""10814""
","
","","","","","","1997.5999999998603","<p> Some pieces of furniture will make her feel very happy or very annoyed. </p><p> These pieces of furniture will make you win or lose LOTS of points. </p><p> Other pieces of furniture will only make her feel a little happy or a little annoyed. </p><p> These pieces of furniture will make you win or lose small amounts of points. </p>","","0","instructions","","","","","","","","","","",""
"learning-instructions","185","817285","0.0-11.0-1.0-0.8","6286","2","9","Female","approach_avoid_spark_v1","""event"",""trial"",""time""
""fullscreenenter"",""1"",""10814""
","
","
","""event"",""trial"",""time""
""fullscreenenter"",""1"",""10814""
","
","","","","","","3476.7000000001863","<p> If you choose to deliver a piece of furniture elsewhere, you will not win or lose any points. </p><p>  However, in the center of the screen, you will see the number of points you WOULD HAVE won or lost if you had given the furniture to your friend. </p>","","0","instructions","","","","","","","","","","",""
"learning-instructions","186","835564","0.0-11.0-1.0-0.9","6286","2","9","Female","approach_avoid_spark_v1","""event"",""trial"",""time""
""fullscreenenter"",""1"",""10814""
","
","
","""event"",""trial"",""time""
""fullscreenenter"",""1"",""10814""
","
","","","","","","4863.699999999953","<p> Here is what you might see if you did not give a piece of furniture to your friend that would have made her happy: </p><p style=""color:grey; font-size:50px; display: inline-block; border-spacing: 15px; border-width:3px; border-style:solid; border-color:red"">  &nbsp; 6 &nbsp; </p><p> Remember, in this case, you would not win or lose ANY points because you did not give her the furniture.  </p>","","0","instructions","","","","","","","","","","",""
"learning-instructions","187","846518","0.0-11.0-1.0-0.10","6286","2","9","Female","approach_avoid_spark_v1","""event"",""trial"",""time""
""fullscreenenter"",""1"",""10814""
","
","
","""event"",""trial"",""time""
""fullscreenenter"",""1"",""10814""
","
","","","","","","2045","<p> Try to make the best choice for each piece of furniture because </p><p> at the end of the game, you will earn bonus money based on how many points you earned. </p>","","0","instructions","","","","","","","","","","",""
"learning-instructions","188","856971","0.0-11.0-1.0-0.11","6286","2","9","Female","approach_avoid_spark_v1","""event"",""trial"",""time""
""fullscreenenter"",""1"",""10814""
","
","
","""event"",""trial"",""time""
""fullscreenenter"",""1"",""10814""
","
","","","","","","2239.6999999999534","<p> You will have 3 seconds to make each choice. Try to respond before time runs out! </p><p> You will lose 5 points each time you do not make a response. </p>","","0","instructions","","","","","","","","","","",""
"html-keyboard-response","189","857588","0.0-11.0-2.0-0.0","6286","2","9","Female","approach_avoid_spark_v1","""event"",""trial"",""time""
""fullscreenenter"",""1"",""10814""
","
","
","""event"",""trial"",""time""
""fullscreenenter"",""1"",""10814""
","
","","","","","","null","<div style=""font-size:60px;"">+</div>","null","","fixation","","","","","","","","","","",""
"aa-learning-trial","190","860616","0.0-11.0-2.0-1.0","6286","2","9","Female","approach_avoid_spark_v1","""event"",""trial"",""time""
""fullscreenenter"",""1"",""10814""
","
","
","""event"",""trial"",""time""
""fullscreenenter"",""1"",""10814""
","
","","","","","","1649.1000000000931","images/bed7.png","","","learning","1","1","1","1","bed","furniture","1","1","","neutral","0"
"html-keyboard-response","191","861143","0.0-11.0-2.0-0.1","6286","2","9","Female","approach_avoid_spark_v1","""event"",""trial"",""time""
""fullscreenenter"",""1"",""10814""
","
","
","""event"",""trial"",""time""
""fullscreenenter"",""1"",""10814""
","
","","","","","","null","<div style=""font-size:60px;"">+</div>","null","","fixation","","","","","","","","","","",""
"aa-learning-trial","192","864408","0.0-11.0-2.0-1.1","6286","2","9","Female","approach_avoid_spark_v1","""event"",""trial"",""time""
""fullscreenenter"",""1"",""10814""
","
","
","""event"",""trial"",""time""
""fullscreenenter"",""1"",""10814""
","
","","","","","","912.5","images/sofa4.png","","","learning","4","4","1","1","sofa","furniture","1","1","","good","[4]"
"html-keyboard-response","193","864923","0.0-11.0-2.0-0.2","6286","2","9","Female","approach_avoid_spark_v1","""event"",""trial"",""time""
""fullscreenenter"",""1"",""10814""
","
","
","""event"",""trial"",""time""
""fullscreenenter"",""1"",""10814""
","
","","","","","","null","<div style=""font-size:60px;"">+</div>","null","","fixation","","","","","","","","","","",""
"aa-learning-trial","194","867962","0.0-11.0-2.0-1.2","6286","2","9","Female","approach_avoid_spark_v1","""event"",""trial"",""time""
""fullscreenenter"",""1"",""10814""
","
","
","""event"",""trial"",""time""
""fullscreenenter"",""1"",""10814""
","
","","","","","","813.1999999999534","images/sofa3.png","","","learning","4","4","1","1","sofa","furniture","1","1","","good","[4]"
"html-keyboard-response","195","868487","0.0-11.0-2.0-0.3","6286","2","9","Female","approach_avoid_spark_v1","""event"",""trial"",""time""
""fullscreenenter"",""1"",""10814""
","
","
","""event"",""trial"",""time""
""fullscreenenter"",""1"",""10814""
","
","","","","","","null","<div style=""font-size:60px;"">+</div>","null","","fixation","","","","","","","","","","",""
"aa-learning-trial","196","871506","0.0-11.0-2.0-1.3","6286","2","9","Female","approach_avoid_spark_v1","""event"",""trial"",""time""
""fullscreenenter"",""1"",""10814""
","
","
","""event"",""trial"",""time""
""fullscreenenter"",""1"",""10814""
","
","","","","","","859.1999999999534","images/bed2.png","","","learning","-2","-2","1","1","bed","furniture","1","1","","neutral","0"
"html-keyboard-response","197","872027","0.0-11.0-2.0-0.4","6286","2","9","Female","approach_avoid_spark_v1","""event"",""trial"",""time""
""fullscreenenter"",""1"",""10814""
","
","
","""event"",""trial"",""time""
""fullscreenenter"",""1"",""10814""
","
","","","","","","null","<div style=""font-size:60px;"">+</div>","null","","fixation","","","","","","","","","","",""
"aa-learning-trial","198","875059","0.0-11.0-2.0-1.4","6286","2","9","Female","approach_avoid_spark_v1","""event"",""trial"",""time""
""fullscreenenter"",""1"",""10814""
","
","
","""event"",""trial"",""time""
""fullscreenenter"",""1"",""10814""
","
","","","","","","1431.5","images/bed2.png","","","learning","-2","0","0","0","bed","furniture","1","1","","neutral","0"
"html-keyboard-response","199","875582","0.0-11.0-2.0-0.5","6286","2","9","Female","approach_avoid_spark_v1","""event"",""trial"",""time""
""fullscreenenter"",""1"",""10814""
","
","
","""event"",""trial"",""time""
""fullscreenenter"",""1"",""10814""
","
","","","","","","null","<div style=""font-size:60px;"">+</div>","null","","fixation","","","","","","","","","","",""
"aa-learning-trial","200","878606","0.0-11.0-2.0-1.5","6286","2","9","Female","approach_avoid_spark_v1","""event"",""trial"",""time""
""fullscreenenter"",""1"",""10814""
","
","
","""event"",""trial"",""time""
""fullscreenenter"",""1"",""10814""
","
","","","","","","1419.0999999998603","images/table4.png","","","learning","-4","0","0","0","table","furniture","1","1","","bad","[-3]"
"html-keyboard-response","201","879114","0.0-11.0-2.0-0.6","6286","2","9","Female","approach_avoid_spark_v1","""event"",""trial"",""time""
""fullscreenenter"",""1"",""10814""
","
","
","""event"",""trial"",""time""
""fullscreenenter"",""1"",""10814""
","
","","","","","","null","<div style=""font-size:60px;"">+</div>","null","","fixation","","","","","","","","","","",""
"aa-learning-trial","202","882136","0.0-11.0-2.0-1.6","6286","2","9","Female","approach_avoid_spark_v1","""event"",""trial"",""time""
""fullscreenenter"",""1"",""10814""
","
","
","""event"",""trial"",""time""
""fullscreenenter"",""1"",""10814""
","
","","","","","","833.2000000001863","images/sofa1.png","","","learning","1","1","1","1","sofa","furniture","1","1","","good","[4]"
"html-keyboard-response","203","882645","0.0-11.0-2.0-0.7","6286","2","9","Female","approach_avoid_spark_v1","""event"",""trial"",""time""
""fullscreenenter"",""1"",""10814""
","
","
","""event"",""trial"",""time""
""fullscreenenter"",""1"",""10814""
","
","","","","","","null","<div style=""font-size:60px;"">+</div>","null","","fixation","","","","","","","","","","",""
"aa-learning-trial","204","885662","0.0-11.0-2.0-1.7","6286","2","9","Female","approach_avoid_spark_v1","""event"",""trial"",""time""
""fullscreenenter"",""1"",""10814""
","
","
","""event"",""trial"",""time""
""fullscreenenter"",""1"",""10814""
","
","","","","","","1134.6999999999534","images/bed1.png","","","learning","2","2","1","1","bed","furniture","1","1","","neutral","0"
"html-keyboard-response","205","886176","0.0-11.0-2.0-0.8","6286","2","9","Female","approach_avoid_spark_v1","""event"",""trial"",""time""
""fullscreenenter"",""1"",""10814""
","
","
","""event"",""trial"",""time""
""fullscreenenter"",""1"",""10814""
","
","","","","","","null","<div style=""font-size:60px;"">+</div>","null","","fixation","","","","","","","","","","",""
"aa-learning-trial","206","889190","0.0-11.0-2.0-1.8","6286","2","9","Female","approach_avoid_spark_v1","""event"",""trial"",""time""
""fullscreenenter"",""1"",""10814""
","
","
","""event"",""trial"",""time""
""fullscreenenter"",""1"",""10814""
","
","","","","","","958.3000000000466","images/sofa1.png","","","learning","4","4","1","1","sofa","furniture","1","1","","good","[4]"
"html-keyboard-response","207","889703","0.0-11.0-2.0-0.9","6286","2","9","Female","approach_avoid_spark_v1","""event"",""trial"",""time""
""fullscreenenter"",""1"",""10814""
","
","
","""event"",""trial"",""time""
""fullscreenenter"",""1"",""10814""
","
","","","","","","null","<div style=""font-size:60px;"">+</div>","null","","fixation","","","","","","","","","","",""
"aa-learning-trial","208","892715","0.0-11.0-2.0-1.9","6286","2","9","Female","approach_avoid_spark_v1","""event"",""trial"",""time""
""fullscreenenter"",""1"",""10814""
","
","
","""event"",""trial"",""time""
""fullscreenenter"",""1"",""10814""
","
","","","","","","1239.0999999998603","images/sofa3.png","","","learning","4","4","1","1","sofa","furniture","1","1","","good","[4]"
"html-keyboard-response","209","893232","0.0-11.0-2.0-0.10","6286","2","9","Female","approach_avoid_spark_v1","""event"",""trial"",""time""
""fullscreenenter"",""1"",""10814""
","
","
","""event"",""trial"",""time""
""fullscreenenter"",""1"",""10814""
","
","","","","","","null","<div style=""font-size:60px;"">+</div>","null","","fixation","","","","","","","","","","",""
"aa-learning-trial","210","896248","0.0-11.0-2.0-1.10","6286","2","9","Female","approach_avoid_spark_v1","""event"",""trial"",""time""
""fullscreenenter"",""1"",""10814""
","
","
","""event"",""trial"",""time""
""fullscreenenter"",""1"",""10814""
","
","","","","","","1294.5","images/table6.png","","","learning","-3","0","0","0","table","furniture","1","1","","bad","[-3]"
"html-keyboard-response","211","896761","0.0-11.0-2.0-0.11","6286","2","9","Female","approach_avoid_spark_v1","""event"",""trial"",""time""
""fullscreenenter"",""1"",""10814""
","
","
","""event"",""trial"",""time""
""fullscreenenter"",""1"",""10814""
","
","","","","","","null","<div style=""font-size:60px;"">+</div>","null","","fixation","","","","","","","","","","",""
"aa-learning-trial","212","899777","0.0-11.0-2.0-1.11","6286","2","9","Female","approach_avoid_spark_v1","""event"",""trial"",""time""
""fullscreenenter"",""1"",""10814""
","
","
","""event"",""trial"",""time""
""fullscreenenter"",""1"",""10814""
","
","","","","","","1524.5","images/table1.png","","","learning","-3","0","0","0","table","furniture","1","1","","bad","[-3]"
"html-keyboard-response","213","900285","0.0-11.0-2.0-0.12","6286","2","9","Female","approach_avoid_spark_v1","""event"",""trial"",""time""
""fullscreenenter"",""1"",""10814""
","
","
","""event"",""trial"",""time""
""fullscreenenter"",""1"",""10814""
","
","","","","","","null","<div style=""font-size:60px;"">+</div>","null","","fixation","","","","","","","","","","",""
"aa-learning-trial","214","903307","0.0-11.0-2.0-1.12","6286","2","9","Female","approach_avoid_spark_v1","""event"",""trial"",""time""
""fullscreenenter"",""1"",""10814""
","
","
","""event"",""trial"",""time""
""fullscreenenter"",""1"",""10814""
","
","","","","","","924","images/table6.png","","","learning","-2","0","0","0","table","furniture","1","1","","bad","[-3]"
"html-keyboard-response","215","903825","0.0-11.0-2.0-0.13","6286","2","9","Female","approach_avoid_spark_v1","""event"",""trial"",""time""
""fullscreenenter"",""1"",""10814""
","
","
","""event"",""trial"",""time""
""fullscreenenter"",""1"",""10814""
","
","","","","","","null","<div style=""font-size:60px;"">+</div>","null","","fixation","","","","","","","","","","",""
"aa-learning-trial","216","906839","0.0-11.0-2.0-1.13","6286","2","9","Female","approach_avoid_spark_v1","""event"",""trial"",""time""
""fullscreenenter"",""1"",""10814""
","
","
","""event"",""trial"",""time""
""fullscreenenter"",""1"",""10814""
","
","","","","","","1088","images/table4.png","","","learning","-3","0","0","0","table","furniture","1","1","","bad","[-3]"
"html-keyboard-response","217","907352","0.0-11.0-2.0-0.14","6286","2","9","Female","approach_avoid_spark_v1","""event"",""trial"",""time""
""fullscreenenter"",""1"",""10814""
","
","
","""event"",""trial"",""time""
""fullscreenenter"",""1"",""10814""
","
","","","","","","null","<div style=""font-size:60px;"">+</div>","null","","fixation","","","","","","","","","","",""
"aa-learning-trial","218","910369","0.0-11.0-2.0-1.14","6286","2","9","Female","approach_avoid_spark_v1","""event"",""trial"",""time""
""fullscreenenter"",""1"",""10814""
","
","
","""event"",""trial"",""time""
""fullscreenenter"",""1"",""10814""
","
","","","","","","729.5999999998603","images/bed7.png","","","learning","-1","-1","1","1","bed","furniture","1","1","","neutral","0"
"html-keyboard-response","219","910877","0.0-11.0-2.0-0.15","6286","2","9","Female","approach_avoid_spark_v1","""event"",""trial"",""time""
""fullscreenenter"",""1"",""10814""
","
","
","""event"",""trial"",""time""
""fullscreenenter"",""1"",""10814""
","
","","","","","","null","<div style=""font-size:60px;"">+</div>","null","","fixation","","","","","","","","","","",""
"aa-learning-trial","220","913892","0.0-11.0-2.0-1.15","6286","2","9","Female","approach_avoid_spark_v1","""event"",""trial"",""time""
""fullscreenenter"",""1"",""10814""
","
","
","""event"",""trial"",""time""
""fullscreenenter"",""1"",""10814""
","
","","","","","","1471.3000000000466","images/bed2.png","","","learning","[-1]","0","0","0","bed","furniture","1","1","","neutral","0"
"html-keyboard-response","221","914406","0.0-11.0-2.0-0.16","6286","2","9","Female","approach_avoid_spark_v1","""event"",""trial"",""time""
""fullscreenenter"",""1"",""10814""
","
","
","""event"",""trial"",""time""
""fullscreenenter"",""1"",""10814""
","
","","","","","","null","<div style=""font-size:60px;"">+</div>","null","","fixation","","","","","","","","","","",""
"aa-learning-trial","222","917423","0.0-11.0-2.0-1.16","6286","2","9","Female","approach_avoid_spark_v1","""event"",""trial"",""time""
""fullscreenenter"",""1"",""10814""
","
","
","""event"",""trial"",""time""
""fullscreenenter"",""1"",""10814""
","
","","","","","","1707.1999999999534","images/table6.png","","","learning","-2","0","0","0","table","furniture","1","1","","bad","[-3]"
"html-keyboard-response","223","917933","0.0-11.0-2.0-0.17","6286","2","9","Female","approach_avoid_spark_v1","""event"",""trial"",""time""
""fullscreenenter"",""1"",""10814""
","
","
","""event"",""trial"",""time""
""fullscreenenter"",""1"",""10814""
","
","","","","","","null","<div style=""font-size:60px;"">+</div>","null","","fixation","","","","","","","","","","",""
"aa-learning-trial","224","920949","0.0-11.0-2.0-1.17","6286","2","9","Female","approach_avoid_spark_v1","""event"",""trial"",""time""
""fullscreenenter"",""1"",""10814""
","
","
","""event"",""trial"",""time""
""fullscreenenter"",""1"",""10814""
","
","","","","","","1056.3000000000466","images/table5.png","","","learning","-3","0","0","0","table","furniture","1","1","","bad","[-3]"
"html-keyboard-response","225","921465","0.0-11.0-2.0-0.18","6286","2","9","Female","approach_avoid_spark_v1","""event"",""trial"",""time""
""fullscreenenter"",""1"",""10814""
","
","
","""event"",""trial"",""time""
""fullscreenenter"",""1"",""10814""
","
","","","","","","null","<div style=""font-size:60px;"">+</div>","null","","fixation","","","","","","","","","","",""
"aa-learning-trial","226","924474","0.0-11.0-2.0-1.18","6286","2","9","Female","approach_avoid_spark_v1","""event"",""trial"",""time""
""fullscreenenter"",""1"",""10814""
","
","
","""event"",""trial"",""time""
""fullscreenenter"",""1"",""10814""
","
","","","","","","1210.3000000000466","images/sofa1.png","","","learning","2","2","1","1","sofa","furniture","1","1","","good","[4]"
"html-keyboard-response","227","924983","0.0-11.0-2.0-0.19","6286","2","9","Female","approach_avoid_spark_v1","""event"",""trial"",""time""
""fullscreenenter"",""1"",""10814""
","
","
","""event"",""trial"",""time""
""fullscreenenter"",""1"",""10814""
","
","","","","","","null","<div style=""font-size:60px;"">+</div>","null","","fixation","","","","","","","","","","",""
"aa-learning-trial","228","927994","0.0-11.0-2.0-1.19","6286","2","9","Female","approach_avoid_spark_v1","""event"",""trial"",""time""
""fullscreenenter"",""1"",""10814""
","
","
","""event"",""trial"",""time""
""fullscreenenter"",""1"",""10814""
","
","","","","","","866.6999999999534","images/sofa8.png","","","learning","4","4","1","1","sofa","furniture","1","1","","good","[4]"
"html-keyboard-response","229","928511","0.0-11.0-2.0-0.20","6286","2","9","Female","approach_avoid_spark_v1","""event"",""trial"",""time""
""fullscreenenter"",""1"",""10814""
","
","
","""event"",""trial"",""time""
""fullscreenenter"",""1"",""10814""
","
","","","","","","null","<div style=""font-size:60px;"">+</div>","null","","fixation","","","","","","","","","","",""
"aa-learning-trial","230","931526","0.0-11.0-2.0-1.20","6286","2","9","Female","approach_avoid_spark_v1","""event"",""trial"",""time""
""fullscreenenter"",""1"",""10814""
","
","
","""event"",""trial"",""time""
""fullscreenenter"",""1"",""10814""
","
","","","","","","1172.8000000000466","images/table1.png","","","learning","-4","0","0","0","table","furniture","1","1","","bad","[-3]"
"html-keyboard-response","231","932037","0.0-11.0-2.0-0.21","6286","2","9","Female","approach_avoid_spark_v1","""event"",""trial"",""time""
""fullscreenenter"",""1"",""10814""
","
","
","""event"",""trial"",""time""
""fullscreenenter"",""1"",""10814""
","
","","","","","","null","<div style=""font-size:60px;"">+</div>","null","","fixation","","","","","","","","","","",""
"aa-learning-trial","232","935050","0.0-11.0-2.0-1.21","6286","2","9","Female","approach_avoid_spark_v1","""event"",""trial"",""time""
""fullscreenenter"",""1"",""10814""
","
","
","""event"",""trial"",""time""
""fullscreenenter"",""1"",""10814""
","
","","","","","","926","images/table4.png","","","learning","-2","0","0","0","table","furniture","1","1","","bad","[-3]"
"html-keyboard-response","233","935557","0.0-11.0-2.0-0.22","6286","2","9","Female","approach_avoid_spark_v1","""event"",""trial"",""time""
""fullscreenenter"",""1"",""10814""
","
","
","""event"",""trial"",""time""
""fullscreenenter"",""1"",""10814""
","
","","","","","","null","<div style=""font-size:60px;"">+</div>","null","","fixation","","","","","","","","","","",""
"aa-learning-trial","234","938571","0.0-11.0-2.0-1.22","6286","2","9","Female","approach_avoid_spark_v1","""event"",""trial"",""time""
""fullscreenenter"",""1"",""10814""
","
","
","""event"",""trial"",""time""
""fullscreenenter"",""1"",""10814""
","
","","","","","","972","images/table4.png","","","learning","-3","0","0","0","table","furniture","1","1","","bad","[-3]"
"html-keyboard-response","235","939082","0.0-11.0-2.0-0.23","6286","2","9","Female","approach_avoid_spark_v1","""event"",""trial"",""time""
""fullscreenenter"",""1"",""10814""
","
","
