"trial_type","trial_index","time_elapsed","internal_node_id","subject_id","task_condition","age","gender","task_version","interactions","blur_events","focus_events","fullscreenenter_events","fullscreenexit_events","success","timeout","failed_images","failed_audio","failed_video","rt","stimulus","response","button_pressed","task_part","approach_reward","points","key_press","option_selected","stim_cat","task_block","block_condition","block_number","correct","cat_type","mean_cat_reward"
"pavlovia","0","4","0.0-0.0","3862","1","16","Female","approach_avoid_spark_v1","""event"",""trial"",""time""
""fullscreenenter"",""1"",""2071""
","
","
","""event"",""trial"",""time""
""fullscreenenter"",""1"",""2071""
","
","","","","","","","","","","","","","","","","","","","","",""
"fullscreen","1","3037","0.0-1.0","3862","1","16","Female","approach_avoid_spark_v1","""event"",""trial"",""time""
""fullscreenenter"",""1"",""2071""
","
","
","""event"",""trial"",""time""
""fullscreenenter"",""1"",""2071""
","
","true","","","","","","","","","","","","","","","","","","","",""
"preload","2","9486","0.0-2.0","3862","1","16","Female","approach_avoid_spark_v1","""event"",""trial"",""time""
""fullscreenenter"",""1"",""2071""
","
","
","""event"",""trial"",""time""
""fullscreenenter"",""1"",""2071""
","
","true","false","[]","[]","[]","","","","","","","","","","","","","","","",""
"audio-keyboard-response","3","11313","0.0-3.0","3862","1","16","Female","approach_avoid_spark_v1","""event"",""trial"",""time""
""fullscreenenter"",""1"",""2071""
","
","
","""event"",""trial"",""time""
""fullscreenenter"",""1"",""2071""
","
","","","","","","1821.3333333333335","audio/beep_loop.wav"," ","","","","","","","","","","","","",""
"audio-button-response","4","13193","0.0-4.0","3862","1","16","Female","approach_avoid_spark_v1","""event"",""trial"",""time""
""fullscreenenter"",""1"",""2071""
","
","
","""event"",""trial"",""time""
""fullscreenenter"",""1"",""2071""
","
","","","","","","1869","audio/shark.wav","4","","","","","","","","","","","","",""
"audio-button-response","5","15693","0.0-5.0","3862","1","16","Female","approach_avoid_spark_v1","""event"",""trial"",""time""
""fullscreenenter"",""1"",""2071""
","
","
","""event"",""trial"",""time""
""fullscreenenter"",""1"",""2071""
","
","","","","","","1499","audio/turtle.wav","1","","","","","","","","","","","","",""
"preload","6","18690","0.0-6.0","3862","1","16","Female","approach_avoid_spark_v1","""event"",""trial"",""time""
""fullscreenenter"",""1"",""2071""
","
","
","""event"",""trial"",""time""
""fullscreenenter"",""1"",""2071""
","
","true","false","[]","[]","[]","","","","","","","","","","","","","","","",""
"html-keyboard-response","7","24742","0.0-7.0","3862","1","16","Female","approach_avoid_spark_v1","""event"",""trial"",""time""
""fullscreenenter"",""1"",""2071""
","
","
","""event"",""trial"",""time""
""fullscreenenter"",""1"",""2071""
","
","","","","","","6049.400000095367","Welcome to the experiment. Press any key to begin and to advance the instructions."," ","","","","","","","","","","","","",""
"learning-instructions","8","34235","0.0-8.0-0.0-0.0","3862","1","16","Female","approach_avoid_spark_v1","""event"",""trial"",""time""
""fullscreenenter"",""1"",""2071""
""blur"",""9"",""35243""
""focus"",""9"",""43572""
","""event"",""trial"",""time""
""blur"",""9"",""35243""
","""event"",""trial"",""time""
""focus"",""9"",""43572""
","""event"",""trial"",""time""
""fullscreenenter"",""1"",""2071""
","
","","","","","","2536.5999999046326","<p> Welcome! Today you are going to play 6 different rounds of a decision-making game. </p><p> Use the mouse to click next to continue. </p>","","0","instructions","","","","","","","","","","",""
"learning-instructions","9","46706","0.0-8.0-0.0-0.1","3862","1","16","Female","approach_avoid_spark_v1","""event"",""trial"",""time""
""fullscreenenter"",""1"",""2071""
""blur"",""9"",""35243""
""focus"",""9"",""43572""
","""event"",""trial"",""time""
""blur"",""9"",""35243""
","""event"",""trial"",""time""
""focus"",""9"",""43572""
","""event"",""trial"",""time""
""fullscreenenter"",""1"",""2071""
","
","","","","","","9727.700000286102","<p> You will start with a practice round to learn the rules. </p>","","0","instructions","","","","","","","","","","",""
"learning-instructions","10","51428","0.0-8.0-0.0-0.2","3862","1","16","Female","approach_avoid_spark_v1","""event"",""trial"",""time""
""fullscreenenter"",""1"",""2071""
""blur"",""9"",""35243""
""focus"",""9"",""43572""
""blur"",""11"",""52799""
""focus"",""11"",""60025""
","""event"",""trial"",""time""
""blur"",""9"",""35243""
""blur"",""11"",""52799""
","""event"",""trial"",""time""
""focus"",""9"",""43572""
""focus"",""11"",""60025""
","""event"",""trial"",""time""
""fullscreenenter"",""1"",""2071""
","
","","","","","","1270.4000000953674","<p> Your goal in this round is to give out sports equipment to kids. </p></div>","","0","instructions","","","","","","","","","","",""
"learning-instructions","11","60128","0.0-8.0-0.0-0.3","3862","1","16","Female","approach_avoid_spark_v1","""event"",""trial"",""time""
""fullscreenenter"",""1"",""2071""
""blur"",""9"",""35243""
""focus"",""9"",""43572""
""blur"",""11"",""52799""
""focus"",""11"",""60025""
","""event"",""trial"",""time""
""blur"",""9"",""35243""
""blur"",""11"",""52799""
","""event"",""trial"",""time""
""focus"",""9"",""43572""
""focus"",""11"",""60025""
","""event"",""trial"",""time""
""fullscreenenter"",""1"",""2071""
","
","","","","","","1149.0999999046326","<p> The kids only like some of the equipment.  </p><p> On each turn, you will see a piece of sports equipment.   </p><p> You need to decide whether to give it to the kids or not.  </p>","","0","instructions","","","","","","","","","","",""
"learning-instructions","12","66154","0.0-8.0-0.0-0.4","3862","1","16","Female","approach_avoid_spark_v1","""event"",""trial"",""time""
""fullscreenenter"",""1"",""2071""
""blur"",""9"",""35243""
""focus"",""9"",""43572""
""blur"",""11"",""52799""
""focus"",""11"",""60025""
","""event"",""trial"",""time""
""blur"",""9"",""35243""
""blur"",""11"",""52799""
","""event"",""trial"",""time""
""focus"",""9"",""43572""
""focus"",""11"",""60025""
","""event"",""trial"",""time""
""fullscreenenter"",""1"",""2071""
","
","","","","","","1266.4000000953674","<p> You can give them the equipment by pressing 1 and choose not to give it to them by pressing 0. </p><br><div class=""choice-instructions-grid""> <div class=""choice-option""><img src=""images/approach.png"" class=""choice-option-img"" stage=""instructions"" position=""0"" ><div class=""choice-option-text""> Press ""1."" </div></div><div class=""choice-option""><img src=""images/avoid.png"" class=""choice-option-img"" stage=""instructions"" position=""1"" ><div class=""choice-option-text""> Press ""0."" </div></div>","","0","instructions","","","","","","","","","","",""
"learning-instructions","13","74249","0.0-8.0-0.0-0.5","3862","1","16","Female","approach_avoid_spark_v1","""event"",""trial"",""time""
""fullscreenenter"",""1"",""2071""
""blur"",""9"",""35243""
""focus"",""9"",""43572""
""blur"",""11"",""52799""
""focus"",""11"",""60025""
","""event"",""trial"",""time""
""blur"",""9"",""35243""
""blur"",""11"",""52799""
","""event"",""trial"",""time""
""focus"",""9"",""43572""
""focus"",""11"",""60025""
","""event"",""trial"",""time""
""fullscreenenter"",""1"",""2071""
","
","","","","","","701.0999999046326","<p> If you give them a piece of equipment they like, they will be happy! </p><p> But if you give them a piece of equipment they do not like, they will be sad. </p>","","0","instructions","","","","","","","","","","",""
"learning-instructions","14","88165","0.0-8.0-0.0-0.6","3862","1","16","Female","approach_avoid_spark_v1","""event"",""trial"",""time""
""fullscreenenter"",""1"",""2071""
""blur"",""9"",""35243""
""focus"",""9"",""43572""
""blur"",""11"",""52799""
""focus"",""11"",""60025""
","""event"",""trial"",""time""
""blur"",""9"",""35243""
""blur"",""11"",""52799""
","""event"",""trial"",""time""
""focus"",""9"",""43572""
""focus"",""11"",""60025""
","""event"",""trial"",""time""
""fullscreenenter"",""1"",""2071""
","
","","","","","","3397.7999997138977","<p> You will earn points based on how you make kids feel. </p><p> If you make them happy, you will WIN anywhere from 1 - 9 points, </p><p> but if you make them sad, you will LOSE anywhere from 1 - 9 points. </p>","","0","instructions","","","","","","","","","","",""
"learning-instructions","15","98254","0.0-8.0-0.0-0.7","3862","1","16","Female","approach_avoid_spark_v1","""event"",""trial"",""time""
""fullscreenenter"",""1"",""2071""
""blur"",""9"",""35243""
""focus"",""9"",""43572""
""blur"",""11"",""52799""
""focus"",""11"",""60025""
","""event"",""trial"",""time""
""blur"",""9"",""35243""
""blur"",""11"",""52799""
","""event"",""trial"",""time""
""focus"",""9"",""43572""
""focus"",""11"",""60025""
","""event"",""trial"",""time""
""fullscreenenter"",""1"",""2071""
","
","","","","","","515.7000002861023","<p> You will see how many points you won or lost in the center of the screen. </p><p> Here is what you would see if you won 6 points: </p><p style=""color:green;font-size:50px;font-weight:bolder"">6</p><p style=""color:green"">The text is GREEN because you WON points.</p>","","0","instructions","","","","","","","","","","",""
"learning-instructions","16","104603","0.0-8.0-0.0-0.8","3862","1","16","Female","approach_avoid_spark_v1","""event"",""trial"",""time""
""fullscreenenter"",""1"",""2071""
""blur"",""9"",""35243""
""focus"",""9"",""43572""
""blur"",""11"",""52799""
""focus"",""11"",""60025""
","""event"",""trial"",""time""
""blur"",""9"",""35243""
""blur"",""11"",""52799""
","""event"",""trial"",""time""
""focus"",""9"",""43572""
""focus"",""11"",""60025""
","""event"",""trial"",""time""
""fullscreenenter"",""1"",""2071""
","
","","","","","","843.7999997138977","<p> And here is what you would see if you lost 4 points: </p><p style=""color:red;font-size:50px;font-weight:bolder"">-4</p><p style=""color:red"">The text is RED because you LOST points. </p>","","0","instructions","","","","","","","","","","",""
"learning-instructions","17","120142","0.0-8.0-0.0-0.9","3862","1","16","Female","approach_avoid_spark_v1","""event"",""trial"",""time""
""fullscreenenter"",""1"",""2071""
""blur"",""9"",""35243""
""focus"",""9"",""43572""
""blur"",""11"",""52799""
""focus"",""11"",""60025""
","""event"",""trial"",""time""
""blur"",""9"",""35243""
""blur"",""11"",""52799""
","""event"",""trial"",""time""
""focus"",""9"",""43572""
""focus"",""11"",""60025""
","""event"",""trial"",""time""
""fullscreenenter"",""1"",""2071""
","
","","","","","","823.1000003814697","<p> Some of the equipment will make the kids VERY happy or sad. </p><p> These pieces of equipment will make you win or lose LOTS of points. </p><p> Other pieces of equipment will only make the kids a little happy or sad. </p><p> These pieces of equipment will make you win or lose small amounts of points. </p>","","0","instructions","","","","","","","","","","",""
"learning-instructions","18","131885","0.0-8.0-0.0-0.10","3862","1","16","Female","approach_avoid_spark_v1","""event"",""trial"",""time""
""fullscreenenter"",""1"",""2071""
""blur"",""9"",""35243""
""focus"",""9"",""43572""
""blur"",""11"",""52799""
""focus"",""11"",""60025""
","""event"",""trial"",""time""
""blur"",""9"",""35243""
""blur"",""11"",""52799""
","""event"",""trial"",""time""
""focus"",""9"",""43572""
""focus"",""11"",""60025""
","""event"",""trial"",""time""
""fullscreenenter"",""1"",""2071""
","
","","","","","","1116.4000000953674","<p> If you choose not to give them the equipment, you will not win or lose any points. </p><p>  However, in the center of the screen, you will see the number of points you WOULD HAVE won or lost if you had given them the equipment. </p>","","0","instructions","","","","","","","","","","",""
"learning-instructions","19","153973","0.0-8.0-0.0-0.11","3862","1","16","Female","approach_avoid_spark_v1","""event"",""trial"",""time""
""fullscreenenter"",""1"",""2071""
""blur"",""9"",""35243""
""focus"",""9"",""43572""
""blur"",""11"",""52799""
""focus"",""11"",""60025""
","""event"",""trial"",""time""
""blur"",""9"",""35243""
""blur"",""11"",""52799""
","""event"",""trial"",""time""
""focus"",""9"",""43572""
""focus"",""11"",""60025""
","""event"",""trial"",""time""
""fullscreenenter"",""1"",""2071""
","
","","","","","","554","<p> Here is what you might see if you did not give the equipment to the kids but it would have made them happy: </p><p style=""color:grey; font-size:50px; display: inline-block; border-spacing: 15px; border-width:3px; border-style:solid; border-color:red"">  &nbsp; 7 &nbsp; </p><p> Remember, in this case, you would not win or lose ANY points because you did not give them the equipment.  </p><p style=""color:grey"">The text is GREY because you earned ZERO points. </p><p style=""color:red"">However, choosing to give the kids the equipment would have made you win points. The box around the text is RED because you chose the worse option. </p>","","0","instructions","","","","","","","","","","",""
"learning-instructions","20","175732","0.0-8.0-0.0-0.12","3862","1","16","Female","approach_avoid_spark_v1","""event"",""trial"",""time""
""fullscreenenter"",""1"",""2071""
""blur"",""9"",""35243""
""focus"",""9"",""43572""
""blur"",""11"",""52799""
""focus"",""11"",""60025""
","""event"",""trial"",""time""
""blur"",""9"",""35243""
""blur"",""11"",""52799""
","""event"",""trial"",""time""
""focus"",""9"",""43572""
""focus"",""11"",""60025""
","""event"",""trial"",""time""
""fullscreenenter"",""1"",""2071""
","
","","","","","","673.9000000953674","<p> Here is what you might see if you did not give the equipment to the kids but it would have made them sad: </p><p style=""color:grey;font-size:50px; display: inline-block; border-spacing: 15px; border-width:3px; border-style:solid; border-color:green"">  &nbsp; -8 &nbsp; </p><p> Remember, in this case, you would not win or lose ANY points because you did not give them the equipment.  </p><p style=""color:grey"">The text is GREY because you earned ZERO points. </p><p  style=""color:green""> Choosing to give the kids the equipment would have made you lose points. The box around the text is GREEN because you chose the better option.</p>","","0","instructions","","","","","","","","","","",""
"learning-instructions","21","185302","0.0-8.0-0.0-0.13","3862","1","16","Female","approach_avoid_spark_v1","""event"",""trial"",""time""
""fullscreenenter"",""1"",""2071""
""blur"",""9"",""35243""
""focus"",""9"",""43572""
""blur"",""11"",""52799""
""focus"",""11"",""60025""
","""event"",""trial"",""time""
""blur"",""9"",""35243""
""blur"",""11"",""52799""
","""event"",""trial"",""time""
""focus"",""9"",""43572""
""focus"",""11"",""60025""
","""event"",""trial"",""time""
""fullscreenenter"",""1"",""2071""
","
","","","","","","672.7000002861023","<p> You will have 3 seconds to make each choice. Try to respond before time runs out! </p><p> You will lose 5 points each time you do not make a response. </p>","","0","instructions","","","","","","","","","","",""
"learning-instructions","22","191626","0.0-8.0-0.0-0.14","3862","1","16","Female","approach_avoid_spark_v1","""event"",""trial"",""time""
""fullscreenenter"",""1"",""2071""
""blur"",""9"",""35243""
""focus"",""9"",""43572""
""blur"",""11"",""52799""
""focus"",""11"",""60025""
","""event"",""trial"",""time""
""blur"",""9"",""35243""
""blur"",""11"",""52799""
","""event"",""trial"",""time""
""focus"",""9"",""43572""
""focus"",""11"",""60025""
","""event"",""trial"",""time""
""fullscreenenter"",""1"",""2071""
","
","","","","","","907.9000000953674","<p> This is just a practice round, but in the real game, your bonus payment will depend on your total number of points.","","0","instructions","","","","","","","","","","",""
"learning-instructions","23","198436","0.0-8.0-0.0-0.15","3862","1","16","Female","approach_avoid_spark_v1","""event"",""trial"",""time""
""fullscreenenter"",""1"",""2071""
""blur"",""9"",""35243""
""focus"",""9"",""43572""
""blur"",""11"",""52799""
""focus"",""11"",""60025""
","""event"",""trial"",""time""
""blur"",""9"",""35243""
""blur"",""11"",""52799""
","""event"",""trial"",""time""
""focus"",""9"",""43572""
""focus"",""11"",""60025""
","""event"",""trial"",""time""
""fullscreenenter"",""1"",""2071""
","
","","","","","","1038.2000002861023","<p> Remember, you can give them the equipment by pressing 1 and choose not to give it to them by pressing 0. </p><br><div class=""choice-instructions-grid""> <div class=""choice-option""><img src=""images/approach.png"" class=""choice-option-img"" stage=""instructions"" position=""0"" ><div class=""choice-option-text""> Press ""1."" </div></div><div class=""choice-option""><img src=""images/avoid.png"" class=""choice-option-img"" stage=""instructions"" position=""1"" ><div class=""choice-option-text""> Press ""0."" </div></div>","","0","instructions","","","","","","","","","","",""
"html-button-response","24","200276","0.0-8.0-1.0","3862","1","16","Female","approach_avoid_spark_v1","""event"",""trial"",""time""
""fullscreenenter"",""1"",""2071""
""blur"",""9"",""35243""
""focus"",""9"",""43572""
""blur"",""11"",""52799""
""focus"",""11"",""60025""
","""event"",""trial"",""time""
""blur"",""9"",""35243""
""blur"",""11"",""52799""
","""event"",""trial"",""time""
""focus"",""9"",""43572""
""focus"",""11"",""60025""
","""event"",""trial"",""time""
""fullscreenenter"",""1"",""2071""
","
","","","","","","1727.7999997138977","<p> Ready to practice? </p>","0","","","","","","","","","","","","",""
"html-keyboard-response","25","200894","0.0-8.0-2.0-0.0","3862","1","16","Female","approach_avoid_spark_v1","""event"",""trial"",""time""
""fullscreenenter"",""1"",""2071""
""blur"",""9"",""35243""
""focus"",""9"",""43572""
""blur"",""11"",""52799""
""focus"",""11"",""60025""
","""event"",""trial"",""time""
""blur"",""9"",""35243""
""blur"",""11"",""52799""
","""event"",""trial"",""time""
""focus"",""9"",""43572""
""focus"",""11"",""60025""
","""event"",""trial"",""time""
""fullscreenenter"",""1"",""2071""
","
","","","","","","null","<div style=""font-size:60px;"">+</div>","null","","fixation","","","","","","","","","","",""
"aa-learning-trial","26","203907","0.0-8.0-2.0-1.0","3862","1","16","Female","approach_avoid_spark_v1","""event"",""trial"",""time""
""fullscreenenter"",""1"",""2071""
""blur"",""9"",""35243""
""focus"",""9"",""43572""
""blur"",""11"",""52799""
""focus"",""11"",""60025""
","""event"",""trial"",""time""
""blur"",""9"",""35243""
""blur"",""11"",""52799""
","""event"",""trial"",""time""
""focus"",""9"",""43572""
""focus"",""11"",""60025""
","""event"",""trial"",""time""
""fullscreenenter"",""1"",""2071""
","
","","","","","","null","images/racket2.png","","","learning","-1","-5","","null","practice","practice","practice","-1","","",""
"html-keyboard-response","27","204417","0.0-8.0-2.0-0.1","3862","1","16","Female","approach_avoid_spark_v1","""event"",""trial"",""time""
""fullscreenenter"",""1"",""2071""
""blur"",""9"",""35243""
""focus"",""9"",""43572""
""blur"",""11"",""52799""
""focus"",""11"",""60025""
","""event"",""trial"",""time""
""blur"",""9"",""35243""
""blur"",""11"",""52799""
","""event"",""trial"",""time""
""focus"",""9"",""43572""
""focus"",""11"",""60025""
","""event"",""trial"",""time""
""fullscreenenter"",""1"",""2071""
","
","","","","","","null","<div style=""font-size:60px;"">+</div>","null","","fixation","","","","","","","","","","",""
"aa-learning-trial","28","207423","0.0-8.0-2.0-1.1","3862","1","16","Female","approach_avoid_spark_v1","""event"",""trial"",""time""
""fullscreenenter"",""1"",""2071""
""blur"",""9"",""35243""
""focus"",""9"",""43572""
""blur"",""11"",""52799""
""focus"",""11"",""60025""
","""event"",""trial"",""time""
""blur"",""9"",""35243""
""blur"",""11"",""52799""
","""event"",""trial"",""time""
""focus"",""9"",""43572""
""focus"",""11"",""60025""
","""event"",""trial"",""time""
""fullscreenenter"",""1"",""2071""
","
","","","","","","null","images/ball3.png","","","learning","8","-5","","null","practice","practice","practice","-1","","",""
"html-keyboard-response","29","207937","0.0-8.0-2.0-0.2","3862","1","16","Female","approach_avoid_spark_v1","""event"",""trial"",""time""
""fullscreenenter"",""1"",""2071""
""blur"",""9"",""35243""
""focus"",""9"",""43572""
""blur"",""11"",""52799""
""focus"",""11"",""60025""
","""event"",""trial"",""time""
""blur"",""9"",""35243""
""blur"",""11"",""52799""
","""event"",""trial"",""time""
""focus"",""9"",""43572""
""focus"",""11"",""60025""
","""event"",""trial"",""time""
""fullscreenenter"",""1"",""2071""
","
","","","","","","null","<div style=""font-size:60px;"">+</div>","null","","fixation","","","","","","","","","","",""
"aa-learning-trial","30","210947","0.0-8.0-2.0-1.2","3862","1","16","Female","approach_avoid_spark_v1","""event"",""trial"",""time""
""fullscreenenter"",""1"",""2071""
""blur"",""9"",""35243""
""focus"",""9"",""43572""
""blur"",""11"",""52799""
""focus"",""11"",""60025""
","""event"",""trial"",""time""
""blur"",""9"",""35243""
""blur"",""11"",""52799""
","""event"",""trial"",""time""
""focus"",""9"",""43572""
""focus"",""11"",""60025""
","""event"",""trial"",""time""
""fullscreenenter"",""1"",""2071""
","
","","","","","","613.5","images/ball4.png","","","learning","9","0","0","0","practice","practice","practice","-1","","",""
"html-keyboard-response","31","211456","0.0-8.0-2.0-0.3","3862","1","16","Female","approach_avoid_spark_v1","""event"",""trial"",""time""
""fullscreenenter"",""1"",""2071""
""blur"",""9"",""35243""
""focus"",""9"",""43572""
""blur"",""11"",""52799""
""focus"",""11"",""60025""
","""event"",""trial"",""time""
""blur"",""9"",""35243""
""blur"",""11"",""52799""
","""event"",""trial"",""time""
""focus"",""9"",""43572""
""focus"",""11"",""60025""
","""event"",""trial"",""time""
""fullscreenenter"",""1"",""2071""
","
","","","","","","null","<div style=""font-size:60px;"">+</div>","null","","fixation","","","","","","","","","","",""
"aa-learning-trial","32","214470","0.0-8.0-2.0-1.3","3862","1","16","Female","approach_avoid_spark_v1","""event"",""trial"",""time""
""fullscreenenter"",""1"",""2071""
""blur"",""9"",""35243""
""focus"",""9"",""43572""
""blur"",""11"",""52799""
""focus"",""11"",""60025""
","""event"",""trial"",""time""
""blur"",""9"",""35243""
""blur"",""11"",""52799""
","""event"",""trial"",""time""
""focus"",""9"",""43572""
""focus"",""11"",""60025""
","""event"",""trial"",""time""
""fullscreenenter"",""1"",""2071""
","
","","","","","","675.5999999046326","images/ball3.png","","","learning","-5","0","0","0","practice","practice","practice","-1","","",""
"html-keyboard-response","33","214978","0.0-8.0-2.0-0.4","3862","1","16","Female","approach_avoid_spark_v1","""event"",""trial"",""time""
""fullscreenenter"",""1"",""2071""
""blur"",""9"",""35243""
""focus"",""9"",""43572""
""blur"",""11"",""52799""
""focus"",""11"",""60025""
","""event"",""trial"",""time""
""blur"",""9"",""35243""
""blur"",""11"",""52799""
","""event"",""trial"",""time""
""focus"",""9"",""43572""
""focus"",""11"",""60025""
","""event"",""trial"",""time""
""fullscreenenter"",""1"",""2071""
","
","","","","","","null","<div style=""font-size:60px;"">+</div>","null","","fixation","","","","","","","","","","",""
"aa-learning-trial","34","217993","0.0-8.0-2.0-1.4","3862","1","16","Female","approach_avoid_spark_v1","""event"",""trial"",""time""
""fullscreenenter"",""1"",""2071""
""blur"",""9"",""35243""
""focus"",""9"",""43572""
""blur"",""11"",""52799""
""focus"",""11"",""60025""
","""event"",""trial"",""time""
""blur"",""9"",""35243""
""blur"",""11"",""52799""
","""event"",""trial"",""time""
""focus"",""9"",""43572""
""focus"",""11"",""60025""
","""event"",""trial"",""time""
""fullscreenenter"",""1"",""2071""
","
","","","","","","627.4000000953674","images/racket4.png","","","learning","-7","-7","1","1","practice","practice","practice","-1","","",""
"html-keyboard-response","35","218501","0.0-8.0-2.0-0.5","3862","1","16","Female","approach_avoid_spark_v1","""event"",""trial"",""time""
""fullscreenenter"",""1"",""2071""
""blur"",""9"",""35243""
""focus"",""9"",""43572""
""blur"",""11"",""52799""
""focus"",""11"",""60025""
","""event"",""trial"",""time""
""blur"",""9"",""35243""
""blur"",""11"",""52799""
","""event"",""trial"",""time""
""focus"",""9"",""43572""
""focus"",""11"",""60025""
","""event"",""trial"",""time""
""fullscreenenter"",""1"",""2071""
","
","","","","","","null","<div style=""font-size:60px;"">+</div>","null","","fixation","","","","","","","","","","",""
"aa-learning-trial","36","221505","0.0-8.0-2.0-1.5","3862","1","16","Female","approach_avoid_spark_v1","""event"",""trial"",""time""
""fullscreenenter"",""1"",""2071""
""blur"",""9"",""35243""
""focus"",""9"",""43572""
""blur"",""11"",""52799""
""focus"",""11"",""60025""
","""event"",""trial"",""time""
""blur"",""9"",""35243""
""blur"",""11"",""52799""
","""event"",""trial"",""time""
""focus"",""9"",""43572""
""focus"",""11"",""60025""
","""event"",""trial"",""time""
""fullscreenenter"",""1"",""2071""
","
","","","","","","507","images/ball4.png","","","learning","-8","-8","1","1","practice","practice","practice","-1","","",""
"html-keyboard-response","37","222016","0.0-8.0-2.0-0.6","3862","1","16","Female","approach_avoid_spark_v1","""event"",""trial"",""time""
""fullscreenenter"",""1"",""2071""
""blur"",""9"",""35243""
""focus"",""9"",""43572""
""blur"",""11"",""52799""
""focus"",""11"",""60025""
","""event"",""trial"",""time""
""blur"",""9"",""35243""
""blur"",""11"",""52799""
","""event"",""trial"",""time""
""focus"",""9"",""43572""
""focus"",""11"",""60025""
","""event"",""trial"",""time""
""fullscreenenter"",""1"",""2071""
","
","","","","","","null","<div style=""font-size:60px;"">+</div>","null","","fixation","","","","","","","","","","",""
"aa-learning-trial","38","225026","0.0-8.0-2.0-1.6","3862","1","16","Female","approach_avoid_spark_v1","""event"",""trial"",""time""
""fullscreenenter"",""1"",""2071""
""blur"",""9"",""35243""
""focus"",""9"",""43572""
""blur"",""11"",""52799""
""focus"",""11"",""60025""
","""event"",""trial"",""time""
""blur"",""9"",""35243""
""blur"",""11"",""52799""
","""event"",""trial"",""time""
""focus"",""9"",""43572""
""focus"",""11"",""60025""
","""event"",""trial"",""time""
""fullscreenenter"",""1"",""2071""
","
","","","","","","812.3000001907349","images/ball3.png","","","learning","9","0","0","0","practice","practice","practice","-1","","",""
"html-keyboard-response","39","225538","0.0-8.0-2.0-0.7","3862","1","16","Female","approach_avoid_spark_v1","""event"",""trial"",""time""
""fullscreenenter"",""1"",""2071""
""blur"",""9"",""35243""
""focus"",""9"",""43572""
""blur"",""11"",""52799""
""focus"",""11"",""60025""
","""event"",""trial"",""time""
""blur"",""9"",""35243""
""blur"",""11"",""52799""
","""event"",""trial"",""time""
""focus"",""9"",""43572""
""focus"",""11"",""60025""
","""event"",""trial"",""time""
""fullscreenenter"",""1"",""2071""
","
","","","","","","null","<div style=""font-size:60px;"">+</div>","null","","fixation","","","","","","","","","","",""
"aa-learning-trial","40","228547","0.0-8.0-2.0-1.7","3862","1","16","Female","approach_avoid_spark_v1","""event"",""trial"",""time""
""fullscreenenter"",""1"",""2071""
""blur"",""9"",""35243""
""focus"",""9"",""43572""
""blur"",""11"",""52799""
""focus"",""11"",""60025""
","""event"",""trial"",""time""
""blur"",""9"",""35243""
""blur"",""11"",""52799""
","""event"",""trial"",""time""
""focus"",""9"",""43572""
""focus"",""11"",""60025""
","""event"",""trial"",""time""
""fullscreenenter"",""1"",""2071""
","
","","","","","","1014","images/ball2.png","","","learning","2","0","0","0","practice","practice","practice","-1","","",""
"html-keyboard-response","41","229056","0.0-8.0-2.0-0.8","3862","1","16","Female","approach_avoid_spark_v1","""event"",""trial"",""time""
""fullscreenenter"",""1"",""2071""
""blur"",""9"",""35243""
""focus"",""9"",""43572""
""blur"",""11"",""52799""
""focus"",""11"",""60025""
","""event"",""trial"",""time""
""blur"",""9"",""35243""
""blur"",""11"",""52799""
","""event"",""trial"",""time""
""focus"",""9"",""43572""
""focus"",""11"",""60025""
","""event"",""trial"",""time""
""fullscreenenter"",""1"",""2071""
","
","","","","","","null","<div style=""font-size:60px;"">+</div>","null","","fixation","","","","","","","","","","",""
"aa-learning-trial","42","232068","0.0-8.0-2.0-1.8","3862","1","16","Female","approach_avoid_spark_v1","""event"",""trial"",""time""
""fullscreenenter"",""1"",""2071""
""blur"",""9"",""35243""
""focus"",""9"",""43572""
""blur"",""11"",""52799""
""focus"",""11"",""60025""
","""event"",""trial"",""time""
""blur"",""9"",""35243""
""blur"",""11"",""52799""
","""event"",""trial"",""time""
""focus"",""9"",""43572""
""focus"",""11"",""60025""
","""event"",""trial"",""time""
""fullscreenenter"",""1"",""2071""
","
","","","","","","765.9000000953674","images/racket3.png","","","learning","4","4","1","1","practice","practice","practice","-1","","",""
"html-keyboard-response","43","232577","0.0-8.0-2.0-0.9","3862","1","16","Female","approach_avoid_spark_v1","""event"",""trial"",""time""
""fullscreenenter"",""1"",""2071""
""blur"",""9"",""35243""
""focus"",""9"",""43572""
""blur"",""11"",""52799""
""focus"",""11"",""60025""
","""event"",""trial"",""time""
""blur"",""9"",""35243""
""blur"",""11"",""52799""
","""event"",""trial"",""time""
""focus"",""9"",""43572""
""focus"",""11"",""60025""
","""event"",""trial"",""time""
""fullscreenenter"",""1"",""2071""
","
","","","","","","null","<div style=""font-size:60px;"">+</div>","null","","fixation","","","","","","","","","","",""
"aa-learning-trial","44","235587","0.0-8.0-2.0-1.9","3862","1","16","Female","approach_avoid_spark_v1","""event"",""trial"",""time""
""fullscreenenter"",""1"",""2071""
""blur"",""9"",""35243""
""focus"",""9"",""43572""
""blur"",""11"",""52799""
""focus"",""11"",""60025""
","""event"",""trial"",""time""
""blur"",""9"",""35243""
""blur"",""11"",""52799""
","""event"",""trial"",""time""
""focus"",""9"",""43572""
""focus"",""11"",""60025""
","""event"",""trial"",""time""
""fullscreenenter"",""1"",""2071""
","
","","","","","","583.5999999046326","images/racket4.png","","","learning","8","8","1","1","practice","practice","practice","-1","","",""
"html-keyboard-response","45","236094","0.0-8.0-2.0-0.10","3862","1","16","Female","approach_avoid_spark_v1","""event"",""trial"",""time""
""fullscreenenter"",""1"",""2071""
""blur"",""9"",""35243""
""focus"",""9"",""43572""
""blur"",""11"",""52799""
""focus"",""11"",""60025""
","""event"",""trial"",""time""
""blur"",""9"",""35243""
""blur"",""11"",""52799""
","""event"",""trial"",""time""
""focus"",""9"",""43572""
""focus"",""11"",""60025""
","""event"",""trial"",""time""
""fullscreenenter"",""1"",""2071""
","
","","","","","","null","<div style=""font-size:60px;"">+</div>","null","","fixation","","","","","","","","","","",""
"aa-learning-trial","46","239105","0.0-8.0-2.0-1.10","3862","1","16","Female","approach_avoid_spark_v1","""event"",""trial"",""time""
""fullscreenenter"",""1"",""2071""
""blur"",""9"",""35243""
""focus"",""9"",""43572""
""blur"",""11"",""52799""
""focus"",""11"",""60025""
","""event"",""trial"",""time""
""blur"",""9"",""35243""
""blur"",""11"",""52799""
","""event"",""trial"",""time""
""focus"",""9"",""43572""
""focus"",""11"",""60025""
","""event"",""trial"",""time""
""fullscreenenter"",""1"",""2071""
","
","","","","","","563.5","images/racket1.png","","","learning","-6","0","0","0","practice","practice","practice","-1","","",""
"html-keyboard-response","47","239608","0.0-8.0-2.0-0.11","3862","1","16","Female","approach_avoid_spark_v1","""event"",""trial"",""time""
""fullscreenenter"",""1"",""2071""
""blur"",""9"",""35243""
""focus"",""9"",""43572""
""blur"",""11"",""52799""
""focus"",""11"",""60025""
","""event"",""trial"",""time""
""blur"",""9"",""35243""
""blur"",""11"",""52799""
","""event"",""trial"",""time""
""focus"",""9"",""43572""
""focus"",""11"",""60025""
","""event"",""trial"",""time""
""fullscreenenter"",""1"",""2071""
","
","","","","","","null","<div style=""font-size:60px;"">+</div>","null","","fixation","","","","","","","","","","",""
"aa-learning-trial","48","242615","0.0-8.0-2.0-1.11","3862","1","16","Female","approach_avoid_spark_v1","""event"",""trial"",""time""
""fullscreenenter"",""1"",""2071""
""blur"",""9"",""35243""
""focus"",""9"",""43572""
""blur"",""11"",""52799""
""focus"",""11"",""60025""
","""event"",""trial"",""time""
""blur"",""9"",""35243""
""blur"",""11"",""52799""
","""event"",""trial"",""time""
""focus"",""9"",""43572""
""focus"",""11"",""60025""
","""event"",""trial"",""time""
""fullscreenenter"",""1"",""2071""
","
","","","","","","924.5","images/ball4.png","","","learning","4","0","0","0","practice","practice","practice","-1","","",""
"html-button-response","49","246144","0.0-8.0-3.0","3862","1","16","Female","approach_avoid_spark_v1","""event"",""trial"",""time""
""fullscreenenter"",""1"",""2071""
""blur"",""9"",""35243""
""focus"",""9"",""43572""
""blur"",""11"",""52799""
""focus"",""11"",""60025""
","""event"",""trial"",""time""
""blur"",""9"",""35243""
""blur"",""11"",""52799""
","""event"",""trial"",""time""
""focus"",""9"",""43572""
""focus"",""11"",""60025""
","""event"",""trial"",""time""
""fullscreenenter"",""1"",""2071""
","
","","","","","","3526.0999999046326","<p> You earned -13 points in the practice round! </p>","0","","break","","","","","","","","","","",""
"learning-instructions","50","253347","0.0-8.0-4.0-0.0","3862","1","16","Female","approach_avoid_spark_v1","""event"",""trial"",""time""
""fullscreenenter"",""1"",""2071""
""blur"",""9"",""35243""
""focus"",""9"",""43572""
""blur"",""11"",""52799""
""focus"",""11"",""60025""
","""event"",""trial"",""time""
""blur"",""9"",""35243""
""blur"",""11"",""52799""
","""event"",""trial"",""time""
""focus"",""9"",""43572""
""focus"",""11"",""60025""
","""event"",""trial"",""time""
""fullscreenenter"",""1"",""2071""
","
","","","","","","1248.2999997138977","<p> It's almost time to start the real game. </p><p> Before you start, we're going to ask you a few questions about how the game works. </p>","","0","instructions","","","","","","","","","","",""
"preload","51","256891","0.0-8.0-5.0","3862","1","16","Female","approach_avoid_spark_v1","""event"",""trial"",""time""
""fullscreenenter"",""1"",""2071""
""blur"",""9"",""35243""
""focus"",""9"",""43572""
""blur"",""11"",""52799""
""focus"",""11"",""60025""
","""event"",""trial"",""time""
""blur"",""9"",""35243""
""blur"",""11"",""52799""
","""event"",""trial"",""time""
""focus"",""9"",""43572""
""focus"",""11"",""60025""
","""event"",""trial"",""time""
""fullscreenenter"",""1"",""2071""
","
","true","false","[]","[]","[]","","","","","","","","","","","","","","","",""
"comp-q","52","262795","0.0-8.0-6.0-0.0","3862","1","16","Female","approach_avoid_spark_v1","""event"",""trial"",""time""
""fullscreenenter"",""1"",""2071""
""blur"",""9"",""35243""
""focus"",""9"",""43572""
""blur"",""11"",""52799""
""focus"",""11"",""60025""
","""event"",""trial"",""time""
""blur"",""9"",""35243""
""blur"",""11"",""52799""
","""event"",""trial"",""time""
""focus"",""9"",""43572""
""focus"",""11"",""60025""
","""event"",""trial"",""time""
""fullscreenenter"",""1"",""2071""
","
","","","","","","906.3000001907349","<p> <b> True or False? </b> </p><p> If you see a number in GREY, that means you earned that many points. </p>","","1","comp_question","","","","","","","","","true","",""
"comp-q","53","273782","0.0-8.0-6.0-1.0","3862","1","16","Female","approach_avoid_spark_v1","""event"",""trial"",""time""
""fullscreenenter"",""1"",""2071""
""blur"",""9"",""35243""
""focus"",""9"",""43572""
""blur"",""11"",""52799""
""focus"",""11"",""60025""
","""event"",""trial"",""time""
""blur"",""9"",""35243""
""blur"",""11"",""52799""
","""event"",""trial"",""time""
""focus"",""9"",""43572""
""focus"",""11"",""60025""
","""event"",""trial"",""time""
""fullscreenenter"",""1"",""2071""
","
","","","","","","2623.7000002861023","<p><b> That's right! </b> If you see a grey number, it means you earned ZERO points. <br> The grey numbers show the points you WOULD HAVE earned if you had made the other choice. </p>","","0","comp_answer","","","","","","","","","","",""
"comp-q","54","284666","0.0-8.0-7.0-0.0","3862","1","16","Female","approach_avoid_spark_v1","""event"",""trial"",""time""
""fullscreenenter"",""1"",""2071""
""blur"",""9"",""35243""
""focus"",""9"",""43572""
""blur"",""11"",""52799""
""focus"",""11"",""60025""
","""event"",""trial"",""time""
""blur"",""9"",""35243""
""blur"",""11"",""52799""
","""event"",""trial"",""time""
""focus"",""9"",""43572""
""focus"",""11"",""60025""
","""event"",""trial"",""time""
""fullscreenenter"",""1"",""2071""
","
","","","","","","6187.900000095367","<p> <b> True or False? </b> </p><p> You will have as much time as you want to make each choice. </p>","","1","comp_question","","","","","","","","","true","",""
"comp-q","55","289821","0.0-8.0-7.0-1.0","3862","1","16","Female","approach_avoid_spark_v1","""event"",""trial"",""time""
""fullscreenenter"",""1"",""2071""
""blur"",""9"",""35243""
""focus"",""9"",""43572""
""blur"",""11"",""52799""
""focus"",""11"",""60025""
","""event"",""trial"",""time""
""blur"",""9"",""35243""
""blur"",""11"",""52799""
","""event"",""trial"",""time""
""focus"",""9"",""43572""
""focus"",""11"",""60025""
","""event"",""trial"",""time""
""fullscreenenter"",""1"",""2071""
","
","","","","","","1112.1999998092651","<p> <b> That's right! </b> You will only have 3 seconds to make each choice. </p>","","0","comp_answer","","","","","","","","","","",""
"comp-q","56","299958","0.0-8.0-8.0-0.0","3862","1","16","Female","approach_avoid_spark_v1","""event"",""trial"",""time""
""fullscreenenter"",""1"",""2071""
""blur"",""9"",""35243""
""focus"",""9"",""43572""
""blur"",""11"",""52799""
""focus"",""11"",""60025""
","""event"",""trial"",""time""
""blur"",""9"",""35243""
""blur"",""11"",""52799""
","""event"",""trial"",""time""
""focus"",""9"",""43572""
""focus"",""11"",""60025""
","""event"",""trial"",""time""
""fullscreenenter"",""1"",""2071""
","
","","","","","","5470.099999904633","<p> <b> True or False? </b> </p><p> You should use the '1' and '0' keys to make your choices. </p>","","0","comp_question","","","","","","","","","true","",""
"comp-q","57","305479","0.0-8.0-8.0-1.0","3862","1","16","Female","approach_avoid_spark_v1","""event"",""trial"",""time""
""fullscreenenter"",""1"",""2071""
""blur"",""9"",""35243""
""focus"",""9"",""43572""
""blur"",""11"",""52799""
""focus"",""11"",""60025""
","""event"",""trial"",""time""
""blur"",""9"",""35243""
""blur"",""11"",""52799""
","""event"",""trial"",""time""
""focus"",""9"",""43572""
""focus"",""11"",""60025""
","""event"",""trial"",""time""
""fullscreenenter"",""1"",""2071""
","
","","","","","","912","<p> <b> That's right! </b> You should use the '1' and '0' keys to make each choice. </p>","","0","comp_answer","","","","","","","","","","",""
"learning-instructions","58","316224","0.0-8.0-9.0-0.0","3862","1","16","Female","approach_avoid_spark_v1","""event"",""trial"",""time""
""fullscreenenter"",""1"",""2071""
""blur"",""9"",""35243""
""focus"",""9"",""43572""
""blur"",""11"",""52799""
""focus"",""11"",""60025""
","""event"",""trial"",""time""
""blur"",""9"",""35243""
""blur"",""11"",""52799""
","""event"",""trial"",""time""
""focus"",""9"",""43572""
""focus"",""11"",""60025""
","""event"",""trial"",""time""
""fullscreenenter"",""1"",""2071""
","
","","","","","","4476.400000095367","<p> It's now time to start the real game. </p>Do your best, because the points you earn in the next rounds will influence your bonus payment. </p>","","0","instructions","","","","","","","","","","",""
"preload","59","316346","0.0-9.0-0.0","3862","1","16","Female","approach_avoid_spark_v1","""event"",""trial"",""time""
""fullscreenenter"",""1"",""2071""
""blur"",""9"",""35243""
""focus"",""9"",""43572""
""blur"",""11"",""52799""
""focus"",""11"",""60025""
","""event"",""trial"",""time""
""blur"",""9"",""35243""
""blur"",""11"",""52799""
","""event"",""trial"",""time""
""focus"",""9"",""43572""
""focus"",""11"",""60025""
","""event"",""trial"",""time""
""fullscreenenter"",""1"",""2071""
","
","true","false","[]","[]","[]","","","","","","","","","","","","","","","",""
"learning-instructions","60","321745","0.0-9.0-1.0-0.0","3862","1","16","Female","approach_avoid_spark_v1","""event"",""trial"",""time""
""fullscreenenter"",""1"",""2071""
""blur"",""9"",""35243""
""focus"",""9"",""43572""
""blur"",""11"",""52799""
""focus"",""11"",""60025""
","""event"",""trial"",""time""
""blur"",""9"",""35243""
""blur"",""11"",""52799""
","""event"",""trial"",""time""
""focus"",""9"",""43572""
""focus"",""11"",""60025""
","""event"",""trial"",""time""
""fullscreenenter"",""1"",""2071""
","
","","","","","","1296.2999997138977","<p> Your goal in this round is to take care of lots of farm animals. </p></div>","","0","instructions","","","","","","","","","","",""
"learning-instructions","61","332241","0.0-9.0-1.0-0.1","3862","1","16","Female","approach_avoid_spark_v1","""event"",""trial"",""time""
""fullscreenenter"",""1"",""2071""
""blur"",""9"",""35243""
""focus"",""9"",""43572""
""blur"",""11"",""52799""
""focus"",""11"",""60025""
","""event"",""trial"",""time""
""blur"",""9"",""35243""
""blur"",""11"",""52799""
","""event"",""trial"",""time""
""focus"",""9"",""43572""
""focus"",""11"",""60025""
","""event"",""trial"",""time""
""fullscreenenter"",""1"",""2071""
","
","","","","","","572.5","<p> Some farm animals are hungry, while other farm animals are already full.  </p><p> On each turn, you will see a farm animal.   </p><p> You need to decide whether to feed it or not.  </p>","","0","instructions","","","","","","","","","","",""
"learning-instructions","62","338997","0.0-9.0-1.0-0.2","3862","1","16","Female","approach_avoid_spark_v1","""event"",""trial"",""time""
""fullscreenenter"",""1"",""2071""
""blur"",""9"",""35243""
""focus"",""9"",""43572""
""blur"",""11"",""52799""
""focus"",""11"",""60025""
","""event"",""trial"",""time""
""blur"",""9"",""35243""
""blur"",""11"",""52799""
","""event"",""trial"",""time""
""focus"",""9"",""43572""
""focus"",""11"",""60025""
","""event"",""trial"",""time""
""fullscreenenter"",""1"",""2071""
","
","","","","","","907.6999998092651","<p> You can feed the farm animal by pressing 1 and leave the farm animal alone by pressing 0. </p><br><div class=""choice-instructions-grid""> <div class=""choice-option""><img src=""images/approach.png"" class=""choice-option-img"" stage=""instructions"" position=""0"" ><div class=""choice-option-text""> Press ""1."" </div></div><div class=""choice-option""><img src=""images/avoid.png"" class=""choice-option-img"" stage=""instructions"" position=""1"" ><div class=""choice-option-text""> Press ""0."" </div></div>","","0","instructions","","","","","","","","","","",""
"learning-instructions","63","349062","0.0-9.0-1.0-0.3","3862","1","16","Female","approach_avoid_spark_v1","""event"",""trial"",""time""
""fullscreenenter"",""1"",""2071""
""blur"",""9"",""35243""
""focus"",""9"",""43572""
""blur"",""11"",""52799""
""focus"",""11"",""60025""
","""event"",""trial"",""time""
""blur"",""9"",""35243""
""blur"",""11"",""52799""
","""event"",""trial"",""time""
""focus"",""9"",""43572""
""focus"",""11"",""60025""
","""event"",""trial"",""time""
""fullscreenenter"",""1"",""2071""
","
","","","","","","654.8000001907349","<p> If you feed a hungry farm animal, you will make it feel satisfied! </p><p> But if you feed the farm animal and it was already full, you will make it feel sick. </p>","","0","instructions","","","","","","","","","","",""
"learning-instructions","64","362034","0.0-9.0-1.0-0.4","3862","1","16","Female","approach_avoid_spark_v1","""event"",""trial"",""time""
""fullscreenenter"",""1"",""2071""
""blur"",""9"",""35243""
""focus"",""9"",""43572""
""blur"",""11"",""52799""
""focus"",""11"",""60025""
","""event"",""trial"",""time""
""blur"",""9"",""35243""
""blur"",""11"",""52799""
","""event"",""trial"",""time""
""focus"",""9"",""43572""
""focus"",""11"",""60025""
","""event"",""trial"",""time""
""fullscreenenter"",""1"",""2071""
","
","","","","","","585.4000000953674","<p> You will earn points based on how you made the farm animal feel. </p><p> If you made it satisfied, you will WIN anywhere from 1 - 9 points, </p><p> but if you made it sick, you will LOSE anywhere from 1 - 9 points. </p>","","0","instructions","","","","","","","","","","",""
"learning-instructions","65","370002","0.0-9.0-1.0-0.5","3862","1","16","Female","approach_avoid_spark_v1","""event"",""trial"",""time""
""fullscreenenter"",""1"",""2071""
""blur"",""9"",""35243""
""focus"",""9"",""43572""
""blur"",""11"",""52799""
""focus"",""11"",""60025""
","""event"",""trial"",""time""
""blur"",""9"",""35243""
""blur"",""11"",""52799""
","""event"",""trial"",""time""
""focus"",""9"",""43572""
""focus"",""11"",""60025""
","""event"",""trial"",""time""
""fullscreenenter"",""1"",""2071""
","
","","","","","","582.9000000953674","<p> You will see how many points you won or lost in the center of the screen. </p><p> Here is what you would see if you won 5 points: </p><p style=""color:green;font-size:50px;font-weight:bolder"">5</p>","","0","instructions","","","","","","","","","","",""
"learning-instructions","66","373949","0.0-9.0-1.0-0.6","3862","1","16","Female","approach_avoid_spark_v1","""event"",""trial"",""time""
""fullscreenenter"",""1"",""2071""
""blur"",""9"",""35243""
""focus"",""9"",""43572""
""blur"",""11"",""52799""
""focus"",""11"",""60025""
","""event"",""trial"",""time""
""blur"",""9"",""35243""
""blur"",""11"",""52799""
","""event"",""trial"",""time""
""focus"",""9"",""43572""
""focus"",""11"",""60025""
","""event"",""trial"",""time""
""fullscreenenter"",""1"",""2071""
","
","","","","","","651.4000000953674","<p> And here is what you would see if you lost 3 points: </p><p style=""color:red;font-size:50px;font-weight:bolder"">-3</p>","","0","instructions","","","","","","","","","","",""
"learning-instructions","67","391334","0.0-9.0-1.0-0.7","3862","1","16","Female","approach_avoid_spark_v1","""event"",""trial"",""time""
""fullscreenenter"",""1"",""2071""
""blur"",""9"",""35243""
""focus"",""9"",""43572""
""blur"",""11"",""52799""
""focus"",""11"",""60025""
","""event"",""trial"",""time""
""blur"",""9"",""35243""
""blur"",""11"",""52799""
","""event"",""trial"",""time""
""focus"",""9"",""43572""
""focus"",""11"",""60025""
","""event"",""trial"",""time""
""fullscreenenter"",""1"",""2071""
","
","","","","","","1907.5","<p> Some farm animals will become very satisfied or very sick. </p><p> These farm animals will make you win or lose LOTS of points. </p><p> Other farm animals have less strong feelings. </p><p> These farm animals will make you win or lose small amounts of points. </p>","","0","instructions","","","","","","","","","","",""
"learning-instructions","68","412386","0.0-9.0-1.0-0.8","3862","1","16","Female","approach_avoid_spark_v1","""event"",""trial"",""time""
""fullscreenenter"",""1"",""2071""
""blur"",""9"",""35243""
""focus"",""9"",""43572""
""blur"",""11"",""52799""
""focus"",""11"",""60025""
","""event"",""trial"",""time""
""blur"",""9"",""35243""
""blur"",""11"",""52799""
","""event"",""trial"",""time""
""focus"",""9"",""43572""
""focus"",""11"",""60025""
","""event"",""trial"",""time""
""fullscreenenter"",""1"",""2071""
","
","","","","","","9068.5","<p> If you choose to leave the farm animal alone, you will not win or lose any points. </p><p>  However, in the center of the screen, you will see the number of points you WOULD HAVE won or lost if you had fed the farm animal. </p>","","0","instructions","","","","","","","","","","",""
"learning-instructions","69","424139","0.0-9.0-1.0-0.9","3862","1","16","Female","approach_avoid_spark_v1","""event"",""trial"",""time""
""fullscreenenter"",""1"",""2071""
""blur"",""9"",""35243""
""focus"",""9"",""43572""
""blur"",""11"",""52799""
""focus"",""11"",""60025""
","""event"",""trial"",""time""
""blur"",""9"",""35243""
""blur"",""11"",""52799""
","""event"",""trial"",""time""
""focus"",""9"",""43572""
""focus"",""11"",""60025""
","""event"",""trial"",""time""
""fullscreenenter"",""1"",""2071""
","
","","","","","","480.90000009536743","<p> Here is what you might see if you did not feed the farm animal but the animal was hungry: </p><p style=""color:grey; font-size:50px; display: inline-block; border-spacing: 15px; border-width:3px; border-style:solid; border-color:red"">  &nbsp; 6 &nbsp; </p><p> Remember, in this case, you would not win or lose ANY points because you did not feed the farm animal.  </p>","","0","instructions","","","","","","","","","","",""
"learning-instructions","70","432255","0.0-9.0-1.0-0.10","3862","1","16","Female","approach_avoid_spark_v1","""event"",""trial"",""time""
""fullscreenenter"",""1"",""2071""
""blur"",""9"",""35243""
""focus"",""9"",""43572""
""blur"",""11"",""52799""
""focus"",""11"",""60025""
","""event"",""trial"",""time""
""blur"",""9"",""35243""
""blur"",""11"",""52799""
","""event"",""trial"",""time""
""focus"",""9"",""43572""
""focus"",""11"",""60025""
","""event"",""trial"",""time""
""fullscreenenter"",""1"",""2071""
","
","","","","","","497.40000009536743","<p> Try to make the best choice for each farm animal because </p><p> at the end of the game, you will earn bonus money based on how many points you earned. </p>","","0","instructions","","","","","","","","","","",""
"learning-instructions","71","457043","0.0-9.0-1.0-0.11","3862","1","16","Female","approach_avoid_spark_v1","""event"",""trial"",""time""
""fullscreenenter"",""1"",""2071""
""blur"",""9"",""35243""
""focus"",""9"",""43572""
""blur"",""11"",""52799""
""focus"",""11"",""60025""
","""event"",""trial"",""time""
""blur"",""9"",""35243""
""blur"",""11"",""52799""
","""event"",""trial"",""time""
""focus"",""9"",""43572""
""focus"",""11"",""60025""
","""event"",""trial"",""time""
""fullscreenenter"",""1"",""2071""
","
","","","","","","16594.900000095367","<p> You will have 3 seconds to make each choice. Try to respond before time runs out! </p><p> You will lose 5 points each time you do not make a response. </p>","","0","instructions","","","","","","","","","","",""
"html-keyboard-response","72","457652","0.0-9.0-2.0-0.0","3862","1","16","Female","approach_avoid_spark_v1","""event"",""trial"",""time""
""fullscreenenter"",""1"",""2071""
""blur"",""9"",""35243""
""focus"",""9"",""43572""
""blur"",""11"",""52799""
""focus"",""11"",""60025""
","""event"",""trial"",""time""
""blur"",""9"",""35243""
""blur"",""11"",""52799""
","""event"",""trial"",""time""
""focus"",""9"",""43572""
""focus"",""11"",""60025""
","""event"",""trial"",""time""
""fullscreenenter"",""1"",""2071""
","
","","","","","","null","<div style=""font-size:60px;"">+</div>","null","","fixation","","","","","","","","","","",""
"aa-learning-trial","73","460664","0.0-9.0-2.0-1.0","3862","1","16","Female","approach_avoid_spark_v1","""event"",""trial"",""time""
""fullscreenenter"",""1"",""2071""
""blur"",""9"",""35243""
""focus"",""9"",""43572""
""blur"",""11"",""52799""
""focus"",""11"",""60025""
","""event"",""trial"",""time""
""blur"",""9"",""35243""
""blur"",""11"",""52799""
","""event"",""trial"",""time""
""focus"",""9"",""43572""
""focus"",""11"",""60025""
","""event"",""trial"",""time""
""fullscreenenter"",""1"",""2071""
","
","","","","","","1380.4000000953674","images/goat8.png","","","learning","1","0","0","0","goat","animals","1","0","","neutral","0"
"html-keyboard-response","74","461166","0.0-9.0-2.0-0.1","3862","1","16","Female","approach_avoid_spark_v1","""event"",""trial"",""time""
""fullscreenenter"",""1"",""2071""
""blur"",""9"",""35243""
""focus"",""9"",""43572""
""blur"",""11"",""52799""
""focus"",""11"",""60025""
","""event"",""trial"",""time""
""blur"",""9"",""35243""
""blur"",""11"",""52799""
","""event"",""trial"",""time""
""focus"",""9"",""43572""
""focus"",""11"",""60025""
","""event"",""trial"",""time""
""fullscreenenter"",""1"",""2071""
","
","","","","","","null","<div style=""font-size:60px;"">+</div>","null","","fixation","","","","","","","","","","",""
"aa-learning-trial","75","464182","0.0-9.0-2.0-1.1","3862","1","16","Female","approach_avoid_spark_v1","""event"",""trial"",""time""
""fullscreenenter"",""1"",""2071""
""blur"",""9"",""35243""
""focus"",""9"",""43572""
""blur"",""11"",""52799""
""focus"",""11"",""60025""
","""event"",""trial"",""time""
""blur"",""9"",""35243""
""blur"",""11"",""52799""
","""event"",""trial"",""time""
""focus"",""9"",""43572""
""focus"",""11"",""60025""
","""event"",""trial"",""time""
""fullscreenenter"",""1"",""2071""
","
","","","","","","768.4000000953674","images/goat2.png","","","learning","[-1]","0","0","0","goat","animals","1","0","","neutral","0"
"html-keyboard-response","76","464688","0.0-9.0-2.0-0.2","3862","1","16","Female","approach_avoid_spark_v1","""event"",""trial"",""time""
""fullscreenenter"",""1"",""2071""
""blur"",""9"",""35243""
""focus"",""9"",""43572""
""blur"",""11"",""52799""
""focus"",""11"",""60025""
","""event"",""trial"",""time""
""blur"",""9"",""35243""
""blur"",""11"",""52799""
","""event"",""trial"",""time""
""focus"",""9"",""43572""
""focus"",""11"",""60025""
","""event"",""trial"",""time""
""fullscreenenter"",""1"",""2071""
","
","","","","","","null","<div style=""font-size:60px;"">+</div>","null","","fixation","","","","","","","","","","",""
"aa-learning-trial","77","467696","0.0-9.0-2.0-1.2","3862","1","16","Female","approach_avoid_spark_v1","""event"",""trial"",""time""
""fullscreenenter"",""1"",""2071""
""blur"",""9"",""35243""
""focus"",""9"",""43572""
""blur"",""11"",""52799""
""focus"",""11"",""60025""
","""event"",""trial"",""time""
""blur"",""9"",""35243""
""blur"",""11"",""52799""
","""event"",""trial"",""time""
""focus"",""9"",""43572""
""focus"",""11"",""60025""
","""event"",""trial"",""time""
""fullscreenenter"",""1"",""2071""
","
","","","","","","896.4000000953674","images/horse3.png","","","learning","-4","-4","1","1","horse","animals","1","0","","bad","[-3]"
"html-keyboard-response","78","468205","0.0-9.0-2.0-0.3","3862","1","16","Female","approach_avoid_spark_v1","""event"",""trial"",""time""
""fullscreenenter"",""1"",""2071""
""blur"",""9"",""35243""
""focus"",""9"",""43572""
""blur"",""11"",""52799""
""focus"",""11"",""60025""
","""event"",""trial"",""time""
""blur"",""9"",""35243""
""blur"",""11"",""52799""
","""event"",""trial"",""time""
""focus"",""9"",""43572""
""focus"",""11"",""60025""
","""event"",""trial"",""time""
""fullscreenenter"",""1"",""2071""
","
","","","","","","null","<div style=""font-size:60px;"">+</div>","null","","fixation","","","","","","","","","","",""
"aa-learning-trial","79","471217","0.0-9.0-2.0-1.3","3862","1","16","Female","approach_avoid_spark_v1","""event"",""trial"",""time""
""fullscreenenter"",""1"",""2071""
""blur"",""9"",""35243""
""focus"",""9"",""43572""
""blur"",""11"",""52799""
""focus"",""11"",""60025""
","""event"",""trial"",""time""
""blur"",""9"",""35243""
""blur"",""11"",""52799""
","""event"",""trial"",""time""
""focus"",""9"",""43572""
""focus"",""11"",""60025""
","""event"",""trial"",""time""
""fullscreenenter"",""1"",""2071""
","
","","","","","","825.5","images/horse1.png","","","learning","-3","0","0","0","horse","animals","1","0","","bad","[-3]"
"html-keyboard-response","80","471725","0.0-9.0-2.0-0.4","3862","1","16","Female","approach_avoid_spark_v1","""event"",""trial"",""time""
""fullscreenenter"",""1"",""2071""
""blur"",""9"",""35243""
""focus"",""9"",""43572""
""blur"",""11"",""52799""
""focus"",""11"",""60025""
","""event"",""trial"",""time""
""blur"",""9"",""35243""
""blur"",""11"",""52799""
","""event"",""trial"",""time""
""focus"",""9"",""43572""
""focus"",""11"",""60025""
","""event"",""trial"",""time""
""fullscreenenter"",""1"",""2071""
","
","","","","","","null","<div style=""font-size:60px;"">+</div>","null","","fixation","","","","","","","","","","",""
"aa-learning-trial","81","474736","0.0-9.0-2.0-1.4","3862","1","16","Female","approach_avoid_spark_v1","""event"",""trial"",""time""
""fullscreenenter"",""1"",""2071""
""blur"",""9"",""35243""
""focus"",""9"",""43572""
""blur"",""11"",""52799""
""focus"",""11"",""60025""
","""event"",""trial"",""time""
""blur"",""9"",""35243""
""blur"",""11"",""52799""
","""event"",""trial"",""time""
""focus"",""9"",""43572""
""focus"",""11"",""60025""
","""event"",""trial"",""time""
""fullscreenenter"",""1"",""2071""
","
","","","","","","650.8999996185303","images/goat8.png","","","learning","-2","-2","1","1","goat","animals","1","0","","neutral","0"
"html-keyboard-response","82","475245","0.0-9.0-2.0-0.5","3862","1","16","Female","approach_avoid_spark_v1","""event"",""trial"",""time""
""fullscreenenter"",""1"",""2071""
""blur"",""9"",""35243""
""focus"",""9"",""43572""
""blur"",""11"",""52799""
""focus"",""11"",""60025""
","""event"",""trial"",""time""
""blur"",""9"",""35243""
""blur"",""11"",""52799""
","""event"",""trial"",""time""
""focus"",""9"",""43572""
""focus"",""11"",""60025""
","""event"",""trial"",""time""
""fullscreenenter"",""1"",""2071""
","
","","","","","","null","<div style=""font-size:60px;"">+</div>","null","","fixation","","","","","","","","","","",""
"aa-learning-trial","83","478258","0.0-9.0-2.0-1.5","3862","1","16","Female","approach_avoid_spark_v1","""event"",""trial"",""time""
""fullscreenenter"",""1"",""2071""
""blur"",""9"",""35243""
""focus"",""9"",""43572""
""blur"",""11"",""52799""
""focus"",""11"",""60025""
","""event"",""trial"",""time""
""blur"",""9"",""35243""
""blur"",""11"",""52799""
","""event"",""trial"",""time""
""focus"",""9"",""43572""
""focus"",""11"",""60025""
","""event"",""trial"",""time""
""fullscreenenter"",""1"",""2071""
","
","","","","","","629.3999996185303","images/cow6.png","","","learning","2","2","1","1","cow","animals","1","0","","good","[5]"
"html-keyboard-response","84","478766","0.0-9.0-2.0-0.6","3862","1","16","Female","approach_avoid_spark_v1","""event"",""trial"",""time""
""fullscreenenter"",""1"",""2071""
""blur"",""9"",""35243""
""focus"",""9"",""43572""
""blur"",""11"",""52799""
""focus"",""11"",""60025""
","""event"",""trial"",""time""
""blur"",""9"",""35243""
""blur"",""11"",""52799""
","""event"",""trial"",""time""
""focus"",""9"",""43572""
""focus"",""11"",""60025""
","""event"",""trial"",""time""
""fullscreenenter"",""1"",""2071""
","
","","","","","","null","<div style=""font-size:60px;"">+</div>","null","","fixation","","","","","","","","","","",""
"aa-learning-trial","85","481779","0.0-9.0-2.0-1.6","3862","1","16","Female","approach_avoid_spark_v1","""event"",""trial"",""time""
""fullscreenenter"",""1"",""2071""
""blur"",""9"",""35243""
""focus"",""9"",""43572""
""blur"",""11"",""52799""
""focus"",""11"",""60025""
","""event"",""trial"",""time""
""blur"",""9"",""35243""
""blur"",""11"",""52799""
","""event"",""trial"",""time""
""focus"",""9"",""43572""
""focus"",""11"",""60025""
","""event"",""trial"",""time""
""fullscreenenter"",""1"",""2071""
","
","","","","","","713.5999999046326","images/cow1.png","","","learning","3","3","1","1","cow","animals","1","0","","good","[5]"
"html-keyboard-response","86","482286","0.0-9.0-2.0-0.7","3862","1","16","Female","approach_avoid_spark_v1","""event"",""trial"",""time""
""fullscreenenter"",""1"",""2071""
""blur"",""9"",""35243""
""focus"",""9"",""43572""
""blur"",""11"",""52799""
""focus"",""11"",""60025""
","""event"",""trial"",""time""
""blur"",""9"",""35243""
""blur"",""11"",""52799""
","""event"",""trial"",""time""
""focus"",""9"",""43572""
""focus"",""11"",""60025""
","""event"",""trial"",""time""
""fullscreenenter"",""1"",""2071""
","
","","","","","","null","<div style=""font-size:60px;"">+</div>","null","","fixation","","","","","","","","","","",""
"aa-learning-trial","87","485292","0.0-9.0-2.0-1.7","3862","1","16","Female","approach_avoid_spark_v1","""event"",""trial"",""time""
""fullscreenenter"",""1"",""2071""
""blur"",""9"",""35243""
""focus"",""9"",""43572""
""blur"",""11"",""52799""
""focus"",""11"",""60025""
","""event"",""trial"",""time""
""blur"",""9"",""35243""
""blur"",""11"",""52799""
","""event"",""trial"",""time""
""focus"",""9"",""43572""
""focus"",""11"",""60025""
","""event"",""trial"",""time""
""fullscreenenter"",""1"",""2071""
","
","","","","","","561","images/cow4.png","","","learning","7","7","1","1","cow","animals","1","0","","good","[5]"
"html-keyboard-response","88","485799","0.0-9.0-2.0-0.8","3862","1","16","Female","approach_avoid_spark_v1","""event"",""trial"",""time""
""fullscreenenter"",""1"",""2071""
""blur"",""9"",""35243""
""focus"",""9"",""43572""
""blur"",""11"",""52799""
""focus"",""11"",""60025""
","""event"",""trial"",""time""
""blur"",""9"",""35243""
""blur"",""11"",""52799""
","""event"",""trial"",""time""
""focus"",""9"",""43572""
""focus"",""11"",""60025""
","""event"",""trial"",""time""
""fullscreenenter"",""1"",""2071""
","
","","","","","","null","<div style=""font-size:60px;"">+</div>","null","","fixation","","","","","","","","","","",""
"aa-learning-trial","89","488804","0.0-9.0-2.0-1.8","3862","1","16","Female","approach_avoid_spark_v1","""event"",""trial"",""time""
""fullscreenenter"",""1"",""2071""
""blur"",""9"",""35243""
""focus"",""9"",""43572""
""blur"",""11"",""52799""
""focus"",""11"",""60025""
","""event"",""trial"",""time""
""blur"",""9"",""35243""
""blur"",""11"",""52799""
","""event"",""trial"",""time""
""focus"",""9"",""43572""
""focus"",""11"",""60025""
","""event"",""trial"",""time""
""fullscreenenter"",""1"",""2071""
","
","","","","","","590.9000000953674","images/horse3.png","","","learning","-4","0","0","0","horse","animals","1","0","","bad","[-3]"
"html-keyboard-response","90","489308","0.0-9.0-2.0-0.9","3862","1","16","Female","approach_avoid_spark_v1","""event"",""trial"",""time""
""fullscreenenter"",""1"",""2071""
""blur"",""9"",""35243""
""focus"",""9"",""43572""
""blur"",""11"",""52799""
""focus"",""11"",""60025""
","""event"",""trial"",""time""
""blur"",""9"",""35243""
""blur"",""11"",""52799""
","""event"",""trial"",""time""
""focus"",""9"",""43572""
""focus"",""11"",""60025""
","""event"",""trial"",""time""
""fullscreenenter"",""1"",""2071""
","
","","","","","","null","<div style=""font-size:60px;"">+</div>","null","","fixation","","","","","","","","","","",""
"aa-learning-trial","91","492317","0.0-9.0-2.0-1.9","3862","1","16","Female","approach_avoid_spark_v1","""event"",""trial"",""time""
""fullscreenenter"",""1"",""2071""
""blur"",""9"",""35243""
""focus"",""9"",""43572""
""blur"",""11"",""52799""
""focus"",""11"",""60025""
","""event"",""trial"",""time""
""blur"",""9"",""35243""
""blur"",""11"",""52799""
","""event"",""trial"",""time""
""focus"",""9"",""43572""
""focus"",""11"",""60025""
","""event"",""trial"",""time""
""fullscreenenter"",""1"",""2071""
","
","","","","","","430.80000019073486","images/horse8.png","","","learning","-1","0","0","0","horse","animals","1","0","","bad","[-3]"
"html-keyboard-response","92","492824","0.0-9.0-2.0-0.10","3862","1","16","Female","approach_avoid_spark_v1","""event"",""trial"",""time""
""fullscreenenter"",""1"",""2071""
""blur"",""9"",""35243""
""focus"",""9"",""43572""
""blur"",""11"",""52799""
""focus"",""11"",""60025""
","""event"",""trial"",""time""
""blur"",""9"",""35243""
""blur"",""11"",""52799""
","""event"",""trial"",""time""
""focus"",""9"",""43572""
""focus"",""11"",""60025""
","""event"",""trial"",""time""
""fullscreenenter"",""1"",""2071""
","
","","","","","","null","<div style=""font-size:60px;"">+</div>","null","","fixation","","","","","","","","","","",""
"aa-learning-trial","93","495836","0.0-9.0-2.0-1.10","3862","1","16","Female","approach_avoid_spark_v1","""event"",""trial"",""time""
""fullscreenenter"",""1"",""2071""
""blur"",""9"",""35243""
""focus"",""9"",""43572""
""blur"",""11"",""52799""
""focus"",""11"",""60025""
","""event"",""trial"",""time""
""blur"",""9"",""35243""
""blur"",""11"",""52799""
","""event"",""trial"",""time""
""focus"",""9"",""43572""
""focus"",""11"",""60025""
","""event"",""trial"",""time""
""fullscreenenter"",""1"",""2071""
","
","","","","","","460","images/goat7.png","","","learning","-4","0","0","0","goat","animals","1","0","","neutral","0"
"html-keyboard-response","94","496346","0.0-9.0-2.0-0.11","3862","1","16","Female","approach_avoid_spark_v1","""event"",""trial"",""time""
""fullscreenenter"",""1"",""2071""
""blur"",""9"",""35243""
""focus"",""9"",""43572""
""blur"",""11"",""52799""
""focus"",""11"",""60025""
","""event"",""trial"",""time""
""blur"",""9"",""35243""
""blur"",""11"",""52799""
","""event"",""trial"",""time""
""focus"",""9"",""43572""
""focus"",""11"",""60025""
","""event"",""trial"",""time""
""fullscreenenter"",""1"",""2071""
","
","","","","","","null","<div style=""font-size:60px;"">+</div>","null","","fixation","","","","","","","","","","",""
"aa-learning-trial","95","499352","0.0-9.0-2.0-1.11","3862","1","16","Female","approach_avoid_spark_v1","""event"",""trial"",""time""
""fullscreenenter"",""1"",""2071""
""blur"",""9"",""35243""
""focus"",""9"",""43572""
""blur"",""11"",""52799""
""focus"",""11"",""60025""
","""event"",""trial"",""time""
""blur"",""9"",""35243""
""blur"",""11"",""52799""
","""event"",""trial"",""time""
""focus"",""9"",""43572""
""focus"",""11"",""60025""
","""event"",""trial"",""time""
""fullscreenenter"",""1"",""2071""
","
","","","","","","380.40000009536743","images/cow4.png","","","learning","5","0","0","0","cow","animals","1","0","","good","[5]"
"html-keyboard-response","96","499868","0.0-9.0-2.0-0.12","3862","1","16","Female","approach_avoid_spark_v1","""event"",""trial"",""time""
""fullscreenenter"",""1"",""2071""
""blur"",""9"",""35243""
""focus"",""9"",""43572""
""blur"",""11"",""52799""
""focus"",""11"",""60025""
","""event"",""trial"",""time""
""blur"",""9"",""35243""
""blur"",""11"",""52799""
","""event"",""trial"",""time""
""focus"",""9"",""43572""
""focus"",""11"",""60025""
","""event"",""trial"",""time""
""fullscreenenter"",""1"",""2071""
","
","","","","","","null","<div style=""font-size:60px;"">+</div>","null","","fixation","","","","","","","","","","",""
"aa-learning-trial","97","502873","0.0-9.0-2.0-1.12","3862","1","16","Female","approach_avoid_spark_v1","""event"",""trial"",""time""
""fullscreenenter"",""1"",""2071""
""blur"",""9"",""35243""
""focus"",""9"",""43572""
""blur"",""11"",""52799""
""focus"",""11"",""60025""
","""event"",""trial"",""time""
""blur"",""9"",""35243""
""blur"",""11"",""52799""
","""event"",""trial"",""time""
""focus"",""9"",""43572""
""focus"",""11"",""60025""
","""event"",""trial"",""time""
""fullscreenenter"",""1"",""2071""
","
","","","","","","829","images/goat2.png","","","learning","[-1]","0","0","0","goat","animals","1","0","","neutral","0"
"html-keyboard-response","98","503375","0.0-9.0-2.0-0.13","3862","1","16","Female","approach_avoid_spark_v1","""event"",""trial"",""time""
""fullscreenenter"",""1"",""2071""
""blur"",""9"",""35243""
""focus"",""9"",""43572""
""blur"",""11"",""52799""
""focus"",""11"",""60025""
","""event"",""trial"",""time""
""blur"",""9"",""35243""
""blur"",""11"",""52799""
","""event"",""trial"",""time""
""focus"",""9"",""43572""
""focus"",""11"",""60025""
","""event"",""trial"",""time""
""fullscreenenter"",""1"",""2071""
","
","","","","","","null","<div style=""font-size:60px;"">+</div>","null","","fixation","","","","","","","","","","",""
"aa-learning-trial","99","506382","0.0-9.0-2.0-1.13","3862","1","16","Female","approach_avoid_spark_v1","""event"",""trial"",""time""
""fullscreenenter"",""1"",""2071""
""blur"",""9"",""35243""
""focus"",""9"",""43572""
""blur"",""11"",""52799""
""focus"",""11"",""60025""
","""event"",""trial"",""time""
""blur"",""9"",""35243""
""blur"",""11"",""52799""
","""event"",""trial"",""time""
""focus"",""9"",""43572""
""focus"",""11"",""60025""
","""event"",""trial"",""time""
""fullscreenenter"",""1"",""2071""
","
","","","","","","733.2999997138977","images/horse1.png","","","learning","-5","0","0","0","horse","animals","1","0","","bad","[-3]"
"html-keyboard-response","100","506885","0.0-9.0-2.0-0.14","3862","1","16","Female","approach_avoid_spark_v1","""event"",""trial"",""time""
""fullscreenenter"",""1"",""2071""
""blur"",""9"",""35243""
""focus"",""9"",""43572""
""blur"",""11"",""52799""
""focus"",""11"",""60025""
","""event"",""trial"",""time""
""blur"",""9"",""35243""
""blur"",""11"",""52799""
","""event"",""trial"",""time""
""focus"",""9"",""43572""
""focus"",""11"",""60025""
","""event"",""trial"",""time""
""fullscreenenter"",""1"",""2071""
","
","","","","","","null","<div style=""font-size:60px;"">+</div>","null","","fixation","","","","","","","","","","",""
"aa-learning-trial","101","509906","0.0-9.0-2.0-1.14","3862","1","16","Female","approach_avoid_spark_v1","""event"",""trial"",""time""
""fullscreenenter"",""1"",""2071""
""blur"",""9"",""35243""
""focus"",""9"",""43572""
""blur"",""11"",""52799""
""focus"",""11"",""60025""
","""event"",""trial"",""time""
""blur"",""9"",""35243""
""blur"",""11"",""52799""
","""event"",""trial"",""time""
""focus"",""9"",""43572""
""focus"",""11"",""60025""
","""event"",""trial"",""time""
""fullscreenenter"",""1"",""2071""
","
","","","","","","531.3000001907349","images/cow1.png","","","learning","6","6","1","1","cow","animals","1","0","","good","[5]"
"html-keyboard-response","102","510416","0.0-9.0-2.0-0.15","3862","1","16","Female","approach_avoid_spark_v1","""event"",""trial"",""time""
""fullscreenenter"",""1"",""2071""
""blur"",""9"",""35243""
""focus"",""9"",""43572""
""blur"",""11"",""52799""
""focus"",""11"",""60025""
","""event"",""trial"",""time""
""blur"",""9"",""35243""
""blur"",""11"",""52799""
","""event"",""trial"",""time""
""focus"",""9"",""43572""
""focus"",""11"",""60025""
","""event"",""trial"",""time""
""fullscreenenter"",""1"",""2071""
","
","","","","","","null","<div style=""font-size:60px;"">+</div>","null","","fixation","","","","","","","","","","",""
"aa-learning-trial","103","513424","0.0-9.0-2.0-1.15","3862","1","16","Female","approach_avoid_spark_v1","""event"",""trial"",""time""
""fullscreenenter"",""1"",""2071""
""blur"",""9"",""35243""
""focus"",""9"",""43572""
""blur"",""11"",""52799""
""focus"",""11"",""60025""
","""event"",""trial"",""time""
""blur"",""9"",""35243""
""blur"",""11"",""52799""
","""event"",""trial"",""time""
""focus"",""9"",""43572""
""focus"",""11"",""60025""
","""event"",""trial"",""time""
""fullscreenenter"",""1"",""2071""
","
","","","","","","487","images/goat7.png","","","learning","[1]","0","0","0","goat","animals","1","0","","neutral","0"
"html-keyboard-response","104","513934","0.0-9.0-2.0-0.16","3862","1","16","Female","approach_avoid_spark_v1","""event"",""trial"",""time""
""fullscreenenter"",""1"",""2071""
""blur"",""9"",""35243""
""focus"",""9"",""43572""
""blur"",""11"",""52799""
""focus"",""11"",""60025""
","""event"",""trial"",""time""
""blur"",""9"",""35243""
""blur"",""11"",""52799""
","""event"",""trial"",""time""
""focus"",""9"",""43572""
""focus"",""11"",""60025""
","""event"",""trial"",""time""
""fullscreenenter"",""1"",""2071""
","
","","","","","","null","<div style=""font-size:60px;"">+</div>","null","","fixation","","","","","","","","","","",""
"aa-learning-trial","105","516946","0.0-9.0-2.0-1.16","3862","1","16","Female","approach_avoid_spark_v1","""event"",""trial"",""time""
""fullscreenenter"",""1"",""2071""
""blur"",""9"",""35243""
""focus"",""9"",""43572""
""blur"",""11"",""52799""
""focus"",""11"",""60025""
","""event"",""trial"",""time""
""blur"",""9"",""35243""
""blur"",""11"",""52799""
","""event"",""trial"",""time""
""focus"",""9"",""43572""
""focus"",""11"",""60025""
","""event"",""trial"",""time""
""fullscreenenter"",""1"",""2071""
","
","","","","","","808","images/horse6.png","","","learning","2","0","0","0","horse","animals","1","0","","bad","[-3]"
"html-keyboard-response","106","517456","0.0-9.0-2.0-0.17","3862","1","16","Female","approach_avoid_spark_v1","""event"",""trial"",""time""
""fullscreenenter"",""1"",""2071""
""blur"",""9"",""35243""
""focus"",""9"",""43572""
""blur"",""11"",""52799""
""focus"",""11"",""60025""
","""event"",""trial"",""time""
""blur"",""9"",""35243""
""blur"",""11"",""52799""
","""event"",""trial"",""time""
""focus"",""9"",""43572""
""focus"",""11"",""60025""
","""event"",""trial"",""time""
""fullscreenenter"",""1"",""2071""
","
","","","","","","null","<div style=""font-size:60px;"">+</div>","null","","fixation","","","","","","","","","","",""
"aa-learning-trial","107","520470","0.0-9.0-2.0-1.17","3862","1","16","Female","approach_avoid_spark_v1","""event"",""trial"",""time""
""fullscreenenter"",""1"",""2071""
""blur"",""9"",""35243""
""focus"",""9"",""43572""
""blur"",""11"",""52799""
""focus"",""11"",""60025""
","""event"",""trial"",""time""
""blur"",""9"",""35243""
""blur"",""11"",""52799""
","""event"",""trial"",""time""
""focus"",""9"",""43572""
""focus"",""11"",""60025""
","""event"",""trial"",""time""
""fullscreenenter"",""1"",""2071""
","
","","","","","","1257.6999998092651","images/goat3.png","","","learning","-3","0","0","0","goat","animals","1","0","","neutral","0"
"html-keyboard-response","108","520986","0.0-9.0-2.0-0.18","3862","1","16","Female","approach_avoid_spark_v1","""event"",""trial"",""time""
""fullscreenenter"",""1"",""2071""
""blur"",""9"",""35243""
""focus"",""9"",""43572""
""blur"",""11"",""52799""
""focus"",""11"",""60025""
","""event"",""trial"",""time""
""blur"",""9"",""35243""
""blur"",""11"",""52799""
","""event"",""trial"",""time""
""focus"",""9"",""43572""
""focus"",""11"",""60025""
","""event"",""trial"",""time""
""fullscreenenter"",""1"",""2071""
","
","","","","","","null","<div style=""font-size:60px;"">+</div>","null","","fixation","","","","","","","","","","",""
"aa-learning-trial","109","523995","0.0-9.0-2.0-1.18","3862","1","16","Female","approach_avoid_spark_v1","""event"",""trial"",""time""
""fullscreenenter"",""1"",""2071""
""blur"",""9"",""35243""
""focus"",""9"",""43572""
""blur"",""11"",""52799""
""focus"",""11"",""60025""
","""event"",""trial"",""time""
""blur"",""9"",""35243""
""blur"",""11"",""52799""
","""event"",""trial"",""time""
""focus"",""9"",""43572""
""focus"",""11"",""60025""
","""event"",""trial"",""time""
""fullscreenenter"",""1"",""2071""
","
","","","","","","562","images/cow6.png","","","learning","6","6","1","1","cow","animals","1","0","","good","[5]"
"html-keyboard-response","110","524504","0.0-9.0-2.0-0.19","3862","1","16","Female","approach_avoid_spark_v1","""event"",""trial"",""time""
""fullscreenenter"",""1"",""2071""
""blur"",""9"",""35243""
""focus"",""9"",""43572""
""blur"",""11"",""52799""
""focus"",""11"",""60025""
","""event"",""trial"",""time""
""blur"",""9"",""35243""
""blur"",""11"",""52799""
","""event"",""trial"",""time""
""focus"",""9"",""43572""
""focus"",""11"",""60025""
","""event"",""trial"",""time""
""fullscreenenter"",""1"",""2071""
","
","","","","","","null","<div style=""font-size:60px;"">+</div>","null","","fixation","","","","","","","","","","",""
"aa-learning-trial","111","527515","0.0-9.0-2.0-1.19","3862","1","16","Female","approach_avoid_spark_v1","""event"",""trial"",""time""
""fullscreenenter"",""1"",""2071""
""blur"",""9"",""35243""
""focus"",""9"",""43572""
""blur"",""11"",""52799""
""focus"",""11"",""60025""
","""event"",""trial"",""time""
""blur"",""9"",""35243""
""blur"",""11"",""52799""
","""event"",""trial"",""time""
""focus"",""9"",""43572""
""focus"",""11"",""60025""
","""event"",""trial"",""time""
""fullscreenenter"",""1"",""2071""
","
","","","","","","556","images/horse1.png","","","learning","-2","0","0","0","horse","animals","1","0","","bad","[-3]"
"html-keyboard-response","112","528020","0.0-9.0-2.0-0.20","3862","1","16","Female","approach_avoid_spark_v1","""event"",""trial"",""time""
""fullscreenenter"",""1"",""2071""
""blur"",""9"",""35243""
""focus"",""9"",""43572""
""blur"",""11"",""52799""
""focus"",""11"",""60025""
","""event"",""trial"",""time""
""blur"",""9"",""35243""
""blur"",""11"",""52799""
","""event"",""trial"",""time""
""focus"",""9"",""43572""
""focus"",""11"",""60025""
","""event"",""trial"",""time""
""fullscreenenter"",""1"",""2071""
","
","","","","","","null","<div style=""font-size:60px;"">+</div>","null","","fixation","","","","","","","","","","",""
"aa-learning-trial","113","531022","0.0-9.0-2.0-1.20","3862","1","16","Female","approach_avoid_spark_v1","""event"",""trial"",""time""
""fullscreenenter"",""1"",""2071""
""blur"",""9"",""35243""
""focus"",""9"",""43572""
""blur"",""11"",""52799""
""focus"",""11"",""60025""
","""event"",""trial"",""time""
""blur"",""9"",""35243""
""blur"",""11"",""52799""
","""event"",""trial"",""time""
""focus"",""9"",""43572""
""focus"",""11"",""60025""
","""event"",""trial"",""time""
""fullscreenenter"",""1"",""2071""
","
","","","","","","625.5","images/goat2.png","","","learning","-1","0","0","0","goat","animals","1","0","","neutral","0"
"html-keyboard-response","114","531528","0.0-9.0-2.0-0.21","3862","1","16","Female","approach_avoid_spark_v1","""event"",""trial"",""time""
""fullscreenenter"",""1"",""2071""
""blur"",""9"",""35243""
""focus"",""9"",""43572""
""blur"",""11"",""52799""
""focus"",""11"",""60025""
""blur"",""115"",""534171""
","""event"",""trial"",""time""
""blur"",""9"",""35243""
""blur"",""11"",""52799""
""blur"",""115"",""534171""
","""event"",""trial"",""time""
""focus"",""9"",""43572""
""focus"",""11"",""60025""
","""event"",""trial"",""time""
""fullscreenenter"",""1"",""2071""
","
","","","","","","null","<div style=""font-size:60px;"">+</div>","null","","fixation","","","","","","","","","","",""
"aa-learning-trial","115","534532","0.0-9.0-2.0-1.21","3862","1","16","Female","approach_avoid_spark_v1","""event"",""trial"",""time""
""fullscreenenter"",""1"",""2071""
""blur"",""9"",""35243""
""focus"",""9"",""43572""
""blur"",""11"",""52799""
""focus"",""11"",""60025""
""blur"",""115"",""534171""
","""event"",""trial"",""time""
""blur"",""9"",""35243""
""blur"",""11"",""52799""
""blur"",""115"",""534171""
","""event"",""trial"",""time""
""focus"",""9"",""43572""
""focus"",""11"",""60025""
","""event"",""trial"",""time""
""fullscreenenter"",""1"",""2071""
","
","","","","","","1091.0999999046326","images/goat8.png","","","learning","1","-5","-","","goat","animals","1","0","","neutral","0"
"html-keyboard-response","116","535033","0.0-9.0-2.0-0.22","3862","1","16","Female","approach_avoid_spark_v1","""event"",""trial"",""time""
""fullscreenenter"",""1"",""2071""
""blur"",""9"",""35243""
""focus"",""9"",""43572""
""blur"",""11"",""52799""
""focus"",""11"",""60025""
""blur"",""115"",""534171""
""focus"",""117"",""536986""
","""event"",""trial"",""time""
""blur"",""9"",""35243""
""blur"",""11"",""52799""
""blur"",""115"",""534171""
","""event"",""trial"",""time""
""focus"",""9"",""43572""
""focus"",""11"",""60025""
""focus"",""117"",""536986""
","""event"",""trial"",""time""
""fullscreenenter"",""1"",""2071""
","
","","","","","","null","<div style=""font-size:60px;"">+</div>","null","","fixation","","","","","","","","","","",""
"aa-learning-trial","117","538036","0.0-9.0-2.0-1.22","3862","1","16","Female","approach_avoid_spark_v1","""event"",""trial"",""time""
""fullscreenenter"",""1"",""2071""
""blur"",""9"",""35243""
""focus"",""9"",""43572""
""blur"",""11"",""52799""
""focus"",""11"",""60025""
""blur"",""115"",""534171""
""focus"",""117"",""536986""
","""event"",""trial"",""time""
""blur"",""9"",""35243""
""blur"",""11"",""52799""
""blur"",""115"",""534171""
","""event"",""trial"",""time""
""focus"",""9"",""43572""
""focus"",""11"",""60025""
""focus"",""117"",""536986""
","""event"",""trial"",""time""
""fullscreenenter"",""1"",""2071""
","
","","","","","","2492.5999999046326","images/goat8.png","","","learning","[1]","0","0","0","goat","animals","1","0","","neutral","0"
"html-keyboard-response","118","538552","0.0-9.0-2.0-0.23","3862","1","16","Female","approach_avoid_spark_v1","""event"",""trial"",""time""
""fullscreenenter"",""1"",""2071""
""blur"",""9"",""35243""
""focus"",""9"",""43572""
""blur"",""11"",""52799""
""focus"",""11"",""60025""
""blur"",""115"",""534171""
""focus"",""117"",""536986""
","""event"",""trial"",""time""
""blur"",""9"",""35243""
""blur"",""11"",""52799""
""blur"",""115"",""534171""
","""event"",""trial"",""time""
""focus"",""9"",""43572""
""focus"",""11"",""60025""
""focus"",""117"",""536986""
","""event"",""trial"",""time""
""fullscreenenter"",""1"",""2071""
","
","","","","","","null","<div style=""font-size:60px;"">+</div>","null","","fixation","","","","","","","","","","",""
"aa-learning-trial","119","541561","0.0-9.0-2.0-1.23","3862","1","16","Female","approach_avoid_spark_v1","""event"",""trial"",""time""
""fullscreenenter"",""1"",""2071""
""blur"",""9"",""35243""
""focus"",""9"",""43572""
""blur"",""11"",""52799""
""focus"",""11"",""60025""
""blur"",""115"",""534171""
""focus"",""117"",""536986""
","""event"",""trial"",""time""
""blur"",""9"",""35243""
""blur"",""11"",""52799""
""blur"",""115"",""534171""
","""event"",""trial"",""time""
""focus"",""9"",""43572""
""focus"",""11"",""60025""
""focus"",""117"",""536986""
","""event"",""trial"",""time""
""fullscreenenter"",""1"",""2071""
","
","","","","","","966","images/horse3.png","","","learning","-1","0","0","0","horse","animals","1","0","","bad","[-3]"
"html-keyboard-response","120","542069","0.0-9.0-2.0-0.24","3862","1","16","Female","approach_avoid_spark_v1","""event"",""trial"",""time""
""fullscreenenter"",""1"",""2071""
""blur"",""9"",""35243""
""focus"",""9"",""43572""
""blur"",""11"",""52799""
""focus"",""11"",""60025""
""blur"",""115"",""534171""
""focus"",""117"",""536986""
","""event"",""trial"",""time""
""blur"",""9"",""35243""
""blur"",""11"",""52799""
""blur"",""115"",""534171""
","""event"",""trial"",""time""
""focus"",""9"",""43572""
""focus"",""11"",""60025""
""focus"",""117"",""536986""
","""event"",""trial"",""time""
""fullscreenenter"",""1"",""2071""
","
","","","","","","null","<div style=""font-size:60px;"">+</div>","null","","fixation","","","","","","","","","","",""
"aa-learning-trial","121","545079","0.0-9.0-2.0-1.24","3862","1","16","Female","approach_avoid_spark_v1","""event"",""trial"",""time""
""fullscreenenter"",""1"",""2071""
""blur"",""9"",""35243""
""focus"",""9"",""43572""
""blur"",""11"",""52799""
""focus"",""11"",""60025""
""blur"",""115"",""534171""
""focus"",""117"",""536986""
","""event"",""trial"",""time""
""blur"",""9"",""35243""
""blur"",""11"",""52799""
""blur"",""115"",""534171""
","""event"",""trial"",""time""
""focus"",""9"",""43572""
""focus"",""11"",""60025""
""focus"",""117"",""536986""
","""event"",""trial"",""time""
""fullscreenenter"",""1"",""2071""
","
","","","","","","522.5999999046326","images/cow4.png","","","learning","6","6","1","1","cow","animals","1","0","","good","[5]"
"html-keyboard-response","122","545586","0.0-9.0-2.0-0.25","3862","1","16","Female","approach_avoid_spark_v1","""event"",""trial"",""time""
""fullscreenenter"",""1"",""2071""
""blur"",""9"",""35243""
""focus"",""9"",""43572""
""blur"",""11"",""52799""
""focus"",""11"",""60025""
""blur"",""115"",""534171""
""focus"",""117"",""536986""
","""event"",""trial"",""time""
""blur"",""9"",""35243""
""blur"",""11"",""52799""
""blur"",""115"",""534171""
","""event"",""trial"",""time""
""focus"",""9"",""43572""
""focus"",""11"",""60025""
""focus"",""117"",""536986""
","""event"",""trial"",""time""
""fullscreenenter"",""1"",""2071""
","
","","","","","","null","<div style=""font-size:60px;"">+</div>","null","","fixation","","","","","","","","","","",""
"aa-learning-trial","123","548597","0.0-9.0-2.0-1.25","3862","1","16","Female","approach_avoid_spark_v1","""event"",""trial"",""time""
""fullscreenenter"",""1"",""2071""
""blur"",""9"",""35243""
""focus"",""9"",""43572""
""blur"",""11"",""52799""
""focus"",""11"",""60025""
""blur"",""115"",""534171""
""focus"",""117"",""536986""
","""event"",""trial"",""time""
""blur"",""9"",""35243""
""blur"",""11"",""52799""
""blur"",""115"",""534171""
","""event"",""trial"",""time""
""focus"",""9"",""43572""
""focus"",""11"",""60025""
""focus"",""117"",""536986""
","""event"",""trial"",""time""
""fullscreenenter"",""1"",""2071""
","
","","","","","","809.9000000953674","images/cow1.png","","","learning","4","4","1","1","cow","animals","1","0","","good","[5]"
"html-keyboard-response","124","549099","0.0-9.0-2.0-0.26","3862","1","16","Female","approach_avoid_spark_v1","""event"",""trial"",""time""
""fullscreenenter"",""1"",""2071""
""blur"",""9"",""35243""
""focus"",""9"",""43572""
""blur"",""11"",""52799""
""focus"",""11"",""60025""
""blur"",""115"",""534171""
""focus"",""117"",""536986""
","""event"",""trial"",""time""
""blur"",""9"",""35243""
""blur"",""11"",""52799""
""blur"",""115"",""534171""
","""event"",""trial"",""time""
""focus"",""9"",""43572""
""focus"",""11"",""60025""
""focus"",""117"",""536986""
","""event"",""trial"",""time""
""fullscreenenter"",""1"",""2071""
","
","","","","","","null","<div style=""font-size:60px;"">+</div>","null","","fixation","","","","","","","","","","",""
"aa-learning-trial","125","552109","0.0-9.0-2.0-1.26","3862","1","16","Female","approach_avoid_spark_v1","""event"",""trial"",""time""
""fullscreenenter"",""1"",""2071""
""blur"",""9"",""35243""
""focus"",""9"",""43572""
""blur"",""11"",""52799""
""focus"",""11"",""60025""
""blur"",""115"",""534171""
""focus"",""117"",""536986""
","""event"",""trial"",""time""
""blur"",""9"",""35243""
""blur"",""11"",""52799""
""blur"",""115"",""534171""
","""event"",""trial"",""time""
""focus"",""9"",""43572""
""focus"",""11"",""60025""
""focus"",""117"",""536986""
","""event"",""trial"",""time""
""fullscreenenter"",""1"",""2071""
","
","","","","","","444.1000003814697","images/cow1.png","","","learning","5","5","1","1","cow","animals","1","0","","good","[5]"
"html-keyboard-response","126","552616","0.0-9.0-2.0-0.27","3862","1","16","Female","approach_avoid_spark_v1","""event"",""trial"",""time""
""fullscreenenter"",""1"",""2071""
""blur"",""9"",""35243""
""focus"",""9"",""43572""
""blur"",""11"",""52799""
""focus"",""11"",""60025""
""blur"",""115"",""534171""
""focus"",""117"",""536986""
","""event"",""trial"",""time""
""blur"",""9"",""35243""
""blur"",""11"",""52799""
""blur"",""115"",""534171""
","""event"",""trial"",""time""
""focus"",""9"",""43572""
""focus"",""11"",""60025""
""focus"",""117"",""536986""
","""event"",""trial"",""time""
""fullscreenenter"",""1"",""2071""
","
","","","","","","null","<div style=""font-size:60px;"">+</div>","null","","fixation","","","","","","","","","","",""
"aa-learning-trial","127","555622","0.0-9.0-2.0-1.27","3862","1","16","Female","approach_avoid_spark_v1","""event"",""trial"",""time""
""fullscreenenter"",""1"",""2071""
""blur"",""9"",""35243""
""focus"",""9"",""43572""
""blur"",""11"",""52799""
""focus"",""11"",""60025""
""blur"",""115"",""534171""
""focus"",""117"",""536986""
","""event"",""trial"",""time""
""blur"",""9"",""35243""
""blur"",""11"",""52799""
""blur"",""115"",""534171""
","""event"",""trial"",""time""
""focus"",""9"",""43572""
""focus"",""11"",""60025""
""focus"",""117"",""536986""
","""event"",""trial"",""time""
""fullscreenenter"",""1"",""2071""
","
","","","","","","438.59999990463257","images/cow4.png","","","learning","5","5","1","1","cow","animals","1","0","","good","[5]"
"html-keyboard-response","128","556128","0.0-9.0-2.0-0.28","3862","1","16","Female","approach_avoid_spark_v1","""event"",""trial"",""time""
""fullscreenenter"",""1"",""2071""
""blur"",""9"",""35243""
""focus"",""9"",""43572""
""blur"",""11"",""52799""
""focus"",""11"",""60025""
""blur"",""115"",""534171""
""focus"",""117"",""536986""
","""event"",""trial"",""time""
""blur"",""9"",""35243""
""blur"",""11"",""52799""
""blur"",""115"",""534171""
","""event"",""trial"",""time""
""focus"",""9"",""43572""
""focus"",""11"",""60025""
""focus"",""117"",""536986""
","""event"",""trial"",""time""
""fullscreenenter"",""1"",""2071""
","
","","","","","","null","<div style=""font-size:60px;"">+</div>","null","","fixation","","","","","","","","","","",""
"aa-learning-trial","129","559137","0.0-9.0-2.0-1.28","3862","1","16","Female","approach_avoid_spark_v1","""event"",""trial"",""time""
""fullscreenenter"",""1"",""2071""
""blur"",""9"",""35243""
""focus"",""9"",""43572""
""blur"",""11"",""52799""
""focus"",""11"",""60025""
""blur"",""115"",""534171""
""focus"",""117"",""536986""
","""event"",""trial"",""time""
""blur"",""9"",""35243""
""blur"",""11"",""52799""
""blur"",""115"",""534171""
","""event"",""trial"",""time""
""focus"",""9"",""43572""
""focus"",""11"",""60025""
""focus"",""117"",""536986""
","""event"",""trial"",""time""
""fullscreenenter"",""1"",""2071""
","
","","","","","","484.80000019073486","images/goat8.png","","","learning","[-1]","0","0","0","goat","animals","1","0","","neutral","0"
"html-keyboard-response","130","559641","0.0-9.0-2.0-0.29","3862","1","16","Female","approach_avoid_spark_v1","""event"",""trial"",""time""
""fullscreenenter"",""1"",""2071""
""blur"",""9"",""35243""
""focus"",""9"",""43572""
""blur"",""11"",""52799""
""focus"",""11"",""60025""
""blur"",""115"",""534171""
""focus"",""117"",""536986""
","""event"",""trial"",""time""
""blur"",""9"",""35243""
""blur"",""11"",""52799""
""blur"",""115"",""534171""
","""event"",""trial"",""time""
""focus"",""9"",""43572""
""focus"",""11"",""60025""
""focus"",""117"",""536986""
","""event"",""trial"",""time""
""fullscreenenter"",""1"",""2071""
","
","","","","","","null","<div style=""font-size:60px;"">+</div>","null","","fixation","","","","","","","","","","",""
"aa-learning-trial","131","562646","0.0-9.0-2.0-1.29","3862","1","16","Female","approach_avoid_spark_v1","""event"",""trial"",""time""
""fullscreenenter"",""1"",""2071""
""blur"",""9"",""35243""
""focus"",""9"",""43572""
""blur"",""11"",""52799""
""focus"",""11"",""60025""
""blur"",""115"",""534171""
""focus"",""117"",""536986""
","""event"",""trial"",""time""
""blur"",""9"",""35243""
""blur"",""11"",""52799""
""blur"",""115"",""534171""
","""event"",""trial"",""time""
""focus"",""9"",""43572""
""focus"",""11"",""60025""
""focus"",""117"",""536986""
","""event"",""trial"",""time""
""fullscreenenter"",""1"",""2071""
","
","","","","","","511","images/horse8.png","","","learning","-2","0","0","0","horse","animals","1","0","","bad","[-3]"
"html-keyboard-response","132","563150","0.0-9.0-2.0-0.30","3862","1","16","Female","approach_avoid_spark_v1","""event"",""trial"",""time""
""fullscreenenter"",""1"",""2071""
""blur"",""9"",""35243""
""focus"",""9"",""43572""
""blur"",""11"",""52799""
""focus"",""11"",""60025""
""blur"",""115"",""534171""
""focus"",""117"",""536986""
","""event"",""trial"",""time""
""blur"",""9"",""35243""
""blur"",""11"",""52799""
""blur"",""115"",""534171""
","""event"",""trial"",""time""
""focus"",""9"",""43572""
""focus"",""11"",""60025""
""focus"",""117"",""536986""
","""event"",""trial"",""time""
""fullscreenenter"",""1"",""2071""
","
","","","","","","null","<div style=""font-size:60px;"">+</div>","null","","fixation","","","","","","","","","","",""
"aa-learning-trial","133","566161","0.0-9.0-2.0-1.30","3862","1","16","Female","approach_avoid_spark_v1","""event"",""trial"",""time""
""fullscreenenter"",""1"",""2071""
""blur"",""9"",""35243""
""focus"",""9"",""43572""
""blur"",""11"",""52799""
""focus"",""11"",""60025""
""blur"",""115"",""534171""
""focus"",""117"",""536986""
","""event"",""trial"",""time""
""blur"",""9"",""35243""
""blur"",""11"",""52799""
""blur"",""115"",""534171""
","""event"",""trial"",""time""
""focus"",""9"",""43572""
""focus"",""11"",""60025""
""focus"",""117"",""536986""
","""event"",""trial"",""time""
""fullscreenenter"",""1"",""2071""
","
","","","","","","387.30000019073486","images/horse1.png","","","learning","-4","0","0","0","horse","animals","1","0","","bad","[-3]"
"html-keyboard-response","134","566666","0.0-9.0-2.0-0.31","3862","1","16","Female","approach_avoid_spark_v1","""event"",""trial"",""time""
""fullscreenenter"",""1"",""2071""
""blur"",""9"",""35243""
""focus"",""9"",""43572""
""blur"",""11"",""52799""
""focus"",""11"",""60025""
""blur"",""115"",""534171""
""focus"",""117"",""536986""
","""event"",""trial"",""time""
""blur"",""9"",""35243""
""blur"",""11"",""52799""
""blur"",""115"",""534171""
","""event"",""trial"",""time""
""focus"",""9"",""43572""
""focus"",""11"",""60025""
""focus"",""117"",""536986""
","""event"",""trial"",""time""
""fullscreenenter"",""1"",""2071""
","
","","","","","","null","<div style=""font-size:60px;"">+</div>","null","","fixation","","","","","","","","","","",""
"aa-learning-trial","135","569673","0.0-9.0-2.0-1.31","3862","1","16","Female","approach_avoid_spark_v1","""event"",""trial"",""time""
""fullscreenenter"",""1"",""2071""
""blur"",""9"",""35243""
""focus"",""9"",""43572""
""blur"",""11"",""52799""
""focus"",""11"",""60025""
""blur"",""115"",""534171""
""focus"",""117"",""536986""
","""event"",""trial"",""time""
""blur"",""9"",""35243""
""blur"",""11"",""52799""
""blur"",""115"",""534171""
","""event"",""trial"",""time""
""focus"",""9"",""43572""
""focus"",""11"",""60025""
""focus"",""117"",""536986""
","""event"",""trial"",""time""
""fullscreenenter"",""1"",""2071""
","
","","","","","","626.3000001907349","images/cow4.png","","","learning","5","5","1","1","cow","animals","1","0","","good","[5]"
"html-keyboard-response","136","570175","0.0-9.0-2.0-0.32","3862","1","16","Female","approach_avoid_spark_v1","""event"",""trial"",""time""
""fullscreenenter"",""1"",""2071""
""blur"",""9"",""35243""
""focus"",""9"",""43572""
""blur"",""11"",""52799""
""focus"",""11"",""60025""
""blur"",""115"",""534171""
""focus"",""117"",""536986""
","""event"",""trial"",""time""
""blur"",""9"",""35243""
""blur"",""11"",""52799""
""blur"",""115"",""534171""
","""event"",""trial"",""time""
""focus"",""9"",""43572""
""focus"",""11"",""60025""
""focus"",""117"",""536986""
","""event"",""trial"",""time""
""fullscreenenter"",""1"",""2071""
","
","","","","","","null","<div style=""font-size:60px;"">+</div>","null","","fixation","","","","","","","","","","",""
"aa-learning-trial","137","573182","0.0-9.0-2.0-1.32","3862","1","16","Female","approach_avoid_spark_v1","""event"",""trial"",""time""
""fullscreenenter"",""1"",""2071""
""blur"",""9"",""35243""
""focus"",""9"",""43572""
""blur"",""11"",""52799""
""focus"",""11"",""60025""
""blur"",""115"",""534171""
""focus"",""117"",""536986""
","""event"",""trial"",""time""
""blur"",""9"",""35243""
""blur"",""11"",""52799""
""blur"",""115"",""534171""
","""event"",""trial"",""time""
""focus"",""9"",""43572""
""focus"",""11"",""60025""
""focus"",""117"",""536986""
","""event"",""trial"",""time""
""fullscreenenter"",""1"",""2071""
","
","","","","","","560.1999998092651","images/goat8.png","","","learning","1","0","0","0","goat","animals","1","0","","neutral","0"
"html-keyboard-response","138","573685","0.0-9.0-2.0-0.33","3862","1","16","Female","approach_avoid_spark_v1","""event"",""trial"",""time""
""fullscreenenter"",""1"",""2071""
""blur"",""9"",""35243""
""focus"",""9"",""43572""
""blur"",""11"",""52799""
""focus"",""11"",""60025""
""blur"",""115"",""534171""
""focus"",""117"",""536986""
","""event"",""trial"",""time""
""blur"",""9"",""35243""
""blur"",""11"",""52799""
""blur"",""115"",""534171""
","""event"",""trial"",""time""
""focus"",""9"",""43572""
""focus"",""11"",""60025""
""focus"",""117"",""536986""
","""event"",""trial"",""time""
""fullscreenenter"",""1"",""2071""
","
","","","","","","null","<div style=""font-size:60px;"">+</div>","null","","fixation","","","","","","","","","","",""
"aa-learning-trial","139","576697","0.0-9.0-2.0-1.33","3862","1","16","Female","approach_avoid_spark_v1","""event"",""trial"",""time""
""fullscreenenter"",""1"",""2071""
""blur"",""9"",""35243""
""focus"",""9"",""43572""
""blur"",""11"",""52799""
""focus"",""11"",""60025""
""blur"",""115"",""534171""
""focus"",""117"",""536986""
","""event"",""trial"",""time""
""blur"",""9"",""35243""
""blur"",""11"",""52799""
""blur"",""115"",""534171""
","""event"",""trial"",""time""
""focus"",""9"",""43572""
""focus"",""11"",""60025""
""focus"",""117"",""536986""
","""event"",""trial"",""time""
""fullscreenenter"",""1"",""2071""
","
","","","","","","525.4000000953674","images/cow1.png","","","learning","6","6","1","1","cow","animals","1","0","","good","[5]"
"html-keyboard-response","140","577201","0.0-9.0-2.0-0.34","3862","1","16","Female","approach_avoid_spark_v1","""event"",""trial"",""time""
""fullscreenenter"",""1"",""2071""
""blur"",""9"",""35243""
""focus"",""9"",""43572""
""blur"",""11"",""52799""
""focus"",""11"",""60025""
""blur"",""115"",""534171""
""focus"",""117"",""536986""
","""event"",""trial"",""time""
""blur"",""9"",""35243""
""blur"",""11"",""52799""
""blur"",""115"",""534171""
","""event"",""trial"",""time""
""focus"",""9"",""43572""
""focus"",""11"",""60025""
""focus"",""117"",""536986""
","""event"",""trial"",""time""
""fullscreenenter"",""1"",""2071""
","
","","","","","","null","<div style=""font-size:60px;"">+</div>","null","","fixation","","","","","","","","","","",""
"aa-learning-trial","141","580226","0.0-9.0-2.0-1.34","3862","1","16","Female","approach_avoid_spark_v1","""event"",""trial"",""time""
