"trial_type","trial_index","time_elapsed","internal_node_id","subject_id","task_condition","age","gender","task_version","interactions","blur_events","focus_events","fullscreenenter_events","fullscreenexit_events","success","timeout","failed_images","failed_audio","failed_video","rt","stimulus","response","button_pressed","task_part","approach_reward","points","key_press","option_selected","stim_cat","task_block","block_condition","block_number","correct","cat_type","mean_cat_reward"
"pavlovia","0","4","0.0-0.0","5809","1","9","Male","approach_avoid_spark_v1","""event"",""trial"",""time""
""fullscreenenter"",""1"",""2870""
","
","
","""event"",""trial"",""time""
""fullscreenenter"",""1"",""2870""
","
","","","","","","","","","","","","","","","","","","","","",""
"fullscreen","1","3735","0.0-1.0","5809","1","9","Male","approach_avoid_spark_v1","""event"",""trial"",""time""
""fullscreenenter"",""1"",""2870""
","
","
","""event"",""trial"",""time""
""fullscreenenter"",""1"",""2870""
","
","true","","","","","","","","","","","","","","","","","","","",""
"preload","2","10819","0.0-2.0","5809","1","9","Male","approach_avoid_spark_v1","""event"",""trial"",""time""
""fullscreenenter"",""1"",""2870""
","
","
","""event"",""trial"",""time""
""fullscreenenter"",""1"",""2870""
","
","true","false","[]","[]","[]","","","","","","","","","","","","","","","",""
"audio-keyboard-response","3","14542","0.0-3.0","5809","1","9","Male","approach_avoid_spark_v1","""event"",""trial"",""time""
""fullscreenenter"",""1"",""2870""
","
","
","""event"",""trial"",""time""
""fullscreenenter"",""1"",""2870""
","
","","","","","","3720.0000000000005","audio/beep_loop.wav","audiovolumemute","","","","","","","","","","","","",""
"audio-button-response","4","19782","0.0-4.0","5809","1","9","Male","approach_avoid_spark_v1","""event"",""trial"",""time""
""fullscreenenter"",""1"",""2870""
","
","
","""event"",""trial"",""time""
""fullscreenenter"",""1"",""2870""
","
","","","","","","5240","audio/shark.wav","0","","","","","","","","","","","","",""
"audio-button-response","5","27630","0.0-5.0","5809","1","9","Male","approach_avoid_spark_v1","""event"",""trial"",""time""
""fullscreenenter"",""1"",""2870""
","
","
","""event"",""trial"",""time""
""fullscreenenter"",""1"",""2870""
","
","","","","","","6840","audio/turtle.wav","1","","","","","","","","","","","","",""
"preload","6","30710","0.0-6.0","5809","1","9","Male","approach_avoid_spark_v1","""event"",""trial"",""time""
""fullscreenenter"",""1"",""2870""
","
","
","""event"",""trial"",""time""
""fullscreenenter"",""1"",""2870""
","
","true","false","[]","[]","[]","","","","","","","","","","","","","","","",""
"html-keyboard-response","7","33144","0.0-7.0","5809","1","9","Male","approach_avoid_spark_v1","""event"",""trial"",""time""
""fullscreenenter"",""1"",""2870""
","
","
","""event"",""trial"",""time""
""fullscreenenter"",""1"",""2870""
","
","","","","","","2433.2999999970198","Welcome to the experiment. Press any key to begin and to advance the instructions."," ","","","","","","","","","","","","",""
"learning-instructions","8","42181","0.0-8.0-0.0-0.0","5809","1","9","Male","approach_avoid_spark_v1","""event"",""trial"",""time""
""fullscreenenter"",""1"",""2870""
","
","
","""event"",""trial"",""time""
""fullscreenenter"",""1"",""2870""
","
","","","","","","2079.6999999955297","<p> Welcome! Today you are going to play 6 different rounds of a decision-making game. </p><p> Use the mouse to click next to continue. </p>","","0","instructions","","","","","","","","","","",""
"learning-instructions","9","47188","0.0-8.0-0.0-0.1","5809","1","9","Male","approach_avoid_spark_v1","""event"",""trial"",""time""
""fullscreenenter"",""1"",""2870""
","
","
","""event"",""trial"",""time""
""fullscreenenter"",""1"",""2870""
","
","","","","","","2267.6999999955297","<p> You will start with a practice round to learn the rules. </p>","","0","instructions","","","","","","","","","","",""
"learning-instructions","10","51746","0.0-8.0-0.0-0.2","5809","1","9","Male","approach_avoid_spark_v1","""event"",""trial"",""time""
""fullscreenenter"",""1"",""2870""
","
","
","""event"",""trial"",""time""
""fullscreenenter"",""1"",""2870""
","
","","","","","","1095.5999999940395","<p> Your goal in this round is to give out sports equipment to kids. </p></div>","","0","instructions","","","","","","","","","","",""
"learning-instructions","11","59831","0.0-8.0-0.0-0.3","5809","1","9","Male","approach_avoid_spark_v1","""event"",""trial"",""time""
""fullscreenenter"",""1"",""2870""
","
","
","""event"",""trial"",""time""
""fullscreenenter"",""1"",""2870""
","
","","","","","","519.6999999955297","<p> The kids only like some of the equipment.  </p><p> On each turn, you will see a piece of sports equipment.   </p><p> You need to decide whether to give it to the kids or not.  </p>","","0","instructions","","","","","","","","","","",""
"learning-instructions","12","65491","0.0-8.0-0.0-0.4","5809","1","9","Male","approach_avoid_spark_v1","""event"",""trial"",""time""
""fullscreenenter"",""1"",""2870""
","
","
","""event"",""trial"",""time""
""fullscreenenter"",""1"",""2870""
","
","","","","","","898.8999999985099","<p> You can give them the equipment by pressing 1 and choose not to give it to them by pressing 0. </p><br><div class=""choice-instructions-grid""> <div class=""choice-option""><img src=""images/approach.png"" class=""choice-option-img"" stage=""instructions"" position=""0"" ><div class=""choice-option-text""> Press ""1."" </div></div><div class=""choice-option""><img src=""images/avoid.png"" class=""choice-option-img"" stage=""instructions"" position=""1"" ><div class=""choice-option-text""> Press ""0."" </div></div>","","0","instructions","","","","","","","","","","",""
"learning-instructions","13","74241","0.0-8.0-0.0-0.5","5809","1","9","Male","approach_avoid_spark_v1","""event"",""trial"",""time""
""fullscreenenter"",""1"",""2870""
","
","
","""event"",""trial"",""time""
""fullscreenenter"",""1"",""2870""
","
","","","","","","1349.7000000029802","<p> If you give them a piece of equipment they like, they will be happy! </p><p> But if you give them a piece of equipment they do not like, they will be sad. </p>","","0","instructions","","","","","","","","","","",""
"learning-instructions","14","85647","0.0-8.0-0.0-0.6","5809","1","9","Male","approach_avoid_spark_v1","""event"",""trial"",""time""
""fullscreenenter"",""1"",""2870""
","
","
","""event"",""trial"",""time""
""fullscreenenter"",""1"",""2870""
","
","","","","","","895.3999999985099","<p> You will earn points based on how you make kids feel. </p><p> If you make them happy, you will WIN anywhere from 1 - 9 points, </p><p> but if you make them sad, you will LOSE anywhere from 1 - 9 points. </p>","","0","instructions","","","","","","","","","","",""
"learning-instructions","15","96113","0.0-8.0-0.0-0.7","5809","1","9","Male","approach_avoid_spark_v1","""event"",""trial"",""time""
""fullscreenenter"",""1"",""2870""
","
","
","""event"",""trial"",""time""
""fullscreenenter"",""1"",""2870""
","
","","","","","","911.6999999955297","<p> You will see how many points you won or lost in the center of the screen. </p><p> Here is what you would see if you won 6 points: </p><p style=""color:green;font-size:50px;font-weight:bolder"">6</p><p style=""color:green"">The text is GREEN because you WON points.</p>","","0","instructions","","","","","","","","","","",""
"learning-instructions","16","102657","0.0-8.0-0.0-0.8","5809","1","9","Male","approach_avoid_spark_v1","""event"",""trial"",""time""
""fullscreenenter"",""1"",""2870""
","
","
","""event"",""trial"",""time""
""fullscreenenter"",""1"",""2870""
","
","","","","","","1036.5","<p> And here is what you would see if you lost 4 points: </p><p style=""color:red;font-size:50px;font-weight:bolder"">-4</p><p style=""color:red"">The text is RED because you LOST points. </p>","","0","instructions","","","","","","","","","","",""
"learning-instructions","17","117896","0.0-8.0-0.0-0.9","5809","1","9","Male","approach_avoid_spark_v1","""event"",""trial"",""time""
""fullscreenenter"",""1"",""2870""
","
","
","""event"",""trial"",""time""
""fullscreenenter"",""1"",""2870""
","
","","","","","","515.0999999940395","<p> Some of the equipment will make the kids VERY happy or sad. </p><p> These pieces of equipment will make you win or lose LOTS of points. </p><p> Other pieces of equipment will only make the kids a little happy or sad. </p><p> These pieces of equipment will make you win or lose small amounts of points. </p>","","0","instructions","","","","","","","","","","",""
"learning-instructions","18","129253","0.0-8.0-0.0-0.10","5809","1","9","Male","approach_avoid_spark_v1","""event"",""trial"",""time""
""fullscreenenter"",""1"",""2870""
","
","
","""event"",""trial"",""time""
""fullscreenenter"",""1"",""2870""
","
","","","","","","711.6000000014901","<p> If you choose not to give them the equipment, you will not win or lose any points. </p><p>  However, in the center of the screen, you will see the number of points you WOULD HAVE won or lost if you had given them the equipment. </p>","","0","instructions","","","","","","","","","","",""
"learning-instructions","19","151501","0.0-8.0-0.0-0.11","5809","1","9","Male","approach_avoid_spark_v1","""event"",""trial"",""time""
""fullscreenenter"",""1"",""2870""
","
","
","""event"",""trial"",""time""
""fullscreenenter"",""1"",""2870""
","
","","","","","","719.1000000014901","<p> Here is what you might see if you did not give the equipment to the kids but it would have made them happy: </p><p style=""color:grey; font-size:50px; display: inline-block; border-spacing: 15px; border-width:3px; border-style:solid; border-color:red"">  &nbsp; 7 &nbsp; </p><p> Remember, in this case, you would not win or lose ANY points because you did not give them the equipment.  </p><p style=""color:grey"">The text is GREY because you earned ZERO points. </p><p style=""color:red"">However, choosing to give the kids the equipment would have made you win points. The box around the text is RED because you chose the worse option. </p>","","0","instructions","","","","","","","","","","",""
"learning-instructions","20","173061","0.0-8.0-0.0-0.12","5809","1","9","Male","approach_avoid_spark_v1","""event"",""trial"",""time""
""fullscreenenter"",""1"",""2870""
","
","
","""event"",""trial"",""time""
""fullscreenenter"",""1"",""2870""
","
","","","","","","479.1000000014901","<p> Here is what you might see if you did not give the equipment to the kids but it would have made them sad: </p><p style=""color:grey;font-size:50px; display: inline-block; border-spacing: 15px; border-width:3px; border-style:solid; border-color:green"">  &nbsp; -8 &nbsp; </p><p> Remember, in this case, you would not win or lose ANY points because you did not give them the equipment.  </p><p style=""color:grey"">The text is GREY because you earned ZERO points. </p><p  style=""color:green""> Choosing to give the kids the equipment would have made you lose points. The box around the text is GREEN because you chose the better option.</p>","","0","instructions","","","","","","","","","","",""
"learning-instructions","21","183046","0.0-8.0-0.0-0.13","5809","1","9","Male","approach_avoid_spark_v1","""event"",""trial"",""time""
""fullscreenenter"",""1"",""2870""
","
","
","""event"",""trial"",""time""
""fullscreenenter"",""1"",""2870""
","
","","","","","","944.2999999970198","<p> You will have 3 seconds to make each choice. Try to respond before time runs out! </p><p> You will lose 5 points each time you do not make a response. </p>","","0","instructions","","","","","","","","","","",""
"learning-instructions","22","190577","0.0-8.0-0.0-0.14","5809","1","9","Male","approach_avoid_spark_v1","""event"",""trial"",""time""
""fullscreenenter"",""1"",""2870""
","
","
","""event"",""trial"",""time""
""fullscreenenter"",""1"",""2870""
","
","","","","","","2105.8000000044703","<p> This is just a practice round, but in the real game, your bonus payment will depend on your total number of points.","","0","instructions","","","","","","","","","","",""
"learning-instructions","23","281551","0.0-8.0-0.0-0.15","5809","1","9","Male","approach_avoid_spark_v1","""event"",""trial"",""time""
""fullscreenenter"",""1"",""2870""
","
","
","""event"",""trial"",""time""
""fullscreenenter"",""1"",""2870""
","
","","","","","","85207.90000000596","<p> Remember, you can give them the equipment by pressing 1 and choose not to give it to them by pressing 0. </p><br><div class=""choice-instructions-grid""> <div class=""choice-option""><img src=""images/approach.png"" class=""choice-option-img"" stage=""instructions"" position=""0"" ><div class=""choice-option-text""> Press ""1."" </div></div><div class=""choice-option""><img src=""images/avoid.png"" class=""choice-option-img"" stage=""instructions"" position=""1"" ><div class=""choice-option-text""> Press ""0."" </div></div>","","0","instructions","","","","","","","","","","",""
"html-button-response","24","283219","0.0-8.0-1.0","5809","1","9","Male","approach_avoid_spark_v1","""event"",""trial"",""time""
""fullscreenenter"",""1"",""2870""
","
","
","""event"",""trial"",""time""
""fullscreenenter"",""1"",""2870""
","
","","","","","","1559.1000000014901","<p> Ready to practice? </p>","0","","","","","","","","","","","","",""
"html-keyboard-response","25","283834","0.0-8.0-2.0-0.0","5809","1","9","Male","approach_avoid_spark_v1","""event"",""trial"",""time""
""fullscreenenter"",""1"",""2870""
","
","
","""event"",""trial"",""time""
""fullscreenenter"",""1"",""2870""
","
","","","","","","null","<div style=""font-size:60px;"">+</div>","null","","fixation","","","","","","","","","","",""
"aa-learning-trial","26","286842","0.0-8.0-2.0-1.0","5809","1","9","Male","approach_avoid_spark_v1","""event"",""trial"",""time""
""fullscreenenter"",""1"",""2870""
","
","
","""event"",""trial"",""time""
""fullscreenenter"",""1"",""2870""
","
","","","","","","null","images/ball1.png","","","learning","-7","-5","","null","practice","practice","practice","-1","","",""
"html-keyboard-response","27","287347","0.0-8.0-2.0-0.1","5809","1","9","Male","approach_avoid_spark_v1","""event"",""trial"",""time""
""fullscreenenter"",""1"",""2870""
","
","
","""event"",""trial"",""time""
""fullscreenenter"",""1"",""2870""
","
","","","","","","null","<div style=""font-size:60px;"">+</div>","null","","fixation","","","","","","","","","","",""
"aa-learning-trial","28","290353","0.0-8.0-2.0-1.1","5809","1","9","Male","approach_avoid_spark_v1","""event"",""trial"",""time""
""fullscreenenter"",""1"",""2870""
","
","
","""event"",""trial"",""time""
""fullscreenenter"",""1"",""2870""
","
","","","","","","1624.4000000059605","images/ball2.png","","","learning","-5","-5","1","1","practice","practice","practice","-1","","",""
"html-keyboard-response","29","290857","0.0-8.0-2.0-0.2","5809","1","9","Male","approach_avoid_spark_v1","""event"",""trial"",""time""
""fullscreenenter"",""1"",""2870""
","
","
","""event"",""trial"",""time""
""fullscreenenter"",""1"",""2870""
","
","","","","","","null","<div style=""font-size:60px;"">+</div>","null","","fixation","","","","","","","","","","",""
"aa-learning-trial","30","293865","0.0-8.0-2.0-1.2","5809","1","9","Male","approach_avoid_spark_v1","""event"",""trial"",""time""
""fullscreenenter"",""1"",""2870""
","
","
","""event"",""trial"",""time""
""fullscreenenter"",""1"",""2870""
","
","","","","","","1812.3999999985099","images/racket4.png","","","learning","7","0","0","0","practice","practice","practice","-1","","",""
"html-keyboard-response","31","294369","0.0-8.0-2.0-0.3","5809","1","9","Male","approach_avoid_spark_v1","""event"",""trial"",""time""
""fullscreenenter"",""1"",""2870""
","
","
","""event"",""trial"",""time""
""fullscreenenter"",""1"",""2870""
","
","","","","","","null","<div style=""font-size:60px;"">+</div>","null","","fixation","","","","","","","","","","",""
"aa-learning-trial","32","297377","0.0-8.0-2.0-1.3","5809","1","9","Male","approach_avoid_spark_v1","""event"",""trial"",""time""
""fullscreenenter"",""1"",""2870""
","
","
","""event"",""trial"",""time""
""fullscreenenter"",""1"",""2870""
","
","","","","","","1490.6999999955297","images/racket4.png","","","learning","-3","-3","1","1","practice","practice","practice","-1","","",""
"html-keyboard-response","33","297881","0.0-8.0-2.0-0.4","5809","1","9","Male","approach_avoid_spark_v1","""event"",""trial"",""time""
""fullscreenenter"",""1"",""2870""
","
","
","""event"",""trial"",""time""
""fullscreenenter"",""1"",""2870""
","
","","","","","","null","<div style=""font-size:60px;"">+</div>","null","","fixation","","","","","","","","","","",""
"aa-learning-trial","34","300890","0.0-8.0-2.0-1.4","5809","1","9","Male","approach_avoid_spark_v1","""event"",""trial"",""time""
""fullscreenenter"",""1"",""2870""
","
","
","""event"",""trial"",""time""
""fullscreenenter"",""1"",""2870""
","
","","","","","","1275.6000000014901","images/racket4.png","","","learning","6","0","0","0","practice","practice","practice","-1","","",""
"html-keyboard-response","35","301392","0.0-8.0-2.0-0.5","5809","1","9","Male","approach_avoid_spark_v1","""event"",""trial"",""time""
""fullscreenenter"",""1"",""2870""
","
","
","""event"",""trial"",""time""
""fullscreenenter"",""1"",""2870""
","
","","","","","","null","<div style=""font-size:60px;"">+</div>","null","","fixation","","","","","","","","","","",""
"aa-learning-trial","36","304400","0.0-8.0-2.0-1.5","5809","1","9","Male","approach_avoid_spark_v1","""event"",""trial"",""time""
""fullscreenenter"",""1"",""2870""
","
","
","""event"",""trial"",""time""
""fullscreenenter"",""1"",""2870""
","
","","","","","","970.6000000014901","images/racket2.png","","","learning","-6","0","0","0","practice","practice","practice","-1","","",""
"html-keyboard-response","37","304905","0.0-8.0-2.0-0.6","5809","1","9","Male","approach_avoid_spark_v1","""event"",""trial"",""time""
""fullscreenenter"",""1"",""2870""
","
","
","""event"",""trial"",""time""
""fullscreenenter"",""1"",""2870""
","
","","","","","","null","<div style=""font-size:60px;"">+</div>","null","","fixation","","","","","","","","","","",""
"aa-learning-trial","38","307914","0.0-8.0-2.0-1.6","5809","1","9","Male","approach_avoid_spark_v1","""event"",""trial"",""time""
""fullscreenenter"",""1"",""2870""
","
","
","""event"",""trial"",""time""
""fullscreenenter"",""1"",""2870""
","
","","","","","","null","images/ball4.png","","","learning","-6","-5","","null","practice","practice","practice","-1","","",""
"html-keyboard-response","39","308417","0.0-8.0-2.0-0.7","5809","1","9","Male","approach_avoid_spark_v1","""event"",""trial"",""time""
""fullscreenenter"",""1"",""2870""
","
","
","""event"",""trial"",""time""
""fullscreenenter"",""1"",""2870""
","
","","","","","","null","<div style=""font-size:60px;"">+</div>","null","","fixation","","","","","","","","","","",""
"aa-learning-trial","40","311425","0.0-8.0-2.0-1.7","5809","1","9","Male","approach_avoid_spark_v1","""event"",""trial"",""time""
""fullscreenenter"",""1"",""2870""
","
","
","""event"",""trial"",""time""
""fullscreenenter"",""1"",""2870""
","
","","","","","","null","images/ball3.png","","","learning","-8","-5","","null","practice","practice","practice","-1","","",""
"html-keyboard-response","41","311929","0.0-8.0-2.0-0.8","5809","1","9","Male","approach_avoid_spark_v1","""event"",""trial"",""time""
""fullscreenenter"",""1"",""2870""
","
","
","""event"",""trial"",""time""
""fullscreenenter"",""1"",""2870""
","
","","","","","","null","<div style=""font-size:60px;"">+</div>","null","","fixation","","","","","","","","","","",""
"aa-learning-trial","42","314937","0.0-8.0-2.0-1.8","5809","1","9","Male","approach_avoid_spark_v1","""event"",""trial"",""time""
""fullscreenenter"",""1"",""2870""
","
","
","""event"",""trial"",""time""
""fullscreenenter"",""1"",""2870""
","
","","","","","","794.1000000014901","images/racket1.png","","","learning","4","0","0","0","practice","practice","practice","-1","","",""
"html-keyboard-response","43","315440","0.0-8.0-2.0-0.9","5809","1","9","Male","approach_avoid_spark_v1","""event"",""trial"",""time""
""fullscreenenter"",""1"",""2870""
","
","
","""event"",""trial"",""time""
""fullscreenenter"",""1"",""2870""
","
","","","","","","null","<div style=""font-size:60px;"">+</div>","null","","fixation","","","","","","","","","","",""
"aa-learning-trial","44","318449","0.0-8.0-2.0-1.9","5809","1","9","Male","approach_avoid_spark_v1","""event"",""trial"",""time""
""fullscreenenter"",""1"",""2870""
","
","
","""event"",""trial"",""time""
""fullscreenenter"",""1"",""2870""
","
","","","","","","1256.8999999985099","images/racket3.png","","","learning","-7","-7","1","1","practice","practice","practice","-1","","",""
"html-keyboard-response","45","318953","0.0-8.0-2.0-0.10","5809","1","9","Male","approach_avoid_spark_v1","""event"",""trial"",""time""
""fullscreenenter"",""1"",""2870""
","
","
","""event"",""trial"",""time""
""fullscreenenter"",""1"",""2870""
","
","","","","","","null","<div style=""font-size:60px;"">+</div>","null","","fixation","","","","","","","","","","",""
"aa-learning-trial","46","321961","0.0-8.0-2.0-1.10","5809","1","9","Male","approach_avoid_spark_v1","""event"",""trial"",""time""
""fullscreenenter"",""1"",""2870""
","
","
","""event"",""trial"",""time""
""fullscreenenter"",""1"",""2870""
","
","","","","","","490.29999999701977","images/racket3.png","","","learning","7","7","1","1","practice","practice","practice","-1","","",""
"html-keyboard-response","47","322465","0.0-8.0-2.0-0.11","5809","1","9","Male","approach_avoid_spark_v1","""event"",""trial"",""time""
""fullscreenenter"",""1"",""2870""
","
","
","""event"",""trial"",""time""
""fullscreenenter"",""1"",""2870""
","
","","","","","","null","<div style=""font-size:60px;"">+</div>","null","","fixation","","","","","","","","","","",""
"aa-learning-trial","48","325473","0.0-8.0-2.0-1.11","5809","1","9","Male","approach_avoid_spark_v1","""event"",""trial"",""time""
""fullscreenenter"",""1"",""2870""
","
","
","""event"",""trial"",""time""
""fullscreenenter"",""1"",""2870""
","
","","","","","","714.3000000044703","images/racket4.png","","","learning","8","0","0","0","practice","practice","practice","-1","","",""
"html-button-response","49","330954","0.0-8.0-3.0","5809","1","9","Male","approach_avoid_spark_v1","""event"",""trial"",""time""
""fullscreenenter"",""1"",""2870""
","
","
","""event"",""trial"",""time""
""fullscreenenter"",""1"",""2870""
","
","","","","","","5477.19999999553","<p> You earned -23 points in the practice round! </p>","0","","break","","","","","","","","","","",""
"learning-instructions","50","341735","0.0-8.0-4.0-0.0","5809","1","9","Male","approach_avoid_spark_v1","""event"",""trial"",""time""
""fullscreenenter"",""1"",""2870""
","
","
","""event"",""trial"",""time""
""fullscreenenter"",""1"",""2870""
","
","","","","","","4730.20000000298","<p> It's almost time to start the real game. </p><p> Before you start, we're going to ask you a few questions about how the game works. </p>","","0","instructions","","","","","","","","","","",""
"preload","51","342967","0.0-8.0-5.0","5809","1","9","Male","approach_avoid_spark_v1","""event"",""trial"",""time""
""fullscreenenter"",""1"",""2870""
","
","
","""event"",""trial"",""time""
""fullscreenenter"",""1"",""2870""
","
","true","false","[]","[]","[]","","","","","","","","","","","","","","","",""
"comp-q","52","350912","0.0-8.0-6.0-0.0","5809","1","9","Male","approach_avoid_spark_v1","""event"",""trial"",""time""
""fullscreenenter"",""1"",""2870""
","
","
","""event"",""trial"",""time""
""fullscreenenter"",""1"",""2870""
","
","","","","","","2945.89999999851","<p> <b> True or False? </b> </p><p> If you see a number in GREY, that means you earned that many points. </p>","","1","comp_question","","","","","","","","","true","",""
"comp-q","53","362449","0.0-8.0-6.0-1.0","5809","1","9","Male","approach_avoid_spark_v1","""event"",""trial"",""time""
""fullscreenenter"",""1"",""2870""
","
","
","""event"",""trial"",""time""
""fullscreenenter"",""1"",""2870""
","
","","","","","","3163.89999999851","<p><b> That's right! </b> If you see a grey number, it means you earned ZERO points. <br> The grey numbers show the points you WOULD HAVE earned if you had made the other choice. </p>","","0","comp_answer","","","","","","","","","","",""
"comp-q","54","367800","0.0-8.0-7.0-0.0","5809","1","9","Male","approach_avoid_spark_v1","""event"",""trial"",""time""
""fullscreenenter"",""1"",""2870""
","
","
","""event"",""trial"",""time""
""fullscreenenter"",""1"",""2870""
","
","","","","","","653.7000000029802","<p> <b> True or False? </b> </p><p> You will have as much time as you want to make each choice. </p>","","1","comp_question","","","","","","","","","true","",""
"comp-q","55","375214","0.0-8.0-7.0-1.0","5809","1","9","Male","approach_avoid_spark_v1","""event"",""trial"",""time""
""fullscreenenter"",""1"",""2870""
","
","
","""event"",""trial"",""time""
""fullscreenenter"",""1"",""2870""
","
","","","","","","3358.10000000149","<p> <b> That's right! </b> You will only have 3 seconds to make each choice. </p>","","0","comp_answer","","","","","","","","","","",""
"comp-q","56","380256","0.0-8.0-8.0-0.0","5809","1","9","Male","approach_avoid_spark_v1","""event"",""trial"",""time""
""fullscreenenter"",""1"",""2870""
","
","
","""event"",""trial"",""time""
""fullscreenenter"",""1"",""2870""
","
","","","","","","370.1000000014901","<p> <b> True or False? </b> </p><p> You should use the '1' and '0' keys to make your choices. </p>","","0","comp_question","","","","","","","","","true","",""
"comp-q","57","387710","0.0-8.0-8.0-1.0","5809","1","9","Male","approach_avoid_spark_v1","""event"",""trial"",""time""
""fullscreenenter"",""1"",""2870""
","
","
","""event"",""trial"",""time""
""fullscreenenter"",""1"",""2870""
","
","","","","","","2822.7999999970198","<p> <b> That's right! </b> You should use the '1' and '0' keys to make each choice. </p>","","0","comp_answer","","","","","","","","","","",""
"learning-instructions","58","421690","0.0-8.0-9.0-0.0","5809","1","9","Male","approach_avoid_spark_v1","""event"",""trial"",""time""
""fullscreenenter"",""1"",""2870""
","
","
","""event"",""trial"",""time""
""fullscreenenter"",""1"",""2870""
","
","","","","","","27693.5","<p> It's now time to start the real game. </p>Do your best, because the points you earn in the next rounds will influence your bonus payment. </p>","","0","instructions","","","","","","","","","","",""
"preload","59","421839","0.0-9.0-0.0","5809","1","9","Male","approach_avoid_spark_v1","""event"",""trial"",""time""
""fullscreenenter"",""1"",""2870""
","
","
","""event"",""trial"",""time""
""fullscreenenter"",""1"",""2870""
","
","true","false","[]","[]","[]","","","","","","","","","","","","","","","",""
"learning-instructions","60","428898","0.0-9.0-1.0-0.0","5809","1","9","Male","approach_avoid_spark_v1","""event"",""trial"",""time""
""fullscreenenter"",""1"",""2870""
","
","
","""event"",""trial"",""time""
""fullscreenenter"",""1"",""2870""
","
","","","","","","2071.39999999851","<p> Your goal in this round is to take your friend for rides in different vehicles. </p></div>","","0","instructions","","","","","","","","","","",""
"learning-instructions","61","439868","0.0-9.0-1.0-0.1","5809","1","9","Male","approach_avoid_spark_v1","""event"",""trial"",""time""
""fullscreenenter"",""1"",""2870""
","
","
","""event"",""trial"",""time""
""fullscreenenter"",""1"",""2870""
","
","","","","","","1051.5","<p> Your friend enjoys riding in some vehicles but not in others.  </p><p> On each turn, you will see a vehicle.   </p><p> You need to decide whether to take your friend for a ride or not.  </p>","","0","instructions","","","","","","","","","","",""
"learning-instructions","62","447578","0.0-9.0-1.0-0.2","5809","1","9","Male","approach_avoid_spark_v1","""event"",""trial"",""time""
""fullscreenenter"",""1"",""2870""
","
","
","""event"",""trial"",""time""
""fullscreenenter"",""1"",""2870""
","
","","","","","","1271","<p> You can take your friend for a ride in the vehicle by pressing 1 and skip the ride by pressing 0. </p><br><div class=""choice-instructions-grid""> <div class=""choice-option""><img src=""images/approach.png"" class=""choice-option-img"" stage=""instructions"" position=""0"" ><div class=""choice-option-text""> Press ""1."" </div></div><div class=""choice-option""><img src=""images/avoid.png"" class=""choice-option-img"" stage=""instructions"" position=""1"" ><div class=""choice-option-text""> Press ""0."" </div></div>","","0","instructions","","","","","","","","","","",""
"learning-instructions","63","457620","0.0-9.0-1.0-0.3","5809","1","9","Male","approach_avoid_spark_v1","""event"",""trial"",""time""
""fullscreenenter"",""1"",""2870""
","
","
","""event"",""trial"",""time""
""fullscreenenter"",""1"",""2870""
","
","","","","","","1354.3999999985099","<p> If you take them for a ride in a vehicle they like, they will be thrilled! </p><p> But if you take them for a ride in a vehicle they do not like, they will be upset. </p>","","0","instructions","","","","","","","","","","",""
"learning-instructions","64","469926","0.0-9.0-1.0-0.4","5809","1","9","Male","approach_avoid_spark_v1","""event"",""trial"",""time""
""fullscreenenter"",""1"",""2870""
","
","
","""event"",""trial"",""time""
""fullscreenenter"",""1"",""2870""
","
","","","","","","679.7000000029802","<p> You will earn points based on how you made your friend feel. </p><p> If you made him thrilled, you will WIN anywhere from 1 - 9 points, </p><p> but if you made him upset, you will LOSE anywhere from 1 - 9 points. </p>","","0","instructions","","","","","","","","","","",""
"learning-instructions","65","477798","0.0-9.0-1.0-0.5","5809","1","9","Male","approach_avoid_spark_v1","""event"",""trial"",""time""
""fullscreenenter"",""1"",""2870""
","
","
","""event"",""trial"",""time""
""fullscreenenter"",""1"",""2870""
","
","","","","","","512.7000000029802","<p> You will see how many points you won or lost in the center of the screen. </p><p> Here is what you would see if you won 5 points: </p><p style=""color:green;font-size:50px;font-weight:bolder"">5</p>","","0","instructions","","","","","","","","","","",""
"learning-instructions","66","483942","0.0-9.0-1.0-0.6","5809","1","9","Male","approach_avoid_spark_v1","""event"",""trial"",""time""
""fullscreenenter"",""1"",""2870""
","
","
","""event"",""trial"",""time""
""fullscreenenter"",""1"",""2870""
","
","","","","","","2785.2000000029802","<p> And here is what you would see if you lost 3 points: </p><p style=""color:red;font-size:50px;font-weight:bolder"">-3</p>","","0","instructions","","","","","","","","","","",""
"learning-instructions","67","499680","0.0-9.0-1.0-0.7","5809","1","9","Male","approach_avoid_spark_v1","""event"",""trial"",""time""
""fullscreenenter"",""1"",""2870""
","
","
","""event"",""trial"",""time""
""fullscreenenter"",""1"",""2870""
","
","","","","","","503.6000000014901","<p> Some vehicles will make your friend REALLY thrilled or upset. </p><p> These vehicles will make you win or lose LOTS of points. </p><p> Other vehicles will only make him feel a little thrilled or upset. </p><p> These vehicles will make you win or lose small amounts of points. </p>","","0","instructions","","","","","","","","","","",""
"learning-instructions","68","512247","0.0-9.0-1.0-0.8","5809","1","9","Male","approach_avoid_spark_v1","""event"",""trial"",""time""
""fullscreenenter"",""1"",""2870""
","
","
","""event"",""trial"",""time""
""fullscreenenter"",""1"",""2870""
","
","","","","","","862.8999999985099","<p> If you choose to skip the ride, you will not win or lose any points. </p><p>  However, in the center of the screen, you will see the number of points you WOULD HAVE won or lost if you had taken your friend for a ride. </p>","","0","instructions","","","","","","","","","","",""
"learning-instructions","69","530879","0.0-9.0-1.0-0.9","5809","1","9","Male","approach_avoid_spark_v1","""event"",""trial"",""time""
""fullscreenenter"",""1"",""2870""
","
","
","""event"",""trial"",""time""
""fullscreenenter"",""1"",""2870""
","
","","","","","","7923.60000000149","<p> Here is what you might see if you did not take your friend for a ride but he would have enjoyed it: </p><p style=""color:grey; font-size:50px; display: inline-block; border-spacing: 15px; border-width:3px; border-style:solid; border-color:red"">  &nbsp; 6 &nbsp; </p><p> Remember, in this case, you would not win or lose ANY points because you skipped the ride.  </p>","","0","instructions","","","","","","","","","","",""
"learning-instructions","70","539863","0.0-9.0-1.0-0.10","5809","1","9","Male","approach_avoid_spark_v1","""event"",""trial"",""time""
""fullscreenenter"",""1"",""2870""
","
","
","""event"",""trial"",""time""
""fullscreenenter"",""1"",""2870""
","
","","","","","","1468","<p> Try to make the best choice for each vehicle because </p><p> at the end of the game, you will earn bonus money based on how many points you earned. </p>","","0","instructions","","","","","","","","","","",""
"learning-instructions","71","549407","0.0-9.0-1.0-0.11","5809","1","9","Male","approach_avoid_spark_v1","""event"",""trial"",""time""
""fullscreenenter"",""1"",""2870""
","
","
","""event"",""trial"",""time""
""fullscreenenter"",""1"",""2870""
","
","","","","","","1321.1999999955297","<p> You will have 3 seconds to make each choice. Try to respond before time runs out! </p><p> You will lose 5 points each time you do not make a response. </p>","","0","instructions","","","","","","","","","","",""
"html-keyboard-response","72","550018","0.0-9.0-2.0-0.0","5809","1","9","Male","approach_avoid_spark_v1","""event"",""trial"",""time""
""fullscreenenter"",""1"",""2870""
","
","
","""event"",""trial"",""time""
""fullscreenenter"",""1"",""2870""
","
","","","","","","null","<div style=""font-size:60px;"">+</div>","null","","fixation","","","","","","","","","","",""
"aa-learning-trial","73","553034","0.0-9.0-2.0-1.0","5809","1","9","Male","approach_avoid_spark_v1","""event"",""trial"",""time""
""fullscreenenter"",""1"",""2870""
","
","
","""event"",""trial"",""time""
""fullscreenenter"",""1"",""2870""
","
","","","","","","1042.5","images/boat7.png","","","learning","-5","-5","1","1","boat","vehicles","1","0","","bad","[-4]"
"html-keyboard-response","74","553546","0.0-9.0-2.0-0.1","5809","1","9","Male","approach_avoid_spark_v1","""event"",""trial"",""time""
""fullscreenenter"",""1"",""2870""
","
","
","""event"",""trial"",""time""
""fullscreenenter"",""1"",""2870""
","
","","","","","","null","<div style=""font-size:60px;"">+</div>","null","","fixation","","","","","","","","","","",""
"aa-learning-trial","75","556553","0.0-9.0-2.0-1.1","5809","1","9","Male","approach_avoid_spark_v1","""event"",""trial"",""time""
""fullscreenenter"",""1"",""2870""
","
","
","""event"",""trial"",""time""
""fullscreenenter"",""1"",""2870""
","
","","","","","","822.5999999940395","images/truck2.png","","","learning","1","1","1","1","truck","vehicles","1","0","","neutral","0"
"html-keyboard-response","76","557073","0.0-9.0-2.0-0.2","5809","1","9","Male","approach_avoid_spark_v1","""event"",""trial"",""time""
""fullscreenenter"",""1"",""2870""
","
","
","""event"",""trial"",""time""
""fullscreenenter"",""1"",""2870""
","
","","","","","","null","<div style=""font-size:60px;"">+</div>","null","","fixation","","","","","","","","","","",""
"aa-learning-trial","77","560093","0.0-9.0-2.0-1.2","5809","1","9","Male","approach_avoid_spark_v1","""event"",""trial"",""time""
""fullscreenenter"",""1"",""2870""
","
","
","""event"",""trial"",""time""
""fullscreenenter"",""1"",""2870""
","
","","","","","","1348","images/plane7.png","","","learning","5","5","1","1","plane","vehicles","1","0","","good","[3]"
"html-keyboard-response","78","560610","0.0-9.0-2.0-0.3","5809","1","9","Male","approach_avoid_spark_v1","""event"",""trial"",""time""
""fullscreenenter"",""1"",""2870""
","
","
","""event"",""trial"",""time""
""fullscreenenter"",""1"",""2870""
","
","","","","","","null","<div style=""font-size:60px;"">+</div>","null","","fixation","","","","","","","","","","",""
"aa-learning-trial","79","563623","0.0-9.0-2.0-1.3","5809","1","9","Male","approach_avoid_spark_v1","""event"",""trial"",""time""
""fullscreenenter"",""1"",""2870""
","
","
","""event"",""trial"",""time""
""fullscreenenter"",""1"",""2870""
","
","","","","","","812.7000000029802","images/plane2.png","","","learning","1","0","0","0","plane","vehicles","1","0","","good","[3]"
"html-keyboard-response","80","564128","0.0-9.0-2.0-0.4","5809","1","9","Male","approach_avoid_spark_v1","""event"",""trial"",""time""
""fullscreenenter"",""1"",""2870""
","
","
","""event"",""trial"",""time""
""fullscreenenter"",""1"",""2870""
","
","","","","","","null","<div style=""font-size:60px;"">+</div>","null","","fixation","","","","","","","","","","",""
"aa-learning-trial","81","567154","0.0-9.0-2.0-1.4","5809","1","9","Male","approach_avoid_spark_v1","""event"",""trial"",""time""
""fullscreenenter"",""1"",""2870""
","
","
","""event"",""trial"",""time""
""fullscreenenter"",""1"",""2870""
","
","","","","","","null","images/plane2.png","","","learning","3","-5","","null","plane","vehicles","1","0","","good","[3]"
"html-keyboard-response","82","567673","0.0-9.0-2.0-0.5","5809","1","9","Male","approach_avoid_spark_v1","""event"",""trial"",""time""
""fullscreenenter"",""1"",""2870""
","
","
","""event"",""trial"",""time""
""fullscreenenter"",""1"",""2870""
","
","","","","","","null","<div style=""font-size:60px;"">+</div>","null","","fixation","","","","","","","","","","",""
"aa-learning-trial","83","570683","0.0-9.0-2.0-1.5","5809","1","9","Male","approach_avoid_spark_v1","""event"",""trial"",""time""
""fullscreenenter"",""1"",""2870""
","
","
","""event"",""trial"",""time""
""fullscreenenter"",""1"",""2870""
","
","","","","","","1420","images/truck4.png","","","learning","-1","0","0","0","truck","vehicles","1","0","","neutral","0"
"html-keyboard-response","84","571203","0.0-9.0-2.0-0.6","5809","1","9","Male","approach_avoid_spark_v1","""event"",""trial"",""time""
""fullscreenenter"",""1"",""2870""
","
","
","""event"",""trial"",""time""
""fullscreenenter"",""1"",""2870""
","
","","","","","","null","<div style=""font-size:60px;"">+</div>","null","","fixation","","","","","","","","","","",""
"aa-learning-trial","85","574215","0.0-9.0-2.0-1.6","5809","1","9","Male","approach_avoid_spark_v1","""event"",""trial"",""time""
""fullscreenenter"",""1"",""2870""
","
","
","""event"",""trial"",""time""
""fullscreenenter"",""1"",""2870""
","
","","","","","","918.8999999985099","images/plane4.png","","","learning","2","2","1","1","plane","vehicles","1","0","","good","[3]"
"html-keyboard-response","86","574724","0.0-9.0-2.0-0.7","5809","1","9","Male","approach_avoid_spark_v1","""event"",""trial"",""time""
""fullscreenenter"",""1"",""2870""
","
","
","""event"",""trial"",""time""
""fullscreenenter"",""1"",""2870""
","
","","","","","","null","<div style=""font-size:60px;"">+</div>","null","","fixation","","","","","","","","","","",""
"aa-learning-trial","87","577745","0.0-9.0-2.0-1.7","5809","1","9","Male","approach_avoid_spark_v1","""event"",""trial"",""time""
""fullscreenenter"",""1"",""2870""
","
","
","""event"",""trial"",""time""
""fullscreenenter"",""1"",""2870""
","
","","","","","","948.3000000044703","images/boat6.png","","","learning","-1","-1","1","1","boat","vehicles","1","0","","bad","[-4]"
"html-keyboard-response","88","578249","0.0-9.0-2.0-0.8","5809","1","9","Male","approach_avoid_spark_v1","""event"",""trial"",""time""
""fullscreenenter"",""1"",""2870""
","
","
","""event"",""trial"",""time""
""fullscreenenter"",""1"",""2870""
","
","","","","","","null","<div style=""font-size:60px;"">+</div>","null","","fixation","","","","","","","","","","",""
"aa-learning-trial","89","581257","0.0-9.0-2.0-1.8","5809","1","9","Male","approach_avoid_spark_v1","""event"",""trial"",""time""
""fullscreenenter"",""1"",""2870""
","
","
","""event"",""trial"",""time""
""fullscreenenter"",""1"",""2870""
","
","","","","","","794.1000000014901","images/truck4.png","","","learning","2","0","0","0","truck","vehicles","1","0","","neutral","0"
"html-keyboard-response","90","581761","0.0-9.0-2.0-0.9","5809","1","9","Male","approach_avoid_spark_v1","""event"",""trial"",""time""
""fullscreenenter"",""1"",""2870""
","
","
","""event"",""trial"",""time""
""fullscreenenter"",""1"",""2870""
","
","","","","","","null","<div style=""font-size:60px;"">+</div>","null","","fixation","","","","","","","","","","",""
"aa-learning-trial","91","584769","0.0-9.0-2.0-1.9","5809","1","9","Male","approach_avoid_spark_v1","""event"",""trial"",""time""
""fullscreenenter"",""1"",""2870""
","
","
","""event"",""trial"",""time""
""fullscreenenter"",""1"",""2870""
","
","","","","","","1059.2999999970198","images/truck6.png","","","learning","1","1","1","1","truck","vehicles","1","0","","neutral","0"
"html-keyboard-response","92","585273","0.0-9.0-2.0-0.10","5809","1","9","Male","approach_avoid_spark_v1","""event"",""trial"",""time""
""fullscreenenter"",""1"",""2870""
","
","
","""event"",""trial"",""time""
""fullscreenenter"",""1"",""2870""
","
","","","","","","null","<div style=""font-size:60px;"">+</div>","null","","fixation","","","","","","","","","","",""
"aa-learning-trial","93","588281","0.0-9.0-2.0-1.10","5809","1","9","Male","approach_avoid_spark_v1","""event"",""trial"",""time""
""fullscreenenter"",""1"",""2870""
","
","
","""event"",""trial"",""time""
""fullscreenenter"",""1"",""2870""
","
","","","","","","806.3000000044703","images/truck6.png","","","learning","-1","-1","1","1","truck","vehicles","1","0","","neutral","0"
"html-keyboard-response","94","588785","0.0-9.0-2.0-0.11","5809","1","9","Male","approach_avoid_spark_v1","""event"",""trial"",""time""
""fullscreenenter"",""1"",""2870""
","
","
","""event"",""trial"",""time""
""fullscreenenter"",""1"",""2870""
","
","","","","","","null","<div style=""font-size:60px;"">+</div>","null","","fixation","","","","","","","","","","",""
"aa-learning-trial","95","591793","0.0-9.0-2.0-1.11","5809","1","9","Male","approach_avoid_spark_v1","""event"",""trial"",""time""
""fullscreenenter"",""1"",""2870""
","
","
","""event"",""trial"",""time""
""fullscreenenter"",""1"",""2870""
","
","","","","","","819.5999999940395","images/plane4.png","","","learning","2","2","1","1","plane","vehicles","1","0","","good","[3]"
"html-keyboard-response","96","592297","0.0-9.0-2.0-0.12","5809","1","9","Male","approach_avoid_spark_v1","""event"",""trial"",""time""
""fullscreenenter"",""1"",""2870""
","
","
","""event"",""trial"",""time""
""fullscreenenter"",""1"",""2870""
","
","","","","","","null","<div style=""font-size:60px;"">+</div>","null","","fixation","","","","","","","","","","",""
"aa-learning-trial","97","595306","0.0-9.0-2.0-1.12","5809","1","9","Male","approach_avoid_spark_v1","""event"",""trial"",""time""
""fullscreenenter"",""1"",""2870""
","
","
","""event"",""trial"",""time""
""fullscreenenter"",""1"",""2870""
","
","","","","","","1021.9000000059605","images/boat8.png","","","learning","-4","-4","1","1","boat","vehicles","1","0","","bad","[-4]"
"html-keyboard-response","98","595809","0.0-9.0-2.0-0.13","5809","1","9","Male","approach_avoid_spark_v1","""event"",""trial"",""time""
""fullscreenenter"",""1"",""2870""
","
","
","""event"",""trial"",""time""
""fullscreenenter"",""1"",""2870""
","
","","","","","","null","<div style=""font-size:60px;"">+</div>","null","","fixation","","","","","","","","","","",""
"aa-learning-trial","99","598817","0.0-9.0-2.0-1.13","5809","1","9","Male","approach_avoid_spark_v1","""event"",""trial"",""time""
""fullscreenenter"",""1"",""2870""
","
","
","""event"",""trial"",""time""
""fullscreenenter"",""1"",""2870""
","
","","","","","","740.1000000014901","images/boat8.png","","","learning","-3","-3","1","1","boat","vehicles","1","0","","bad","[-4]"
"html-keyboard-response","100","599322","0.0-9.0-2.0-0.14","5809","1","9","Male","approach_avoid_spark_v1","""event"",""trial"",""time""
""fullscreenenter"",""1"",""2870""
","
","
","""event"",""trial"",""time""
""fullscreenenter"",""1"",""2870""
","
","","","","","","null","<div style=""font-size:60px;"">+</div>","null","","fixation","","","","","","","","","","",""
"aa-learning-trial","101","602339","0.0-9.0-2.0-1.14","5809","1","9","Male","approach_avoid_spark_v1","""event"",""trial"",""time""
""fullscreenenter"",""1"",""2870""
","
","
","""event"",""trial"",""time""
""fullscreenenter"",""1"",""2870""
","
","","","","","","812.3000000044703","images/boat6.png","","","learning","-3","-3","1","1","boat","vehicles","1","0","","bad","[-4]"
"html-keyboard-response","102","602849","0.0-9.0-2.0-0.15","5809","1","9","Male","approach_avoid_spark_v1","""event"",""trial"",""time""
""fullscreenenter"",""1"",""2870""
","
","
","""event"",""trial"",""time""
""fullscreenenter"",""1"",""2870""
","
","","","","","","null","<div style=""font-size:60px;"">+</div>","null","","fixation","","","","","","","","","","",""
"aa-learning-trial","103","605858","0.0-9.0-2.0-1.15","5809","1","9","Male","approach_avoid_spark_v1","""event"",""trial"",""time""
""fullscreenenter"",""1"",""2870""
","
","
","""event"",""trial"",""time""
""fullscreenenter"",""1"",""2870""
","
","","","","","","803.7999999970198","images/plane4.png","","","learning","2","0","0","0","plane","vehicles","1","0","","good","[3]"
"html-keyboard-response","104","606360","0.0-9.0-2.0-0.16","5809","1","9","Male","approach_avoid_spark_v1","""event"",""trial"",""time""
""fullscreenenter"",""1"",""2870""
","
","
","""event"",""trial"",""time""
""fullscreenenter"",""1"",""2870""
","
","","","","","","null","<div style=""font-size:60px;"">+</div>","null","","fixation","","","","","","","","","","",""
"aa-learning-trial","105","609365","0.0-9.0-2.0-1.16","5809","1","9","Male","approach_avoid_spark_v1","""event"",""trial"",""time""
""fullscreenenter"",""1"",""2870""
","
","
","""event"",""trial"",""time""
""fullscreenenter"",""1"",""2870""
","
","","","","","","1510.5","images/plane6.png","","","learning","3","3","1","1","plane","vehicles","1","0","","good","[3]"
"html-keyboard-response","106","609873","0.0-9.0-2.0-0.17","5809","1","9","Male","approach_avoid_spark_v1","""event"",""trial"",""time""
""fullscreenenter"",""1"",""2870""
","
","
","""event"",""trial"",""time""
""fullscreenenter"",""1"",""2870""
","
","","","","","","null","<div style=""font-size:60px;"">+</div>","null","","fixation","","","","","","","","","","",""
"aa-learning-trial","107","612881","0.0-9.0-2.0-1.17","5809","1","9","Male","approach_avoid_spark_v1","""event"",""trial"",""time""
""fullscreenenter"",""1"",""2870""
","
","
","""event"",""trial"",""time""
""fullscreenenter"",""1"",""2870""
","
","","","","","","1219.3999999985099","images/plane7.png","","","learning","4","0","0","0","plane","vehicles","1","0","","good","[3]"
"html-keyboard-response","108","613385","0.0-9.0-2.0-0.18","5809","1","9","Male","approach_avoid_spark_v1","""event"",""trial"",""time""
""fullscreenenter"",""1"",""2870""
","
","
","""event"",""trial"",""time""
""fullscreenenter"",""1"",""2870""
","
","","","","","","null","<div style=""font-size:60px;"">+</div>","null","","fixation","","","","","","","","","","",""
"aa-learning-trial","109","616394","0.0-9.0-2.0-1.18","5809","1","9","Male","approach_avoid_spark_v1","""event"",""trial"",""time""
""fullscreenenter"",""1"",""2870""
","
","
","""event"",""trial"",""time""
""fullscreenenter"",""1"",""2870""
","
","","","","","","695.5","images/boat6.png","","","learning","-4","-4","1","1","boat","vehicles","1","0","","bad","[-4]"
"html-keyboard-response","110","616897","0.0-9.0-2.0-0.19","5809","1","9","Male","approach_avoid_spark_v1","""event"",""trial"",""time""
""fullscreenenter"",""1"",""2870""
","
","
","""event"",""trial"",""time""
""fullscreenenter"",""1"",""2870""
","
","","","","","","null","<div style=""font-size:60px;"">+</div>","null","","fixation","","","","","","","","","","",""
"aa-learning-trial","111","619905","0.0-9.0-2.0-1.19","5809","1","9","Male","approach_avoid_spark_v1","""event"",""trial"",""time""
""fullscreenenter"",""1"",""2870""
","
","
","""event"",""trial"",""time""
""fullscreenenter"",""1"",""2870""
","
","","","","","","2131.5","images/truck8.png","","","learning","1","0","0","0","truck","vehicles","1","0","","neutral","0"
"html-keyboard-response","112","620409","0.0-9.0-2.0-0.20","5809","1","9","Male","approach_avoid_spark_v1","""event"",""trial"",""time""
""fullscreenenter"",""1"",""2870""
","
","
","""event"",""trial"",""time""
""fullscreenenter"",""1"",""2870""
","
","","","","","","null","<div style=""font-size:60px;"">+</div>","null","","fixation","","","","","","","","","","",""
"aa-learning-trial","113","623417","0.0-9.0-2.0-1.20","5809","1","9","Male","approach_avoid_spark_v1","""event"",""trial"",""time""
""fullscreenenter"",""1"",""2870""
","
","
","""event"",""trial"",""time""
""fullscreenenter"",""1"",""2870""
","
","","","","","","1185.4000000059605","images/truck1.png","","","learning","[-1]","-1","1","1","truck","vehicles","1","0","","neutral","0"
"html-keyboard-response","114","623921","0.0-9.0-2.0-0.21","5809","1","9","Male","approach_avoid_spark_v1","""event"",""trial"",""time""
""fullscreenenter"",""1"",""2870""
","
","
","""event"",""trial"",""time""
""fullscreenenter"",""1"",""2870""
","
","","","","","","null","<div style=""font-size:60px;"">+</div>","null","","fixation","","","","","","","","","","",""
"aa-learning-trial","115","626929","0.0-9.0-2.0-1.21","5809","1","9","Male","approach_avoid_spark_v1","""event"",""trial"",""time""
""fullscreenenter"",""1"",""2870""
","
","
","""event"",""trial"",""time""
""fullscreenenter"",""1"",""2870""
","
","","","","","","981.7999999970198","images/boat7.png","","","learning","-6","-6","1","1","boat","vehicles","1","0","","bad","[-4]"
"html-keyboard-response","116","627433","0.0-9.0-2.0-0.22","5809","1","9","Male","approach_avoid_spark_v1","""event"",""trial"",""time""
""fullscreenenter"",""1"",""2870""
","
","
","""event"",""trial"",""time""
""fullscreenenter"",""1"",""2870""
","
","","","","","","null","<div style=""font-size:60px;"">+</div>","null","","fixation","","","","","","","","","","",""
"aa-learning-trial","117","630441","0.0-9.0-2.0-1.22","5809","1","9","Male","approach_avoid_spark_v1","""event"",""trial"",""time""
""fullscreenenter"",""1"",""2870""
","
","
","""event"",""trial"",""time""
""fullscreenenter"",""1"",""2870""
","
","","","","","","494.79999999701977","images/boat4.png","","","learning","-4","0","0","0","boat","vehicles","1","0","","bad","[-4]"
"html-keyboard-response","118","630946","0.0-9.0-2.0-0.23","5809","1","9","Male","approach_avoid_spark_v1","""event"",""trial"",""time""
""fullscreenenter"",""1"",""2870""
","
","
","""event"",""trial"",""time""
""fullscreenenter"",""1"",""2870""
","
","","","","","","null","<div style=""font-size:60px;"">+</div>","null","","fixation","","","","","","","","","","",""
"aa-learning-trial","119","633953","0.0-9.0-2.0-1.23","5809","1","9","Male","approach_avoid_spark_v1","""event"",""trial"",""time""
""fullscreenenter"",""1"",""2870""
","
","
","""event"",""trial"",""time""
""fullscreenenter"",""1"",""2870""
","
","","","","","","1579.3999999985099","images/truck4.png","","","learning","-2","-2","1","1","truck","vehicles","1","0","","neutral","0"
"html-keyboard-response","120","634458","0.0-9.0-2.0-0.24","5809","1","9","Male","approach_avoid_spark_v1","""event"",""trial"",""time""
""fullscreenenter"",""1"",""2870""
","
","
","""event"",""trial"",""time""
""fullscreenenter"",""1"",""2870""
","
","","","","","","null","<div style=""font-size:60px;"">+</div>","null","","fixation","","","","","","","","","","",""
"aa-learning-trial","121","637465","0.0-9.0-2.0-1.24","5809","1","9","Male","approach_avoid_spark_v1","""event"",""trial"",""time""
""fullscreenenter"",""1"",""2870""
","
","
","""event"",""trial"",""time""
""fullscreenenter"",""1"",""2870""
","
","","","","","","1261.2000000029802","images/plane4.png","","","learning","3","0","0","0","plane","vehicles","1","0","","good","[3]"
"html-keyboard-response","122","637969","0.0-9.0-2.0-0.25","5809","1","9","Male","approach_avoid_spark_v1","""event"",""trial"",""time""
""fullscreenenter"",""1"",""2870""
","
","
","""event"",""trial"",""time""
""fullscreenenter"",""1"",""2870""
","
","","","","","","null","<div style=""font-size:60px;"">+</div>","null","","fixation","","","","","","","","","","",""
"aa-learning-trial","123","640977","0.0-9.0-2.0-1.25","5809","1","9","Male","approach_avoid_spark_v1","""event"",""trial"",""time""
""fullscreenenter"",""1"",""2870""
","
","
","""event"",""trial"",""time""
""fullscreenenter"",""1"",""2870""
","
","","","","","","1540.7000000029802","images/plane2.png","","","learning","3","0","0","0","plane","vehicles","1","0","","good","[3]"
"html-keyboard-response","124","641481","0.0-9.0-2.0-0.26","5809","1","9","Male","approach_avoid_spark_v1","""event"",""trial"",""time""
""fullscreenenter"",""1"",""2870""
","
","
","""event"",""trial"",""time""
""fullscreenenter"",""1"",""2870""
","
","","","","","","null","<div style=""font-size:60px;"">+</div>","null","","fixation","","","","","","","","","","",""
"aa-learning-trial","125","644490","0.0-9.0-2.0-1.26","5809","1","9","Male","approach_avoid_spark_v1","""event"",""trial"",""time""
""fullscreenenter"",""1"",""2870""
","
","
","""event"",""trial"",""time""
""fullscreenenter"",""1"",""2870""
","
","","","","","","1499.5","images/plane2.png","","","learning","5","5","1","1","plane","vehicles","1","0","","good","[3]"
"html-keyboard-response","126","644993","0.0-9.0-2.0-0.27","5809","1","9","Male","approach_avoid_spark_v1","""event"",""trial"",""time""
""fullscreenenter"",""1"",""2870""
","
","
","""event"",""trial"",""time""
""fullscreenenter"",""1"",""2870""
","
","","","","","","null","<div style=""font-size:60px;"">+</div>","null","","fixation","","","","","","","","","","",""
"aa-learning-trial","127","648002","0.0-9.0-2.0-1.27","5809","1","9","Male","approach_avoid_spark_v1","""event"",""trial"",""time""
""fullscreenenter"",""1"",""2870""
","
","
","""event"",""trial"",""time""
""fullscreenenter"",""1"",""2870""
","
","","","","","","1738.2000000029802","images/truck6.png","","","learning","[-1]","-1","1","1","truck","vehicles","1","0","","neutral","0"
"html-keyboard-response","128","648505","0.0-9.0-2.0-0.28","5809","1","9","Male","approach_avoid_spark_v1","""event"",""trial"",""time""
""fullscreenenter"",""1"",""2870""
","
","
","""event"",""trial"",""time""
""fullscreenenter"",""1"",""2870""
","
","","","","","","null","<div style=""font-size:60px;"">+</div>","null","","fixation","","","","","","","","","","",""
"aa-learning-trial","129","651513","0.0-9.0-2.0-1.28","5809","1","9","Male","approach_avoid_spark_v1","""event"",""trial"",""time""
""fullscreenenter"",""1"",""2870""
","
","
","""event"",""trial"",""time""
""fullscreenenter"",""1"",""2870""
","
","","","","","","970.7000000029802","images/truck2.png","","","learning","[1]","1","1","1","truck","vehicles","1","0","","neutral","0"
"html-keyboard-response","130","652017","0.0-9.0-2.0-0.29","5809","1","9","Male","approach_avoid_spark_v1","""event"",""trial"",""time""
""fullscreenenter"",""1"",""2870""
","
","
","""event"",""trial"",""time""
""fullscreenenter"",""1"",""2870""
","
","","","","","","null","<div style=""font-size:60px;"">+</div>","null","","fixation","","","","","","","","","","",""
"aa-learning-trial","131","655026","0.0-9.0-2.0-1.29","5809","1","9","Male","approach_avoid_spark_v1","""event"",""trial"",""time""
""fullscreenenter"",""1"",""2870""
","
","
","""event"",""trial"",""time""
""fullscreenenter"",""1"",""2870""
","
","","","","","","1240","images/plane4.png","","","learning","1","1","1","1","plane","vehicles","1","0","","good","[3]"
"html-keyboard-response","132","655529","0.0-9.0-2.0-0.30","5809","1","9","Male","approach_avoid_spark_v1","""event"",""trial"",""time""
""fullscreenenter"",""1"",""2870""
","
","
","""event"",""trial"",""time""
""fullscreenenter"",""1"",""2870""
","
","","","","","","null","<div style=""font-size:60px;"">+</div>","null","","fixation","","","","","","","","","","",""
"aa-learning-trial","133","658538","0.0-9.0-2.0-1.30","5809","1","9","Male","approach_avoid_spark_v1","""event"",""trial"",""time""
""fullscreenenter"",""1"",""2870""
","
","
","""event"",""trial"",""time""
""fullscreenenter"",""1"",""2870""
","
","","","","","","790.9000000059605","images/plane7.png","","","learning","2","2","1","1","plane","vehicles","1","0","","good","[3]"
"html-keyboard-response","134","659041","0.0-9.0-2.0-0.31","5809","1","9","Male","approach_avoid_spark_v1","""event"",""trial"",""time""
""fullscreenenter"",""1"",""2870""
","
","
","""event"",""trial"",""time""
""fullscreenenter"",""1"",""2870""
","
","","","","","","null","<div style=""font-size:60px;"">+</div>","null","","fixation","","","","","","","","","","",""
"aa-learning-trial","135","662049","0.0-9.0-2.0-1.31","5809","1","9","Male","approach_avoid_spark_v1","""event"",""trial"",""time""
""fullscreenenter"",""1"",""2870""
","
","
","""event"",""trial"",""time""
""fullscreenenter"",""1"",""2870""
","
","","","","","","418.1000000014901","images/truck2.png","","","learning","1","1","1","1","truck","vehicles","1","0","","neutral","0"
"html-keyboard-response","136","662553","0.0-9.0-2.0-0.32","5809","1","9","Male","approach_avoid_spark_v1","""event"",""trial"",""time""
""fullscreenenter"",""1"",""2870""
","
","
","""event"",""trial"",""time""
""fullscreenenter"",""1"",""2870""
","
","","","","","","null","<div style=""font-size:60px;"">+</div>","null","","fixation","","","","","","","","","","",""
"aa-learning-trial","137","665561","0.0-9.0-2.0-1.32","5809","1","9","Male","approach_avoid_spark_v1","""event"",""trial"",""time""
""fullscreenenter"",""1"",""2870""
","
","
","""event"",""trial"",""time""
""fullscreenenter"",""1"",""2870""
","
","","","","","","584.2999999970198","images/boat7.png","","","learning","-4","0","0","0","boat","vehicles","1","0","","bad","[-4]"
"html-keyboard-response","138","666065","0.0-9.0-2.0-0.33","5809","1","9","Male","approach_avoid_spark_v1","""event"",""trial"",""time""
""fullscreenenter"",""1"",""2870""
","
","
","""event"",""trial"",""time""
""fullscreenenter"",""1"",""2870""
","
","","","","","","null","<div style=""font-size:60px;"">+</div>","null","","fixation","","","","","","","","","","",""
"aa-learning-trial","139","669073","0.0-9.0-2.0-1.33","5809","1","9","Male","approach_avoid_spark_v1","""event"",""trial"",""time""
""fullscreenenter"",""1"",""2870""
","
","
","""event"",""trial"",""time""
""fullscreenenter"",""1"",""2870""
","
","","","","","","634.5","images/boat6.png","","","learning","-3","-3","1","1","boat","vehicles","1","0","","bad","[-4]"
"html-keyboard-response","140","669578","0.0-9.0-2.0-0.34","5809","1","9","Male","approach_avoid_spark_v1","""event"",""trial"",""time""
""fullscreenenter"",""1"",""2870""
","
","
","""event"",""trial"",""time""
""fullscreenenter"",""1"",""2870""
","
","","","","","","null","<div style=""font-size:60px;"">+</div>","null","","fixation","","","","","","","","","","",""
"aa-learning-trial","141","672586","0.0-9.0-2.0-1.34","5809","1","9","Male","approach_avoid_spark_v1","""event"",""trial"",""time""
""fullscreenenter"",""1"",""2870""
","
","
","""event"",""trial"",""time""
""fullscreenenter"",""1"",""2870""
","
","","","","","","771.8999999985099","images/boat6.png","","","learning","-5","0","0","0","boat","vehicles","1","0","","bad","[-4]"
"html-keyboard-response","142","673089","0.0-9.0-2.0-0.35","5809","1","9","Male","approach_avoid_spark_v1","""event"",""trial"",""time""
""fullscreenenter"",""1"",""2870""
","
","
","""event"",""trial"",""time""
""fullscreenenter"",""1"",""2870""
","
","","","","","","null","<div style=""font-size:60px;"">+</div>","null","","fixation","","","","","","","","","","",""
"aa-learning-trial","143","676097","0.0-9.0-2.0-1.35","5809","1","9","Male","approach_avoid_spark_v1","""event"",""trial"",""time""
""fullscreenenter"",""1"",""2870""
","
","
","""event"",""trial"",""time""
""fullscreenenter"",""1"",""2870""
","
","","","","","","671.5","images/boat8.png","","","learning","-4","-4","1","1","boat","vehicles","1","0","","bad","[-4]"
"html-keyboard-response","144","676602","0.0-9.0-2.0-0.36","5809","1","9","Male","approach_avoid_spark_v1","""event"",""trial"",""time""
""fullscreenenter"",""1"",""2870""
","
","
","""event"",""trial"",""time""
""fullscreenenter"",""1"",""2870""
","
","","","","","","null","<div style=""font-size:60px;"">+</div>","null","","fixation","","","","","","","","","","",""
"aa-learning-trial","145","679610","0.0-9.0-2.0-1.36","5809","1","9","Male","approach_avoid_spark_v1","""event"",""trial"",""time""
""fullscreenenter"",""1"",""2870""
","
","
","""event"",""trial"",""time""
""fullscreenenter"",""1"",""2870""
","
","","","","","","1374.3000000044703","images/truck6.png","","","learning","[1]","0","0","0","truck","vehicles","1","0","","neutral","0"
"html-keyboard-response","146","680113","0.0-9.0-2.0-0.37","5809","1","9","Male","approach_avoid_spark_v1","""event"",""trial"",""time""
""fullscreenenter"",""1"",""2870""
","
","
","""event"",""trial"",""time""
""fullscreenenter"",""1"",""2870""
","
","","","","","","null","<div style=""font-size:60px;"">+</div>","null","","fixation","","","","","","","","","","",""
"aa-learning-trial","147","683122","0.0-9.0-2.0-1.37","5809","1","9","Male","approach_avoid_spark_v1","""event"",""trial"",""time""
""fullscreenenter"",""1"",""2870""
","
","
","""event"",""trial"",""time""
""fullscreenenter"",""1"",""2870""
","
","","","","","","1311.5","images/truck4.png","","","learning","[-1]","0","0","0","truck","vehicles","1","0","","neutral","0"
"html-keyboard-response","148","683625","0.0-9.0-2.0-0.38","5809","1","9","Male","approach_avoid_spark_v1","""event"",""trial"",""time""
""fullscreenenter"",""1"",""2870""
","
","
","""event"",""trial"",""time""
""fullscreenenter"",""1"",""2870""
","
","","","","","","null","<div style=""font-size:60px;"">+</div>","null","","fixation","","","","","","","","","","",""
"aa-learning-trial","149","686633","0.0-9.0-2.0-1.38","5809","1","9","Male","approach_avoid_spark_v1","""event"",""trial"",""time""
""fullscreenenter"",""1"",""2870""
","
","
","""event"",""trial"",""time""
""fullscreenenter"",""1"",""2870""
","
","","","","","","1293.5","images/truck6.png","","","learning","1","1","1","1","truck","vehicles","1","0","","neutral","0"
"html-keyboard-response","150","687137","0.0-9.0-2.0-0.39","5809","1","9","Male","approach_avoid_spark_v1","""event"",""trial"",""time""
""fullscreenenter"",""1"",""2870""
","
","
","""event"",""trial"",""time""
""fullscreenenter"",""1"",""2870""
","
","","","","","","null","<div style=""font-size:60px;"">+</div>","null","","fixation","","","","","","","","","","",""
"aa-learning-trial","151","690145","0.0-9.0-2.0-1.39","5809","1","9","Male","approach_avoid_spark_v1","""event"",""trial"",""time""
""fullscreenenter"",""1"",""2870""
","
","
","""event"",""trial"",""time""
""fullscreenenter"",""1"",""2870""
","
","","","","","","844.9000000059605","images/boat8.png","","","learning","-3","0","0","0","boat","vehicles","1","0","","bad","[-4]"
"html-keyboard-response","152","690649","0.0-9.0-2.0-0.40","5809","1","9","Male","approach_avoid_spark_v1","""event"",""trial"",""time""
""fullscreenenter"",""1"",""2870""
","
","
","""event"",""trial"",""time""
""fullscreenenter"",""1"",""2870""
","
","","","","","","null","<div style=""font-size:60px;"">+</div>","null","","fixation","","","","","","","","","","",""
"aa-learning-trial","153","693658","0.0-9.0-2.0-1.40","5809","1","9","Male","approach_avoid_spark_v1","""event"",""trial"",""time""
""fullscreenenter"",""1"",""2870""
","
","
","""event"",""trial"",""time""
""fullscreenenter"",""1"",""2870""
","
","","","","","","699","images/plane2.png","","","learning","5","5","1","1","plane","vehicles","1","0","","good","[3]"
"html-keyboard-response","154","694161","0.0-9.0-2.0-0.41","5809","1","9","Male","approach_avoid_spark_v1","""event"",""trial"",""time""
""fullscreenenter"",""1"",""2870""
","
","
","""event"",""trial"",""time""
""fullscreenenter"",""1"",""2870""
","
","","","","","","null","<div style=""font-size:60px;"">+</div>","null","","fixation","","","","","","","","","","",""
"aa-learning-trial","155","697169","0.0-9.0-2.0-1.41","5809","1","9","Male","approach_avoid_spark_v1","""event"",""trial"",""time""
""fullscreenenter"",""1"",""2870""
","
","
","""event"",""trial"",""time""
""fullscreenenter"",""1"",""2870""
","
","","","","","","1451.9000000059605","images/boat5.png","","","learning","-4","-4","1","1","boat","vehicles","1","0","","bad","[-4]"
"html-keyboard-response","156","697673","0.0-9.0-2.0-0.42","5809","1","9","Male","approach_avoid_spark_v1","""event"",""trial"",""time""
""fullscreenenter"",""1"",""2870""
","
","
","""event"",""trial"",""time""
""fullscreenenter"",""1"",""2870""
","
","","","","","","null","<div style=""font-size:60px;"">+</div>","null","","fixation","","","","","","","","","","",""
"aa-learning-trial","157","700682","0.0-9.0-2.0-1.42","5809","1","9","Male","approach_avoid_spark_v1","""event"",""trial"",""time""
""fullscreenenter"",""1"",""2870""
","
","
","""event"",""trial"",""time""
""fullscreenenter"",""1"",""2870""
","
","","","","","","653.5999999940395","images/boat6.png","","","learning","-2","0","0","0","boat","vehicles","1","0","","bad","[-4]"
"html-keyboard-response","158","701186","0.0-9.0-2.0-0.43","5809","1","9","Male","approach_avoid_spark_v1","""event"",""trial"",""time""
""fullscreenenter"",""1"",""2870""
","
","
","""event"",""trial"",""time""
""fullscreenenter"",""1"",""2870""
","
","","","","","","null","<div style=""font-size:60px;"">+</div>","null","","fixation","","","","","","","","","","",""
"aa-learning-trial","159","704193","0.0-9.0-2.0-1.43","5809","1","9","Male","approach_avoid_spark_v1","""event"",""trial"",""time""
""fullscreenenter"",""1"",""2870""
","
","
","""event"",""trial"",""time""
""fullscreenenter"",""1"",""2870""
","
","","","","","","543.5","images/boat8.png","","","learning","-5","0","0","0","boat","vehicles","1","0","","bad","[-4]"
"html-keyboard-response","160","704697","0.0-9.0-2.0-0.44","5809","1","9","Male","approach_avoid_spark_v1","""event"",""trial"",""time""
""fullscreenenter"",""1"",""2870""
","
","
","""event"",""trial"",""time""
""fullscreenenter"",""1"",""2870""
","
","","","","","","null","<div style=""font-size:60px;"">+</div>","null","","fixation","","","","","","","","","","",""
"aa-learning-trial","161","707705","0.0-9.0-2.0-1.44","5809","1","9","Male","approach_avoid_spark_v1","""event"",""trial"",""time""
""fullscreenenter"",""1"",""2870""
","
","
","""event"",""trial"",""time""
""fullscreenenter"",""1"",""2870""
","
","","","","","","1793.7000000029802","images/boat8.png","","","learning","-4","0","0","0","boat","vehicles","1","0","","bad","[-4]"
"html-keyboard-response","162","708209","0.0-9.0-2.0-0.45","5809","1","9","Male","approach_avoid_spark_v1","""event"",""trial"",""time""
""fullscreenenter"",""1"",""2870""
","
","
","""event"",""trial"",""time""
""fullscreenenter"",""1"",""2870""
","
","","","","","","null","<div style=""font-size:60px;"">+</div>","null","","fixation","","","","","","","","","","",""
"aa-learning-trial","163","711218","0.0-9.0-2.0-1.45","5809","1","9","Male","approach_avoid_spark_v1","""event"",""trial"",""time""
""fullscreenenter"",""1"",""2870""
","
","
","""event"",""trial"",""time""
""fullscreenenter"",""1"",""2870""
","
","","","","","","1889.3999999985099","images/plane2.png","","","learning","5","0","0","0","plane","vehicles","1","0","","good","[3]"
"html-keyboard-response","164","711722","0.0-9.0-2.0-0.46","5809","1","9","Male","approach_avoid_spark_v1","""event"",""trial"",""time""
""fullscreenenter"",""1"",""2870""
","
","
","""event"",""trial"",""time""
""fullscreenenter"",""1"",""2870""
","
","","","","","","null","<div style=""font-size:60px;"">+</div>","null","","fixation","","","","","","","","","","",""
"aa-learning-trial","165","714730","0.0-9.0-2.0-1.46","5809","1","9","Male","approach_avoid_spark_v1","""event"",""trial"",""time""
""fullscreenenter"",""1"",""2870""
","
","
","""event"",""trial"",""time""
""fullscreenenter"",""1"",""2870""
","
","","","","","","972.6000000014901","images/truck4.png","","","learning","1","1","1","1","truck","vehicles","1","0","","neutral","0"
"html-keyboard-response","166","715234","0.0-9.0-2.0-0.47","5809","1","9","Male","approach_avoid_spark_v1","""event"",""trial"",""time""
""fullscreenenter"",""1"",""2870""
","
","
","""event"",""trial"",""time""
""fullscreenenter"",""1"",""2870""
","
","","","","","","null","<div style=""font-size:60px;"">+</div>","null","","fixation","","","","","","","","","","",""
"aa-learning-trial","167","718242","0.0-9.0-2.0-1.47","5809","1","9","Male","approach_avoid_spark_v1","""event"",""trial"",""time""
""fullscreenenter"",""1"",""2870""
","
","
","""event"",""trial"",""time""
""fullscreenenter"",""1"",""2870""
","
","","","","","","null","images/plane1.png","","","learning","2","-5","","null","plane","vehicles","1","0","","good","[3]"
"html-keyboard-response","168","718747","0.0-9.0-2.0-0.48","5809","1","9","Male","approach_avoid_spark_v1","""event"",""trial"",""time""
""fullscreenenter"",""1"",""2870""
","
","
","""event"",""trial"",""time""
""fullscreenenter"",""1"",""2870""
","
","","","","","","null","<div style=""font-size:60px;"">+</div>","null","","fixation","","","","","","","","","","",""
"aa-learning-trial","169","721754","0.0-9.0-2.0-1.48","5809","1","9","Male","approach_avoid_spark_v1","""event"",""trial"",""time""
""fullscreenenter"",""1"",""2870""
","
","
","""event"",""trial"",""time""
""fullscreenenter"",""1"",""2870""
","
","","","","","","880.5999999940395","images/truck6.png","","","learning","[-1]","-1","1","1","truck","vehicles","1","0","","neutral","0"
"html-keyboard-response","170","722258","0.0-9.0-2.0-0.49","5809","1","9","Male","approach_avoid_spark_v1","""event"",""trial"",""time""
""fullscreenenter"",""1"",""2870""
","
","
","""event"",""trial"",""time""
""fullscreenenter"",""1"",""2870""
","
","","","","","","null","<div style=""font-size:60px;"">+</div>","null","","fixation","","","","","","","","","","",""
"aa-learning-trial","171","725267","0.0-9.0-2.0-1.49","5809","1","9","Male","approach_avoid_spark_v1","""event"",""trial"",""time""
""fullscreenenter"",""1"",""2870""
","
","
","""event"",""trial"",""time""
""fullscreenenter"",""1"",""2870""
","
","","","","","","592.7999999970198","images/plane4.png","","","learning","2","2","1","1","plane","vehicles","1","0","","good","[3]"
"html-keyboard-response","172","725769","0.0-9.0-2.0-0.50","5809","1","9","Male","approach_avoid_spark_v1","""event"",""trial"",""time""
""fullscreenenter"",""1"",""2870""
","
","
","""event"",""trial"",""time""
""fullscreenenter"",""1"",""2870""
","
","","","","","","null","<div style=""font-size:60px;"">+</div>","null","","fixation","","","","","","","","","","",""
"aa-learning-trial","173","728778","0.0-9.0-2.0-1.50","5809","1","9","Male","approach_avoid_spark_v1","""event"",""trial"",""time""
""fullscreenenter"",""1"",""2870""
","
","
","""event"",""trial"",""time""
""fullscreenenter"",""1"",""2870""
","
","","","","","","883.1999999955297","images/truck4.png","","","learning","1","-5","2","","truck","vehicles","1","0","","neutral","0"
"html-button-response","174","733772","0.0-9.0-3.0","5809","1","9","Male","approach_avoid_spark_v1","""event"",""trial"",""time""
""fullscreenenter"",""1"",""2870""
","
","
","""event"",""trial"",""time""
""fullscreenenter"",""1"",""2870""
","
","","","","","","4992.30000000447","<p> You have completed the round! <p> In this round, you earned -25 points! </p>","0","","break","","","","","","","","","","",""
"html-button-response","175","735014","0.0-10.0","5809","1","9","Male","approach_avoid_spark_v1","""event"",""trial"",""time""
""fullscreenenter"",""1"",""2870""
","
","
","""event"",""trial"",""time""
""fullscreenenter"",""1"",""2870""
","
","","","","","","1240.6999999955297","<p> Now it's time to play another round. </p>","0","","transition_screen","","","","","","","","","","",""
"preload","176","735160","0.0-11.0-0.0","5809","1","9","Male","approach_avoid_spark_v1","""event"",""trial"",""time""
""fullscreenenter"",""1"",""2870""
","
","
","""event"",""trial"",""time""
""fullscreenenter"",""1"",""2870""
","
","true","false","[]","[]","[]","","","","","","","","","","","","","","","",""
"learning-instructions","177","746286","0.0-11.0-1.0-0.0","5809","1","9","Male","approach_avoid_spark_v1","""event"",""trial"",""time""
""fullscreenenter"",""1"",""2870""
","
","
","""event"",""trial"",""time""
""fullscreenenter"",""1"",""2870""
","
","","","","","","5824.89999999851","<p> Your goal in this round is to sell different plants to a picky customer. </p></div>","","0","instructions","","","","","","","","","","",""
"learning-instructions","178","759738","0.0-11.0-1.0-0.1","5809","1","9","Male","approach_avoid_spark_v1","""event"",""trial"",""time""
""fullscreenenter"",""1"",""2870""
","
","
","""event"",""trial"",""time""
""fullscreenenter"",""1"",""2870""
","
","","","","","","4347.20000000298","<p> The customer likes some plants and dislikes others.  </p><p> On each turn, you will see a plant.   </p><p> You need to decide whether to offer it to the customer or not.  </p>","","0","instructions","","","","","","","","","","",""
"learning-instructions","179","766614","0.0-11.0-1.0-0.2","5809","1","9","Male","approach_avoid_spark_v1","""event"",""trial"",""time""
""fullscreenenter"",""1"",""2870""
","
","
","""event"",""trial"",""time""
""fullscreenenter"",""1"",""2870""
","
","","","","","","1432.1999999955297","<p> You can offer the plant by pressing 1 and decide to not offer it by pressing 0. </p><br><div class=""choice-instructions-grid""> <div class=""choice-option""><img src=""images/approach.png"" class=""choice-option-img"" stage=""instructions"" position=""0"" ><div class=""choice-option-text""> Press ""1."" </div></div><div class=""choice-option""><img src=""images/avoid.png"" class=""choice-option-img"" stage=""instructions"" position=""1"" ><div class=""choice-option-text""> Press ""0."" </div></div>","","0","instructions","","","","","","","","","","",""
"learning-instructions","180","775850","0.0-11.0-1.0-0.3","5809","1","9","Male","approach_avoid_spark_v1","""event"",""trial"",""time""
""fullscreenenter"",""1"",""2870""
","
","
","""event"",""trial"",""time""
""fullscreenenter"",""1"",""2870""
","
","","","","","","480.20000000298023","<p> If you offer a plant to the customer that she likes, she will be very pleased! </p><p> But if you offer a plant that she does NOT like, she will be annoyed. </p>","","0","instructions","","","","","","","","","","",""
"learning-instructions","181","788610","0.0-11.0-1.0-0.4","5809","1","9","Male","approach_avoid_spark_v1","""event"",""trial"",""time""
""fullscreenenter"",""1"",""2870""
","
","
","""event"",""trial"",""time""
""fullscreenenter"",""1"",""2870""
","
","","","","","","439","<p> You will earn points based on how you made the customer feel. </p><p> If you made her pleased, you will WIN anywhere from 1 - 9 points, </p><p> but if you made her annoyed, you will LOSE anywhere from 1 - 9 points. </p>","","0","instructions","","","","","","","","","","",""
"learning-instructions","182","796612","0.0-11.0-1.0-0.5","5809","1","9","Male","approach_avoid_spark_v1","""event"",""trial"",""time""
""fullscreenenter"",""1"",""2870""
","
","
","""event"",""trial"",""time""
""fullscreenenter"",""1"",""2870""
","
","","","","","","1331","<p> You will see how many points you won or lost in the center of the screen. </p><p> Here is what you would see if you won 5 points: </p><p style=""color:green;font-size:50px;font-weight:bolder"">5</p>","","0","instructions","","","","","","","","","","",""
"learning-instructions","183","799900","0.0-11.0-1.0-0.6","5809","1","9","Male","approach_avoid_spark_v1","""event"",""trial"",""time""
""fullscreenenter"",""1"",""2870""
","
","
","""event"",""trial"",""time""
""fullscreenenter"",""1"",""2870""
","
","","","","","","459.80000000447035","<p> And here is what you would see if you lost 3 points: </p><p style=""color:red;font-size:50px;font-weight:bolder"">-3</p>","","0","instructions","","","","","","","","","","",""
"learning-instructions","184","814658","0.0-11.0-1.0-0.7","5809","1","9","Male","approach_avoid_spark_v1","""event"",""trial"",""time""
""fullscreenenter"",""1"",""2870""
","
","
","""event"",""trial"",""time""
""fullscreenenter"",""1"",""2870""
","
","","","","","","206.69999999552965","<p> Some plants will make the customer VERY pleased or annoyed. </p><p> These plants will make you win or lose LOTS of points. </p><p> The customer will have less strong feelings about other plants. </p><p> These plants will make you win or lose small amounts of points. </p>","","0","instructions","","","","","","","","","","",""
"learning-instructions","185","827866","0.0-11.0-1.0-0.8","5809","1","9","Male","approach_avoid_spark_v1","""event"",""trial"",""time""
""fullscreenenter"",""1"",""2870""
","
","
","""event"",""trial"",""time""
""fullscreenenter"",""1"",""2870""
","
","","","","","","694.7999999970198","<p> If you choose to not offer the plant to the customer, you will not win or lose any points. </p><p>  However, in the center of the screen, you will see the number of points you WOULD HAVE won or lost if you had offered the plant. </p>","","0","instructions","","","","","","","","","","",""
"learning-instructions","186","839504","0.0-11.0-1.0-0.9","5809","1","9","Male","approach_avoid_spark_v1","""event"",""trial"",""time""
""fullscreenenter"",""1"",""2870""
","
","
","""event"",""trial"",""time""
""fullscreenenter"",""1"",""2870""
","
","","","","","","243.60000000149012","<p> Here is what you might see if you did not offer the plant but the customer would have liked it: </p><p style=""color:grey; font-size:50px; display: inline-block; border-spacing: 15px; border-width:3px; border-style:solid; border-color:red"">  &nbsp; 6 &nbsp; </p><p> Remember, in this case, you would not win or lose ANY points because you did not offer the plant.  </p>","","0","instructions","","","","","","","","","","",""
"learning-instructions","187","850382","0.0-11.0-1.0-0.10","5809","1","9","Male","approach_avoid_spark_v1","""event"",""trial"",""time""
""fullscreenenter"",""1"",""2870""
","
","
","""event"",""trial"",""time""
""fullscreenenter"",""1"",""2870""
","
","","","","","","3440.39999999851","<p> Try to make the best choice for each plant because </p><p> at the end of the game, you will earn bonus money based on how many points you earned. </p>","","0","instructions","","","","","","","","","","",""
"learning-instructions","188","859264","0.0-11.0-1.0-0.11","5809","1","9","Male","approach_avoid_spark_v1","""event"",""trial"",""time""
""fullscreenenter"",""1"",""2870""
","
","
","""event"",""trial"",""time""
""fullscreenenter"",""1"",""2870""
","
","","","","","","672.2999999970198","<p> You will have 3 seconds to make each choice. Try to respond before time runs out! </p><p> You will lose 5 points each time you do not make a response. </p>","","0","instructions","","","","","","","","","","",""
"html-keyboard-response","189","859879","0.0-11.0-2.0-0.0","5809","1","9","Male","approach_avoid_spark_v1","""event"",""trial"",""time""
""fullscreenenter"",""1"",""2870""
","
","
","""event"",""trial"",""time""
""fullscreenenter"",""1"",""2870""
","
","","","","","","null","<div style=""font-size:60px;"">+</div>","null","","fixation","","","","","","","","","","",""
"aa-learning-trial","190","862889","0.0-11.0-2.0-1.0","5809","1","9","Male","approach_avoid_spark_v1","""event"",""trial"",""time""
""fullscreenenter"",""1"",""2870""
","
","
","""event"",""trial"",""time""
""fullscreenenter"",""1"",""2870""
","
","","","","","","1385","images/flower8.png","","","learning","3","3","1","1","flower","plants","2","1","","bad","[-3]"
"html-keyboard-response","191","863405","0.0-11.0-2.0-0.1","5809","1","9","Male","approach_avoid_spark_v1","""event"",""trial"",""time""
""fullscreenenter"",""1"",""2870""
","
","
","""event"",""trial"",""time""
""fullscreenenter"",""1"",""2870""
","
","","","","","","null","<div style=""font-size:60px;"">+</div>","null","","fixation","","","","","","","","","","",""
"aa-learning-trial","192","866409","0.0-11.0-2.0-1.1","5809","1","9","Male","approach_avoid_spark_v1","""event"",""trial"",""time""
""fullscreenenter"",""1"",""2870""
","
","
","""event"",""trial"",""time""
""fullscreenenter"",""1"",""2870""
","
","","","","","","698.1000000014901","images/cactus6.png","","","learning","5","0","0","0","cactus","plants","2","1","","neutral","0"
"html-keyboard-response","193","866929","0.0-11.0-2.0-0.2","5809","1","9","Male","approach_avoid_spark_v1","""event"",""trial"",""time""
""fullscreenenter"",""1"",""2870""
","
","
","""event"",""trial"",""time""
""fullscreenenter"",""1"",""2870""
","
","","","","","","null","<div style=""font-size:60px;"">+</div>","null","","fixation","","","","","","","","","","",""
"aa-learning-trial","194","869940","0.0-11.0-2.0-1.2","5809","1","9","Male","approach_avoid_spark_v1","""event"",""trial"",""time""
""fullscreenenter"",""1"",""2870""
","
","
","""event"",""trial"",""time""
""fullscreenenter"",""1"",""2870""
","
","","","","","","669.6000000014901","images/cactus5.png","","","learning","-3","-3","1","1","cactus","plants","2","1","","neutral","0"
"html-keyboard-response","195","870453","0.0-11.0-2.0-0.3","5809","1","9","Male","approach_avoid_spark_v1","""event"",""trial"",""time""
""fullscreenenter"",""1"",""2870""
","
","
","""event"",""trial"",""time""
""fullscreenenter"",""1"",""2870""
","
","","","","","","null","<div style=""font-size:60px;"">+</div>","null","","fixation","","","","","","","","","","",""
"aa-learning-trial","196","873464","0.0-11.0-2.0-1.3","5809","1","9","Male","approach_avoid_spark_v1","""event"",""trial"",""time""
""fullscreenenter"",""1"",""2870""
","
","
","""event"",""trial"",""time""
""fullscreenenter"",""1"",""2870""
","
","","","","","","724.4000000059605","images/flower5.png","","","learning","-5","0","0","0","flower","plants","2","1","","bad","[-3]"
"html-keyboard-response","197","873982","0.0-11.0-2.0-0.4","5809","1","9","Male","approach_avoid_spark_v1","""event"",""trial"",""time""
""fullscreenenter"",""1"",""2870""
","
","
","""event"",""trial"",""time""
""fullscreenenter"",""1"",""2870""
","
","","","","","","null","<div style=""font-size:60px;"">+</div>","null","","fixation","","","","","","","","","","",""
"aa-learning-trial","198","877009","0.0-11.0-2.0-1.4","5809","1","9","Male","approach_avoid_spark_v1","""event"",""trial"",""time""
""fullscreenenter"",""1"",""2870""
","
","
","""event"",""trial"",""time""
""fullscreenenter"",""1"",""2870""
","
","","","","","","904.6000000014901","images/bush3.png","","","learning","4","0","0","0","bush","plants","2","1","","good","[6]"
"html-keyboard-response","199","877528","0.0-11.0-2.0-0.5","5809","1","9","Male","approach_avoid_spark_v1","""event"",""trial"",""time""
""fullscreenenter"",""1"",""2870""
","
","
","""event"",""trial"",""time""
""fullscreenenter"",""1"",""2870""
","
","","","","","","null","<div style=""font-size:60px;"">+</div>","null","","fixation","","","","","","","","","","",""
"aa-learning-trial","200","880551","0.0-11.0-2.0-1.5","5809","1","9","Male","approach_avoid_spark_v1","""event"",""trial"",""time""
""fullscreenenter"",""1"",""2870""
","
","
","""event"",""trial"",""time""
""fullscreenenter"",""1"",""2870""
","
","","","","","","702","images/flower5.png","","","learning","-5","-5","1","1","flower","plants","2","1","","bad","[-3]"
"html-keyboard-response","201","881070","0.0-11.0-2.0-0.6","5809","1","9","Male","approach_avoid_spark_v1","""event"",""trial"",""time""
""fullscreenenter"",""1"",""2870""
","
","
","""event"",""trial"",""time""
""fullscreenenter"",""1"",""2870""
","
","","","","","","null","<div style=""font-size:60px;"">+</div>","null","","fixation","","","","","","","","","","",""
"aa-learning-trial","202","884100","0.0-11.0-2.0-1.6","5809","1","9","Male","approach_avoid_spark_v1","""event"",""trial"",""time""
""fullscreenenter"",""1"",""2870""
","
","
","""event"",""trial"",""time""
""fullscreenenter"",""1"",""2870""
","
","","","","","","913.3999999985099","images/cactus6.png","","","learning","5","0","0","0","cactus","plants","2","1","","neutral","0"
"html-keyboard-response","203","884619","0.0-11.0-2.0-0.7","5809","1","9","Male","approach_avoid_spark_v1","""event"",""trial"",""time""
""fullscreenenter"",""1"",""2870""
","
","
","""event"",""trial"",""time""
""fullscreenenter"",""1"",""2870""
","
","","","","","","null","<div style=""font-size:60px;"">+</div>","null","","fixation","","","","","","","","","","",""
"aa-learning-trial","204","887629","0.0-11.0-2.0-1.7","5809","1","9","Male","approach_avoid_spark_v1","""event"",""trial"",""time""
""fullscreenenter"",""1"",""2870""
","
","
","""event"",""trial"",""time""
""fullscreenenter"",""1"",""2870""
","
","","","","","","884.5","images/cactus4.png","","","learning","-6","0","0","0","cactus","plants","2","1","","neutral","0"
"html-keyboard-response","205","888140","0.0-11.0-2.0-0.8","5809","1","9","Male","approach_avoid_spark_v1","""event"",""trial"",""time""
""fullscreenenter"",""1"",""2870""
","
","
","""event"",""trial"",""time""
""fullscreenenter"",""1"",""2870""
","
","","","","","","null","<div style=""font-size:60px;"">+</div>","null","","fixation","","","","","","","","","","",""
"aa-learning-trial","206","891145","0.0-11.0-2.0-1.8","5809","1","9","Male","approach_avoid_spark_v1","""event"",""trial"",""time""
""fullscreenenter"",""1"",""2870""
","
","
","""event"",""trial"",""time""
""fullscreenenter"",""1"",""2870""
","
","","","","","","1393.8999999985099","images/cactus4.png","","","learning","-6","0","0","0","cactus","plants","2","1","","neutral","0"
"html-keyboard-response","207","891648","0.0-11.0-2.0-0.9","5809","1","9","Male","approach_avoid_spark_v1","""event"",""trial"",""time""
""fullscreenenter"",""1"",""2870""
","
","
","""event"",""trial"",""time""
""fullscreenenter"",""1"",""2870""
","
","","","","","","null","<div style=""font-size:60px;"">+</div>","null","","fixation","","","","","","","","","","",""
"aa-learning-trial","208","894657","0.0-11.0-2.0-1.9","5809","1","9","Male","approach_avoid_spark_v1","""event"",""trial"",""time""
""fullscreenenter"",""1"",""2870""
","
","
","""event"",""trial"",""time""
""fullscreenenter"",""1"",""2870""
","
","","","","","","897.8999999985099","images/flower4.png","","","learning","1","1","1","1","flower","plants","2","1","","bad","[-3]"
"html-keyboard-response","209","895161","0.0-11.0-2.0-0.10","5809","1","9","Male","approach_avoid_spark_v1","""event"",""trial"",""time""
""fullscreenenter"",""1"",""2870""
","
","
","""event"",""trial"",""time""
""fullscreenenter"",""1"",""2870""
","
","","","","","","null","<div style=""font-size:60px;"">+</div>","null","","fixation","","","","","","","","","","",""
"aa-learning-trial","210","898169","0.0-11.0-2.0-1.10","5809","1","9","Male","approach_avoid_spark_v1","""event"",""trial"",""time""
""fullscreenenter"",""1"",""2870""
","
","
","""event"",""trial"",""time""
""fullscreenenter"",""1"",""2870""
","
","","","","","","858","images/bush7.png","","","learning","-1","-1","1","1","bush","plants","2","1","","good","[6]"
"html-keyboard-response","211","898672","0.0-11.0-2.0-0.11","5809","1","9","Male","approach_avoid_spark_v1","""event"",""trial"",""time""
""fullscreenenter"",""1"",""2870""
","
","
","""event"",""trial"",""time""
""fullscreenenter"",""1"",""2870""
","
","","","","","","null","<div style=""font-size:60px;"">+</div>","null","","fixation","","","","","","","","","","",""
"aa-learning-trial","212","901681","0.0-11.0-2.0-1.11","5809","1","9","Male","approach_avoid_spark_v1","""event"",""trial"",""time""
""fullscreenenter"",""1"",""2870""
","
","
","""event"",""trial"",""time""
""fullscreenenter"",""1"",""2870""
","
","","","","","","1293.6000000014901","images/bush7.png","","","learning","-1","0","0","0","bush","plants","2","1","","good","[6]"
"html-keyboard-response","213","902184","0.0-11.0-2.0-0.12","5809","1","9","Male","approach_avoid_spark_v1","""event"",""trial"",""time""
""fullscreenenter"",""1"",""2870""
","
","
","""event"",""trial"",""time""
""fullscreenenter"",""1"",""2870""
","
","","","","","","null","<div style=""font-size:60px;"">+</div>","null","","fixation","","","","","","","","","","",""
"aa-learning-trial","214","905193","0.0-11.0-2.0-1.12","5809","1","9","Male","approach_avoid_spark_v1","""event"",""trial"",""time""
""fullscreenenter"",""1"",""2870""
","
","
","""event"",""trial"",""time""
""fullscreenenter"",""1"",""2870""
","
","","","","","","1417","images/bush2.png","","","learning","-8","-8","1","1","bush","plants","2","1","","good","[6]"
"html-keyboard-response","215","905697","0.0-11.0-2.0-0.13","5809","1","9","Male","approach_avoid_spark_v1","""event"",""trial"",""time""
""fullscreenenter"",""1"",""2870""
","
","
","""event"",""trial"",""time""
""fullscreenenter"",""1"",""2870""
","
","","","","","","null","<div style=""font-size:60px;"">+</div>","null","","fixation","","","","","","","","","","",""
"aa-learning-trial","216","908705","0.0-11.0-2.0-1.13","5809","1","9","Male","approach_avoid_spark_v1","""event"",""trial"",""time""
""fullscreenenter"",""1"",""2870""
","
","
","""event"",""trial"",""time""
""fullscreenenter"",""1"",""2870""
","
","","","","","","770.3999999985099","images/bush3.png","","","learning","4","0","0","0","bush","plants","2","1","","good","[6]"
"html-keyboard-response","217","909209","0.0-11.0-2.0-0.14","5809","1","9","Male","approach_avoid_spark_v1","""event"",""trial"",""time""
""fullscreenenter"",""1"",""2870""
","
","
","""event"",""trial"",""time""
""fullscreenenter"",""1"",""2870""
","
","","","","","","null","<div style=""font-size:60px;"">+</div>","null","","fixation","","","","","","","","","","",""
"aa-learning-trial","218","912217","0.0-11.0-2.0-1.14","5809","1","9","Male","approach_avoid_spark_v1","""event"",""trial"",""time""
""fullscreenenter"",""1"",""2870""
","
","
","""event"",""trial"",""time""
""fullscreenenter"",""1"",""2870""
","
","","","","","","1155.2999999970198","images/flower4.png","","","learning","1","1","1","1","flower","plants","2","1","","bad","[-3]"
"html-keyboard-response","219","912721","0.0-11.0-2.0-0.15","5809","1","9","Male","approach_avoid_spark_v1","""event"",""trial"",""time""
""fullscreenenter"",""1"",""2870""
","
","
","""event"",""trial"",""time""
""fullscreenenter"",""1"",""2870""
","
","","","","","","null","<div style=""font-size:60px;"">+</div>","null","","fixation","","","","","","","","","","",""
"aa-learning-trial","220","915729","0.0-11.0-2.0-1.15","5809","1","9","Male","approach_avoid_spark_v1","""event"",""trial"",""time""
""fullscreenenter"",""1"",""2870""
","
","
","""event"",""trial"",""time""
""fullscreenenter"",""1"",""2870""
","
","","","","","","1228.2000000029802","images/flower5.png","","","learning","-5","-5","1","1","flower","plants","2","1","","bad","[-3]"
"html-keyboard-response","221","916233","0.0-11.0-2.0-0.16","5809","1","9","Male","approach_avoid_spark_v1","""event"",""trial"",""time""
""fullscreenenter"",""1"",""2870""
","
","
","""event"",""trial"",""time""
""fullscreenenter"",""1"",""2870""
","
","","","","","","null","<div style=""font-size:60px;"">+</div>","null","","fixation","","","","","","","","","","",""
"aa-learning-trial","222","919241","0.0-11.0-2.0-1.16","5809","1","9","Male","approach_avoid_spark_v1","""event"",""trial"",""time""
""fullscreenenter"",""1"",""2870""
","
","
","""event"",""trial"",""time""
""fullscreenenter"",""1"",""2870""
","
","","","","","","1055.6999999955297","images/cactus6.png","","","learning","5","0","0","0","cactus","plants","2","1","","neutral","0"
"html-keyboard-response","223","919745","0.0-11.0-2.0-0.17","5809","1","9","Male","approach_avoid_spark_v1","""event"",""trial"",""time""
""fullscreenenter"",""1"",""2870""
","
","
","""event"",""trial"",""time""
""fullscreenenter"",""1"",""2870""
","
","","","","","","null","<div style=""font-size:60px;"">+</div>","null","","fixation","","","","","","","","","","",""
"aa-learning-trial","224","922753","0.0-11.0-2.0-1.17","5809","1","9","Male","approach_avoid_spark_v1","""event"",""trial"",""time""
""fullscreenenter"",""1"",""2870""
","
","
","""event"",""trial"",""time""
""fullscreenenter"",""1"",""2870""
","
","","","","","","947.8999999985099","images/bush7.png","","","learning","-1","0","0","0","bush","plants","2","1","","good","[6]"
"html-keyboard-response","225","923257","0.0-11.0-2.0-0.18","5809","1","9","Male","approach_avoid_spark_v1","""event"",""trial"",""time""
""fullscreenenter"",""1"",""2870""
","
","
","""event"",""trial"",""time""
""fullscreenenter"",""1"",""2870""
","
","","","","","","null","<div style=""font-size:60px;"">+</div>","null","","fixation","","","","","","","","","","",""
"aa-learning-trial","226","926265","0.0-11.0-2.0-1.18","5809","1","9","Male","approach_avoid_spark_v1","""event"",""trial"",""time""
""fullscreenenter"",""1"",""2870""
","
","
","""event"",""trial"",""time""
""fullscreenenter"",""1"",""2870""
","
","","","","","","730.6999999955297","images/bush2.png","","","learning","-8","0","0","0","bush","plants","2","1","","good","[6]"
"html-keyboard-response","227","926769","0.0-11.0-2.0-0.19","5809","1","9","Male","approach_avoid_spark_v1","""event"",""trial"",""time""
""fullscreenenter"",""1"",""2870""
","
","
","""event"",""trial"",""time""
""fullscreenenter"",""1"",""2870""
","
","","","","","","null","<div style=""font-size:60px;"">+</div>","null","","fixation","","","","","","","","","","",""
"aa-learning-trial","228","929778","0.0-11.0-2.0-1.19","5809","1","9","Male","approach_avoid_spark_v1","""event"",""trial"",""time""
""fullscreenenter"",""1"",""2870""
","
","
","""event"",""trial"",""time""
""fullscreenenter"",""1"",""2870""
","
","","","","","","1095.7999999970198","images/flower5.png","","","learning","-5","-5","1","1","flower","plants","2","1","","bad","[-3]"
"html-keyboard-response","229","930281","0.0-11.0-2.0-0.20","5809","1","9","Male","approach_avoid_spark_v1","""event"",""trial"",""time""
""fullscreenenter"",""1"",""2870""
","
","
","""event"",""trial"",""time""
""fullscreenenter"",""1"",""2870""
","
","","","","","","null","<div style=""font-size:60px;"">+</div>","null","","fixation","","","","","","","","","","",""
"aa-learning-trial","230","933289","0.0-11.0-2.0-1.20","5809","1","9","Male","approach_avoid_spark_v1","""event"",""trial"",""time""
""fullscreenenter"",""1"",""2870""
","
","
","""event"",""trial"",""time""
""fullscreenenter"",""1"",""2870""
","
","","","","","","909.5","images/cactus7.png","","","learning","7","0","0","0","cactus","plants","2","1","","neutral","0"
"html-keyboard-response","231","933793","0.0-11.0-2.0-0.21","5809","1","9","Male","approach_avoid_spark_v1","""event"",""trial"",""time""
""fullscreenenter"",""1"",""2870""
","
","
","""event"",""trial"",""time""
""fullscreenenter"",""1"",""2870""
","
","","","","","","null","<div style=""font-size:60px;"">+</div>","null","","fixation","","","","","","","","","","",""
"aa-learning-trial","232","936801","0.0-11.0-2.0-1.21","5809","1","9","Male","approach_avoid_spark_v1","""event"",""trial"",""time""
""fullscreenenter"",""1"",""2870""
","
","
","""event"",""trial"",""time""
""fullscreenenter"",""1"",""2870""
","
","","","","","","832.7000000029802","images/bush3.png","","","learning","4","4","1","1","bush","plants","2","1","","good","[6]"
"html-keyboard-response","233","937305","0.0-11.0-2.0-0.22","5809","1","9","Male","approach_avoid_spark_v1","""event"",""trial"",""time""
""fullscreenenter"",""1"",""2870""
","
","
","""event"",""trial"",""time""
""fullscreenenter"",""1"",""2870""
","
","","","","","","null","<div style=""font-size:60px;"">+</div>","null","","fixation","","","","","","","","","","",""
"aa-learning-trial","234","940315","0.0-11.0-2.0-1.22","5809","1","9","Male","approach_avoid_spark_v1","""event"",""trial"",""time""
""fullscreenenter"",""1"",""2870""
","
","
","""event"",""trial"",""time""
""fullscreenenter"",""1"",""2870""
","
","","","","","","830","images/flower4.png","","","learning","1","1","1","1","flower","plants","2","1","","bad","[-3]"
"html-keyboard-response","235","940825","0.0-11.0-2.0-0.23","5809","1","9","Male","approach_avoid_spark_v1","""event"",""trial"",""time""
""fullscreenenter"",""1"",""2870""
","
","
","""event"",""trial"",""time""
""fullscreenenter"",""1"",""2870""
","
","","","","","","null","<div style=""font-size:60px;"">+</div>","null","","fixation","","","","","","","","","","",""
"aa-learning-trial","236","943834","0.0-11.0-2.0-1.23","5809","1","9","Male","approach_avoid_spark_v1","""event"",""trial"",""time""
""fullscreenenter"",""1"",""2870""
","
","
","""event"",""trial"",""time""
""fullscreenenter"",""1"",""2870""
","
","","","","","","664.5","images/flower4.png","","","learning","1","1","1","1","flower","plants","2","1","","bad","[-3]"
"html-keyboard-response","237","944338","0.0-11.0-2.0-0.24","5809","1","9","Male","approach_avoid_spark_v1","""event"",""trial"",""time""
""fullscreenenter"",""1"",""2870""
","
","
","""event"",""trial"",""time""
""fullscreenenter"",""1"",""2870""
","
","","","","","","null","<div style=""font-size:60px;"">+</div>","null","","fixation","","","","","","","","","","",""
