"trial_type","trial_index","time_elapsed","internal_node_id","subject_id","task_condition","age","gender","task_version","interactions","blur_events","focus_events","fullscreenenter_events","fullscreenexit_events","success","timeout","failed_images","failed_audio","failed_video","rt","stimulus","response","button_pressed","task_part","approach_reward","points","key_press","option_selected","stim_cat","task_block","block_condition","block_number","correct","cat_type","mean_cat_reward"
"pavlovia","0","13","0.0-0.0","5431","2","21","Female","approach_avoid_spark_v1","""event"",""trial"",""time""
""fullscreenenter"",""1"",""11624""
","
","
","""event"",""trial"",""time""
""fullscreenenter"",""1"",""11624""
","
","","","","","","","","","","","","","","","","","","","","",""
"fullscreen","1","12537","0.0-1.0","5431","2","21","Female","approach_avoid_spark_v1","""event"",""trial"",""time""
""fullscreenenter"",""1"",""11624""
","
","
","""event"",""trial"",""time""
""fullscreenenter"",""1"",""11624""
","
","true","","","","","","","","","","","","","","","","","","","",""
"preload","2","76868","0.0-2.0","5431","2","21","Female","approach_avoid_spark_v1","""event"",""trial"",""time""
""fullscreenenter"",""1"",""11624""
","
","
","""event"",""trial"",""time""
""fullscreenenter"",""1"",""11624""
","
","true","false","[]","[]","[]","","","","","","","","","","","","","","","",""
"audio-keyboard-response","3","81508","0.0-3.0","5431","2","21","Female","approach_avoid_spark_v1","""event"",""trial"",""time""
""fullscreenenter"",""1"",""11624""
","
","
","""event"",""trial"",""time""
""fullscreenenter"",""1"",""11624""
","
","","","","","","0","audio/beep_loop.wav"," ","","","","","","","","","","","","",""
"audio-button-response","4","83009","0.0-4.0","5431","2","21","Female","approach_avoid_spark_v1","""event"",""trial"",""time""
""fullscreenenter"",""1"",""11624""
","
","
","""event"",""trial"",""time""
""fullscreenenter"",""1"",""11624""
","
","","","","","","1451","audio/shark.wav","4","","","","","","","","","","","","",""
"audio-button-response","5","85712","0.0-5.0","5431","2","21","Female","approach_avoid_spark_v1","""event"",""trial"",""time""
""fullscreenenter"",""1"",""11624""
","
","
","""event"",""trial"",""time""
""fullscreenenter"",""1"",""11624""
","
","","","","","","1699","audio/turtle.wav","1","","","","","","","","","","","","",""
"preload","6","103190","0.0-6.0","5431","2","21","Female","approach_avoid_spark_v1","""event"",""trial"",""time""
""fullscreenenter"",""1"",""11624""
","
","
","""event"",""trial"",""time""
""fullscreenenter"",""1"",""11624""
","
","true","false","[]","[]","[]","","","","","","","","","","","","","","","",""
"html-keyboard-response","7","106989","0.0-7.0","5431","2","21","Female","approach_avoid_spark_v1","""event"",""trial"",""time""
""fullscreenenter"",""1"",""11624""
","
","
","""event"",""trial"",""time""
""fullscreenenter"",""1"",""11624""
","
","","","","","","3798","Welcome to the experiment. Press any key to begin and to advance the instructions."," ","","","","","","","","","","","","",""
"learning-instructions","8","117741","0.0-8.0-0.0-0.0","5431","2","21","Female","approach_avoid_spark_v1","""event"",""trial"",""time""
""fullscreenenter"",""1"",""11624""
","
","
","""event"",""trial"",""time""
""fullscreenenter"",""1"",""11624""
","
","","","","","","3798","<p> Welcome! Today you are going to play 6 different rounds of a decision-making game. </p><p> Use the mouse to click next to continue. </p>","","0","instructions","","","","","","","","","","",""
"learning-instructions","9","123928","0.0-8.0-0.0-0.1","5431","2","21","Female","approach_avoid_spark_v1","""event"",""trial"",""time""
""fullscreenenter"",""1"",""11624""
","
","
","""event"",""trial"",""time""
""fullscreenenter"",""1"",""11624""
","
","","","","","","3462","<p> You will start with a practice round to learn the rules. </p>","","0","instructions","","","","","","","","","","",""
"learning-instructions","10","128454","0.0-8.0-0.0-0.2","5431","2","21","Female","approach_avoid_spark_v1","""event"",""trial"",""time""
""fullscreenenter"",""1"",""11624""
","
","
","""event"",""trial"",""time""
""fullscreenenter"",""1"",""11624""
","
","","","","","","1080.0000000000146","<p> Your goal in this round is to give out sports equipment to kids. </p></div>","","0","instructions","","","","","","","","","","",""
"learning-instructions","11","138222","0.0-8.0-0.0-0.3","5431","2","21","Female","approach_avoid_spark_v1","""event"",""trial"",""time""
""fullscreenenter"",""1"",""11624""
","
","
","""event"",""trial"",""time""
""fullscreenenter"",""1"",""11624""
","
","","","","","","2224","<p> The kids only like some of the equipment.  </p><p> On each turn, you will see a piece of sports equipment.   </p><p> You need to decide whether to give it to the kids or not.  </p>","","0","instructions","","","","","","","","","","",""
"learning-instructions","12","145988","0.0-8.0-0.0-0.4","5431","2","21","Female","approach_avoid_spark_v1","""event"",""trial"",""time""
""fullscreenenter"",""1"",""11624""
","
","
","""event"",""trial"",""time""
""fullscreenenter"",""1"",""11624""
","
","","","","","","3003","<p> You can give them the equipment by pressing 1 and choose not to give it to them by pressing 0. </p><br><div class=""choice-instructions-grid""> <div class=""choice-option""><img src=""images/approach.png"" class=""choice-option-img"" stage=""instructions"" position=""0"" ><div class=""choice-option-text""> Press ""1."" </div></div><div class=""choice-option""><img src=""images/avoid.png"" class=""choice-option-img"" stage=""instructions"" position=""1"" ><div class=""choice-option-text""> Press ""0."" </div></div>","","0","instructions","","","","","","","","","","",""
"learning-instructions","13","154872","0.0-8.0-0.0-0.5","5431","2","21","Female","approach_avoid_spark_v1","""event"",""trial"",""time""
""fullscreenenter"",""1"",""11624""
","
","
","""event"",""trial"",""time""
""fullscreenenter"",""1"",""11624""
","
","","","","","","1501","<p> If you give them a piece of equipment they like, they will be happy! </p><p> But if you give them a piece of equipment they do not like, they will be sad. </p>","","0","instructions","","","","","","","","","","",""
"learning-instructions","14","165947","0.0-8.0-0.0-0.6","5431","2","21","Female","approach_avoid_spark_v1","""event"",""trial"",""time""
""fullscreenenter"",""1"",""11624""
","
","
","""event"",""trial"",""time""
""fullscreenenter"",""1"",""11624""
","
","","","","","","572","<p> You will earn points based on how you make kids feel. </p><p> If you make them happy, you will WIN anywhere from 1 - 9 points, </p><p> but if you make them sad, you will LOSE anywhere from 1 - 9 points. </p>","","0","instructions","","","","","","","","","","",""
"learning-instructions","15","176046","0.0-8.0-0.0-0.7","5431","2","21","Female","approach_avoid_spark_v1","""event"",""trial"",""time""
""fullscreenenter"",""1"",""11624""
","
","
","""event"",""trial"",""time""
""fullscreenenter"",""1"",""11624""
","
","","","","","","547","<p> You will see how many points you won or lost in the center of the screen. </p><p> Here is what you would see if you won 6 points: </p><p style=""color:green;font-size:50px;font-weight:bolder"">6</p><p style=""color:green"">The text is GREEN because you WON points.</p>","","0","instructions","","","","","","","","","","",""
"learning-instructions","16","183210","0.0-8.0-0.0-0.8","5431","2","21","Female","approach_avoid_spark_v1","""event"",""trial"",""time""
""fullscreenenter"",""1"",""11624""
","
","
","""event"",""trial"",""time""
""fullscreenenter"",""1"",""11624""
","
","","","","","","1662","<p> And here is what you would see if you lost 4 points: </p><p style=""color:red;font-size:50px;font-weight:bolder"">-4</p><p style=""color:red"">The text is RED because you LOST points. </p>","","0","instructions","","","","","","","","","","",""
"learning-instructions","17","199586","0.0-8.0-0.0-0.9","5431","2","21","Female","approach_avoid_spark_v1","""event"",""trial"",""time""
""fullscreenenter"",""1"",""11624""
","
","
","""event"",""trial"",""time""
""fullscreenenter"",""1"",""11624""
","
","","","","","","1671.000000000029","<p> Some of the equipment will make the kids VERY happy or sad. </p><p> These pieces of equipment will make you win or lose LOTS of points. </p><p> Other pieces of equipment will only make the kids a little happy or sad. </p><p> These pieces of equipment will make you win or lose small amounts of points. </p>","","0","instructions","","","","","","","","","","",""
"learning-instructions","18","211553","0.0-8.0-0.0-0.10","5431","2","21","Female","approach_avoid_spark_v1","""event"",""trial"",""time""
""fullscreenenter"",""1"",""11624""
","
","
","""event"",""trial"",""time""
""fullscreenenter"",""1"",""11624""
","
","","","","","","1343","<p> If you choose not to give them the equipment, you will not win or lose any points. </p><p>  However, in the center of the screen, you will see the number of points you WOULD HAVE won or lost if you had given them the equipment. </p>","","0","instructions","","","","","","","","","","",""
"learning-instructions","19","234503","0.0-8.0-0.0-0.11","5431","2","21","Female","approach_avoid_spark_v1","""event"",""trial"",""time""
""fullscreenenter"",""1"",""11624""
","
","
","""event"",""trial"",""time""
""fullscreenenter"",""1"",""11624""
","
","","","","","","1427","<p> Here is what you might see if you did not give the equipment to the kids but it would have made them happy: </p><p style=""color:grey; font-size:50px; display: inline-block; border-spacing: 15px; border-width:3px; border-style:solid; border-color:red"">  &nbsp; 7 &nbsp; </p><p> Remember, in this case, you would not win or lose ANY points because you did not give them the equipment.  </p><p style=""color:grey"">The text is GREY because you earned ZERO points. </p><p style=""color:red"">However, choosing to give the kids the equipment would have made you win points. The box around the text is RED because you chose the worse option. </p>","","0","instructions","","","","","","","","","","",""
"learning-instructions","20","257276","0.0-8.0-0.0-0.12","5431","2","21","Female","approach_avoid_spark_v1","""event"",""trial"",""time""
""fullscreenenter"",""1"",""11624""
","
","
","""event"",""trial"",""time""
""fullscreenenter"",""1"",""11624""
","
","","","","","","1707","<p> Here is what you might see if you did not give the equipment to the kids but it would have made them sad: </p><p style=""color:grey;font-size:50px; display: inline-block; border-spacing: 15px; border-width:3px; border-style:solid; border-color:green"">  &nbsp; -8 &nbsp; </p><p> Remember, in this case, you would not win or lose ANY points because you did not give them the equipment.  </p><p style=""color:grey"">The text is GREY because you earned ZERO points. </p><p  style=""color:green""> Choosing to give the kids the equipment would have made you lose points. The box around the text is GREEN because you chose the better option.</p>","","0","instructions","","","","","","","","","","",""
"learning-instructions","21","271530","0.0-8.0-0.0-0.13","5431","2","21","Female","approach_avoid_spark_v1","""event"",""trial"",""time""
""fullscreenenter"",""1"",""11624""
","
","
","""event"",""trial"",""time""
""fullscreenenter"",""1"",""11624""
","
","","","","","","3805","<p> You will have 3 seconds to make each choice. Try to respond before time runs out! </p><p> You will lose 5 points each time you do not make a response. </p>","","0","instructions","","","","","","","","","","",""
"learning-instructions","22","278012","0.0-8.0-0.0-0.14","5431","2","21","Female","approach_avoid_spark_v1","""event"",""trial"",""time""
""fullscreenenter"",""1"",""11624""
","
","
","""event"",""trial"",""time""
""fullscreenenter"",""1"",""11624""
","
","","","","","","1073","<p> This is just a practice round, but in the real game, your bonus payment will depend on your total number of points.","","0","instructions","","","","","","","","","","",""
"learning-instructions","23","288846","0.0-8.0-0.0-0.15","5431","2","21","Female","approach_avoid_spark_v1","""event"",""trial"",""time""
""fullscreenenter"",""1"",""11624""
","
","
","""event"",""trial"",""time""
""fullscreenenter"",""1"",""11624""
","
","","","","","","5078","<p> Remember, you can give them the equipment by pressing 1 and choose not to give it to them by pressing 0. </p><br><div class=""choice-instructions-grid""> <div class=""choice-option""><img src=""images/approach.png"" class=""choice-option-img"" stage=""instructions"" position=""0"" ><div class=""choice-option-text""> Press ""1."" </div></div><div class=""choice-option""><img src=""images/avoid.png"" class=""choice-option-img"" stage=""instructions"" position=""1"" ><div class=""choice-option-text""> Press ""0."" </div></div>","","0","instructions","","","","","","","","","","",""
"html-button-response","24","292176","0.0-8.0-1.0","5431","2","21","Female","approach_avoid_spark_v1","""event"",""trial"",""time""
""fullscreenenter"",""1"",""11624""
","
","
","""event"",""trial"",""time""
""fullscreenenter"",""1"",""11624""
","
","","","","","","3228","<p> Ready to practice? </p>","0","","","","","","","","","","","","",""
"html-keyboard-response","25","292778","0.0-8.0-2.0-0.0","5431","2","21","Female","approach_avoid_spark_v1","""event"",""trial"",""time""
""fullscreenenter"",""1"",""11624""
","
","
","""event"",""trial"",""time""
""fullscreenenter"",""1"",""11624""
","
","","","","","","null","<div style=""font-size:60px;"">+</div>","null","","fixation","","","","","","","","","","",""
"aa-learning-trial","26","295780","0.0-8.0-2.0-1.0","5431","2","21","Female","approach_avoid_spark_v1","""event"",""trial"",""time""
""fullscreenenter"",""1"",""11624""
","
","
","""event"",""trial"",""time""
""fullscreenenter"",""1"",""11624""
","
","","","","","","1143","images/racket1.png","","","learning","5","0","0","0","practice","practice","practice","-1","","",""
"html-keyboard-response","27","296282","0.0-8.0-2.0-0.1","5431","2","21","Female","approach_avoid_spark_v1","""event"",""trial"",""time""
""fullscreenenter"",""1"",""11624""
","
","
","""event"",""trial"",""time""
""fullscreenenter"",""1"",""11624""
","
","","","","","","null","<div style=""font-size:60px;"">+</div>","null","","fixation","","","","","","","","","","",""
"aa-learning-trial","28","299284","0.0-8.0-2.0-1.1","5431","2","21","Female","approach_avoid_spark_v1","""event"",""trial"",""time""
""fullscreenenter"",""1"",""11624""
","
","
","""event"",""trial"",""time""
""fullscreenenter"",""1"",""11624""
","
","","","","","","491","images/racket1.png","","","learning","9","9","1","1","practice","practice","practice","-1","","",""
"html-keyboard-response","29","299785","0.0-8.0-2.0-0.2","5431","2","21","Female","approach_avoid_spark_v1","""event"",""trial"",""time""
""fullscreenenter"",""1"",""11624""
","
","
","""event"",""trial"",""time""
""fullscreenenter"",""1"",""11624""
","
","","","","","","null","<div style=""font-size:60px;"">+</div>","null","","fixation","","","","","","","","","","",""
"aa-learning-trial","30","302788","0.0-8.0-2.0-1.2","5431","2","21","Female","approach_avoid_spark_v1","""event"",""trial"",""time""
""fullscreenenter"",""1"",""11624""
","
","
","""event"",""trial"",""time""
""fullscreenenter"",""1"",""11624""
","
","","","","","","437","images/ball3.png","","","learning","-4","-4","1","1","practice","practice","practice","-1","","",""
"html-keyboard-response","31","303289","0.0-8.0-2.0-0.3","5431","2","21","Female","approach_avoid_spark_v1","""event"",""trial"",""time""
""fullscreenenter"",""1"",""11624""
","
","
","""event"",""trial"",""time""
""fullscreenenter"",""1"",""11624""
","
","","","","","","null","<div style=""font-size:60px;"">+</div>","null","","fixation","","","","","","","","","","",""
"aa-learning-trial","32","306291","0.0-8.0-2.0-1.3","5431","2","21","Female","approach_avoid_spark_v1","""event"",""trial"",""time""
""fullscreenenter"",""1"",""11624""
","
","
","""event"",""trial"",""time""
""fullscreenenter"",""1"",""11624""
","
","","","","","","349","images/racket4.png","","","learning","7","7","1","1","practice","practice","practice","-1","","",""
"html-keyboard-response","33","306793","0.0-8.0-2.0-0.4","5431","2","21","Female","approach_avoid_spark_v1","""event"",""trial"",""time""
""fullscreenenter"",""1"",""11624""
","
","
","""event"",""trial"",""time""
""fullscreenenter"",""1"",""11624""
","
","","","","","","null","<div style=""font-size:60px;"">+</div>","null","","fixation","","","","","","","","","","",""
"aa-learning-trial","34","309796","0.0-8.0-2.0-1.4","5431","2","21","Female","approach_avoid_spark_v1","""event"",""trial"",""time""
""fullscreenenter"",""1"",""11624""
","
","
","""event"",""trial"",""time""
""fullscreenenter"",""1"",""11624""
","
","","","","","","277","images/ball4.png","","","learning","9","9","1","1","practice","practice","practice","-1","","",""
"html-keyboard-response","35","310296","0.0-8.0-2.0-0.5","5431","2","21","Female","approach_avoid_spark_v1","""event"",""trial"",""time""
""fullscreenenter"",""1"",""11624""
","
","
","""event"",""trial"",""time""
""fullscreenenter"",""1"",""11624""
","
","","","","","","null","<div style=""font-size:60px;"">+</div>","null","","fixation","","","","","","","","","","",""
"aa-learning-trial","36","313299","0.0-8.0-2.0-1.5","5431","2","21","Female","approach_avoid_spark_v1","""event"",""trial"",""time""
""fullscreenenter"",""1"",""11624""
","
","
","""event"",""trial"",""time""
""fullscreenenter"",""1"",""11624""
","
","","","","","","854","images/ball4.png","","","learning","2","2","1","1","practice","practice","practice","-1","","",""
"html-keyboard-response","37","313800","0.0-8.0-2.0-0.6","5431","2","21","Female","approach_avoid_spark_v1","""event"",""trial"",""time""
""fullscreenenter"",""1"",""11624""
","
","
","""event"",""trial"",""time""
""fullscreenenter"",""1"",""11624""
","
","","","","","","null","<div style=""font-size:60px;"">+</div>","null","","fixation","","","","","","","","","","",""
"aa-learning-trial","38","316803","0.0-8.0-2.0-1.6","5431","2","21","Female","approach_avoid_spark_v1","""event"",""trial"",""time""
""fullscreenenter"",""1"",""11624""
","
","
","""event"",""trial"",""time""
""fullscreenenter"",""1"",""11624""
","
","","","","","","977","images/ball1.png","","","learning","-3","-3","1","1","practice","practice","practice","-1","","",""
"html-keyboard-response","39","317304","0.0-8.0-2.0-0.7","5431","2","21","Female","approach_avoid_spark_v1","""event"",""trial"",""time""
""fullscreenenter"",""1"",""11624""
","
","
","""event"",""trial"",""time""
""fullscreenenter"",""1"",""11624""
","
","","","","","","null","<div style=""font-size:60px;"">+</div>","null","","fixation","","","","","","","","","","",""
"aa-learning-trial","40","320307","0.0-8.0-2.0-1.7","5431","2","21","Female","approach_avoid_spark_v1","""event"",""trial"",""time""
""fullscreenenter"",""1"",""11624""
","
","
","""event"",""trial"",""time""
""fullscreenenter"",""1"",""11624""
","
","","","","","","4","images/racket1.png","","","learning","-1","-1","1","1","practice","practice","practice","-1","","",""
"html-keyboard-response","41","320808","0.0-8.0-2.0-0.8","5431","2","21","Female","approach_avoid_spark_v1","""event"",""trial"",""time""
""fullscreenenter"",""1"",""11624""
","
","
","""event"",""trial"",""time""
""fullscreenenter"",""1"",""11624""
","
","","","","","","null","<div style=""font-size:60px;"">+</div>","null","","fixation","","","","","","","","","","",""
"aa-learning-trial","42","323810","0.0-8.0-2.0-1.8","5431","2","21","Female","approach_avoid_spark_v1","""event"",""trial"",""time""
""fullscreenenter"",""1"",""11624""
","
","
","""event"",""trial"",""time""
""fullscreenenter"",""1"",""11624""
","
","","","","","","38","images/racket1.png","","","learning","-5","-5","1","1","practice","practice","practice","-1","","",""
"html-keyboard-response","43","324312","0.0-8.0-2.0-0.9","5431","2","21","Female","approach_avoid_spark_v1","""event"",""trial"",""time""
""fullscreenenter"",""1"",""11624""
","
","
","""event"",""trial"",""time""
""fullscreenenter"",""1"",""11624""
","
","","","","","","null","<div style=""font-size:60px;"">+</div>","null","","fixation","","","","","","","","","","",""
"aa-learning-trial","44","327313","0.0-8.0-2.0-1.9","5431","2","21","Female","approach_avoid_spark_v1","""event"",""trial"",""time""
""fullscreenenter"",""1"",""11624""
","
","
","""event"",""trial"",""time""
""fullscreenenter"",""1"",""11624""
","
","","","","","","1788.0000000000582","images/racket1.png","","","learning","-5","-5","1","1","practice","practice","practice","-1","","",""
"html-keyboard-response","45","327815","0.0-8.0-2.0-0.10","5431","2","21","Female","approach_avoid_spark_v1","""event"",""trial"",""time""
""fullscreenenter"",""1"",""11624""
","
","
","""event"",""trial"",""time""
""fullscreenenter"",""1"",""11624""
","
","","","","","","null","<div style=""font-size:60px;"">+</div>","null","","fixation","","","","","","","","","","",""
"aa-learning-trial","46","330817","0.0-8.0-2.0-1.10","5431","2","21","Female","approach_avoid_spark_v1","""event"",""trial"",""time""
""fullscreenenter"",""1"",""11624""
","
","
","""event"",""trial"",""time""
""fullscreenenter"",""1"",""11624""
","
","","","","","","2169","images/ball3.png","","","learning","1","1","1","1","practice","practice","practice","-1","","",""
"html-keyboard-response","47","331319","0.0-8.0-2.0-0.11","5431","2","21","Female","approach_avoid_spark_v1","""event"",""trial"",""time""
""fullscreenenter"",""1"",""11624""
","
","
","""event"",""trial"",""time""
""fullscreenenter"",""1"",""11624""
","
","","","","","","null","<div style=""font-size:60px;"">+</div>","null","","fixation","","","","","","","","","","",""
"aa-learning-trial","48","334322","0.0-8.0-2.0-1.11","5431","2","21","Female","approach_avoid_spark_v1","""event"",""trial"",""time""
""fullscreenenter"",""1"",""11624""
","
","
","""event"",""trial"",""time""
""fullscreenenter"",""1"",""11624""
","
","","","","","","2738","images/ball2.png","","","learning","4","4","1","1","practice","practice","practice","-1","","",""
"html-button-response","49","339956","0.0-8.0-3.0","5431","2","21","Female","approach_avoid_spark_v1","""event"",""trial"",""time""
""fullscreenenter"",""1"",""11624""
","
","
","""event"",""trial"",""time""
""fullscreenenter"",""1"",""11624""
","
","","","","","","5630","<p> You earned 14 points in the practice round! </p>","0","","break","","","","","","","","","","",""
"learning-instructions","50","347338","0.0-8.0-4.0-0.0","5431","2","21","Female","approach_avoid_spark_v1","""event"",""trial"",""time""
""fullscreenenter"",""1"",""11624""
","
","
","""event"",""trial"",""time""
""fullscreenenter"",""1"",""11624""
","
","","","","","","1425.0000000000582","<p> It's almost time to start the real game. </p><p> Before you start, we're going to ask you a few questions about how the game works. </p>","","0","instructions","","","","","","","","","","",""
"preload","51","353951","0.0-8.0-5.0","5431","2","21","Female","approach_avoid_spark_v1","""event"",""trial"",""time""
""fullscreenenter"",""1"",""11624""
","
","
","""event"",""trial"",""time""
""fullscreenenter"",""1"",""11624""
","
","true","false","[]","[]","[]","","","","","","","","","","","","","","","",""
"comp-q","52","362470","0.0-8.0-6.0-0.0","5431","2","21","Female","approach_avoid_spark_v1","""event"",""trial"",""time""
""fullscreenenter"",""1"",""11624""
","
","
","""event"",""trial"",""time""
""fullscreenenter"",""1"",""11624""
","
","","","","","","3522","<p> <b> True or False? </b> </p><p> If you see a number in GREY, that means you earned that many points. </p>","","1","comp_question","","","","","","","","","true","",""
"comp-q","53","380867","0.0-8.0-6.0-1.0","5431","2","21","Female","approach_avoid_spark_v1","""event"",""trial"",""time""
""fullscreenenter"",""1"",""11624""
","
","
","""event"",""trial"",""time""
""fullscreenenter"",""1"",""11624""
","
","","","","","","10040","<p><b> That's right! </b> If you see a grey number, it means you earned ZERO points. <br> The grey numbers show the points you WOULD HAVE earned if you had made the other choice. </p>","","0","comp_answer","","","","","","","","","","",""
"comp-q","54","388737","0.0-8.0-7.0-0.0","5431","2","21","Female","approach_avoid_spark_v1","""event"",""trial"",""time""
""fullscreenenter"",""1"",""11624""
","
","
","""event"",""trial"",""time""
""fullscreenenter"",""1"",""11624""
","
","","","","","","3183","<p> <b> True or False? </b> </p><p> You will have as much time as you want to make each choice. </p>","","1","comp_question","","","","","","","","","true","",""
"comp-q","55","394659","0.0-8.0-7.0-1.0","5431","2","21","Female","approach_avoid_spark_v1","""event"",""trial"",""time""
""fullscreenenter"",""1"",""11624""
","
","
","""event"",""trial"",""time""
""fullscreenenter"",""1"",""11624""
","
","","","","","","1884.0000000000582","<p> <b> That's right! </b> You will only have 3 seconds to make each choice. </p>","","0","comp_answer","","","","","","","","","","",""
"comp-q","56","402266","0.0-8.0-8.0-0.0","5431","2","21","Female","approach_avoid_spark_v1","""event"",""trial"",""time""
""fullscreenenter"",""1"",""11624""
","
","
","""event"",""trial"",""time""
""fullscreenenter"",""1"",""11624""
","
","","","","","","2952","<p> <b> True or False? </b> </p><p> You should use the '1' and '0' keys to make your choices. </p>","","1","comp_question","","","","","","","","","false","",""
"comp-q","57","409215","0.0-8.0-8.0-1.0","5431","2","21","Female","approach_avoid_spark_v1","""event"",""trial"",""time""
""fullscreenenter"",""1"",""11624""
","
","
","""event"",""trial"",""time""
""fullscreenenter"",""1"",""11624""
","
","","","","","","2400","<p> <b>Incorrect.</b> You <i>should</i> use the '1' and '0' keys to make each choice. </p>","","0","comp_answer","","","","","","","","","","",""
"comp-q","58","416020","0.0-8.0-8.1-0.1","5431","2","21","Female","approach_avoid_spark_v1","""event"",""trial"",""time""
""fullscreenenter"",""1"",""11624""
","
","
","""event"",""trial"",""time""
""fullscreenenter"",""1"",""11624""
","
","","","","","","2151","<p> <b> True or False? </b> </p><p> You should use the '1' and '0' keys to make your choices. </p>","","0","comp_question","","","","","","","","","true","",""
"comp-q","59","423227","0.0-8.0-8.1-1.1","5431","2","21","Female","approach_avoid_spark_v1","""event"",""trial"",""time""
""fullscreenenter"",""1"",""11624""
","
","
","""event"",""trial"",""time""
""fullscreenenter"",""1"",""11624""
","
","","","","","","2601","<p> <b> That's right! </b> You should use the '1' and '0' keys to make each choice. </p>","","0","comp_answer","","","","","","","","","","",""
"learning-instructions","60","445490","0.0-8.0-9.0-0.0","5431","2","21","Female","approach_avoid_spark_v1","""event"",""trial"",""time""
""fullscreenenter"",""1"",""11624""
","
","
","""event"",""trial"",""time""
""fullscreenenter"",""1"",""11624""
","
","","","","","","15998","<p> It's now time to start the real game. </p>Do your best, because the points you earn in the next rounds will influence your bonus payment. </p>","","0","instructions","","","","","","","","","","",""
"preload","61","445597","0.0-9.0-0.0","5431","2","21","Female","approach_avoid_spark_v1","""event"",""trial"",""time""
""fullscreenenter"",""1"",""11624""
","
","
","""event"",""trial"",""time""
""fullscreenenter"",""1"",""11624""
","
","true","false","[]","[]","[]","","","","","","","","","","","","","","","",""
"learning-instructions","62","451936","0.0-9.0-1.0-0.0","5431","2","21","Female","approach_avoid_spark_v1","""event"",""trial"",""time""
""fullscreenenter"",""1"",""11624""
","
","
","""event"",""trial"",""time""
""fullscreenenter"",""1"",""11624""
","
","","","","","","920","<p> Your goal in this round is to take your friend for rides in different vehicles. </p></div>","","0","instructions","","","","","","","","","","",""
"learning-instructions","63","463425","0.0-9.0-1.0-0.1","5431","2","21","Female","approach_avoid_spark_v1","""event"",""trial"",""time""
""fullscreenenter"",""1"",""11624""
","
","
","""event"",""trial"",""time""
""fullscreenenter"",""1"",""11624""
","
","","","","","","614","<p> Your friend enjoys riding in some vehicles but not in others.  </p><p> On each turn, you will see a vehicle.   </p><p> You need to decide whether to take your friend for a ride or not.  </p>","","0","instructions","","","","","","","","","","",""
"learning-instructions","64","471551","0.0-9.0-1.0-0.2","5431","2","21","Female","approach_avoid_spark_v1","""event"",""trial"",""time""
""fullscreenenter"",""1"",""11624""
","
","
","""event"",""trial"",""time""
""fullscreenenter"",""1"",""11624""
","
","","","","","","1058","<p> You can take your friend for a ride in the vehicle by pressing 1 and skip the ride by pressing 0. </p><br><div class=""choice-instructions-grid""> <div class=""choice-option""><img src=""images/approach.png"" class=""choice-option-img"" stage=""instructions"" position=""0"" ><div class=""choice-option-text""> Press ""1."" </div></div><div class=""choice-option""><img src=""images/avoid.png"" class=""choice-option-img"" stage=""instructions"" position=""1"" ><div class=""choice-option-text""> Press ""0."" </div></div>","","0","instructions","","","","","","","","","","",""
"learning-instructions","65","482045","0.0-9.0-1.0-0.3","5431","2","21","Female","approach_avoid_spark_v1","""event"",""trial"",""time""
""fullscreenenter"",""1"",""11624""
","
","
","""event"",""trial"",""time""
""fullscreenenter"",""1"",""11624""
","
","","","","","","1130","<p> If you take them for a ride in a vehicle they like, they will be thrilled! </p><p> But if you take them for a ride in a vehicle they do not like, they will be upset. </p>","","0","instructions","","","","","","","","","","",""
"learning-instructions","66","496219","0.0-9.0-1.0-0.4","5431","2","21","Female","approach_avoid_spark_v1","""event"",""trial"",""time""
""fullscreenenter"",""1"",""11624""
","
","
","""event"",""trial"",""time""
""fullscreenenter"",""1"",""11624""
","
","","","","","","1405.0000000000582","<p> You will earn points based on how you made your friend feel. </p><p> If you made him thrilled, you will WIN anywhere from 1 - 9 points, </p><p> but if you made him upset, you will LOSE anywhere from 1 - 9 points. </p>","","0","instructions","","","","","","","","","","",""
"learning-instructions","67","505671","0.0-9.0-1.0-0.5","5431","2","21","Female","approach_avoid_spark_v1","""event"",""trial"",""time""
""fullscreenenter"",""1"",""11624""
","
","
","""event"",""trial"",""time""
""fullscreenenter"",""1"",""11624""
","
","","","","","","1634.0000000000582","<p> You will see how many points you won or lost in the center of the screen. </p><p> Here is what you would see if you won 5 points: </p><p style=""color:green;font-size:50px;font-weight:bolder"">5</p>","","0","instructions","","","","","","","","","","",""
"learning-instructions","68","511346","0.0-9.0-1.0-0.6","5431","2","21","Female","approach_avoid_spark_v1","""event"",""trial"",""time""
""fullscreenenter"",""1"",""11624""
","
","
","""event"",""trial"",""time""
""fullscreenenter"",""1"",""11624""
","
","","","","","","2063.000000000058","<p> And here is what you would see if you lost 3 points: </p><p style=""color:red;font-size:50px;font-weight:bolder"">-3</p>","","0","instructions","","","","","","","","","","",""
"learning-instructions","69","528689","0.0-9.0-1.0-0.7","5431","2","21","Female","approach_avoid_spark_v1","""event"",""trial"",""time""
""fullscreenenter"",""1"",""11624""
","
","
","""event"",""trial"",""time""
""fullscreenenter"",""1"",""11624""
","
","","","","","","778","<p> Some vehicles will make your friend REALLY thrilled or upset. </p><p> These vehicles will make you win or lose LOTS of points. </p><p> Other vehicles will only make him feel a little thrilled or upset. </p><p> These vehicles will make you win or lose small amounts of points. </p>","","0","instructions","","","","","","","","","","",""
"learning-instructions","70","542615","0.0-9.0-1.0-0.8","5431","2","21","Female","approach_avoid_spark_v1","""event"",""trial"",""time""
""fullscreenenter"",""1"",""11624""
","
","
","""event"",""trial"",""time""
""fullscreenenter"",""1"",""11624""
","
","","","","","","1375","<p> If you choose to skip the ride, you will not win or lose any points. </p><p>  However, in the center of the screen, you will see the number of points you WOULD HAVE won or lost if you had taken your friend for a ride. </p>","","0","instructions","","","","","","","","","","",""
"learning-instructions","71","555853","0.0-9.0-1.0-0.9","5431","2","21","Female","approach_avoid_spark_v1","""event"",""trial"",""time""
""fullscreenenter"",""1"",""11624""
","
","
","""event"",""trial"",""time""
""fullscreenenter"",""1"",""11624""
","
","","","","","","1899","<p> Here is what you might see if you did not take your friend for a ride but he would have enjoyed it: </p><p style=""color:grey; font-size:50px; display: inline-block; border-spacing: 15px; border-width:3px; border-style:solid; border-color:red"">  &nbsp; 6 &nbsp; </p><p> Remember, in this case, you would not win or lose ANY points because you skipped the ride.  </p>","","0","instructions","","","","","","","","","","",""
"learning-instructions","72","566182","0.0-9.0-1.0-0.10","5431","2","21","Female","approach_avoid_spark_v1","""event"",""trial"",""time""
""fullscreenenter"",""1"",""11624""
","
","
","""event"",""trial"",""time""
""fullscreenenter"",""1"",""11624""
","
","","","","","","1870","<p> Try to make the best choice for each vehicle because </p><p> at the end of the game, you will earn bonus money based on how many points you earned. </p>","","0","instructions","","","","","","","","","","",""
"learning-instructions","73","676534","0.0-9.0-1.0-0.11","5431","2","21","Female","approach_avoid_spark_v1","""event"",""trial"",""time""
""fullscreenenter"",""1"",""11624""
","
","
","""event"",""trial"",""time""
""fullscreenenter"",""1"",""11624""
","
","","","","","","102174","<p> You will have 3 seconds to make each choice. Try to respond before time runs out! </p><p> You will lose 5 points each time you do not make a response. </p>","","0","instructions","","","","","","","","","","",""
"html-keyboard-response","74","677136","0.0-9.0-2.0-0.0","5431","2","21","Female","approach_avoid_spark_v1","""event"",""trial"",""time""
""fullscreenenter"",""1"",""11624""
","
","
","""event"",""trial"",""time""
""fullscreenenter"",""1"",""11624""
","
","","","","","","null","<div style=""font-size:60px;"">+</div>","null","","fixation","","","","","","","","","","",""
"aa-learning-trial","75","680139","0.0-9.0-2.0-1.0","5431","2","21","Female","approach_avoid_spark_v1","""event"",""trial"",""time""
""fullscreenenter"",""1"",""11624""
","
","
","""event"",""trial"",""time""
""fullscreenenter"",""1"",""11624""
","
","","","","","","1744","images/train7.png","","","learning","-4","-4","1","1","train","vehicles","2","0","","neutral","0"
"html-keyboard-response","76","680640","0.0-9.0-2.0-0.1","5431","2","21","Female","approach_avoid_spark_v1","""event"",""trial"",""time""
""fullscreenenter"",""1"",""11624""
","
","
","""event"",""trial"",""time""
""fullscreenenter"",""1"",""11624""
","
","","","","","","null","<div style=""font-size:60px;"">+</div>","null","","fixation","","","","","","","","","","",""
"aa-learning-trial","77","683643","0.0-9.0-2.0-1.1","5431","2","21","Female","approach_avoid_spark_v1","""event"",""trial"",""time""
""fullscreenenter"",""1"",""11624""
","
","
","""event"",""trial"",""time""
""fullscreenenter"",""1"",""11624""
","
","","","","","","216","images/plane5.png","","","learning","-5","0","0","0","plane","vehicles","2","0","","bad","[-3]"
"html-keyboard-response","78","684144","0.0-9.0-2.0-0.2","5431","2","21","Female","approach_avoid_spark_v1","""event"",""trial"",""time""
""fullscreenenter"",""1"",""11624""
","
","
","""event"",""trial"",""time""
""fullscreenenter"",""1"",""11624""
","
","","","","","","null","<div style=""font-size:60px;"">+</div>","null","","fixation","","","","","","","","","","",""
"aa-learning-trial","79","687150","0.0-9.0-2.0-1.2","5431","2","21","Female","approach_avoid_spark_v1","""event"",""trial"",""time""
""fullscreenenter"",""1"",""11624""
","
","
","""event"",""trial"",""time""
""fullscreenenter"",""1"",""11624""
","
","","","","","","760","images/train1.png","","","learning","-6","0","0","0","train","vehicles","2","0","","neutral","0"
"html-keyboard-response","80","687651","0.0-9.0-2.0-0.3","5431","2","21","Female","approach_avoid_spark_v1","""event"",""trial"",""time""
""fullscreenenter"",""1"",""11624""
","
","
","""event"",""trial"",""time""
""fullscreenenter"",""1"",""11624""
","
","","","","","","null","<div style=""font-size:60px;"">+</div>","null","","fixation","","","","","","","","","","",""
"aa-learning-trial","81","690653","0.0-9.0-2.0-1.3","5431","2","21","Female","approach_avoid_spark_v1","""event"",""trial"",""time""
""fullscreenenter"",""1"",""11624""
","
","
","""event"",""trial"",""time""
""fullscreenenter"",""1"",""11624""
","
","","","","","","345","images/train2.png","","","learning","4","4","1","1","train","vehicles","2","0","","neutral","0"
"html-keyboard-response","82","691155","0.0-9.0-2.0-0.4","5431","2","21","Female","approach_avoid_spark_v1","""event"",""trial"",""time""
""fullscreenenter"",""1"",""11624""
","
","
","""event"",""trial"",""time""
""fullscreenenter"",""1"",""11624""
","
","","","","","","null","<div style=""font-size:60px;"">+</div>","null","","fixation","","","","","","","","","","",""
"aa-learning-trial","83","694157","0.0-9.0-2.0-1.4","5431","2","21","Female","approach_avoid_spark_v1","""event"",""trial"",""time""
""fullscreenenter"",""1"",""11624""
","
","
","""event"",""trial"",""time""
""fullscreenenter"",""1"",""11624""
","
","","","","","","494","images/plane7.png","","","learning","5","5","1","1","plane","vehicles","2","0","","bad","[-3]"
"html-keyboard-response","84","694658","0.0-9.0-2.0-0.5","5431","2","21","Female","approach_avoid_spark_v1","""event"",""trial"",""time""
""fullscreenenter"",""1"",""11624""
","
","
","""event"",""trial"",""time""
""fullscreenenter"",""1"",""11624""
","
","","","","","","null","<div style=""font-size:60px;"">+</div>","null","","fixation","","","","","","","","","","",""
"aa-learning-trial","85","697660","0.0-9.0-2.0-1.5","5431","2","21","Female","approach_avoid_spark_v1","""event"",""trial"",""time""
""fullscreenenter"",""1"",""11624""
","
","
","""event"",""trial"",""time""
""fullscreenenter"",""1"",""11624""
","
","","","","","","80.99999999988358","images/plane1.png","","","learning","2","2","1","1","plane","vehicles","2","0","","bad","[-3]"
"html-keyboard-response","86","698162","0.0-9.0-2.0-0.6","5431","2","21","Female","approach_avoid_spark_v1","""event"",""trial"",""time""
""fullscreenenter"",""1"",""11624""
","
","
","""event"",""trial"",""time""
""fullscreenenter"",""1"",""11624""
","
","","","","","","null","<div style=""font-size:60px;"">+</div>","null","","fixation","","","","","","","","","","",""
"aa-learning-trial","87","701166","0.0-9.0-2.0-1.6","5431","2","21","Female","approach_avoid_spark_v1","""event"",""trial"",""time""
""fullscreenenter"",""1"",""11624""
","
","
","""event"",""trial"",""time""
""fullscreenenter"",""1"",""11624""
","
","","","","","","853","images/truck1.png","","","learning","-9","-9","1","1","truck","vehicles","2","0","","good","[4]"
"html-keyboard-response","88","701667","0.0-9.0-2.0-0.7","5431","2","21","Female","approach_avoid_spark_v1","""event"",""trial"",""time""
""fullscreenenter"",""1"",""11624""
","
","
","""event"",""trial"",""time""
""fullscreenenter"",""1"",""11624""
","
","","","","","","null","<div style=""font-size:60px;"">+</div>","null","","fixation","","","","","","","","","","",""
"aa-learning-trial","89","704670","0.0-9.0-2.0-1.7","5431","2","21","Female","approach_avoid_spark_v1","""event"",""trial"",""time""
""fullscreenenter"",""1"",""11624""
","
","
","""event"",""trial"",""time""
""fullscreenenter"",""1"",""11624""
","
","","","","","","404","images/truck1.png","","","learning","-9","-9","1","1","truck","vehicles","2","0","","good","[4]"
"html-keyboard-response","90","705172","0.0-9.0-2.0-0.8","5431","2","21","Female","approach_avoid_spark_v1","""event"",""trial"",""time""
""fullscreenenter"",""1"",""11624""
","
","
","""event"",""trial"",""time""
""fullscreenenter"",""1"",""11624""
","
","","","","","","null","<div style=""font-size:60px;"">+</div>","null","","fixation","","","","","","","","","","",""
"aa-learning-trial","91","708174","0.0-9.0-2.0-1.8","5431","2","21","Female","approach_avoid_spark_v1","""event"",""trial"",""time""
""fullscreenenter"",""1"",""11624""
","
","
","""event"",""trial"",""time""
""fullscreenenter"",""1"",""11624""
","
","","","","","","834","images/train2.png","","","learning","4","0","0","0","train","vehicles","2","0","","neutral","0"
"html-keyboard-response","92","708676","0.0-9.0-2.0-0.9","5431","2","21","Female","approach_avoid_spark_v1","""event"",""trial"",""time""
""fullscreenenter"",""1"",""11624""
","
","
","""event"",""trial"",""time""
""fullscreenenter"",""1"",""11624""
","
","","","","","","null","<div style=""font-size:60px;"">+</div>","null","","fixation","","","","","","","","","","",""
"aa-learning-trial","93","711678","0.0-9.0-2.0-1.9","5431","2","21","Female","approach_avoid_spark_v1","""event"",""trial"",""time""
""fullscreenenter"",""1"",""11624""
","
","
","""event"",""trial"",""time""
""fullscreenenter"",""1"",""11624""
","
","","","","","","465","images/train7.png","","","learning","-4","0","0","0","train","vehicles","2","0","","neutral","0"
"html-keyboard-response","94","712180","0.0-9.0-2.0-0.10","5431","2","21","Female","approach_avoid_spark_v1","""event"",""trial"",""time""
""fullscreenenter"",""1"",""11624""
","
","
","""event"",""trial"",""time""
""fullscreenenter"",""1"",""11624""
","
","","","","","","null","<div style=""font-size:60px;"">+</div>","null","","fixation","","","","","","","","","","",""
"aa-learning-trial","95","715182","0.0-9.0-2.0-1.10","5431","2","21","Female","approach_avoid_spark_v1","""event"",""trial"",""time""
""fullscreenenter"",""1"",""11624""
","
","
","""event"",""trial"",""time""
""fullscreenenter"",""1"",""11624""
","
","","","","","","141","images/truck7.png","","","learning","-3","-3","1","1","truck","vehicles","2","0","","good","[4]"
"html-keyboard-response","96","715683","0.0-9.0-2.0-0.11","5431","2","21","Female","approach_avoid_spark_v1","""event"",""trial"",""time""
""fullscreenenter"",""1"",""11624""
","
","
","""event"",""trial"",""time""
""fullscreenenter"",""1"",""11624""
","
","","","","","","null","<div style=""font-size:60px;"">+</div>","null","","fixation","","","","","","","","","","",""
"aa-learning-trial","97","718686","0.0-9.0-2.0-1.11","5431","2","21","Female","approach_avoid_spark_v1","""event"",""trial"",""time""
""fullscreenenter"",""1"",""11624""
","
","
","""event"",""trial"",""time""
""fullscreenenter"",""1"",""11624""
","
","","","","","","316","images/truck3.png","","","learning","3","3","1","1","truck","vehicles","2","0","","good","[4]"
"html-keyboard-response","98","719187","0.0-9.0-2.0-0.12","5431","2","21","Female","approach_avoid_spark_v1","""event"",""trial"",""time""
""fullscreenenter"",""1"",""11624""
","
","
","""event"",""trial"",""time""
""fullscreenenter"",""1"",""11624""
","
","","","","","","null","<div style=""font-size:60px;"">+</div>","null","","fixation","","","","","","","","","","",""
"aa-learning-trial","99","722190","0.0-9.0-2.0-1.12","5431","2","21","Female","approach_avoid_spark_v1","""event"",""trial"",""time""
""fullscreenenter"",""1"",""11624""
","
","
","""event"",""trial"",""time""
""fullscreenenter"",""1"",""11624""
","
","","","","","","746","images/plane7.png","","","learning","5","5","1","1","plane","vehicles","2","0","","bad","[-3]"
"html-keyboard-response","100","722691","0.0-9.0-2.0-0.13","5431","2","21","Female","approach_avoid_spark_v1","""event"",""trial"",""time""
""fullscreenenter"",""1"",""11624""
","
","
","""event"",""trial"",""time""
""fullscreenenter"",""1"",""11624""
","
","","","","","","null","<div style=""font-size:60px;"">+</div>","null","","fixation","","","","","","","","","","",""
"aa-learning-trial","101","725693","0.0-9.0-2.0-1.13","5431","2","21","Female","approach_avoid_spark_v1","""event"",""trial"",""time""
""fullscreenenter"",""1"",""11624""
","
","
","""event"",""trial"",""time""
""fullscreenenter"",""1"",""11624""
","
","","","","","","841","images/truck7.png","","","learning","-3","0","0","0","truck","vehicles","2","0","","good","[4]"
"html-keyboard-response","102","726195","0.0-9.0-2.0-0.14","5431","2","21","Female","approach_avoid_spark_v1","""event"",""trial"",""time""
""fullscreenenter"",""1"",""11624""
","
","
","""event"",""trial"",""time""
""fullscreenenter"",""1"",""11624""
","
","","","","","","null","<div style=""font-size:60px;"">+</div>","null","","fixation","","","","","","","","","","",""
"aa-learning-trial","103","729197","0.0-9.0-2.0-1.14","5431","2","21","Female","approach_avoid_spark_v1","""event"",""trial"",""time""
""fullscreenenter"",""1"",""11624""
","
","
","""event"",""trial"",""time""
""fullscreenenter"",""1"",""11624""
","
","","","","","","12","images/plane5.png","","","learning","-5","-5","1","1","plane","vehicles","2","0","","bad","[-3]"
"html-keyboard-response","104","729698","0.0-9.0-2.0-0.15","5431","2","21","Female","approach_avoid_spark_v1","""event"",""trial"",""time""
""fullscreenenter"",""1"",""11624""
","
","
","""event"",""trial"",""time""
""fullscreenenter"",""1"",""11624""
","
","","","","","","null","<div style=""font-size:60px;"">+</div>","null","","fixation","","","","","","","","","","",""
"aa-learning-trial","105","732701","0.0-9.0-2.0-1.15","5431","2","21","Female","approach_avoid_spark_v1","""event"",""trial"",""time""
""fullscreenenter"",""1"",""11624""
","
","
","""event"",""trial"",""time""
""fullscreenenter"",""1"",""11624""
","
","","","","","","1619","images/plane5.png","","","learning","-5","-5","1","1","plane","vehicles","2","0","","bad","[-3]"
"html-keyboard-response","106","733202","0.0-9.0-2.0-0.16","5431","2","21","Female","approach_avoid_spark_v1","""event"",""trial"",""time""
""fullscreenenter"",""1"",""11624""
","
","
","""event"",""trial"",""time""
""fullscreenenter"",""1"",""11624""
","
","","","","","","null","<div style=""font-size:60px;"">+</div>","null","","fixation","","","","","","","","","","",""
"aa-learning-trial","107","736205","0.0-9.0-2.0-1.16","5431","2","21","Female","approach_avoid_spark_v1","""event"",""trial"",""time""
""fullscreenenter"",""1"",""11624""
","
","
","""event"",""trial"",""time""
""fullscreenenter"",""1"",""11624""
","
","","","","","","1108.0000000001164","images/plane5.png","","","learning","-5","0","0","0","plane","vehicles","2","0","","bad","[-3]"
"html-keyboard-response","108","736706","0.0-9.0-2.0-0.17","5431","2","21","Female","approach_avoid_spark_v1","""event"",""trial"",""time""
""fullscreenenter"",""1"",""11624""
","
","
","""event"",""trial"",""time""
""fullscreenenter"",""1"",""11624""
","
","","","","","","null","<div style=""font-size:60px;"">+</div>","null","","fixation","","","","","","","","","","",""
"aa-learning-trial","109","739709","0.0-9.0-2.0-1.17","5431","2","21","Female","approach_avoid_spark_v1","""event"",""trial"",""time""
""fullscreenenter"",""1"",""11624""
","
","
","""event"",""trial"",""time""
""fullscreenenter"",""1"",""11624""
","
","","","","","","401","images/train7.png","","","learning","-4","0","0","0","train","vehicles","2","0","","neutral","0"
"html-keyboard-response","110","740210","0.0-9.0-2.0-0.18","5431","2","21","Female","approach_avoid_spark_v1","""event"",""trial"",""time""
""fullscreenenter"",""1"",""11624""
","
","
","""event"",""trial"",""time""
""fullscreenenter"",""1"",""11624""
","
","","","","","","null","<div style=""font-size:60px;"">+</div>","null","","fixation","","","","","","","","","","",""
"aa-learning-trial","111","743212","0.0-9.0-2.0-1.18","5431","2","21","Female","approach_avoid_spark_v1","""event"",""trial"",""time""
""fullscreenenter"",""1"",""11624""
","
","
","""event"",""trial"",""time""
""fullscreenenter"",""1"",""11624""
","
","","","","","","754.0000000001164","images/train7.png","","","learning","-4","0","0","0","train","vehicles","2","0","","neutral","0"
"html-keyboard-response","112","743716","0.0-9.0-2.0-0.19","5431","2","21","Female","approach_avoid_spark_v1","""event"",""trial"",""time""
""fullscreenenter"",""1"",""11624""
","
","
","""event"",""trial"",""time""
""fullscreenenter"",""1"",""11624""
","
","","","","","","null","<div style=""font-size:60px;"">+</div>","null","","fixation","","","","","","","","","","",""
"aa-learning-trial","113","746719","0.0-9.0-2.0-1.19","5431","2","21","Female","approach_avoid_spark_v1","""event"",""trial"",""time""
""fullscreenenter"",""1"",""11624""
","
","
","""event"",""trial"",""time""
""fullscreenenter"",""1"",""11624""
","
","","","","","","479","images/train2.png","","","learning","4","0","0","0","train","vehicles","2","0","","neutral","0"
"html-keyboard-response","114","747220","0.0-9.0-2.0-0.20","5431","2","21","Female","approach_avoid_spark_v1","""event"",""trial"",""time""
""fullscreenenter"",""1"",""11624""
","
","
","""event"",""trial"",""time""
""fullscreenenter"",""1"",""11624""
","
","","","","","","null","<div style=""font-size:60px;"">+</div>","null","","fixation","","","","","","","","","","",""
"aa-learning-trial","115","750223","0.0-9.0-2.0-1.20","5431","2","21","Female","approach_avoid_spark_v1","""event"",""trial"",""time""
""fullscreenenter"",""1"",""11624""
","
","
","""event"",""trial"",""time""
""fullscreenenter"",""1"",""11624""
","
","","","","","","58","images/truck3.png","","","learning","3","0","0","0","truck","vehicles","2","0","","good","[4]"
"html-keyboard-response","116","750724","0.0-9.0-2.0-0.21","5431","2","21","Female","approach_avoid_spark_v1","""event"",""trial"",""time""
""fullscreenenter"",""1"",""11624""
","
","
","""event"",""trial"",""time""
""fullscreenenter"",""1"",""11624""
","
","","","","","","null","<div style=""font-size:60px;"">+</div>","null","","fixation","","","","","","","","","","",""
"aa-learning-trial","117","753725","0.0-9.0-2.0-1.21","5431","2","21","Female","approach_avoid_spark_v1","""event"",""trial"",""time""
""fullscreenenter"",""1"",""11624""
","
","
","""event"",""trial"",""time""
""fullscreenenter"",""1"",""11624""
","
","","","","","","592","images/plane7.png","","","learning","5","0","0","0","plane","vehicles","2","0","","bad","[-3]"
"html-keyboard-response","118","754226","0.0-9.0-2.0-0.22","5431","2","21","Female","approach_avoid_spark_v1","""event"",""trial"",""time""
""fullscreenenter"",""1"",""11624""
","
","
","""event"",""trial"",""time""
""fullscreenenter"",""1"",""11624""
","
","","","","","","null","<div style=""font-size:60px;"">+</div>","null","","fixation","","","","","","","","","","",""
"aa-learning-trial","119","757229","0.0-9.0-2.0-1.22","5431","2","21","Female","approach_avoid_spark_v1","""event"",""trial"",""time""
""fullscreenenter"",""1"",""11624""
","
","
","""event"",""trial"",""time""
""fullscreenenter"",""1"",""11624""
","
","","","","","","883","images/truck7.png","","","learning","-3","-3","1","1","truck","vehicles","2","0","","good","[4]"
"html-keyboard-response","120","757730","0.0-9.0-2.0-0.23","5431","2","21","Female","approach_avoid_spark_v1","""event"",""trial"",""time""
""fullscreenenter"",""1"",""11624""
","
","
","""event"",""trial"",""time""
""fullscreenenter"",""1"",""11624""
","
","","","","","","null","<div style=""font-size:60px;"">+</div>","null","","fixation","","","","","","","","","","",""
"aa-learning-trial","121","760731","0.0-9.0-2.0-1.23","5431","2","21","Female","approach_avoid_spark_v1","""event"",""trial"",""time""
""fullscreenenter"",""1"",""11624""
","
","
","""event"",""trial"",""time""
""fullscreenenter"",""1"",""11624""
","
","","","","","","230","images/train2.png","","","learning","4","4","1","1","train","vehicles","2","0","","neutral","0"
"html-keyboard-response","122","761232","0.0-9.0-2.0-0.24","5431","2","21","Female","approach_avoid_spark_v1","""event"",""trial"",""time""
""fullscreenenter"",""1"",""11624""
","
","
","""event"",""trial"",""time""
""fullscreenenter"",""1"",""11624""
","
","","","","","","null","<div style=""font-size:60px;"">+</div>","null","","fixation","","","","","","","","","","",""
"aa-learning-trial","123","764235","0.0-9.0-2.0-1.24","5431","2","21","Female","approach_avoid_spark_v1","""event"",""trial"",""time""
""fullscreenenter"",""1"",""11624""
","
","
","""event"",""trial"",""time""
""fullscreenenter"",""1"",""11624""
","
","","","","","","245","images/train1.png","","","learning","-6","-6","1","1","train","vehicles","2","0","","neutral","0"
"html-keyboard-response","124","764736","0.0-9.0-2.0-0.25","5431","2","21","Female","approach_avoid_spark_v1","""event"",""trial"",""time""
""fullscreenenter"",""1"",""11624""
","
","
","""event"",""trial"",""time""
""fullscreenenter"",""1"",""11624""
","
","","","","","","null","<div style=""font-size:60px;"">+</div>","null","","fixation","","","","","","","","","","",""
"aa-learning-trial","125","767739","0.0-9.0-2.0-1.25","5431","2","21","Female","approach_avoid_spark_v1","""event"",""trial"",""time""
""fullscreenenter"",""1"",""11624""
","
","
","""event"",""trial"",""time""
""fullscreenenter"",""1"",""11624""
","
","","","","","","686","images/train3.png","","","learning","8","8","1","1","train","vehicles","2","0","","neutral","0"
"html-keyboard-response","126","768240","0.0-9.0-2.0-0.26","5431","2","21","Female","approach_avoid_spark_v1","""event"",""trial"",""time""
""fullscreenenter"",""1"",""11624""
","
","
","""event"",""trial"",""time""
""fullscreenenter"",""1"",""11624""
","
","","","","","","null","<div style=""font-size:60px;"">+</div>","null","","fixation","","","","","","","","","","",""
"aa-learning-trial","127","771242","0.0-9.0-2.0-1.26","5431","2","21","Female","approach_avoid_spark_v1","""event"",""trial"",""time""
""fullscreenenter"",""1"",""11624""
","
","
","""event"",""trial"",""time""
""fullscreenenter"",""1"",""11624""
","
","","","","","","445","images/train2.png","","","learning","4","4","1","1","train","vehicles","2","0","","neutral","0"
"html-keyboard-response","128","771743","0.0-9.0-2.0-0.27","5431","2","21","Female","approach_avoid_spark_v1","""event"",""trial"",""time""
""fullscreenenter"",""1"",""11624""
","
","
","""event"",""trial"",""time""
""fullscreenenter"",""1"",""11624""
","
","","","","","","null","<div style=""font-size:60px;"">+</div>","null","","fixation","","","","","","","","","","",""
"aa-learning-trial","129","774745","0.0-9.0-2.0-1.27","5431","2","21","Female","approach_avoid_spark_v1","""event"",""trial"",""time""
""fullscreenenter"",""1"",""11624""
","
","
","""event"",""trial"",""time""
""fullscreenenter"",""1"",""11624""
","
","","","","","","1450","images/truck5.png","","","learning","7","7","1","1","truck","vehicles","2","0","","good","[4]"
"html-keyboard-response","130","775246","0.0-9.0-2.0-0.28","5431","2","21","Female","approach_avoid_spark_v1","""event"",""trial"",""time""
""fullscreenenter"",""1"",""11624""
","
","
","""event"",""trial"",""time""
""fullscreenenter"",""1"",""11624""
","
","","","","","","null","<div style=""font-size:60px;"">+</div>","null","","fixation","","","","","","","","","","",""
"aa-learning-trial","131","778248","0.0-9.0-2.0-1.28","5431","2","21","Female","approach_avoid_spark_v1","""event"",""trial"",""time""
""fullscreenenter"",""1"",""11624""
","
","
","""event"",""trial"",""time""
""fullscreenenter"",""1"",""11624""
","
","","","","","","133","images/truck7.png","","","learning","-3","-3","1","1","truck","vehicles","2","0","","good","[4]"
"html-keyboard-response","132","778749","0.0-9.0-2.0-0.29","5431","2","21","Female","approach_avoid_spark_v1","""event"",""trial"",""time""
""fullscreenenter"",""1"",""11624""
","
","
","""event"",""trial"",""time""
""fullscreenenter"",""1"",""11624""
","
","","","","","","null","<div style=""font-size:60px;"">+</div>","null","","fixation","","","","","","","","","","",""
"aa-learning-trial","133","781751","0.0-9.0-2.0-1.29","5431","2","21","Female","approach_avoid_spark_v1","""event"",""trial"",""time""
""fullscreenenter"",""1"",""11624""
","
","
","""event"",""trial"",""time""
""fullscreenenter"",""1"",""11624""
","
","","","","","","1778","images/train7.png","","","learning","-4","-4","1","1","train","vehicles","2","0","","neutral","0"
"html-keyboard-response","134","782255","0.0-9.0-2.0-0.30","5431","2","21","Female","approach_avoid_spark_v1","""event"",""trial"",""time""
""fullscreenenter"",""1"",""11624""
","
","
","""event"",""trial"",""time""
""fullscreenenter"",""1"",""11624""
","
","","","","","","null","<div style=""font-size:60px;"">+</div>","null","","fixation","","","","","","","","","","",""
"aa-learning-trial","135","785257","0.0-9.0-2.0-1.30","5431","2","21","Female","approach_avoid_spark_v1","""event"",""trial"",""time""
""fullscreenenter"",""1"",""11624""
","
","
","""event"",""trial"",""time""
""fullscreenenter"",""1"",""11624""
","
","","","","","","2531","images/train5.png","","","learning","-2","-2","1","1","train","vehicles","2","0","","neutral","0"
"html-keyboard-response","136","785759","0.0-9.0-2.0-0.31","5431","2","21","Female","approach_avoid_spark_v1","""event"",""trial"",""time""
""fullscreenenter"",""1"",""11624""
","
","
","""event"",""trial"",""time""
""fullscreenenter"",""1"",""11624""
","
","","","","","","null","<div style=""font-size:60px;"">+</div>","null","","fixation","","","","","","","","","","",""
"aa-learning-trial","137","788762","0.0-9.0-2.0-1.31","5431","2","21","Female","approach_avoid_spark_v1","""event"",""trial"",""time""
""fullscreenenter"",""1"",""11624""
","
","
","""event"",""trial"",""time""
""fullscreenenter"",""1"",""11624""
","
","","","","","","1789","images/plane6.png","","","learning","-8","-8","1","1","plane","vehicles","2","0","","bad","[-3]"
"html-keyboard-response","138","789265","0.0-9.0-2.0-0.32","5431","2","21","Female","approach_avoid_spark_v1","""event"",""trial"",""time""
""fullscreenenter"",""1"",""11624""
","
","
","""event"",""trial"",""time""
""fullscreenenter"",""1"",""11624""
","
","","","","","","null","<div style=""font-size:60px;"">+</div>","null","","fixation","","","","","","","","","","",""
"aa-learning-trial","139","792267","0.0-9.0-2.0-1.32","5431","2","21","Female","approach_avoid_spark_v1","""event"",""trial"",""time""
""fullscreenenter"",""1"",""11624""
","
","
","""event"",""trial"",""time""
""fullscreenenter"",""1"",""11624""
","
","","","","","","548","images/truck7.png","","","learning","-3","-3","1","1","truck","vehicles","2","0","","good","[4]"
"html-keyboard-response","140","792769","0.0-9.0-2.0-0.33","5431","2","21","Female","approach_avoid_spark_v1","""event"",""trial"",""time""
""fullscreenenter"",""1"",""11624""
","
","
","""event"",""trial"",""time""
""fullscreenenter"",""1"",""11624""
","
","","","","","","null","<div style=""font-size:60px;"">+</div>","null","","fixation","","","","","","","","","","",""
"aa-learning-trial","141","795772","0.0-9.0-2.0-1.33","5431","2","21","Female","approach_avoid_spark_v1","""event"",""trial"",""time""
""fullscreenenter"",""1"",""11624""
","
","
","""event"",""trial"",""time""
""fullscreenenter"",""1"",""11624""
","
","","","","","","1116.0000000001164","images/train7.png","","","learning","-4","-4","1","1","train","vehicles","2","0","","neutral","0"
"html-keyboard-response","142","796273","0.0-9.0-2.0-0.34","5431","2","21","Female","approach_avoid_spark_v1","""event"",""trial"",""time""
""fullscreenenter"",""1"",""11624""
","
","
","""event"",""trial"",""time""
""fullscreenenter"",""1"",""11624""
","
","","","","","","null","<div style=""font-size:60px;"">+</div>","null","","fixation","","","","","","","","","","",""
"aa-learning-trial","143","799276","0.0-9.0-2.0-1.34","5431","2","21","Female","approach_avoid_spark_v1","""event"",""trial"",""time""
""fullscreenenter"",""1"",""11624""
","
","
","""event"",""trial"",""time""
""fullscreenenter"",""1"",""11624""
","
","","","","","","539","images/truck3.png","","","learning","3","3","1","1","truck","vehicles","2","0","","good","[4]"
"html-keyboard-response","144","799777","0.0-9.0-2.0-0.35","5431","2","21","Female","approach_avoid_spark_v1","""event"",""trial"",""time""
""fullscreenenter"",""1"",""11624""
","
","
","""event"",""trial"",""time""
""fullscreenenter"",""1"",""11624""
","
","","","","","","null","<div style=""font-size:60px;"">+</div>","null","","fixation","","","","","","","","","","",""
"aa-learning-trial","145","802779","0.0-9.0-2.0-1.35","5431","2","21","Female","approach_avoid_spark_v1","""event"",""trial"",""time""
""fullscreenenter"",""1"",""11624""
","
","
","""event"",""trial"",""time""
""fullscreenenter"",""1"",""11624""
","
","","","","","","266","images/truck7.png","","","learning","-3","-3","1","1","truck","vehicles","2","0","","good","[4]"
"html-keyboard-response","146","803281","0.0-9.0-2.0-0.36","5431","2","21","Female","approach_avoid_spark_v1","""event"",""trial"",""time""
""fullscreenenter"",""1"",""11624""
","
","
","""event"",""trial"",""time""
""fullscreenenter"",""1"",""11624""
","
","","","","","","null","<div style=""font-size:60px;"">+</div>","null","","fixation","","","","","","","","","","",""
"aa-learning-trial","147","806283","0.0-9.0-2.0-1.36","5431","2","21","Female","approach_avoid_spark_v1","""event"",""trial"",""time""
""fullscreenenter"",""1"",""11624""
","
","
","""event"",""trial"",""time""
""fullscreenenter"",""1"",""11624""
","
","","","","","","664","images/plane7.png","","","learning","5","0","0","0","plane","vehicles","2","0","","bad","[-3]"
"html-keyboard-response","148","806785","0.0-9.0-2.0-0.37","5431","2","21","Female","approach_avoid_spark_v1","""event"",""trial"",""time""
""fullscreenenter"",""1"",""11624""
","
","
","""event"",""trial"",""time""
""fullscreenenter"",""1"",""11624""
","
","","","","","","null","<div style=""font-size:60px;"">+</div>","null","","fixation","","","","","","","","","","",""
"aa-learning-trial","149","809787","0.0-9.0-2.0-1.37","5431","2","21","Female","approach_avoid_spark_v1","""event"",""trial"",""time""
""fullscreenenter"",""1"",""11624""
","
","
","""event"",""trial"",""time""
""fullscreenenter"",""1"",""11624""
","
","","","","","","2611","images/plane7.png","","","learning","5","0","0","0","plane","vehicles","2","0","","bad","[-3]"
"html-keyboard-response","150","810288","0.0-9.0-2.0-0.38","5431","2","21","Female","approach_avoid_spark_v1","""event"",""trial"",""time""
""fullscreenenter"",""1"",""11624""
","
","
","""event"",""trial"",""time""
""fullscreenenter"",""1"",""11624""
","
","","","","","","null","<div style=""font-size:60px;"">+</div>","null","","fixation","","","","","","","","","","",""
"aa-learning-trial","151","813290","0.0-9.0-2.0-1.38","5431","2","21","Female","approach_avoid_spark_v1","""event"",""trial"",""time""
""fullscreenenter"",""1"",""11624""
","
","
","""event"",""trial"",""time""
""fullscreenenter"",""1"",""11624""
","
","","","","","","1657.9999999998836","images/truck1.png","","","learning","-9","-9","1","1","truck","vehicles","2","0","","good","[4]"
"html-keyboard-response","152","813792","0.0-9.0-2.0-0.39","5431","2","21","Female","approach_avoid_spark_v1","""event"",""trial"",""time""
""fullscreenenter"",""1"",""11624""
","
","
","""event"",""trial"",""time""
""fullscreenenter"",""1"",""11624""
","
","","","","","","null","<div style=""font-size:60px;"">+</div>","null","","fixation","","","","","","","","","","",""
"aa-learning-trial","153","816795","0.0-9.0-2.0-1.39","5431","2","21","Female","approach_avoid_spark_v1","""event"",""trial"",""time""
""fullscreenenter"",""1"",""11624""
","
","
","""event"",""trial"",""time""
""fullscreenenter"",""1"",""11624""
","
","","","","","","981.0000000001164","images/plane5.png","","","learning","-5","-5","1","1","plane","vehicles","2","0","","bad","[-3]"
"html-keyboard-response","154","817296","0.0-9.0-2.0-0.40","5431","2","21","Female","approach_avoid_spark_v1","""event"",""trial"",""time""
""fullscreenenter"",""1"",""11624""
","
","
","""event"",""trial"",""time""
""fullscreenenter"",""1"",""11624""
","
","","","","","","null","<div style=""font-size:60px;"">+</div>","null","","fixation","","","","","","","","","","",""
"aa-learning-trial","155","820299","0.0-9.0-2.0-1.40","5431","2","21","Female","approach_avoid_spark_v1","""event"",""trial"",""time""
""fullscreenenter"",""1"",""11624""
","
","
","""event"",""trial"",""time""
""fullscreenenter"",""1"",""11624""
","
","","","","","","596","images/plane5.png","","","learning","-5","-5","1","1","plane","vehicles","2","0","","bad","[-3]"
"html-keyboard-response","156","820800","0.0-9.0-2.0-0.41","5431","2","21","Female","approach_avoid_spark_v1","""event"",""trial"",""time""
""fullscreenenter"",""1"",""11624""
","
","
","""event"",""trial"",""time""
""fullscreenenter"",""1"",""11624""
","
","","","","","","null","<div style=""font-size:60px;"">+</div>","null","","fixation","","","","","","","","","","",""
"aa-learning-trial","157","823802","0.0-9.0-2.0-1.41","5431","2","21","Female","approach_avoid_spark_v1","""event"",""trial"",""time""
""fullscreenenter"",""1"",""11624""
","
","
","""event"",""trial"",""time""
""fullscreenenter"",""1"",""11624""
","
","","","","","","505","images/plane1.png","","","learning","2","2","1","1","plane","vehicles","2","0","","bad","[-3]"
"html-keyboard-response","158","824304","0.0-9.0-2.0-0.42","5431","2","21","Female","approach_avoid_spark_v1","""event"",""trial"",""time""
""fullscreenenter"",""1"",""11624""
","
","
","""event"",""trial"",""time""
""fullscreenenter"",""1"",""11624""
","
","","","","","","null","<div style=""font-size:60px;"">+</div>","null","","fixation","","","","","","","","","","",""
"aa-learning-trial","159","827306","0.0-9.0-2.0-1.42","5431","2","21","Female","approach_avoid_spark_v1","""event"",""trial"",""time""
""fullscreenenter"",""1"",""11624""
","
","
","""event"",""trial"",""time""
""fullscreenenter"",""1"",""11624""
","
","","","","","","157.00000000011642","images/plane8.png","","","learning","9","9","1","1","plane","vehicles","2","0","","bad","[-3]"
"html-keyboard-response","160","827807","0.0-9.0-2.0-0.43","5431","2","21","Female","approach_avoid_spark_v1","""event"",""trial"",""time""
""fullscreenenter"",""1"",""11624""
","
","
","""event"",""trial"",""time""
""fullscreenenter"",""1"",""11624""
","
","","","","","","null","<div style=""font-size:60px;"">+</div>","null","","fixation","","","","","","","","","","",""
"aa-learning-trial","161","830810","0.0-9.0-2.0-1.43","5431","2","21","Female","approach_avoid_spark_v1","""event"",""trial"",""time""
""fullscreenenter"",""1"",""11624""
","
","
","""event"",""trial"",""time""
""fullscreenenter"",""1"",""11624""
","
","","","","","","1182","images/train2.png","","","learning","4","0","0","0","train","vehicles","2","0","","neutral","0"
"html-keyboard-response","162","831311","0.0-9.0-2.0-0.44","5431","2","21","Female","approach_avoid_spark_v1","""event"",""trial"",""time""
""fullscreenenter"",""1"",""11624""
","
","
","""event"",""trial"",""time""
""fullscreenenter"",""1"",""11624""
","
","","","","","","null","<div style=""font-size:60px;"">+</div>","null","","fixation","","","","","","","","","","",""
"aa-learning-trial","163","834314","0.0-9.0-2.0-1.44","5431","2","21","Female","approach_avoid_spark_v1","""event"",""trial"",""time""
""fullscreenenter"",""1"",""11624""
","
","
","""event"",""trial"",""time""
""fullscreenenter"",""1"",""11624""
","
","","","","","","592.0000000001164","images/plane7.png","","","learning","5","0","0","0","plane","vehicles","2","0","","bad","[-3]"
"html-keyboard-response","164","834815","0.0-9.0-2.0-0.45","5431","2","21","Female","approach_avoid_spark_v1","""event"",""trial"",""time""
""fullscreenenter"",""1"",""11624""
","
","
","""event"",""trial"",""time""
""fullscreenenter"",""1"",""11624""
","
","","","","","","null","<div style=""font-size:60px;"">+</div>","null","","fixation","","","","","","","","","","",""
"aa-learning-trial","165","837817","0.0-9.0-2.0-1.45","5431","2","21","Female","approach_avoid_spark_v1","""event"",""trial"",""time""
""fullscreenenter"",""1"",""11624""
","
","
","""event"",""trial"",""time""
""fullscreenenter"",""1"",""11624""
","
","","","","","","1054","images/truck1.png","","","learning","-9","-9","1","1","truck","vehicles","2","0","","good","[4]"
"html-keyboard-response","166","838321","0.0-9.0-2.0-0.46","5431","2","21","Female","approach_avoid_spark_v1","""event"",""trial"",""time""
""fullscreenenter"",""1"",""11624""
","
","
","""event"",""trial"",""time""
""fullscreenenter"",""1"",""11624""
","
","","","","","","null","<div style=""font-size:60px;"">+</div>","null","","fixation","","","","","","","","","","",""
"aa-learning-trial","167","841323","0.0-9.0-2.0-1.46","5431","2","21","Female","approach_avoid_spark_v1","""event"",""trial"",""time""
""fullscreenenter"",""1"",""11624""
","
","
","""event"",""trial"",""time""
""fullscreenenter"",""1"",""11624""
","
","","","","","","1258","images/truck1.png","","","learning","-9","0","0","0","truck","vehicles","2","0","","good","[4]"
"html-keyboard-response","168","841828","0.0-9.0-2.0-0.47","5431","2","21","Female","approach_avoid_spark_v1","""event"",""trial"",""time""
""fullscreenenter"",""1"",""11624""
","
","
","""event"",""trial"",""time""
""fullscreenenter"",""1"",""11624""
","
","","","","","","null","<div style=""font-size:60px;"">+</div>","null","","fixation","","","","","","","","","","",""
"aa-learning-trial","169","844830","0.0-9.0-2.0-1.47","5431","2","21","Female","approach_avoid_spark_v1","""event"",""trial"",""time""
""fullscreenenter"",""1"",""11624""
","
","
","""event"",""trial"",""time""
""fullscreenenter"",""1"",""11624""
","
","","","","","","570","images/truck6.png","","","learning","-1","-1","1","1","truck","vehicles","2","0","","good","[4]"
"html-keyboard-response","170","845332","0.0-9.0-2.0-0.48","5431","2","21","Female","approach_avoid_spark_v1","""event"",""trial"",""time""
""fullscreenenter"",""1"",""11624""
","
","
","""event"",""trial"",""time""
""fullscreenenter"",""1"",""11624""
","
","","","","","","null","<div style=""font-size:60px;"">+</div>","null","","fixation","","","","","","","","","","",""
"aa-learning-trial","171","848334","0.0-9.0-2.0-1.48","5431","2","21","Female","approach_avoid_spark_v1","""event"",""trial"",""time""
""fullscreenenter"",""1"",""11624""
","
","
","""event"",""trial"",""time""
""fullscreenenter"",""1"",""11624""
","
","","","","","","1172","images/truck1.png","","","learning","-9","0","0","0","truck","vehicles","2","0","","good","[4]"
"html-keyboard-response","172","848836","0.0-9.0-2.0-0.49","5431","2","21","Female","approach_avoid_spark_v1","""event"",""trial"",""time""
""fullscreenenter"",""1"",""11624""
","
","
","""event"",""trial"",""time""
""fullscreenenter"",""1"",""11624""
","
","","","","","","null","<div style=""font-size:60px;"">+</div>","null","","fixation","","","","","","","","","","",""
"aa-learning-trial","173","851838","0.0-9.0-2.0-1.49","5431","2","21","Female","approach_avoid_spark_v1","""event"",""trial"",""time""
""fullscreenenter"",""1"",""11624""
","
","
","""event"",""trial"",""time""
""fullscreenenter"",""1"",""11624""
","
","","","","","","947","images/plane1.png","","","learning","2","2","1","1","plane","vehicles","2","0","","bad","[-3]"
"html-keyboard-response","174","852339","0.0-9.0-2.0-0.50","5431","2","21","Female","approach_avoid_spark_v1","""event"",""trial"",""time""
""fullscreenenter"",""1"",""11624""
","
","
","""event"",""trial"",""time""
""fullscreenenter"",""1"",""11624""
","
","","","","","","null","<div style=""font-size:60px;"">+</div>","null","","fixation","","","","","","","","","","",""
"aa-learning-trial","175","855341","0.0-9.0-2.0-1.50","5431","2","21","Female","approach_avoid_spark_v1","""event"",""trial"",""time""
""fullscreenenter"",""1"",""11624""
","
","
","""event"",""trial"",""time""
""fullscreenenter"",""1"",""11624""
","
","","","","","","1448","images/train1.png","","","learning","-6","-6","1","1","train","vehicles","2","0","","neutral","0"
"html-button-response","176","857963","0.0-9.0-3.0","5431","2","21","Female","approach_avoid_spark_v1","""event"",""trial"",""time""
""fullscreenenter"",""1"",""11624""
","
","
","""event"",""trial"",""time""
""fullscreenenter"",""1"",""11624""
","
","","","","","","2551","<p> You have completed the round! <p> In this round, you earned -48 points! </p>","0","","break","","","","","","","","","","",""
"html-button-response","177","858859","0.0-10.0","5431","2","21","Female","approach_avoid_spark_v1","""event"",""trial"",""time""
""fullscreenenter"",""1"",""11624""
","
","
","""event"",""trial"",""time""
""fullscreenenter"",""1"",""11624""
","
","","","","","","895","<p> Now it's time to play another round. </p>","0","","transition_screen","","","","","","","","","","",""
"preload","178","858974","0.0-11.0-0.0","5431","2","21","Female","approach_avoid_spark_v1","""event"",""trial"",""time""
""fullscreenenter"",""1"",""11624""
","
","
","""event"",""trial"",""time""
""fullscreenenter"",""1"",""11624""
","
","true","false","[]","[]","[]","","","","","","","","","","","","","","","",""
"learning-instructions","179","879325","0.0-11.0-1.0-0.0","5431","2","21","Female","approach_avoid_spark_v1","""event"",""trial"",""time""
""fullscreenenter"",""1"",""11624""
","
","
","""event"",""trial"",""time""
""fullscreenenter"",""1"",""11624""
","
","","","","","","2840","<p> Your goal in this round is to sell different plants to a picky customer. </p></div>","","0","instructions","","","","","","","","","","",""
"learning-instructions","180","899860","0.0-11.0-1.0-0.1","5431","2","21","Female","approach_avoid_spark_v1","""event"",""trial"",""time""
""fullscreenenter"",""1"",""11624""
","
","
","""event"",""trial"",""time""
""fullscreenenter"",""1"",""11624""
","
","","","","","","4019","<p> The customer likes some plants and dislikes others.  </p><p> On each turn, you will see a plant.   </p><p> You need to decide whether to offer it to the customer or not.  </p>","","0","instructions","","","","","","","","","","",""
"learning-instructions","181","908792","0.0-11.0-1.0-0.2","5431","2","21","Female","approach_avoid_spark_v1","""event"",""trial"",""time""
""fullscreenenter"",""1"",""11624""
","
","
","""event"",""trial"",""time""
""fullscreenenter"",""1"",""11624""
","
","","","","","","2383","<p> You can offer the plant by pressing 1 and decide to not offer it by pressing 0. </p><br><div class=""choice-instructions-grid""> <div class=""choice-option""><img src=""images/approach.png"" class=""choice-option-img"" stage=""instructions"" position=""0"" ><div class=""choice-option-text""> Press ""1."" </div></div><div class=""choice-option""><img src=""images/avoid.png"" class=""choice-option-img"" stage=""instructions"" position=""1"" ><div class=""choice-option-text""> Press ""0."" </div></div>","","0","instructions","","","","","","","","","","",""
"learning-instructions","182","921383","0.0-11.0-1.0-0.3","5431","2","21","Female","approach_avoid_spark_v1","""event"",""trial"",""time""
""fullscreenenter"",""1"",""11624""
","
","
","""event"",""trial"",""time""
""fullscreenenter"",""1"",""11624""
","
","","","","","","3013","<p> If you offer a plant to the customer that she likes, she will be very pleased! </p><p> But if you offer a plant that she does NOT like, she will be annoyed. </p>","","0","instructions","","","","","","","","","","",""
"learning-instructions","183","938179","0.0-11.0-1.0-0.4","5431","2","21","Female","approach_avoid_spark_v1","""event"",""trial"",""time""
""fullscreenenter"",""1"",""11624""
","
","
","""event"",""trial"",""time""
""fullscreenenter"",""1"",""11624""
","
","","","","","","3008","<p> You will earn points based on how you made the customer feel. </p><p> If you made her pleased, you will WIN anywhere from 1 - 9 points, </p><p> but if you made her annoyed, you will LOSE anywhere from 1 - 9 points. </p>","","0","instructions","","","","","","","","","","",""
"learning-instructions","184","946102","0.0-11.0-1.0-0.5","5431","2","21","Female","approach_avoid_spark_v1","""event"",""trial"",""time""
""fullscreenenter"",""1"",""11624""
","
","
","""event"",""trial"",""time""
""fullscreenenter"",""1"",""11624""
","
","","","","","","1274","<p> You will see how many points you won or lost in the center of the screen. </p><p> Here is what you would see if you won 5 points: </p><p style=""color:green;font-size:50px;font-weight:bolder"">5</p>","","0","instructions","","","","","","","","","","",""
"learning-instructions","185","952091","0.0-11.0-1.0-0.6","5431","2","21","Female","approach_avoid_spark_v1","""event"",""trial"",""time""
""fullscreenenter"",""1"",""11624""
","
","
","""event"",""trial"",""time""
""fullscreenenter"",""1"",""11624""
","
","","","","","","3155.9999999998836","<p> And here is what you would see if you lost 3 points: </p><p style=""color:red;font-size:50px;font-weight:bolder"">-3</p>","","0","instructions","","","","","","","","","","",""
"learning-instructions","186","971539","0.0-11.0-1.0-0.7","5431","2","21","Female","approach_avoid_spark_v1","""event"",""trial"",""time""
""fullscreenenter"",""1"",""11624""
","
","
","""event"",""trial"",""time""
""fullscreenenter"",""1"",""11624""
","
","","","","","","2997","<p> Some plants will make the customer VERY pleased or annoyed. </p><p> These plants will make you win or lose LOTS of points. </p><p> The customer will have less strong feelings about other plants. </p><p> These plants will make you win or lose small amounts of points. </p>","","0","instructions","","","","","","","","","","",""
"learning-instructions","187","988964","0.0-11.0-1.0-0.8","5431","2","21","Female","approach_avoid_spark_v1","""event"",""trial"",""time""
""fullscreenenter"",""1"",""11624""
","
","
","""event"",""trial"",""time""
""fullscreenenter"",""1"",""11624""
","
","","","","","","3324","<p> If you choose to not offer the plant to the customer, you will not win or lose any points. </p><p>  However, in the center of the screen, you will see the number of points you WOULD HAVE won or lost if you had offered the plant. </p>","","0","instructions","","","","","","","","","","",""
"learning-instructions","188","1004728","0.0-11.0-1.0-0.9","5431","2","21","Female","approach_avoid_spark_v1","""event"",""trial"",""time""
""fullscreenenter"",""1"",""11624""
","
","
","""event"",""trial"",""time""
""fullscreenenter"",""1"",""11624""
","
","","","","","","3476","<p> Here is what you might see if you did not offer the plant but the customer would have liked it: </p><p style=""color:grey; font-size:50px; display: inline-block; border-spacing: 15px; border-width:3px; border-style:solid; border-color:red"">  &nbsp; 6 &nbsp; </p><p> Remember, in this case, you would not win or lose ANY points because you did not offer the plant.  </p>","","0","instructions","","","","","","","","","","",""
"learning-instructions","189","1015788","0.0-11.0-1.0-0.10","5431","2","21","Female","approach_avoid_spark_v1","""event"",""trial"",""time""
""fullscreenenter"",""1"",""11624""
","
","
","""event"",""trial"",""time""
""fullscreenenter"",""1"",""11624""
","
","","","","","","2748.9999999998836","<p> Try to make the best choice for each plant because </p><p> at the end of the game, you will earn bonus money based on how many points you earned. </p>","","0","instructions","","","","","","","","","","",""
"learning-instructions","190","1031188","0.0-11.0-1.0-0.11","5431","2","21","Female","approach_avoid_spark_v1","""event"",""trial"",""time""
""fullscreenenter"",""1"",""11624""
","
","
","""event"",""trial"",""time""
""fullscreenenter"",""1"",""11624""
","
","","","","","","7216.999999999884","<p> You will have 3 seconds to make each choice. Try to respond before time runs out! </p><p> You will lose 5 points each time you do not make a response. </p>","","0","instructions","","","","","","","","","","",""
"html-keyboard-response","191","1031791","0.0-11.0-2.0-0.0","5431","2","21","Female","approach_avoid_spark_v1","""event"",""trial"",""time""
""fullscreenenter"",""1"",""11624""
","
","
","""event"",""trial"",""time""
""fullscreenenter"",""1"",""11624""
","
","","","","","","null","<div style=""font-size:60px;"">+</div>","null","","fixation","","","","","","","","","","",""
"aa-learning-trial","192","1034794","0.0-11.0-2.0-1.0","5431","2","21","Female","approach_avoid_spark_v1","""event"",""trial"",""time""
""fullscreenenter"",""1"",""11624""
","
","
","""event"",""trial"",""time""
""fullscreenenter"",""1"",""11624""
","
","","","","","","null","images/flower7.png","","","learning","6","-5","","null","flower","plants","1","1","","good","[5]"
"html-keyboard-response","193","1035295","0.0-11.0-2.0-0.1","5431","2","21","Female","approach_avoid_spark_v1","""event"",""trial"",""time""
""fullscreenenter"",""1"",""11624""
","
","
","""event"",""trial"",""time""
""fullscreenenter"",""1"",""11624""
","
","","","","","","null","<div style=""font-size:60px;"">+</div>","null","","fixation","","","","","","","","","","",""
"aa-learning-trial","194","1038297","0.0-11.0-2.0-1.1","5431","2","21","Female","approach_avoid_spark_v1","""event"",""trial"",""time""
""fullscreenenter"",""1"",""11624""
","
","
","""event"",""trial"",""time""
""fullscreenenter"",""1"",""11624""
","
","","","","","","1684","images/tree8.png","","","learning","-2","-2","1","1","tree","plants","1","1","","bad","[-3]"
"html-keyboard-response","195","1038799","0.0-11.0-2.0-0.2","5431","2","21","Female","approach_avoid_spark_v1","""event"",""trial"",""time""
""fullscreenenter"",""1"",""11624""
","
","
","""event"",""trial"",""time""
""fullscreenenter"",""1"",""11624""
","
","","","","","","null","<div style=""font-size:60px;"">+</div>","null","","fixation","","","","","","","","","","",""
"aa-learning-trial","196","1041802","0.0-11.0-2.0-1.2","5431","2","21","Female","approach_avoid_spark_v1","""event"",""trial"",""time""
""fullscreenenter"",""1"",""11624""
","
","
","""event"",""trial"",""time""
""fullscreenenter"",""1"",""11624""
","
","","","","","","1560","images/tree3.png","","","learning","-3","-3","1","1","tree","plants","1","1","","bad","[-3]"
"html-keyboard-response","197","1042303","0.0-11.0-2.0-0.3","5431","2","21","Female","approach_avoid_spark_v1","""event"",""trial"",""time""
""fullscreenenter"",""1"",""11624""
","
","
","""event"",""trial"",""time""
""fullscreenenter"",""1"",""11624""
","
","","","","","","null","<div style=""font-size:60px;"">+</div>","null","","fixation","","","","","","","","","","",""
"aa-learning-trial","198","1045305","0.0-11.0-2.0-1.3","5431","2","21","Female","approach_avoid_spark_v1","""event"",""trial"",""time""
""fullscreenenter"",""1"",""11624""
","
","
","""event"",""trial"",""time""
""fullscreenenter"",""1"",""11624""
","
","","","","","","565.0000000001164","images/cactus7.png","","","learning","2","2","1","1","cactus","plants","1","1","","neutral","0"
"html-keyboard-response","199","1045807","0.0-11.0-2.0-0.4","5431","2","21","Female","approach_avoid_spark_v1","""event"",""trial"",""time""
""fullscreenenter"",""1"",""11624""
","
","
","""event"",""trial"",""time""
""fullscreenenter"",""1"",""11624""
","
","","","","","","null","<div style=""font-size:60px;"">+</div>","null","","fixation","","","","","","","","","","",""
"aa-learning-trial","200","1048809","0.0-11.0-2.0-1.4","5431","2","21","Female","approach_avoid_spark_v1","""event"",""trial"",""time""
""fullscreenenter"",""1"",""11624""
","
","
","""event"",""trial"",""time""
""fullscreenenter"",""1"",""11624""
","
","","","","","","1431","images/tree2.png","","","learning","-5","-5","1","1","tree","plants","1","1","","bad","[-3]"
"html-keyboard-response","201","1049311","0.0-11.0-2.0-0.5","5431","2","21","Female","approach_avoid_spark_v1","""event"",""trial"",""time""
""fullscreenenter"",""1"",""11624""
","
","
","""event"",""trial"",""time""
""fullscreenenter"",""1"",""11624""
","
","","","","","","null","<div style=""font-size:60px;"">+</div>","null","","fixation","","","","","","","","","","",""
"aa-learning-trial","202","1052313","0.0-11.0-2.0-1.5","5431","2","21","Female","approach_avoid_spark_v1","""event"",""trial"",""time""
""fullscreenenter"",""1"",""11624""
","
","
","""event"",""trial"",""time""
""fullscreenenter"",""1"",""11624""
","
","","","","","","773","images/flower3.png","","","learning","3","0","0","0","flower","plants","1","1","","good","[5]"
"html-keyboard-response","203","1052814","0.0-11.0-2.0-0.6","5431","2","21","Female","approach_avoid_spark_v1","""event"",""trial"",""time""
""fullscreenenter"",""1"",""11624""
","
","
","""event"",""trial"",""time""
""fullscreenenter"",""1"",""11624""
","
","","","","","","null","<div style=""font-size:60px;"">+</div>","null","","fixation","","","","","","","","","","",""
"aa-learning-trial","204","1055817","0.0-11.0-2.0-1.6","5431","2","21","Female","approach_avoid_spark_v1","""event"",""trial"",""time""
""fullscreenenter"",""1"",""11624""
","
","
","""event"",""trial"",""time""
""fullscreenenter"",""1"",""11624""
","
","","","","","","1034","images/cactus7.png","","","learning","[1]","1","1","1","cactus","plants","1","1","","neutral","0"
"html-keyboard-response","205","1056318","0.0-11.0-2.0-0.7","5431","2","21","Female","approach_avoid_spark_v1","""event"",""trial"",""time""
""fullscreenenter"",""1"",""11624""
","
","
","""event"",""trial"",""time""
""fullscreenenter"",""1"",""11624""
","
","","","","","","null","<div style=""font-size:60px;"">+</div>","null","","fixation","","","","","","","","","","",""
"aa-learning-trial","206","1059321","0.0-11.0-2.0-1.7","5431","2","21","Female","approach_avoid_spark_v1","""event"",""trial"",""time""
""fullscreenenter"",""1"",""11624""
","
","
","""event"",""trial"",""time""
""fullscreenenter"",""1"",""11624""
","
","","","","","","633","images/tree3.png","","","learning","-2","0","0","0","tree","plants","1","1","","bad","[-3]"
"html-keyboard-response","207","1059822","0.0-11.0-2.0-0.8","5431","2","21","Female","approach_avoid_spark_v1","""event"",""trial"",""time""
""fullscreenenter"",""1"",""11624""
","
","
","""event"",""trial"",""time""
""fullscreenenter"",""1"",""11624""
","
","","","","","","null","<div style=""font-size:60px;"">+</div>","null","","fixation","","","","","","","","","","",""
"aa-learning-trial","208","1062824","0.0-11.0-2.0-1.8","5431","2","21","Female","approach_avoid_spark_v1","""event"",""trial"",""time""
""fullscreenenter"",""1"",""11624""
","
","
","""event"",""trial"",""time""
""fullscreenenter"",""1"",""11624""
","
","","","","","","702.9999999997672","images/cactus1.png","","","learning","1","0","0","0","cactus","plants","1","1","","neutral","0"
"html-keyboard-response","209","1063325","0.0-11.0-2.0-0.9","5431","2","21","Female","approach_avoid_spark_v1","""event"",""trial"",""time""
""fullscreenenter"",""1"",""11624""
","
","
","""event"",""trial"",""time""
""fullscreenenter"",""1"",""11624""
","
","","","","","","null","<div style=""font-size:60px;"">+</div>","null","","fixation","","","","","","","","","","",""
"aa-learning-trial","210","1066328","0.0-11.0-2.0-1.9","5431","2","21","Female","approach_avoid_spark_v1","""event"",""trial"",""time""
""fullscreenenter"",""1"",""11624""
","
","
","""event"",""trial"",""time""
""fullscreenenter"",""1"",""11624""
","
","","","","","","874","images/flower4.png","","","learning","4","0","0","0","flower","plants","1","1","","good","[5]"
"html-keyboard-response","211","1066829","0.0-11.0-2.0-0.10","5431","2","21","Female","approach_avoid_spark_v1","""event"",""trial"",""time""
""fullscreenenter"",""1"",""11624""
","
","
","""event"",""trial"",""time""
""fullscreenenter"",""1"",""11624""
","
","","","","","","null","<div style=""font-size:60px;"">+</div>","null","","fixation","","","","","","","","","","",""
"aa-learning-trial","212","1069832","0.0-11.0-2.0-1.10","5431","2","21","Female","approach_avoid_spark_v1","""event"",""trial"",""time""
""fullscreenenter"",""1"",""11624""
","
","
","""event"",""trial"",""time""
""fullscreenenter"",""1"",""11624""
","
","","","","","","580","images/tree2.png","","","learning","-6","0","0","0","tree","plants","1","1","","bad","[-3]"
"html-keyboard-response","213","1070333","0.0-11.0-2.0-0.11","5431","2","21","Female","approach_avoid_spark_v1","""event"",""trial"",""time""
""fullscreenenter"",""1"",""11624""
","
","
","""event"",""trial"",""time""
""fullscreenenter"",""1"",""11624""
","
","","","","","","null","<div style=""font-size:60px;"">+</div>","null","","fixation","","","","","","","","","","",""
"aa-learning-trial","214","1073336","0.0-11.0-2.0-1.11","5431","2","21","Female","approach_avoid_spark_v1","""event"",""trial"",""time""
""fullscreenenter"",""1"",""11624""
","
","
","""event"",""trial"",""time""
""fullscreenenter"",""1"",""11624""
","
","","","","","","516","images/flower7.png","","","learning","5","5","1","1","flower","plants","1","1","","good","[5]"
"html-keyboard-response","215","1073837","0.0-11.0-2.0-0.12","5431","2","21","Female","approach_avoid_spark_v1","""event"",""trial"",""time""
""fullscreenenter"",""1"",""11624""
","
","
","""event"",""trial"",""time""
""fullscreenenter"",""1"",""11624""
","
","","","","","","null","<div style=""font-size:60px;"">+</div>","null","","fixation","","","","","","","","","","",""
"aa-learning-trial","216","1076839","0.0-11.0-2.0-1.12","5431","2","21","Female","approach_avoid_spark_v1","""event"",""trial"",""time""
""fullscreenenter"",""1"",""11624""
","
","
","""event"",""trial"",""time""
""fullscreenenter"",""1"",""11624""
","
","","","","","","1236","images/cactus6.png","","","learning","-1","-1","1","1","cactus","plants","1","1","","neutral","0"
"html-keyboard-response","217","1077341","0.0-11.0-2.0-0.13","5431","2","21","Female","approach_avoid_spark_v1","""event"",""trial"",""time""
""fullscreenenter"",""1"",""11624""
","
","
","""event"",""trial"",""time""
""fullscreenenter"",""1"",""11624""
","
","","","","","","null","<div style=""font-size:60px;"">+</div>","null","","fixation","","","","","","","","","","",""
"aa-learning-trial","218","1080343","0.0-11.0-2.0-1.13","5431","2","21","Female","approach_avoid_spark_v1","""event"",""trial"",""time""
""fullscreenenter"",""1"",""11624""
","
","
","""event"",""trial"",""time""
""fullscreenenter"",""1"",""11624""
","
","","","","","","991.9999999997672","images/cactus6.png","","","learning","-1","0","0","0","cactus","plants","1","1","","neutral","0"
"html-keyboard-response","219","1080845","0.0-11.0-2.0-0.14","5431","2","21","Female","approach_avoid_spark_v1","""event"",""trial"",""time""
""fullscreenenter"",""1"",""11624""
","
","
","""event"",""trial"",""time""
""fullscreenenter"",""1"",""11624""
","
","","","","","","null","<div style=""font-size:60px;"">+</div>","null","","fixation","","","","","","","","","","",""
"aa-learning-trial","220","1083847","0.0-11.0-2.0-1.14","5431","2","21","Female","approach_avoid_spark_v1","""event"",""trial"",""time""
""fullscreenenter"",""1"",""11624""
","
","
","""event"",""trial"",""time""
""fullscreenenter"",""1"",""11624""
","
","","","","","","668","images/flower3.png","","","learning","8","8","1","1","flower","plants","1","1","","good","[5]"
"html-keyboard-response","221","1084349","0.0-11.0-2.0-0.15","5431","2","21","Female","approach_avoid_spark_v1","""event"",""trial"",""time""
""fullscreenenter"",""1"",""11624""
","
","
","""event"",""trial"",""time""
""fullscreenenter"",""1"",""11624""
","
","","","","","","null","<div style=""font-size:60px;"">+</div>","null","","fixation","","","","","","","","","","",""
"aa-learning-trial","222","1087350","0.0-11.0-2.0-1.15","5431","2","21","Female","approach_avoid_spark_v1","""event"",""trial"",""time""
""fullscreenenter"",""1"",""11624""
","
","
","""event"",""trial"",""time""
""fullscreenenter"",""1"",""11624""
","
","","","","","","1325","images/tree3.png","","","learning","-5","0","0","0","tree","plants","1","1","","bad","[-3]"
"html-keyboard-response","223","1087852","0.0-11.0-2.0-0.16","5431","2","21","Female","approach_avoid_spark_v1","""event"",""trial"",""time""
""fullscreenenter"",""1"",""11624""
","
","
","""event"",""trial"",""time""
""fullscreenenter"",""1"",""11624""
","
","","","","","","null","<div style=""font-size:60px;"">+</div>","null","","fixation","","","","","","","","","","",""
"aa-learning-trial","224","1090854","0.0-11.0-2.0-1.16","5431","2","21","Female","approach_avoid_spark_v1","""event"",""trial"",""time""
""fullscreenenter"",""1"",""11624""
","
","
","""event"",""trial"",""time""
""fullscreenenter"",""1"",""11624""
","
","","","","","","666","images/flower3.png","","","learning","5","5","1","1","flower","plants","1","1","","good","[5]"
"html-keyboard-response","225","1091356","0.0-11.0-2.0-0.17","5431","2","21","Female","approach_avoid_spark_v1","""event"",""trial"",""time""
""fullscreenenter"",""1"",""11624""
","
","
","""event"",""trial"",""time""
""fullscreenenter"",""1"",""11624""
","
","","","","","","null","<div style=""font-size:60px;"">+</div>","null","","fixation","","","","","","","","","","",""
"aa-learning-trial","226","1094359","0.0-11.0-2.0-1.17","5431","2","21","Female","approach_avoid_spark_v1","""event"",""trial"",""time""
""fullscreenenter"",""1"",""11624""
","
","
","""event"",""trial"",""time""
""fullscreenenter"",""1"",""11624""
","
","","","","","","695","images/cactus6.png","","","learning","-1","-1","1","1","cactus","plants","1","1","","neutral","0"
"html-keyboard-response","227","1094860","0.0-11.0-2.0-0.18","5431","2","21","Female","approach_avoid_spark_v1","""event"",""trial"",""time""
""fullscreenenter"",""1"",""11624""
","
","
","""event"",""trial"",""time""
""fullscreenenter"",""1"",""11624""
","
","","","","","","null","<div style=""font-size:60px;"">+</div>","null","","fixation","","","","","","","","","","",""
"aa-learning-trial","228","1097863","0.0-11.0-2.0-1.18","5431","2","21","Female","approach_avoid_spark_v1","""event"",""trial"",""time""
""fullscreenenter"",""1"",""11624""
","
","
","""event"",""trial"",""time""
""fullscreenenter"",""1"",""11624""
","
","","","","","","762","images/flower2.png","","","learning","5","5","1","1","flower","plants","1","1","","good","[5]"
"html-keyboard-response","229","1098364","0.0-11.0-2.0-0.19","5431","2","21","Female","approach_avoid_spark_v1","""event"",""trial"",""time""
""fullscreenenter"",""1"",""11624""
","
","
","""event"",""trial"",""time""
""fullscreenenter"",""1"",""11624""
","
","","","","","","null","<div style=""font-size:60px;"">+</div>","null","","fixation","","","","","","","","","","",""
"aa-learning-trial","230","1101366","0.0-11.0-2.0-1.19","5431","2","21","Female","approach_avoid_spark_v1","""event"",""trial"",""time""
""fullscreenenter"",""1"",""11624""
","
","
","""event"",""trial"",""time""
""fullscreenenter"",""1"",""11624""
","
","","","","","","821","images/cactus6.png","","","learning","-2","-2","1","1","cactus","plants","1","1","","neutral","0"
"html-keyboard-response","231","1101870","0.0-11.0-2.0-0.20","5431","2","21","Female","approach_avoid_spark_v1","""event"",""trial"",""time""
""fullscreenenter"",""1"",""11624""
","
","
","""event"",""trial"",""time""
""fullscreenenter"",""1"",""11624""
","
","","","","","","null","<div style=""font-size:60px;"">+</div>","null","","fixation","","","","","","","","","","",""
"aa-learning-trial","232","1104873","0.0-11.0-2.0-1.20","5431","2","21","Female","approach_avoid_spark_v1","""event"",""trial"",""time""
""fullscreenenter"",""1"",""11624""
","
","
","""event"",""trial"",""time""
""fullscreenenter"",""1"",""11624""
","
","","","","","","661.0000000002328","images/tree3.png","","","learning","-1","0","0","0","tree","plants","1","1","","bad","[-3]"
"html-keyboard-response","233","1105374","0.0-11.0-2.0-0.21","5431","2","21","Female","approach_avoid_spark_v1","""event"",""trial"",""time""
""fullscreenenter"",""1"",""11624""
","
","
","""event"",""trial"",""time""
""fullscreenenter"",""1"",""11624""
","
","","","","","","null","<div style=""font-size:60px;"">+</div>","null","","fixation","","","","","","","","","","",""
"aa-learning-trial","234","1108377","0.0-11.0-2.0-1.21","5431","2","21","Female","approach_avoid_spark_v1","""event"",""trial"",""time""
""fullscreenenter"",""1"",""11624""
","
","
","""event"",""trial"",""time""
""fullscreenenter"",""1"",""11624""
","
","","","","","","287","images/cactus6.png","","","learning","-2","-2","1","1","cactus","plants","1","1","","neutral","0"
"html-keyboard-response","235","1108878","0.0-11.0-2.0-0.22","5431","2","21","Female","approach_avoid_spark_v1","""event"",""trial"",""time""
""fullscreenenter"",""1"",""11624""
","
","
","""event"",""trial"",""time""
""fullscreenenter"",""1"",""11624""
","
","","","","","","null","<div style=""font-size:60px;"">+</div>","null","","fixation","","","","","","","","","","",""
"aa-learning-trial","236","1111879","0.0-11.0-2.0-1.22","5431","2","21","Female","approach_avoid_spark_v1","""event"",""trial"",""time""
""fullscreenenter"",""1"",""11624""
","
","
","""event"",""trial"",""time""
""fullscreenenter"",""1"",""11624""
","
","","","","","","1441","images/flower5.png","","","learning","4","4","1","1","flower","plants","1","1","","good","[5]"
"html-keyboard-response","237","1112381","0.0-11.0-2.0-0.23","5431","2","21","Female","approach_avoid_spark_v1","""event"",""trial"",""time""
""fullscreenenter"",""1"",""11624""
","
","
","""event"",""trial"",""time""
""fullscreenenter"",""1"",""11624""
","
