"trial_type","trial_index","time_elapsed","internal_node_id","subject_id","task_condition","age","gender","task_version","interactions","blur_events","focus_events","fullscreenenter_events","fullscreenexit_events","success","timeout","failed_images","failed_audio","failed_video","rt","stimulus","response","button_pressed","task_part","approach_reward","points","key_press","option_selected","stim_cat","task_block","block_condition","block_number","correct","cat_type","mean_cat_reward"
"pavlovia","0","4","0.0-0.0","4062","2","20","Female","approach_avoid_spark_v1","""event"",""trial"",""time""
""fullscreenenter"",""1"",""1474""
","
","
","""event"",""trial"",""time""
""fullscreenenter"",""1"",""1474""
","
","","","","","","","","","","","","","","","","","","","","",""
"fullscreen","1","2471","0.0-1.0","4062","2","20","Female","approach_avoid_spark_v1","""event"",""trial"",""time""
""fullscreenenter"",""1"",""1474""
","
","
","""event"",""trial"",""time""
""fullscreenenter"",""1"",""1474""
","
","true","","","","","","","","","","","","","","","","","","","",""
"preload","2","15075","0.0-2.0","4062","2","20","Female","approach_avoid_spark_v1","""event"",""trial"",""time""
""fullscreenenter"",""1"",""1474""
","
","
","""event"",""trial"",""time""
""fullscreenenter"",""1"",""1474""
","
","true","false","[]","[]","[]","","","","","","","","","","","","","","","",""
"audio-keyboard-response","3","18374","0.0-3.0","4062","2","20","Female","approach_avoid_spark_v1","""event"",""trial"",""time""
""fullscreenenter"",""1"",""1474""
","
","
","""event"",""trial"",""time""
""fullscreenenter"",""1"",""1474""
","
","","","","","","3295.9999999999995","audio/beep_loop.wav","n","","","","","","","","","","","","",""
"audio-button-response","4","24039","0.0-4.0","4062","2","20","Female","approach_avoid_spark_v1","""event"",""trial"",""time""
""fullscreenenter"",""1"",""1474""
","
","
","""event"",""trial"",""time""
""fullscreenenter"",""1"",""1474""
","
","","","","","","5659","audio/shark.wav","4","","","","","","","","","","","","",""
"audio-button-response","5","26480","0.0-5.0","4062","2","20","Female","approach_avoid_spark_v1","""event"",""trial"",""time""
""fullscreenenter"",""1"",""1474""
","
","
","""event"",""trial"",""time""
""fullscreenenter"",""1"",""1474""
","
","","","","","","1429","audio/turtle.wav","1","","","","","","","","","","","","",""
"preload","6","34277","0.0-6.0","4062","2","20","Female","approach_avoid_spark_v1","""event"",""trial"",""time""
""fullscreenenter"",""1"",""1474""
","
","
","""event"",""trial"",""time""
""fullscreenenter"",""1"",""1474""
","
","true","false","[]","[]","[]","","","","","","","","","","","","","","","",""
"html-keyboard-response","7","137723","0.0-7.0","4062","2","20","Female","approach_avoid_spark_v1","""event"",""trial"",""time""
""fullscreenenter"",""1"",""1474""
","
","
","""event"",""trial"",""time""
""fullscreenenter"",""1"",""1474""
","
","","","","","","103448.5","Welcome to the experiment. Press any key to begin and to advance the instructions."," ","","","","","","","","","","","","",""
"learning-instructions","8","145928","0.0-8.0-0.0-0.0","4062","2","20","Female","approach_avoid_spark_v1","""event"",""trial"",""time""
""fullscreenenter"",""1"",""1474""
","
","
","""event"",""trial"",""time""
""fullscreenenter"",""1"",""1474""
","
","","","","","","1213.2000000029802","<p> Welcome! Today you are going to play 6 different rounds of a decision-making game. </p><p> Use the mouse to click next to continue. </p>","","0","instructions","","","","","","","","","","",""
"learning-instructions","9","150961","0.0-8.0-0.0-0.1","4062","2","20","Female","approach_avoid_spark_v1","""event"",""trial"",""time""
""fullscreenenter"",""1"",""1474""
","
","
","""event"",""trial"",""time""
""fullscreenenter"",""1"",""1474""
","
","","","","","","2306.5","<p> You will start with a practice round to learn the rules. </p>","","0","instructions","","","","","","","","","","",""
"learning-instructions","10","154759","0.0-8.0-0.0-0.2","4062","2","20","Female","approach_avoid_spark_v1","""event"",""trial"",""time""
""fullscreenenter"",""1"",""1474""
","
","
","""event"",""trial"",""time""
""fullscreenenter"",""1"",""1474""
","
","","","","","","349","<p> Your goal in this round is to give out sports equipment to kids. </p></div>","","0","instructions","","","","","","","","","","",""
"learning-instructions","11","162821","0.0-8.0-0.0-0.3","4062","2","20","Female","approach_avoid_spark_v1","""event"",""trial"",""time""
""fullscreenenter"",""1"",""1474""
","
","
","""event"",""trial"",""time""
""fullscreenenter"",""1"",""1474""
","
","","","","","","507.79999999701977","<p> The kids only like some of the equipment.  </p><p> On each turn, you will see a piece of sports equipment.   </p><p> You need to decide whether to give it to the kids or not.  </p>","","0","instructions","","","","","","","","","","",""
"learning-instructions","12","169016","0.0-8.0-0.0-0.4","4062","2","20","Female","approach_avoid_spark_v1","""event"",""trial"",""time""
""fullscreenenter"",""1"",""1474""
","
","
","""event"",""trial"",""time""
""fullscreenenter"",""1"",""1474""
","
","","","","","","1443.5999999940395","<p> You can give them the equipment by pressing 1 and choose not to give it to them by pressing 0. </p><br><div class=""choice-instructions-grid""> <div class=""choice-option""><img src=""images/approach.png"" class=""choice-option-img"" stage=""instructions"" position=""0"" ><div class=""choice-option-text""> Press ""1."" </div></div><div class=""choice-option""><img src=""images/avoid.png"" class=""choice-option-img"" stage=""instructions"" position=""1"" ><div class=""choice-option-text""> Press ""0."" </div></div>","","0","instructions","","","","","","","","","","",""
"learning-instructions","13","177362","0.0-8.0-0.0-0.5","4062","2","20","Female","approach_avoid_spark_v1","""event"",""trial"",""time""
""fullscreenenter"",""1"",""1474""
","
","
","""event"",""trial"",""time""
""fullscreenenter"",""1"",""1474""
","
","","","","","","965","<p> If you give them a piece of equipment they like, they will be happy! </p><p> But if you give them a piece of equipment they do not like, they will be sad. </p>","","0","instructions","","","","","","","","","","",""
"learning-instructions","14","188238","0.0-8.0-0.0-0.6","4062","2","20","Female","approach_avoid_spark_v1","""event"",""trial"",""time""
""fullscreenenter"",""1"",""1474""
","
","
","""event"",""trial"",""time""
""fullscreenenter"",""1"",""1474""
","
","","","","","","358.29999999701977","<p> You will earn points based on how you make kids feel. </p><p> If you make them happy, you will WIN anywhere from 1 - 9 points, </p><p> but if you make them sad, you will LOSE anywhere from 1 - 9 points. </p>","","0","instructions","","","","","","","","","","",""
"learning-instructions","15","198156","0.0-8.0-0.0-0.7","4062","2","20","Female","approach_avoid_spark_v1","""event"",""trial"",""time""
""fullscreenenter"",""1"",""1474""
","
","
","""event"",""trial"",""time""
""fullscreenenter"",""1"",""1474""
","
","","","","","","362.70000000298023","<p> You will see how many points you won or lost in the center of the screen. </p><p> Here is what you would see if you won 6 points: </p><p style=""color:green;font-size:50px;font-weight:bolder"">6</p><p style=""color:green"">The text is GREEN because you WON points.</p>","","0","instructions","","","","","","","","","","",""
"learning-instructions","16","204015","0.0-8.0-0.0-0.8","4062","2","20","Female","approach_avoid_spark_v1","""event"",""trial"",""time""
""fullscreenenter"",""1"",""1474""
","
","
","""event"",""trial"",""time""
""fullscreenenter"",""1"",""1474""
","
","","","","","","347.40000000596046","<p> And here is what you would see if you lost 4 points: </p><p style=""color:red;font-size:50px;font-weight:bolder"">-4</p><p style=""color:red"">The text is RED because you LOST points. </p>","","0","instructions","","","","","","","","","","",""
"learning-instructions","17","219313","0.0-8.0-0.0-0.9","4062","2","20","Female","approach_avoid_spark_v1","""event"",""trial"",""time""
""fullscreenenter"",""1"",""1474""
","
","
","""event"",""trial"",""time""
""fullscreenenter"",""1"",""1474""
","
","","","","","","582.7999999970198","<p> Some of the equipment will make the kids VERY happy or sad. </p><p> These pieces of equipment will make you win or lose LOTS of points. </p><p> Other pieces of equipment will only make the kids a little happy or sad. </p><p> These pieces of equipment will make you win or lose small amounts of points. </p>","","0","instructions","","","","","","","","","","",""
"learning-instructions","18","230283","0.0-8.0-0.0-0.10","4062","2","20","Female","approach_avoid_spark_v1","""event"",""trial"",""time""
""fullscreenenter"",""1"",""1474""
","
","
","""event"",""trial"",""time""
""fullscreenenter"",""1"",""1474""
","
","","","","","","337.6000000089407","<p> If you choose not to give them the equipment, you will not win or lose any points. </p><p>  However, in the center of the screen, you will see the number of points you WOULD HAVE won or lost if you had given them the equipment. </p>","","0","instructions","","","","","","","","","","",""
"learning-instructions","19","252488","0.0-8.0-0.0-0.11","4062","2","20","Female","approach_avoid_spark_v1","""event"",""trial"",""time""
""fullscreenenter"",""1"",""1474""
","
","
","""event"",""trial"",""time""
""fullscreenenter"",""1"",""1474""
","
","","","","","","677.7000000029802","<p> Here is what you might see if you did not give the equipment to the kids but it would have made them happy: </p><p style=""color:grey; font-size:50px; display: inline-block; border-spacing: 15px; border-width:3px; border-style:solid; border-color:red"">  &nbsp; 7 &nbsp; </p><p> Remember, in this case, you would not win or lose ANY points because you did not give them the equipment.  </p><p style=""color:grey"">The text is GREY because you earned ZERO points. </p><p style=""color:red"">However, choosing to give the kids the equipment would have made you win points. The box around the text is RED because you chose the worse option. </p>","","0","instructions","","","","","","","","","","",""
"learning-instructions","20","273940","0.0-8.0-0.0-0.12","4062","2","20","Female","approach_avoid_spark_v1","""event"",""trial"",""time""
""fullscreenenter"",""1"",""1474""
","
","
","""event"",""trial"",""time""
""fullscreenenter"",""1"",""1474""
","
","","","","","","375.79999999701977","<p> Here is what you might see if you did not give the equipment to the kids but it would have made them sad: </p><p style=""color:grey;font-size:50px; display: inline-block; border-spacing: 15px; border-width:3px; border-style:solid; border-color:green"">  &nbsp; -8 &nbsp; </p><p> Remember, in this case, you would not win or lose ANY points because you did not give them the equipment.  </p><p style=""color:grey"">The text is GREY because you earned ZERO points. </p><p  style=""color:green""> Choosing to give the kids the equipment would have made you lose points. The box around the text is GREEN because you chose the better option.</p>","","0","instructions","","","","","","","","","","",""
"learning-instructions","21","283843","0.0-8.0-0.0-0.13","4062","2","20","Female","approach_avoid_spark_v1","""event"",""trial"",""time""
""fullscreenenter"",""1"",""1474""
","
","
","""event"",""trial"",""time""
""fullscreenenter"",""1"",""1474""
","
","","","","","","866","<p> You will have 3 seconds to make each choice. Try to respond before time runs out! </p><p> You will lose 5 points each time you do not make a response. </p>","","0","instructions","","","","","","","","","","",""
"learning-instructions","22","289674","0.0-8.0-0.0-0.14","4062","2","20","Female","approach_avoid_spark_v1","""event"",""trial"",""time""
""fullscreenenter"",""1"",""1474""
","
","
","""event"",""trial"",""time""
""fullscreenenter"",""1"",""1474""
","
","","","","","","419.80000001192093","<p> This is just a practice round, but in the real game, your bonus payment will depend on your total number of points.","","0","instructions","","","","","","","","","","",""
"learning-instructions","23","295677","0.0-8.0-0.0-0.15","4062","2","20","Female","approach_avoid_spark_v1","""event"",""trial"",""time""
""fullscreenenter"",""1"",""1474""
","
","
","""event"",""trial"",""time""
""fullscreenenter"",""1"",""1474""
","
","","","","","","235.09999999403954","<p> Remember, you can give them the equipment by pressing 1 and choose not to give it to them by pressing 0. </p><br><div class=""choice-instructions-grid""> <div class=""choice-option""><img src=""images/approach.png"" class=""choice-option-img"" stage=""instructions"" position=""0"" ><div class=""choice-option-text""> Press ""1."" </div></div><div class=""choice-option""><img src=""images/avoid.png"" class=""choice-option-img"" stage=""instructions"" position=""1"" ><div class=""choice-option-text""> Press ""0."" </div></div>","","0","instructions","","","","","","","","","","",""
"html-button-response","24","297229","0.0-8.0-1.0","4062","2","20","Female","approach_avoid_spark_v1","""event"",""trial"",""time""
""fullscreenenter"",""1"",""1474""
","
","
","""event"",""trial"",""time""
""fullscreenenter"",""1"",""1474""
","
","","","","","","1441","<p> Ready to practice? </p>","0","","","","","","","","","","","","",""
"html-keyboard-response","25","297844","0.0-8.0-2.0-0.0","4062","2","20","Female","approach_avoid_spark_v1","""event"",""trial"",""time""
""fullscreenenter"",""1"",""1474""
","
","
","""event"",""trial"",""time""
""fullscreenenter"",""1"",""1474""
","
","","","","","","null","<div style=""font-size:60px;"">+</div>","null","","fixation","","","","","","","","","","",""
"aa-learning-trial","26","300852","0.0-8.0-2.0-1.0","4062","2","20","Female","approach_avoid_spark_v1","""event"",""trial"",""time""
""fullscreenenter"",""1"",""1474""
","
","
","""event"",""trial"",""time""
""fullscreenenter"",""1"",""1474""
","
","","","","","","747.2000000029802","images/racket1.png","","","learning","3","3","1","1","practice","practice","practice","-1","","",""
"html-keyboard-response","27","301364","0.0-8.0-2.0-0.1","4062","2","20","Female","approach_avoid_spark_v1","""event"",""trial"",""time""
""fullscreenenter"",""1"",""1474""
","
","
","""event"",""trial"",""time""
""fullscreenenter"",""1"",""1474""
","
","","","","","","null","<div style=""font-size:60px;"">+</div>","null","","fixation","","","","","","","","","","",""
"aa-learning-trial","28","304377","0.0-8.0-2.0-1.1","4062","2","20","Female","approach_avoid_spark_v1","""event"",""trial"",""time""
""fullscreenenter"",""1"",""1474""
","
","
","""event"",""trial"",""time""
""fullscreenenter"",""1"",""1474""
","
","","","","","","565.8999999910593","images/racket1.png","","","learning","9","0","0","0","practice","practice","practice","-1","","",""
"html-keyboard-response","29","304883","0.0-8.0-2.0-0.2","4062","2","20","Female","approach_avoid_spark_v1","""event"",""trial"",""time""
""fullscreenenter"",""1"",""1474""
","
","
","""event"",""trial"",""time""
""fullscreenenter"",""1"",""1474""
","
","","","","","","null","<div style=""font-size:60px;"">+</div>","null","","fixation","","","","","","","","","","",""
"aa-learning-trial","30","307897","0.0-8.0-2.0-1.2","4062","2","20","Female","approach_avoid_spark_v1","""event"",""trial"",""time""
""fullscreenenter"",""1"",""1474""
","
","
","""event"",""trial"",""time""
""fullscreenenter"",""1"",""1474""
","
","","","","","","544.2999999970198","images/ball2.png","","","learning","-6","-6","1","1","practice","practice","practice","-1","","",""
"html-keyboard-response","31","308400","0.0-8.0-2.0-0.3","4062","2","20","Female","approach_avoid_spark_v1","""event"",""trial"",""time""
""fullscreenenter"",""1"",""1474""
","
","
","""event"",""trial"",""time""
""fullscreenenter"",""1"",""1474""
","
","","","","","","null","<div style=""font-size:60px;"">+</div>","null","","fixation","","","","","","","","","","",""
"aa-learning-trial","32","311408","0.0-8.0-2.0-1.3","4062","2","20","Female","approach_avoid_spark_v1","""event"",""trial"",""time""
""fullscreenenter"",""1"",""1474""
","
","
","""event"",""trial"",""time""
""fullscreenenter"",""1"",""1474""
","
","","","","","","1174.5999999940395","images/ball3.png","","","learning","8","8","1","1","practice","practice","practice","-1","","",""
"html-keyboard-response","33","311912","0.0-8.0-2.0-0.4","4062","2","20","Female","approach_avoid_spark_v1","""event"",""trial"",""time""
""fullscreenenter"",""1"",""1474""
","
","
","""event"",""trial"",""time""
""fullscreenenter"",""1"",""1474""
","
","","","","","","null","<div style=""font-size:60px;"">+</div>","null","","fixation","","","","","","","","","","",""
"aa-learning-trial","34","314919","0.0-8.0-2.0-1.4","4062","2","20","Female","approach_avoid_spark_v1","""event"",""trial"",""time""
""fullscreenenter"",""1"",""1474""
","
","
","""event"",""trial"",""time""
""fullscreenenter"",""1"",""1474""
","
","","","","","","1175.5","images/ball1.png","","","learning","-9","-9","1","1","practice","practice","practice","-1","","",""
"html-keyboard-response","35","315423","0.0-8.0-2.0-0.5","4062","2","20","Female","approach_avoid_spark_v1","""event"",""trial"",""time""
""fullscreenenter"",""1"",""1474""
","
","
","""event"",""trial"",""time""
""fullscreenenter"",""1"",""1474""
","
","","","","","","null","<div style=""font-size:60px;"">+</div>","null","","fixation","","","","","","","","","","",""
"aa-learning-trial","36","318435","0.0-8.0-2.0-1.5","4062","2","20","Female","approach_avoid_spark_v1","""event"",""trial"",""time""
""fullscreenenter"",""1"",""1474""
","
","
","""event"",""trial"",""time""
""fullscreenenter"",""1"",""1474""
","
","","","","","","1301.2000000029802","images/ball1.png","","","learning","-9","0","0","0","practice","practice","practice","-1","","",""
"html-keyboard-response","37","318947","0.0-8.0-2.0-0.6","4062","2","20","Female","approach_avoid_spark_v1","""event"",""trial"",""time""
""fullscreenenter"",""1"",""1474""
","
","
","""event"",""trial"",""time""
""fullscreenenter"",""1"",""1474""
","
","","","","","","null","<div style=""font-size:60px;"">+</div>","null","","fixation","","","","","","","","","","",""
"aa-learning-trial","38","321960","0.0-8.0-2.0-1.6","4062","2","20","Female","approach_avoid_spark_v1","""event"",""trial"",""time""
""fullscreenenter"",""1"",""1474""
","
","
","""event"",""trial"",""time""
""fullscreenenter"",""1"",""1474""
","
","","","","","","1746.5999999940395","images/racket2.png","","","learning","9","9","1","1","practice","practice","practice","-1","","",""
"html-keyboard-response","39","322467","0.0-8.0-2.0-0.7","4062","2","20","Female","approach_avoid_spark_v1","""event"",""trial"",""time""
""fullscreenenter"",""1"",""1474""
","
","
","""event"",""trial"",""time""
""fullscreenenter"",""1"",""1474""
","
","","","","","","null","<div style=""font-size:60px;"">+</div>","null","","fixation","","","","","","","","","","",""
"aa-learning-trial","40","325479","0.0-8.0-2.0-1.7","4062","2","20","Female","approach_avoid_spark_v1","""event"",""trial"",""time""
""fullscreenenter"",""1"",""1474""
","
","
","""event"",""trial"",""time""
""fullscreenenter"",""1"",""1474""
","
","","","","","","1037.4000000059605","images/racket4.png","","","learning","6","0","0","0","practice","practice","practice","-1","","",""
"html-keyboard-response","41","325983","0.0-8.0-2.0-0.8","4062","2","20","Female","approach_avoid_spark_v1","""event"",""trial"",""time""
""fullscreenenter"",""1"",""1474""
","
","
","""event"",""trial"",""time""
""fullscreenenter"",""1"",""1474""
","
","","","","","","null","<div style=""font-size:60px;"">+</div>","null","","fixation","","","","","","","","","","",""
"aa-learning-trial","42","328991","0.0-8.0-2.0-1.8","4062","2","20","Female","approach_avoid_spark_v1","""event"",""trial"",""time""
""fullscreenenter"",""1"",""1474""
","
","
","""event"",""trial"",""time""
""fullscreenenter"",""1"",""1474""
","
","","","","","","642.4000000059605","images/ball4.png","","","learning","6","6","1","1","practice","practice","practice","-1","","",""
"html-keyboard-response","43","329495","0.0-8.0-2.0-0.9","4062","2","20","Female","approach_avoid_spark_v1","""event"",""trial"",""time""
""fullscreenenter"",""1"",""1474""
","
","
","""event"",""trial"",""time""
""fullscreenenter"",""1"",""1474""
","
","","","","","","null","<div style=""font-size:60px;"">+</div>","null","","fixation","","","","","","","","","","",""
"aa-learning-trial","44","332502","0.0-8.0-2.0-1.9","4062","2","20","Female","approach_avoid_spark_v1","""event"",""trial"",""time""
""fullscreenenter"",""1"",""1474""
","
","
","""event"",""trial"",""time""
""fullscreenenter"",""1"",""1474""
","
","","","","","","707","images/racket1.png","","","learning","4","0","0","0","practice","practice","practice","-1","","",""
"html-keyboard-response","45","333007","0.0-8.0-2.0-0.10","4062","2","20","Female","approach_avoid_spark_v1","""event"",""trial"",""time""
""fullscreenenter"",""1"",""1474""
","
","
","""event"",""trial"",""time""
""fullscreenenter"",""1"",""1474""
","
","","","","","","null","<div style=""font-size:60px;"">+</div>","null","","fixation","","","","","","","","","","",""
"aa-learning-trial","46","336015","0.0-8.0-2.0-1.10","4062","2","20","Female","approach_avoid_spark_v1","""event"",""trial"",""time""
""fullscreenenter"",""1"",""1474""
","
","
","""event"",""trial"",""time""
""fullscreenenter"",""1"",""1474""
","
","","","","","","474.09999999403954","images/racket1.png","","","learning","9","9","1","1","practice","practice","practice","-1","","",""
"html-keyboard-response","47","336518","0.0-8.0-2.0-0.11","4062","2","20","Female","approach_avoid_spark_v1","""event"",""trial"",""time""
""fullscreenenter"",""1"",""1474""
","
","
","""event"",""trial"",""time""
""fullscreenenter"",""1"",""1474""
","
","","","","","","null","<div style=""font-size:60px;"">+</div>","null","","fixation","","","","","","","","","","",""
"aa-learning-trial","48","339526","0.0-8.0-2.0-1.11","4062","2","20","Female","approach_avoid_spark_v1","""event"",""trial"",""time""
""fullscreenenter"",""1"",""1474""
","
","
","""event"",""trial"",""time""
""fullscreenenter"",""1"",""1474""
","
","","","","","","358.70000000298023","images/racket4.png","","","learning","9","0","0","0","practice","practice","practice","-1","","",""
"html-button-response","49","340775","0.0-8.0-3.0","4062","2","20","Female","approach_avoid_spark_v1","""event"",""trial"",""time""
""fullscreenenter"",""1"",""1474""
","
","
","""event"",""trial"",""time""
""fullscreenenter"",""1"",""1474""
","
","","","","","","1244.1000000089407","<p> You earned 20 points in the practice round! </p>","0","","break","","","","","","","","","","",""
"learning-instructions","50","348248","0.0-8.0-4.0-0.0","4062","2","20","Female","approach_avoid_spark_v1","""event"",""trial"",""time""
""fullscreenenter"",""1"",""1474""
","
","
","""event"",""trial"",""time""
""fullscreenenter"",""1"",""1474""
","
","","","","","","1476.5","<p> It's almost time to start the real game. </p><p> Before you start, we're going to ask you a few questions about how the game works. </p>","","0","instructions","","","","","","","","","","",""
"preload","51","353301","0.0-8.0-5.0","4062","2","20","Female","approach_avoid_spark_v1","""event"",""trial"",""time""
""fullscreenenter"",""1"",""1474""
","
","
","""event"",""trial"",""time""
""fullscreenenter"",""1"",""1474""
","
","true","false","[]","[]","[]","","","","","","","","","","","","","","","",""
"comp-q","52","359497","0.0-8.0-6.0-0.0","4062","2","20","Female","approach_avoid_spark_v1","""event"",""trial"",""time""
""fullscreenenter"",""1"",""1474""
","
","
","""event"",""trial"",""time""
""fullscreenenter"",""1"",""1474""
","
","","","","","","1200.2000000029802","<p> <b> True or False? </b> </p><p> If you see a number in GREY, that means you earned that many points. </p>","","1","comp_question","","","","","","","","","true","",""
"comp-q","53","369924","0.0-8.0-6.0-1.0","4062","2","20","Female","approach_avoid_spark_v1","""event"",""trial"",""time""
""fullscreenenter"",""1"",""1474""
","
","
","""event"",""trial"",""time""
""fullscreenenter"",""1"",""1474""
","
","","","","","","2061.2000000029802","<p><b> That's right! </b> If you see a grey number, it means you earned ZERO points. <br> The grey numbers show the points you WOULD HAVE earned if you had made the other choice. </p>","","0","comp_answer","","","","","","","","","","",""
"comp-q","54","375098","0.0-8.0-7.0-0.0","4062","2","20","Female","approach_avoid_spark_v1","""event"",""trial"",""time""
""fullscreenenter"",""1"",""1474""
","
","
","""event"",""trial"",""time""
""fullscreenenter"",""1"",""1474""
","
","","","","","","484","<p> <b> True or False? </b> </p><p> You will have as much time as you want to make each choice. </p>","","1","comp_question","","","","","","","","","true","",""
"comp-q","55","380340","0.0-8.0-7.0-1.0","4062","2","20","Female","approach_avoid_spark_v1","""event"",""trial"",""time""
""fullscreenenter"",""1"",""1474""
","
","
","""event"",""trial"",""time""
""fullscreenenter"",""1"",""1474""
","
","","","","","","1197.2000000029802","<p> <b> That's right! </b> You will only have 3 seconds to make each choice. </p>","","0","comp_answer","","","","","","","","","","",""
"comp-q","56","385536","0.0-8.0-8.0-0.0","4062","2","20","Female","approach_avoid_spark_v1","""event"",""trial"",""time""
""fullscreenenter"",""1"",""1474""
","
","
","""event"",""trial"",""time""
""fullscreenenter"",""1"",""1474""
","
","","","","","","532.6999999880791","<p> <b> True or False? </b> </p><p> You should use the '1' and '0' keys to make your choices. </p>","","0","comp_question","","","","","","","","","true","",""
"comp-q","57","391165","0.0-8.0-8.0-1.0","4062","2","20","Female","approach_avoid_spark_v1","""event"",""trial"",""time""
""fullscreenenter"",""1"",""1474""
","
","
","""event"",""trial"",""time""
""fullscreenenter"",""1"",""1474""
","
","","","","","","1010.3000000119209","<p> <b> That's right! </b> You should use the '1' and '0' keys to make each choice. </p>","","0","comp_answer","","","","","","","","","","",""
"learning-instructions","58","398658","0.0-8.0-9.0-0.0","4062","2","20","Female","approach_avoid_spark_v1","""event"",""trial"",""time""
""fullscreenenter"",""1"",""1474""
","
","
","""event"",""trial"",""time""
""fullscreenenter"",""1"",""1474""
","
","","","","","","1223.7000000029802","<p> It's now time to start the real game. </p>Do your best, because the points you earn in the next rounds will influence your bonus payment. </p>","","0","instructions","","","","","","","","","","",""
"preload","59","398783","0.0-9.0-0.0","4062","2","20","Female","approach_avoid_spark_v1","""event"",""trial"",""time""
""fullscreenenter"",""1"",""1474""
","
","
","""event"",""trial"",""time""
""fullscreenenter"",""1"",""1474""
","
","true","false","[]","[]","[]","","","","","","","","","","","","","","","",""
"learning-instructions","60","404527","0.0-9.0-1.0-0.0","4062","2","20","Female","approach_avoid_spark_v1","""event"",""trial"",""time""
""fullscreenenter"",""1"",""1474""
","
","
","""event"",""trial"",""time""
""fullscreenenter"",""1"",""1474""
","
","","","","","","885.2999999970198","<p> Your goal in this round is to sell different plants to a picky customer. </p></div>","","0","instructions","","","","","","","","","","",""
"learning-instructions","61","414386","0.0-9.0-1.0-0.1","4062","2","20","Female","approach_avoid_spark_v1","""event"",""trial"",""time""
""fullscreenenter"",""1"",""1474""
","
","
","""event"",""trial"",""time""
""fullscreenenter"",""1"",""1474""
","
","","","","","","733.5999999940395","<p> The customer likes some plants and dislikes others.  </p><p> On each turn, you will see a plant.   </p><p> You need to decide whether to offer it to the customer or not.  </p>","","0","instructions","","","","","","","","","","",""
"learning-instructions","62","420161","0.0-9.0-1.0-0.2","4062","2","20","Female","approach_avoid_spark_v1","""event"",""trial"",""time""
""fullscreenenter"",""1"",""1474""
","
","
","""event"",""trial"",""time""
""fullscreenenter"",""1"",""1474""
","
","","","","","","315.90000000596046","<p> You can offer the plant by pressing 1 and decide to not offer it by pressing 0. </p><br><div class=""choice-instructions-grid""> <div class=""choice-option""><img src=""images/approach.png"" class=""choice-option-img"" stage=""instructions"" position=""0"" ><div class=""choice-option-text""> Press ""1."" </div></div><div class=""choice-option""><img src=""images/avoid.png"" class=""choice-option-img"" stage=""instructions"" position=""1"" ><div class=""choice-option-text""> Press ""0."" </div></div>","","0","instructions","","","","","","","","","","",""
"learning-instructions","63","429380","0.0-9.0-1.0-0.3","4062","2","20","Female","approach_avoid_spark_v1","""event"",""trial"",""time""
""fullscreenenter"",""1"",""1474""
","
","
","""event"",""trial"",""time""
""fullscreenenter"",""1"",""1474""
","
","","","","","","476.09999999403954","<p> If you offer a plant to the customer that she likes, she will be very pleased! </p><p> But if you offer a plant that she does NOT like, she will be annoyed. </p>","","0","instructions","","","","","","","","","","",""
"learning-instructions","64","442051","0.0-9.0-1.0-0.4","4062","2","20","Female","approach_avoid_spark_v1","""event"",""trial"",""time""
""fullscreenenter"",""1"",""1474""
","
","
","""event"",""trial"",""time""
""fullscreenenter"",""1"",""1474""
","
","","","","","","362.5","<p> You will earn points based on how you made the customer feel. </p><p> If you made her pleased, you will WIN anywhere from 1 - 9 points, </p><p> but if you made her annoyed, you will LOSE anywhere from 1 - 9 points. </p>","","0","instructions","","","","","","","","","","",""
"learning-instructions","65","449726","0.0-9.0-1.0-0.5","4062","2","20","Female","approach_avoid_spark_v1","""event"",""trial"",""time""
""fullscreenenter"",""1"",""1474""
","
","
","""event"",""trial"",""time""
""fullscreenenter"",""1"",""1474""
","
","","","","","","422.5","<p> You will see how many points you won or lost in the center of the screen. </p><p> Here is what you would see if you won 5 points: </p><p style=""color:green;font-size:50px;font-weight:bolder"">5</p>","","0","instructions","","","","","","","","","","",""
"learning-instructions","66","453396","0.0-9.0-1.0-0.6","4062","2","20","Female","approach_avoid_spark_v1","""event"",""trial"",""time""
""fullscreenenter"",""1"",""1474""
","
","
","""event"",""trial"",""time""
""fullscreenenter"",""1"",""1474""
","
","","","","","","338.20000000298023","<p> And here is what you would see if you lost 3 points: </p><p style=""color:red;font-size:50px;font-weight:bolder"">-3</p>","","0","instructions","","","","","","","","","","",""
"learning-instructions","67","468304","0.0-9.0-1.0-0.7","4062","2","20","Female","approach_avoid_spark_v1","""event"",""trial"",""time""
""fullscreenenter"",""1"",""1474""
","
","
","""event"",""trial"",""time""
""fullscreenenter"",""1"",""1474""
","
","","","","","","458.5","<p> Some plants will make the customer VERY pleased or annoyed. </p><p> These plants will make you win or lose LOTS of points. </p><p> The customer will have less strong feelings about other plants. </p><p> These plants will make you win or lose small amounts of points. </p>","","0","instructions","","","","","","","","","","",""
"learning-instructions","68","481021","0.0-9.0-1.0-0.8","4062","2","20","Female","approach_avoid_spark_v1","""event"",""trial"",""time""
""fullscreenenter"",""1"",""1474""
","
","
","""event"",""trial"",""time""
""fullscreenenter"",""1"",""1474""
","
","","","","","","349.1000000089407","<p> If you choose to not offer the plant to the customer, you will not win or lose any points. </p><p>  However, in the center of the screen, you will see the number of points you WOULD HAVE won or lost if you had offered the plant. </p>","","0","instructions","","","","","","","","","","",""
"learning-instructions","69","492712","0.0-9.0-1.0-0.9","4062","2","20","Female","approach_avoid_spark_v1","""event"",""trial"",""time""
""fullscreenenter"",""1"",""1474""
","
","
","""event"",""trial"",""time""
""fullscreenenter"",""1"",""1474""
","
","","","","","","430.09999999403954","<p> Here is what you might see if you did not offer the plant but the customer would have liked it: </p><p style=""color:grey; font-size:50px; display: inline-block; border-spacing: 15px; border-width:3px; border-style:solid; border-color:red"">  &nbsp; 6 &nbsp; </p><p> Remember, in this case, you would not win or lose ANY points because you did not offer the plant.  </p>","","0","instructions","","","","","","","","","","",""
"learning-instructions","70","500453","0.0-9.0-1.0-0.10","4062","2","20","Female","approach_avoid_spark_v1","""event"",""trial"",""time""
""fullscreenenter"",""1"",""1474""
","
","
","""event"",""trial"",""time""
""fullscreenenter"",""1"",""1474""
","
","","","","","","390","<p> Try to make the best choice for each plant because </p><p> at the end of the game, you will earn bonus money based on how many points you earned. </p>","","0","instructions","","","","","","","","","","",""
"learning-instructions","71","508997","0.0-9.0-1.0-0.11","4062","2","20","Female","approach_avoid_spark_v1","""event"",""trial"",""time""
""fullscreenenter"",""1"",""1474""
","
","
","""event"",""trial"",""time""
""fullscreenenter"",""1"",""1474""
","
","","","","","","353.70000000298023","<p> You will have 3 seconds to make each choice. Try to respond before time runs out! </p><p> You will lose 5 points each time you do not make a response. </p>","","0","instructions","","","","","","","","","","",""
"html-keyboard-response","72","509618","0.0-9.0-2.0-0.0","4062","2","20","Female","approach_avoid_spark_v1","""event"",""trial"",""time""
""fullscreenenter"",""1"",""1474""
","
","
","""event"",""trial"",""time""
""fullscreenenter"",""1"",""1474""
","
","","","","","","null","<div style=""font-size:60px;"">+</div>","null","","fixation","","","","","","","","","","",""
"aa-learning-trial","73","512631","0.0-9.0-2.0-1.0","4062","2","20","Female","approach_avoid_spark_v1","""event"",""trial"",""time""
""fullscreenenter"",""1"",""1474""
","
","
","""event"",""trial"",""time""
""fullscreenenter"",""1"",""1474""
","
","","","","","","878.2000000029802","images/cactus4.png","","","learning","4","4","1","1","cactus","plants","2","0","","bad","[-5]"
"html-keyboard-response","74","513138","0.0-9.0-2.0-0.1","4062","2","20","Female","approach_avoid_spark_v1","""event"",""trial"",""time""
""fullscreenenter"",""1"",""1474""
","
","
","""event"",""trial"",""time""
""fullscreenenter"",""1"",""1474""
","
","","","","","","null","<div style=""font-size:60px;"">+</div>","null","","fixation","","","","","","","","","","",""
"aa-learning-trial","75","516146","0.0-9.0-2.0-1.1","4062","2","20","Female","approach_avoid_spark_v1","""event"",""trial"",""time""
""fullscreenenter"",""1"",""1474""
","
","
","""event"",""trial"",""time""
""fullscreenenter"",""1"",""1474""
","
","","","","","","1061.7000000029802","images/tree7.png","","","learning","-7","0","0","0","tree","plants","2","0","","neutral","0"
"html-keyboard-response","76","516654","0.0-9.0-2.0-0.2","4062","2","20","Female","approach_avoid_spark_v1","""event"",""trial"",""time""
""fullscreenenter"",""1"",""1474""
","
","
","""event"",""trial"",""time""
""fullscreenenter"",""1"",""1474""
","
","","","","","","null","<div style=""font-size:60px;"">+</div>","null","","fixation","","","","","","","","","","",""
"aa-learning-trial","77","519663","0.0-9.0-2.0-1.2","4062","2","20","Female","approach_avoid_spark_v1","""event"",""trial"",""time""
""fullscreenenter"",""1"",""1474""
","
","
","""event"",""trial"",""time""
""fullscreenenter"",""1"",""1474""
","
","","","","","","1124.199999988079","images/bush7.png","","","learning","7","7","1","1","bush","plants","2","0","","good","[5]"
"html-keyboard-response","78","520167","0.0-9.0-2.0-0.3","4062","2","20","Female","approach_avoid_spark_v1","""event"",""trial"",""time""
""fullscreenenter"",""1"",""1474""
","
","
","""event"",""trial"",""time""
""fullscreenenter"",""1"",""1474""
","
","","","","","","null","<div style=""font-size:60px;"">+</div>","null","","fixation","","","","","","","","","","",""
"aa-learning-trial","79","523175","0.0-9.0-2.0-1.3","4062","2","20","Female","approach_avoid_spark_v1","""event"",""trial"",""time""
""fullscreenenter"",""1"",""1474""
","
","
","""event"",""trial"",""time""
""fullscreenenter"",""1"",""1474""
","
","","","","","","872.7999999970198","images/tree6.png","","","learning","5","0","0","0","tree","plants","2","0","","neutral","0"
"html-keyboard-response","80","523681","0.0-9.0-2.0-0.4","4062","2","20","Female","approach_avoid_spark_v1","""event"",""trial"",""time""
""fullscreenenter"",""1"",""1474""
","
","
","""event"",""trial"",""time""
""fullscreenenter"",""1"",""1474""
","
","","","","","","null","<div style=""font-size:60px;"">+</div>","null","","fixation","","","","","","","","","","",""
"aa-learning-trial","81","526686","0.0-9.0-2.0-1.4","4062","2","20","Female","approach_avoid_spark_v1","""event"",""trial"",""time""
""fullscreenenter"",""1"",""1474""
","
","
","""event"",""trial"",""time""
""fullscreenenter"",""1"",""1474""
","
","","","","","","728.7000000029802","images/tree6.png","","","learning","5","5","1","1","tree","plants","2","0","","neutral","0"
"html-keyboard-response","82","527190","0.0-9.0-2.0-0.5","4062","2","20","Female","approach_avoid_spark_v1","""event"",""trial"",""time""
""fullscreenenter"",""1"",""1474""
","
","
","""event"",""trial"",""time""
""fullscreenenter"",""1"",""1474""
","
","","","","","","null","<div style=""font-size:60px;"">+</div>","null","","fixation","","","","","","","","","","",""
"aa-learning-trial","83","530198","0.0-9.0-2.0-1.5","4062","2","20","Female","approach_avoid_spark_v1","""event"",""trial"",""time""
""fullscreenenter"",""1"",""1474""
","
","
","""event"",""trial"",""time""
""fullscreenenter"",""1"",""1474""
","
","","","","","","972.1000000089407","images/cactus4.png","","","learning","4","4","1","1","cactus","plants","2","0","","bad","[-5]"
"html-keyboard-response","84","530705","0.0-9.0-2.0-0.6","4062","2","20","Female","approach_avoid_spark_v1","""event"",""trial"",""time""
""fullscreenenter"",""1"",""1474""
","
","
","""event"",""trial"",""time""
""fullscreenenter"",""1"",""1474""
","
","","","","","","null","<div style=""font-size:60px;"">+</div>","null","","fixation","","","","","","","","","","",""
"aa-learning-trial","85","533718","0.0-9.0-2.0-1.6","4062","2","20","Female","approach_avoid_spark_v1","""event"",""trial"",""time""
""fullscreenenter"",""1"",""1474""
","
","
","""event"",""trial"",""time""
""fullscreenenter"",""1"",""1474""
","
","","","","","","1386.2999999970198","images/tree4.png","","","learning","6","6","1","1","tree","plants","2","0","","neutral","0"
"html-keyboard-response","86","534225","0.0-9.0-2.0-0.7","4062","2","20","Female","approach_avoid_spark_v1","""event"",""trial"",""time""
""fullscreenenter"",""1"",""1474""
","
","
","""event"",""trial"",""time""
""fullscreenenter"",""1"",""1474""
","
","","","","","","null","<div style=""font-size:60px;"">+</div>","null","","fixation","","","","","","","","","","",""
"aa-learning-trial","87","537238","0.0-9.0-2.0-1.7","4062","2","20","Female","approach_avoid_spark_v1","""event"",""trial"",""time""
""fullscreenenter"",""1"",""1474""
","
","
","""event"",""trial"",""time""
""fullscreenenter"",""1"",""1474""
","
","","","","","","1198.2000000029802","images/tree4.png","","","learning","6","0","0","0","tree","plants","2","0","","neutral","0"
"html-keyboard-response","88","537741","0.0-9.0-2.0-0.8","4062","2","20","Female","approach_avoid_spark_v1","""event"",""trial"",""time""
""fullscreenenter"",""1"",""1474""
","
","
","""event"",""trial"",""time""
""fullscreenenter"",""1"",""1474""
","
","","","","","","null","<div style=""font-size:60px;"">+</div>","null","","fixation","","","","","","","","","","",""
"aa-learning-trial","89","540749","0.0-9.0-2.0-1.8","4062","2","20","Female","approach_avoid_spark_v1","""event"",""trial"",""time""
""fullscreenenter"",""1"",""1474""
","
","
","""event"",""trial"",""time""
""fullscreenenter"",""1"",""1474""
","
","","","","","","652.6999999880791","images/bush1.png","","","learning","3","3","1","1","bush","plants","2","0","","good","[5]"
"html-keyboard-response","90","541253","0.0-9.0-2.0-0.9","4062","2","20","Female","approach_avoid_spark_v1","""event"",""trial"",""time""
""fullscreenenter"",""1"",""1474""
","
","
","""event"",""trial"",""time""
""fullscreenenter"",""1"",""1474""
","
","","","","","","null","<div style=""font-size:60px;"">+</div>","null","","fixation","","","","","","","","","","",""
"aa-learning-trial","91","544262","0.0-9.0-2.0-1.9","4062","2","20","Female","approach_avoid_spark_v1","""event"",""trial"",""time""
""fullscreenenter"",""1"",""1474""
","
","
","""event"",""trial"",""time""
""fullscreenenter"",""1"",""1474""
","
","","","","","","1285.2000000029802","images/cactus3.png","","","learning","2","0","0","0","cactus","plants","2","0","","bad","[-5]"
"html-keyboard-response","92","544765","0.0-9.0-2.0-0.10","4062","2","20","Female","approach_avoid_spark_v1","""event"",""trial"",""time""
""fullscreenenter"",""1"",""1474""
","
","
","""event"",""trial"",""time""
""fullscreenenter"",""1"",""1474""
","
","","","","","","null","<div style=""font-size:60px;"">+</div>","null","","fixation","","","","","","","","","","",""
"aa-learning-trial","93","547773","0.0-9.0-2.0-1.10","4062","2","20","Female","approach_avoid_spark_v1","""event"",""trial"",""time""
""fullscreenenter"",""1"",""1474""
","
","
","""event"",""trial"",""time""
""fullscreenenter"",""1"",""1474""
","
","","","","","","622.5999999940395","images/bush7.png","","","learning","7","7","1","1","bush","plants","2","0","","good","[5]"
"html-keyboard-response","94","548277","0.0-9.0-2.0-0.11","4062","2","20","Female","approach_avoid_spark_v1","""event"",""trial"",""time""
""fullscreenenter"",""1"",""1474""
","
","
","""event"",""trial"",""time""
""fullscreenenter"",""1"",""1474""
","
","","","","","","null","<div style=""font-size:60px;"">+</div>","null","","fixation","","","","","","","","","","",""
"aa-learning-trial","95","551285","0.0-9.0-2.0-1.11","4062","2","20","Female","approach_avoid_spark_v1","""event"",""trial"",""time""
""fullscreenenter"",""1"",""1474""
","
","
","""event"",""trial"",""time""
""fullscreenenter"",""1"",""1474""
","
","","","","","","758.7000000029802","images/cactus1.png","","","learning","-8","-8","1","1","cactus","plants","2","0","","bad","[-5]"
"html-keyboard-response","96","551789","0.0-9.0-2.0-0.12","4062","2","20","Female","approach_avoid_spark_v1","""event"",""trial"",""time""
""fullscreenenter"",""1"",""1474""
","
","
","""event"",""trial"",""time""
""fullscreenenter"",""1"",""1474""
","
","","","","","","null","<div style=""font-size:60px;"">+</div>","null","","fixation","","","","","","","","","","",""
"aa-learning-trial","97","554797","0.0-9.0-2.0-1.12","4062","2","20","Female","approach_avoid_spark_v1","""event"",""trial"",""time""
""fullscreenenter"",""1"",""1474""
","
","
","""event"",""trial"",""time""
""fullscreenenter"",""1"",""1474""
","
","","","","","","635.2999999970198","images/bush3.png","","","learning","-4","-4","1","1","bush","plants","2","0","","good","[5]"
"html-keyboard-response","98","555301","0.0-9.0-2.0-0.13","4062","2","20","Female","approach_avoid_spark_v1","""event"",""trial"",""time""
""fullscreenenter"",""1"",""1474""
","
","
","""event"",""trial"",""time""
""fullscreenenter"",""1"",""1474""
","
","","","","","","null","<div style=""font-size:60px;"">+</div>","null","","fixation","","","","","","","","","","",""
"aa-learning-trial","99","558309","0.0-9.0-2.0-1.13","4062","2","20","Female","approach_avoid_spark_v1","""event"",""trial"",""time""
""fullscreenenter"",""1"",""1474""
","
","
","""event"",""trial"",""time""
""fullscreenenter"",""1"",""1474""
","
","","","","","","740.3999999910593","images/bush3.png","","","learning","-4","0","0","0","bush","plants","2","0","","good","[5]"
"html-keyboard-response","100","558812","0.0-9.0-2.0-0.14","4062","2","20","Female","approach_avoid_spark_v1","""event"",""trial"",""time""
""fullscreenenter"",""1"",""1474""
","
","
","""event"",""trial"",""time""
""fullscreenenter"",""1"",""1474""
","
","","","","","","null","<div style=""font-size:60px;"">+</div>","null","","fixation","","","","","","","","","","",""
"aa-learning-trial","101","561820","0.0-9.0-2.0-1.14","4062","2","20","Female","approach_avoid_spark_v1","""event"",""trial"",""time""
""fullscreenenter"",""1"",""1474""
","
","
","""event"",""trial"",""time""
""fullscreenenter"",""1"",""1474""
","
","","","","","","1081","images/cactus3.png","","","learning","2","0","0","0","cactus","plants","2","0","","bad","[-5]"
"html-keyboard-response","102","562324","0.0-9.0-2.0-0.15","4062","2","20","Female","approach_avoid_spark_v1","""event"",""trial"",""time""
""fullscreenenter"",""1"",""1474""
","
","
","""event"",""trial"",""time""
""fullscreenenter"",""1"",""1474""
","
","","","","","","null","<div style=""font-size:60px;"">+</div>","null","","fixation","","","","","","","","","","",""
"aa-learning-trial","103","565332","0.0-9.0-2.0-1.15","4062","2","20","Female","approach_avoid_spark_v1","""event"",""trial"",""time""
""fullscreenenter"",""1"",""1474""
","
","
","""event"",""trial"",""time""
""fullscreenenter"",""1"",""1474""
","
","","","","","","649.6000000089407","images/tree4.png","","","learning","6","6","1","1","tree","plants","2","0","","neutral","0"
"html-keyboard-response","104","565836","0.0-9.0-2.0-0.16","4062","2","20","Female","approach_avoid_spark_v1","""event"",""trial"",""time""
""fullscreenenter"",""1"",""1474""
","
","
","""event"",""trial"",""time""
""fullscreenenter"",""1"",""1474""
","
","","","","","","null","<div style=""font-size:60px;"">+</div>","null","","fixation","","","","","","","","","","",""
"aa-learning-trial","105","568844","0.0-9.0-2.0-1.16","4062","2","20","Female","approach_avoid_spark_v1","""event"",""trial"",""time""
""fullscreenenter"",""1"",""1474""
","
","
","""event"",""trial"",""time""
""fullscreenenter"",""1"",""1474""
","
","","","","","","1008.2999999970198","images/cactus7.png","","","learning","9","0","0","0","cactus","plants","2","0","","bad","[-5]"
"html-keyboard-response","106","569348","0.0-9.0-2.0-0.17","4062","2","20","Female","approach_avoid_spark_v1","""event"",""trial"",""time""
""fullscreenenter"",""1"",""1474""
","
","
","""event"",""trial"",""time""
""fullscreenenter"",""1"",""1474""
","
","","","","","","null","<div style=""font-size:60px;"">+</div>","null","","fixation","","","","","","","","","","",""
"aa-learning-trial","107","572355","0.0-9.0-2.0-1.17","4062","2","20","Female","approach_avoid_spark_v1","""event"",""trial"",""time""
""fullscreenenter"",""1"",""1474""
","
","
","""event"",""trial"",""time""
""fullscreenenter"",""1"",""1474""
","
","","","","","","486","images/tree8.png","","","learning","-5","-5","1","1","tree","plants","2","0","","neutral","0"
"html-keyboard-response","108","572859","0.0-9.0-2.0-0.18","4062","2","20","Female","approach_avoid_spark_v1","""event"",""trial"",""time""
""fullscreenenter"",""1"",""1474""
","
","
","""event"",""trial"",""time""
""fullscreenenter"",""1"",""1474""
","
","","","","","","null","<div style=""font-size:60px;"">+</div>","null","","fixation","","","","","","","","","","",""
"aa-learning-trial","109","575867","0.0-9.0-2.0-1.18","4062","2","20","Female","approach_avoid_spark_v1","""event"",""trial"",""time""
""fullscreenenter"",""1"",""1474""
","
","
","""event"",""trial"",""time""
""fullscreenenter"",""1"",""1474""
","
","","","","","","834.7999999970198","images/tree6.png","","","learning","5","5","1","1","tree","plants","2","0","","neutral","0"
"html-keyboard-response","110","576371","0.0-9.0-2.0-0.19","4062","2","20","Female","approach_avoid_spark_v1","""event"",""trial"",""time""
""fullscreenenter"",""1"",""1474""
","
","
","""event"",""trial"",""time""
""fullscreenenter"",""1"",""1474""
","
","","","","","","null","<div style=""font-size:60px;"">+</div>","null","","fixation","","","","","","","","","","",""
"aa-learning-trial","111","579380","0.0-9.0-2.0-1.19","4062","2","20","Female","approach_avoid_spark_v1","""event"",""trial"",""time""
""fullscreenenter"",""1"",""1474""
","
","
","""event"",""trial"",""time""
""fullscreenenter"",""1"",""1474""
","
","","","","","","481.59999999403954","images/bush3.png","","","learning","-4","-4","1","1","bush","plants","2","0","","good","[5]"
"html-keyboard-response","112","579883","0.0-9.0-2.0-0.20","4062","2","20","Female","approach_avoid_spark_v1","""event"",""trial"",""time""
""fullscreenenter"",""1"",""1474""
","
","
","""event"",""trial"",""time""
""fullscreenenter"",""1"",""1474""
","
","","","","","","null","<div style=""font-size:60px;"">+</div>","null","","fixation","","","","","","","","","","",""
"aa-learning-trial","113","582892","0.0-9.0-2.0-1.20","4062","2","20","Female","approach_avoid_spark_v1","""event"",""trial"",""time""
""fullscreenenter"",""1"",""1474""
","
","
","""event"",""trial"",""time""
""fullscreenenter"",""1"",""1474""
","
","","","","","","1014.7000000029802","images/cactus8.png","","","learning","-3","-3","1","1","cactus","plants","2","0","","bad","[-5]"
"html-keyboard-response","114","583395","0.0-9.0-2.0-0.21","4062","2","20","Female","approach_avoid_spark_v1","""event"",""trial"",""time""
""fullscreenenter"",""1"",""1474""
","
","
","""event"",""trial"",""time""
""fullscreenenter"",""1"",""1474""
","
","","","","","","null","<div style=""font-size:60px;"">+</div>","null","","fixation","","","","","","","","","","",""
"aa-learning-trial","115","586403","0.0-9.0-2.0-1.21","4062","2","20","Female","approach_avoid_spark_v1","""event"",""trial"",""time""
""fullscreenenter"",""1"",""1474""
","
","
","""event"",""trial"",""time""
""fullscreenenter"",""1"",""1474""
","
","","","","","","463.3999999910593","images/cactus3.png","","","learning","2","0","0","0","cactus","plants","2","0","","bad","[-5]"
"html-keyboard-response","116","586907","0.0-9.0-2.0-0.22","4062","2","20","Female","approach_avoid_spark_v1","""event"",""trial"",""time""
""fullscreenenter"",""1"",""1474""
","
","
","""event"",""trial"",""time""
""fullscreenenter"",""1"",""1474""
","
","","","","","","null","<div style=""font-size:60px;"">+</div>","null","","fixation","","","","","","","","","","",""
"aa-learning-trial","117","589915","0.0-9.0-2.0-1.22","4062","2","20","Female","approach_avoid_spark_v1","""event"",""trial"",""time""
""fullscreenenter"",""1"",""1474""
","
","
","""event"",""trial"",""time""
""fullscreenenter"",""1"",""1474""
","
","","","","","","null","images/bush3.png","","","learning","-4","-5","","null","bush","plants","2","0","","good","[5]"
"html-keyboard-response","118","590418","0.0-9.0-2.0-0.23","4062","2","20","Female","approach_avoid_spark_v1","""event"",""trial"",""time""
""fullscreenenter"",""1"",""1474""
","
","
","""event"",""trial"",""time""
""fullscreenenter"",""1"",""1474""
","
","","","","","","null","<div style=""font-size:60px;"">+</div>","null","","fixation","","","","","","","","","","",""
"aa-learning-trial","119","593427","0.0-9.0-2.0-1.23","4062","2","20","Female","approach_avoid_spark_v1","""event"",""trial"",""time""
""fullscreenenter"",""1"",""1474""
","
","
","""event"",""trial"",""time""
""fullscreenenter"",""1"",""1474""
","
","","","","","","1392.699999988079","images/tree4.png","","","learning","6","0","0","0","tree","plants","2","0","","neutral","0"
"html-keyboard-response","120","593930","0.0-9.0-2.0-0.24","4062","2","20","Female","approach_avoid_spark_v1","""event"",""trial"",""time""
""fullscreenenter"",""1"",""1474""
","
","
","""event"",""trial"",""time""
""fullscreenenter"",""1"",""1474""
","
","","","","","","null","<div style=""font-size:60px;"">+</div>","null","","fixation","","","","","","","","","","",""
"aa-learning-trial","121","596939","0.0-9.0-2.0-1.24","4062","2","20","Female","approach_avoid_spark_v1","""event"",""trial"",""time""
""fullscreenenter"",""1"",""1474""
","
","
","""event"",""trial"",""time""
""fullscreenenter"",""1"",""1474""
","
","","","","","","566.6999999880791","images/bush7.png","","","learning","7","7","1","1","bush","plants","2","0","","good","[5]"
"html-keyboard-response","122","597442","0.0-9.0-2.0-0.25","4062","2","20","Female","approach_avoid_spark_v1","""event"",""trial"",""time""
""fullscreenenter"",""1"",""1474""
","
","
","""event"",""trial"",""time""
""fullscreenenter"",""1"",""1474""
","
","","","","","","null","<div style=""font-size:60px;"">+</div>","null","","fixation","","","","","","","","","","",""
"aa-learning-trial","123","600451","0.0-9.0-2.0-1.25","4062","2","20","Female","approach_avoid_spark_v1","""event"",""trial"",""time""
""fullscreenenter"",""1"",""1474""
","
","
","""event"",""trial"",""time""
""fullscreenenter"",""1"",""1474""
","
","","","","","","490.30000001192093","images/tree7.png","","","learning","-7","-7","1","1","tree","plants","2","0","","neutral","0"
"html-keyboard-response","124","600954","0.0-9.0-2.0-0.26","4062","2","20","Female","approach_avoid_spark_v1","""event"",""trial"",""time""
""fullscreenenter"",""1"",""1474""
","
","
","""event"",""trial"",""time""
""fullscreenenter"",""1"",""1474""
","
","","","","","","null","<div style=""font-size:60px;"">+</div>","null","","fixation","","","","","","","","","","",""
"aa-learning-trial","125","603963","0.0-9.0-2.0-1.26","4062","2","20","Female","approach_avoid_spark_v1","""event"",""trial"",""time""
""fullscreenenter"",""1"",""1474""
","
","
","""event"",""trial"",""time""
""fullscreenenter"",""1"",""1474""
","
","","","","","","810.2000000029802","images/cactus4.png","","","learning","4","4","1","1","cactus","plants","2","0","","bad","[-5]"
"html-keyboard-response","126","604466","0.0-9.0-2.0-0.27","4062","2","20","Female","approach_avoid_spark_v1","""event"",""trial"",""time""
""fullscreenenter"",""1"",""1474""
","
","
","""event"",""trial"",""time""
""fullscreenenter"",""1"",""1474""
","
","","","","","","null","<div style=""font-size:60px;"">+</div>","null","","fixation","","","","","","","","","","",""
"aa-learning-trial","127","607474","0.0-9.0-2.0-1.27","4062","2","20","Female","approach_avoid_spark_v1","""event"",""trial"",""time""
""fullscreenenter"",""1"",""1474""
","
","
","""event"",""trial"",""time""
""fullscreenenter"",""1"",""1474""
","
","","","","","","700.6999999880791","images/bush3.png","","","learning","-4","-4","1","1","bush","plants","2","0","","good","[5]"
"html-keyboard-response","128","607978","0.0-9.0-2.0-0.28","4062","2","20","Female","approach_avoid_spark_v1","""event"",""trial"",""time""
""fullscreenenter"",""1"",""1474""
","
","
","""event"",""trial"",""time""
""fullscreenenter"",""1"",""1474""
","
","","","","","","null","<div style=""font-size:60px;"">+</div>","null","","fixation","","","","","","","","","","",""
"aa-learning-trial","129","610986","0.0-9.0-2.0-1.28","4062","2","20","Female","approach_avoid_spark_v1","""event"",""trial"",""time""
""fullscreenenter"",""1"",""1474""
","
","
","""event"",""trial"",""time""
""fullscreenenter"",""1"",""1474""
","
","","","","","","1180.5999999940395","images/cactus3.png","","","learning","2","2","1","1","cactus","plants","2","0","","bad","[-5]"
"html-keyboard-response","130","611490","0.0-9.0-2.0-0.29","4062","2","20","Female","approach_avoid_spark_v1","""event"",""trial"",""time""
""fullscreenenter"",""1"",""1474""
","
","
","""event"",""trial"",""time""
""fullscreenenter"",""1"",""1474""
","
","","","","","","null","<div style=""font-size:60px;"">+</div>","null","","fixation","","","","","","","","","","",""
"aa-learning-trial","131","614498","0.0-9.0-2.0-1.29","4062","2","20","Female","approach_avoid_spark_v1","""event"",""trial"",""time""
""fullscreenenter"",""1"",""1474""
","
","
","""event"",""trial"",""time""
""fullscreenenter"",""1"",""1474""
","
","","","","","","785.2999999970198","images/bush1.png","","","learning","3","3","1","1","bush","plants","2","0","","good","[5]"
"html-keyboard-response","132","615009","0.0-9.0-2.0-0.30","4062","2","20","Female","approach_avoid_spark_v1","""event"",""trial"",""time""
""fullscreenenter"",""1"",""1474""
","
","
","""event"",""trial"",""time""
""fullscreenenter"",""1"",""1474""
","
","","","","","","null","<div style=""font-size:60px;"">+</div>","null","","fixation","","","","","","","","","","",""
"aa-learning-trial","133","618017","0.0-9.0-2.0-1.30","4062","2","20","Female","approach_avoid_spark_v1","""event"",""trial"",""time""
""fullscreenenter"",""1"",""1474""
","
","
","""event"",""trial"",""time""
""fullscreenenter"",""1"",""1474""
","
","","","","","","631.7999999970198","images/bush1.png","","","learning","3","3","1","1","bush","plants","2","0","","good","[5]"
"html-keyboard-response","134","618521","0.0-9.0-2.0-0.31","4062","2","20","Female","approach_avoid_spark_v1","""event"",""trial"",""time""
""fullscreenenter"",""1"",""1474""
","
","
","""event"",""trial"",""time""
""fullscreenenter"",""1"",""1474""
","
","","","","","","null","<div style=""font-size:60px;"">+</div>","null","","fixation","","","","","","","","","","",""
"aa-learning-trial","135","621533","0.0-9.0-2.0-1.31","4062","2","20","Female","approach_avoid_spark_v1","""event"",""trial"",""time""
""fullscreenenter"",""1"",""1474""
","
","
","""event"",""trial"",""time""
""fullscreenenter"",""1"",""1474""
","
","","","","","","724.2999999970198","images/bush8.png","","","learning","-9","0","0","0","bush","plants","2","0","","good","[5]"
"html-keyboard-response","136","622040","0.0-9.0-2.0-0.32","4062","2","20","Female","approach_avoid_spark_v1","""event"",""trial"",""time""
""fullscreenenter"",""1"",""1474""
","
","
","""event"",""trial"",""time""
""fullscreenenter"",""1"",""1474""
","
","","","","","","null","<div style=""font-size:60px;"">+</div>","null","","fixation","","","","","","","","","","",""
"aa-learning-trial","137","625050","0.0-9.0-2.0-1.32","4062","2","20","Female","approach_avoid_spark_v1","""event"",""trial"",""time""
""fullscreenenter"",""1"",""1474""
","
","
","""event"",""trial"",""time""
""fullscreenenter"",""1"",""1474""
","
","","","","","","1269.9000000059605","images/tree6.png","","","learning","5","5","1","1","tree","plants","2","0","","neutral","0"
"html-keyboard-response","138","625553","0.0-9.0-2.0-0.33","4062","2","20","Female","approach_avoid_spark_v1","""event"",""trial"",""time""
""fullscreenenter"",""1"",""1474""
","
","
","""event"",""trial"",""time""
""fullscreenenter"",""1"",""1474""
","
","","","","","","null","<div style=""font-size:60px;"">+</div>","null","","fixation","","","","","","","","","","",""
"aa-learning-trial","139","628562","0.0-9.0-2.0-1.33","4062","2","20","Female","approach_avoid_spark_v1","""event"",""trial"",""time""
""fullscreenenter"",""1"",""1474""
","
","
","""event"",""trial"",""time""
""fullscreenenter"",""1"",""1474""
","
","","","","","","1390.5999999940395","images/cactus4.png","","","learning","4","0","0","0","cactus","plants","2","0","","bad","[-5]"
"html-keyboard-response","140","629065","0.0-9.0-2.0-0.34","4062","2","20","Female","approach_avoid_spark_v1","""event"",""trial"",""time""
""fullscreenenter"",""1"",""1474""
","
","
","""event"",""trial"",""time""
""fullscreenenter"",""1"",""1474""
","
","","","","","","null","<div style=""font-size:60px;"">+</div>","null","","fixation","","","","","","","","","","",""
"aa-learning-trial","141","632073","0.0-9.0-2.0-1.34","4062","2","20","Female","approach_avoid_spark_v1","""event"",""trial"",""time""
""fullscreenenter"",""1"",""1474""
","
","
","""event"",""trial"",""time""
""fullscreenenter"",""1"",""1474""
","
","","","","","","737.7999999970198","images/cactus1.png","","","learning","-8","0","0","0","cactus","plants","2","0","","bad","[-5]"
"html-keyboard-response","142","632577","0.0-9.0-2.0-0.35","4062","2","20","Female","approach_avoid_spark_v1","""event"",""trial"",""time""
""fullscreenenter"",""1"",""1474""
","
","
","""event"",""trial"",""time""
""fullscreenenter"",""1"",""1474""
","
","","","","","","null","<div style=""font-size:60px;"">+</div>","null","","fixation","","","","","","","","","","",""
"aa-learning-trial","143","635586","0.0-9.0-2.0-1.35","4062","2","20","Female","approach_avoid_spark_v1","""event"",""trial"",""time""
""fullscreenenter"",""1"",""1474""
","
","
","""event"",""trial"",""time""
""fullscreenenter"",""1"",""1474""
","
","","","","","","531.4000000059605","images/tree4.png","","","learning","6","6","1","1","tree","plants","2","0","","neutral","0"
"html-keyboard-response","144","636089","0.0-9.0-2.0-0.36","4062","2","20","Female","approach_avoid_spark_v1","""event"",""trial"",""time""
""fullscreenenter"",""1"",""1474""
","
","
","""event"",""trial"",""time""
""fullscreenenter"",""1"",""1474""
","
","","","","","","null","<div style=""font-size:60px;"">+</div>","null","","fixation","","","","","","","","","","",""
"aa-learning-trial","145","639097","0.0-9.0-2.0-1.36","4062","2","20","Female","approach_avoid_spark_v1","""event"",""trial"",""time""
""fullscreenenter"",""1"",""1474""
","
","
","""event"",""trial"",""time""
""fullscreenenter"",""1"",""1474""
","
","","","","","","1253.5","images/cactus3.png","","","learning","2","2","1","1","cactus","plants","2","0","","bad","[-5]"
"html-keyboard-response","146","639601","0.0-9.0-2.0-0.37","4062","2","20","Female","approach_avoid_spark_v1","""event"",""trial"",""time""
""fullscreenenter"",""1"",""1474""
","
","
","""event"",""trial"",""time""
""fullscreenenter"",""1"",""1474""
","
","","","","","","null","<div style=""font-size:60px;"">+</div>","null","","fixation","","","","","","","","","","",""
"aa-learning-trial","147","642608","0.0-9.0-2.0-1.37","4062","2","20","Female","approach_avoid_spark_v1","""event"",""trial"",""time""
""fullscreenenter"",""1"",""1474""
","
","
","""event"",""trial"",""time""
""fullscreenenter"",""1"",""1474""
","
","","","","","","1226.2000000029802","images/tree6.png","","","learning","5","5","1","1","tree","plants","2","0","","neutral","0"
"html-keyboard-response","148","643112","0.0-9.0-2.0-0.38","4062","2","20","Female","approach_avoid_spark_v1","""event"",""trial"",""time""
""fullscreenenter"",""1"",""1474""
","
","
","""event"",""trial"",""time""
""fullscreenenter"",""1"",""1474""
","
","","","","","","null","<div style=""font-size:60px;"">+</div>","null","","fixation","","","","","","","","","","",""
"aa-learning-trial","149","646121","0.0-9.0-2.0-1.38","4062","2","20","Female","approach_avoid_spark_v1","""event"",""trial"",""time""
""fullscreenenter"",""1"",""1474""
","
","
","""event"",""trial"",""time""
""fullscreenenter"",""1"",""1474""
","
","","","","","","536.6999999880791","images/tree4.png","","","learning","6","6","1","1","tree","plants","2","0","","neutral","0"
"html-keyboard-response","150","646624","0.0-9.0-2.0-0.39","4062","2","20","Female","approach_avoid_spark_v1","""event"",""trial"",""time""
""fullscreenenter"",""1"",""1474""
","
","
","""event"",""trial"",""time""
""fullscreenenter"",""1"",""1474""
","
","","","","","","null","<div style=""font-size:60px;"">+</div>","null","","fixation","","","","","","","","","","",""
"aa-learning-trial","151","649632","0.0-9.0-2.0-1.39","4062","2","20","Female","approach_avoid_spark_v1","""event"",""trial"",""time""
""fullscreenenter"",""1"",""1474""
","
","
","""event"",""trial"",""time""
""fullscreenenter"",""1"",""1474""
","
","","","","","","1231.6000000089407","images/bush5.png","","","learning","-2","0","0","0","bush","plants","2","0","","good","[5]"
"html-keyboard-response","152","650136","0.0-9.0-2.0-0.40","4062","2","20","Female","approach_avoid_spark_v1","""event"",""trial"",""time""
""fullscreenenter"",""1"",""1474""
","
","
","""event"",""trial"",""time""
""fullscreenenter"",""1"",""1474""
","
","","","","","","null","<div style=""font-size:60px;"">+</div>","null","","fixation","","","","","","","","","","",""
"aa-learning-trial","153","653144","0.0-9.0-2.0-1.40","4062","2","20","Female","approach_avoid_spark_v1","""event"",""trial"",""time""
""fullscreenenter"",""1"",""1474""
","
","
","""event"",""trial"",""time""
""fullscreenenter"",""1"",""1474""
","
","","","","","","771.9000000059605","images/bush7.png","","","learning","7","7","1","1","bush","plants","2","0","","good","[5]"
"html-keyboard-response","154","653648","0.0-9.0-2.0-0.41","4062","2","20","Female","approach_avoid_spark_v1","""event"",""trial"",""time""
""fullscreenenter"",""1"",""1474""
","
","
","""event"",""trial"",""time""
""fullscreenenter"",""1"",""1474""
","
","","","","","","null","<div style=""font-size:60px;"">+</div>","null","","fixation","","","","","","","","","","",""
"aa-learning-trial","155","656656","0.0-9.0-2.0-1.41","4062","2","20","Female","approach_avoid_spark_v1","""event"",""trial"",""time""
""fullscreenenter"",""1"",""1474""
","
","
","""event"",""trial"",""time""
""fullscreenenter"",""1"",""1474""
","
","","","","","","708.9000000059605","images/cactus1.png","","","learning","-8","0","0","0","cactus","plants","2","0","","bad","[-5]"
"html-keyboard-response","156","657160","0.0-9.0-2.0-0.42","4062","2","20","Female","approach_avoid_spark_v1","""event"",""trial"",""time""
""fullscreenenter"",""1"",""1474""
","
","
","""event"",""trial"",""time""
""fullscreenenter"",""1"",""1474""
","
","","","","","","null","<div style=""font-size:60px;"">+</div>","null","","fixation","","","","","","","","","","",""
"aa-learning-trial","157","660168","0.0-9.0-2.0-1.42","4062","2","20","Female","approach_avoid_spark_v1","""event"",""trial"",""time""
""fullscreenenter"",""1"",""1474""
","
","
","""event"",""trial"",""time""
""fullscreenenter"",""1"",""1474""
","
","","","","","","1550.3999999910593","images/bush3.png","","","learning","-4","-4","1","1","bush","plants","2","0","","good","[5]"
"html-keyboard-response","158","660672","0.0-9.0-2.0-0.43","4062","2","20","Female","approach_avoid_spark_v1","""event"",""trial"",""time""
""fullscreenenter"",""1"",""1474""
","
","
","""event"",""trial"",""time""
""fullscreenenter"",""1"",""1474""
","
","","","","","","null","<div style=""font-size:60px;"">+</div>","null","","fixation","","","","","","","","","","",""
"aa-learning-trial","159","663680","0.0-9.0-2.0-1.43","4062","2","20","Female","approach_avoid_spark_v1","""event"",""trial"",""time""
""fullscreenenter"",""1"",""1474""
","
","
","""event"",""trial"",""time""
""fullscreenenter"",""1"",""1474""
","
","","","","","","1629.2000000029802","images/tree5.png","","","learning","-1","-1","1","1","tree","plants","2","0","","neutral","0"
"html-keyboard-response","160","664183","0.0-9.0-2.0-0.44","4062","2","20","Female","approach_avoid_spark_v1","""event"",""trial"",""time""
""fullscreenenter"",""1"",""1474""
","
","
","""event"",""trial"",""time""
""fullscreenenter"",""1"",""1474""
","
","","","","","","null","<div style=""font-size:60px;"">+</div>","null","","fixation","","","","","","","","","","",""
"aa-learning-trial","161","667191","0.0-9.0-2.0-1.44","4062","2","20","Female","approach_avoid_spark_v1","""event"",""trial"",""time""
""fullscreenenter"",""1"",""1474""
","
","
","""event"",""trial"",""time""
""fullscreenenter"",""1"",""1474""
","
","","","","","","638.2000000029802","images/cactus4.png","","","learning","4","0","0","0","cactus","plants","2","0","","bad","[-5]"
"html-keyboard-response","162","667695","0.0-9.0-2.0-0.45","4062","2","20","Female","approach_avoid_spark_v1","""event"",""trial"",""time""
""fullscreenenter"",""1"",""1474""
","
","
","""event"",""trial"",""time""
""fullscreenenter"",""1"",""1474""
","
","","","","","","null","<div style=""font-size:60px;"">+</div>","null","","fixation","","","","","","","","","","",""
"aa-learning-trial","163","670703","0.0-9.0-2.0-1.45","4062","2","20","Female","approach_avoid_spark_v1","""event"",""trial"",""time""
""fullscreenenter"",""1"",""1474""
","
","
","""event"",""trial"",""time""
""fullscreenenter"",""1"",""1474""
","
","","","","","","786.5999999940395","images/tree6.png","","","learning","5","5","1","1","tree","plants","2","0","","neutral","0"
"html-keyboard-response","164","671207","0.0-9.0-2.0-0.46","4062","2","20","Female","approach_avoid_spark_v1","""event"",""trial"",""time""
""fullscreenenter"",""1"",""1474""
","
","
","""event"",""trial"",""time""
""fullscreenenter"",""1"",""1474""
","
","","","","","","null","<div style=""font-size:60px;"">+</div>","null","","fixation","","","","","","","","","","",""
"aa-learning-trial","165","674215","0.0-9.0-2.0-1.46","4062","2","20","Female","approach_avoid_spark_v1","""event"",""trial"",""time""
""fullscreenenter"",""1"",""1474""
","
","
","""event"",""trial"",""time""
""fullscreenenter"",""1"",""1474""
","
","","","","","","999.4000000059605","images/tree7.png","","","learning","-7","0","0","0","tree","plants","2","0","","neutral","0"
"html-keyboard-response","166","674719","0.0-9.0-2.0-0.47","4062","2","20","Female","approach_avoid_spark_v1","""event"",""trial"",""time""
""fullscreenenter"",""1"",""1474""
","
","
","""event"",""trial"",""time""
""fullscreenenter"",""1"",""1474""
","
","","","","","","null","<div style=""font-size:60px;"">+</div>","null","","fixation","","","","","","","","","","",""
"aa-learning-trial","167","677727","0.0-9.0-2.0-1.47","4062","2","20","Female","approach_avoid_spark_v1","""event"",""trial"",""time""
""fullscreenenter"",""1"",""1474""
","
","
","""event"",""trial"",""time""
""fullscreenenter"",""1"",""1474""
","
","","","","","","1010.3999999910593","images/cactus3.png","","","learning","2","2","1","1","cactus","plants","2","0","","bad","[-5]"
"html-keyboard-response","168","678230","0.0-9.0-2.0-0.48","4062","2","20","Female","approach_avoid_spark_v1","""event"",""trial"",""time""
""fullscreenenter"",""1"",""1474""
","
","
","""event"",""trial"",""time""
""fullscreenenter"",""1"",""1474""
","
","","","","","","null","<div style=""font-size:60px;"">+</div>","null","","fixation","","","","","","","","","","",""
"aa-learning-trial","169","681239","0.0-9.0-2.0-1.48","4062","2","20","Female","approach_avoid_spark_v1","""event"",""trial"",""time""
""fullscreenenter"",""1"",""1474""
","
","
","""event"",""trial"",""time""
""fullscreenenter"",""1"",""1474""
","
","","","","","","673.5","images/bush7.png","","","learning","7","7","1","1","bush","plants","2","0","","good","[5]"
"html-keyboard-response","170","681743","0.0-9.0-2.0-0.49","4062","2","20","Female","approach_avoid_spark_v1","""event"",""trial"",""time""
""fullscreenenter"",""1"",""1474""
","
","
","""event"",""trial"",""time""
""fullscreenenter"",""1"",""1474""
","
","","","","","","null","<div style=""font-size:60px;"">+</div>","null","","fixation","","","","","","","","","","",""
"aa-learning-trial","171","684751","0.0-9.0-2.0-1.49","4062","2","20","Female","approach_avoid_spark_v1","""event"",""trial"",""time""
""fullscreenenter"",""1"",""1474""
","
","
","""event"",""trial"",""time""
""fullscreenenter"",""1"",""1474""
","
","","","","","","619.7999999970198","images/bush7.png","","","learning","7","7","1","1","bush","plants","2","0","","good","[5]"
"html-keyboard-response","172","685254","0.0-9.0-2.0-0.50","4062","2","20","Female","approach_avoid_spark_v1","""event"",""trial"",""time""
""fullscreenenter"",""1"",""1474""
","
","
","""event"",""trial"",""time""
""fullscreenenter"",""1"",""1474""
","
","","","","","","null","<div style=""font-size:60px;"">+</div>","null","","fixation","","","","","","","","","","",""
"aa-learning-trial","173","688263","0.0-9.0-2.0-1.50","4062","2","20","Female","approach_avoid_spark_v1","""event"",""trial"",""time""
""fullscreenenter"",""1"",""1474""
","
","
","""event"",""trial"",""time""
""fullscreenenter"",""1"",""1474""
","
","","","","","","1239.199999988079","images/cactus4.png","","","learning","4","0","0","0","cactus","plants","2","0","","bad","[-5]"
"html-button-response","174","689894","0.0-9.0-3.0","4062","2","20","Female","approach_avoid_spark_v1","""event"",""trial"",""time""
""fullscreenenter"",""1"",""1474""
","
","
","""event"",""trial"",""time""
""fullscreenenter"",""1"",""1474""
","
","","","","","","1627.7999999970198","<p> You have completed the round! <p> In this round, you earned 73 points! </p>","0","","break","","","","","","","","","","",""
"html-button-response","175","691178","0.0-10.0","4062","2","20","Female","approach_avoid_spark_v1","""event"",""trial"",""time""
""fullscreenenter"",""1"",""1474""
","
","
","""event"",""trial"",""time""
""fullscreenenter"",""1"",""1474""
","
","","","","","","1282.3999999910593","<p> Now it's time to play another round. </p>","0","","transition_screen","","","","","","","","","","",""
"preload","176","691309","0.0-11.0-0.0","4062","2","20","Female","approach_avoid_spark_v1","""event"",""trial"",""time""
""fullscreenenter"",""1"",""1474""
","
","
","""event"",""trial"",""time""
""fullscreenenter"",""1"",""1474""
","
","true","false","[]","[]","[]","","","","","","","","","","","","","","","",""
"learning-instructions","177","698799","0.0-11.0-1.0-0.0","4062","2","20","Female","approach_avoid_spark_v1","""event"",""trial"",""time""
""fullscreenenter"",""1"",""1474""
","
","
","""event"",""trial"",""time""
""fullscreenenter"",""1"",""1474""
","
","","","","","","2305.3999999910593","<p> Your goal in this round is to take your friend for rides in different vehicles. </p></div>","","0","instructions","","","","","","","","","","",""
"learning-instructions","178","709694","0.0-11.0-1.0-0.1","4062","2","20","Female","approach_avoid_spark_v1","""event"",""trial"",""time""
""fullscreenenter"",""1"",""1474""
","
","
","""event"",""trial"",""time""
""fullscreenenter"",""1"",""1474""
","
","","","","","","1036.5","<p> Your friend enjoys riding in some vehicles but not in others.  </p><p> On each turn, you will see a vehicle.   </p><p> You need to decide whether to take your friend for a ride or not.  </p>","","0","instructions","","","","","","","","","","",""
"learning-instructions","179","716694","0.0-11.0-1.0-0.2","4062","2","20","Female","approach_avoid_spark_v1","""event"",""trial"",""time""
""fullscreenenter"",""1"",""1474""
","
","
","""event"",""trial"",""time""
""fullscreenenter"",""1"",""1474""
","
","","","","","","536.5","<p> You can take your friend for a ride in the vehicle by pressing 1 and skip the ride by pressing 0. </p><br><div class=""choice-instructions-grid""> <div class=""choice-option""><img src=""images/approach.png"" class=""choice-option-img"" stage=""instructions"" position=""0"" ><div class=""choice-option-text""> Press ""1."" </div></div><div class=""choice-option""><img src=""images/avoid.png"" class=""choice-option-img"" stage=""instructions"" position=""1"" ><div class=""choice-option-text""> Press ""0."" </div></div>","","0","instructions","","","","","","","","","","",""
"learning-instructions","180","725684","0.0-11.0-1.0-0.3","4062","2","20","Female","approach_avoid_spark_v1","""event"",""trial"",""time""
""fullscreenenter"",""1"",""1474""
","
","
","""event"",""trial"",""time""
""fullscreenenter"",""1"",""1474""
","
","","","","","","360.80000001192093","<p> If you take them for a ride in a vehicle they like, they will be thrilled! </p><p> But if you take them for a ride in a vehicle they do not like, they will be upset. </p>","","0","instructions","","","","","","","","","","",""
"learning-instructions","181","737707","0.0-11.0-1.0-0.4","4062","2","20","Female","approach_avoid_spark_v1","""event"",""trial"",""time""
""fullscreenenter"",""1"",""1474""
","
","
","""event"",""trial"",""time""
""fullscreenenter"",""1"",""1474""
","
","","","","","","367.8999999910593","<p> You will earn points based on how you made your friend feel. </p><p> If you made him thrilled, you will WIN anywhere from 1 - 9 points, </p><p> but if you made him upset, you will LOSE anywhere from 1 - 9 points. </p>","","0","instructions","","","","","","","","","","",""
"learning-instructions","182","744709","0.0-11.0-1.0-0.5","4062","2","20","Female","approach_avoid_spark_v1","""event"",""trial"",""time""
""fullscreenenter"",""1"",""1474""
","
","
","""event"",""trial"",""time""
""fullscreenenter"",""1"",""1474""
","
","","","","","","341.80000001192093","<p> You will see how many points you won or lost in the center of the screen. </p><p> Here is what you would see if you won 5 points: </p><p style=""color:green;font-size:50px;font-weight:bolder"">5</p>","","0","instructions","","","","","","","","","","",""
"learning-instructions","183","747950","0.0-11.0-1.0-0.6","4062","2","20","Female","approach_avoid_spark_v1","""event"",""trial"",""time""
""fullscreenenter"",""1"",""1474""
","
","
","""event"",""trial"",""time""
""fullscreenenter"",""1"",""1474""
","
","","","","","","404","<p> And here is what you would see if you lost 3 points: </p><p style=""color:red;font-size:50px;font-weight:bolder"">-3</p>","","0","instructions","","","","","","","","","","",""
"learning-instructions","184","764555","0.0-11.0-1.0-0.7","4062","2","20","Female","approach_avoid_spark_v1","""event"",""trial"",""time""
""fullscreenenter"",""1"",""1474""
","
","
","""event"",""trial"",""time""
""fullscreenenter"",""1"",""1474""
","
","","","","","","454.90000000596046","<p> Some vehicles will make your friend REALLY thrilled or upset. </p><p> These vehicles will make you win or lose LOTS of points. </p><p> Other vehicles will only make him feel a little thrilled or upset. </p><p> These vehicles will make you win or lose small amounts of points. </p>","","0","instructions","","","","","","","","","","",""
"learning-instructions","185","777912","0.0-11.0-1.0-0.8","4062","2","20","Female","approach_avoid_spark_v1","""event"",""trial"",""time""
""fullscreenenter"",""1"",""1474""
","
","
","""event"",""trial"",""time""
""fullscreenenter"",""1"",""1474""
","
","","","","","","1381","<p> If you choose to skip the ride, you will not win or lose any points. </p><p>  However, in the center of the screen, you will see the number of points you WOULD HAVE won or lost if you had taken your friend for a ride. </p>","","0","instructions","","","","","","","","","","",""
"learning-instructions","186","789411","0.0-11.0-1.0-0.9","4062","2","20","Female","approach_avoid_spark_v1","""event"",""trial"",""time""
""fullscreenenter"",""1"",""1474""
","
","
","""event"",""trial"",""time""
""fullscreenenter"",""1"",""1474""
","
","","","","","","614.1000000089407","<p> Here is what you might see if you did not take your friend for a ride but he would have enjoyed it: </p><p style=""color:grey; font-size:50px; display: inline-block; border-spacing: 15px; border-width:3px; border-style:solid; border-color:red"">  &nbsp; 6 &nbsp; </p><p> Remember, in this case, you would not win or lose ANY points because you skipped the ride.  </p>","","0","instructions","","","","","","","","","","",""
"learning-instructions","187","797894","0.0-11.0-1.0-0.10","4062","2","20","Female","approach_avoid_spark_v1","""event"",""trial"",""time""
""fullscreenenter"",""1"",""1474""
","
","
","""event"",""trial"",""time""
""fullscreenenter"",""1"",""1474""
","
","","","","","","948.4000000059605","<p> Try to make the best choice for each vehicle because </p><p> at the end of the game, you will earn bonus money based on how many points you earned. </p>","","0","instructions","","","","","","","","","","",""
"learning-instructions","188","807092","0.0-11.0-1.0-0.11","4062","2","20","Female","approach_avoid_spark_v1","""event"",""trial"",""time""
""fullscreenenter"",""1"",""1474""
","
","
","""event"",""trial"",""time""
""fullscreenenter"",""1"",""1474""
","
","","","","","","1005.8000000119209","<p> You will have 3 seconds to make each choice. Try to respond before time runs out! </p><p> You will lose 5 points each time you do not make a response. </p>","","0","instructions","","","","","","","","","","",""
"html-keyboard-response","189","807706","0.0-11.0-2.0-0.0","4062","2","20","Female","approach_avoid_spark_v1","""event"",""trial"",""time""
""fullscreenenter"",""1"",""1474""
","
","
","""event"",""trial"",""time""
""fullscreenenter"",""1"",""1474""
","
","","","","","","null","<div style=""font-size:60px;"">+</div>","null","","fixation","","","","","","","","","","",""
"aa-learning-trial","190","810715","0.0-11.0-2.0-1.0","4062","2","20","Female","approach_avoid_spark_v1","""event"",""trial"",""time""
""fullscreenenter"",""1"",""1474""
","
","
","""event"",""trial"",""time""
""fullscreenenter"",""1"",""1474""
","
","","","","","","1517","images/truck6.png","","","learning","5","0","0","0","truck","vehicles","1","1","","good","[5]"
"html-keyboard-response","191","811225","0.0-11.0-2.0-0.1","4062","2","20","Female","approach_avoid_spark_v1","""event"",""trial"",""time""
""fullscreenenter"",""1"",""1474""
","
","
","""event"",""trial"",""time""
""fullscreenenter"",""1"",""1474""
","
","","","","","","null","<div style=""font-size:60px;"">+</div>","null","","fixation","","","","","","","","","","",""
"aa-learning-trial","192","814235","0.0-11.0-2.0-1.1","4062","2","20","Female","approach_avoid_spark_v1","""event"",""trial"",""time""
""fullscreenenter"",""1"",""1474""
","
","
","""event"",""trial"",""time""
""fullscreenenter"",""1"",""1474""
","
","","","","","","574.7999999970198","images/truck6.png","","","learning","6","6","1","1","truck","vehicles","1","1","","good","[5]"
"html-keyboard-response","193","814746","0.0-11.0-2.0-0.2","4062","2","20","Female","approach_avoid_spark_v1","""event"",""trial"",""time""
""fullscreenenter"",""1"",""1474""
","
","
","""event"",""trial"",""time""
""fullscreenenter"",""1"",""1474""
","
","","","","","","null","<div style=""font-size:60px;"">+</div>","null","","fixation","","","","","","","","","","",""
"aa-learning-trial","194","817753","0.0-11.0-2.0-1.2","4062","2","20","Female","approach_avoid_spark_v1","""event"",""trial"",""time""
""fullscreenenter"",""1"",""1474""
","
","
","""event"",""trial"",""time""
""fullscreenenter"",""1"",""1474""
","
","","","","","","844.7999999970198","images/boat8.png","","","learning","-5","-5","1","1","boat","vehicles","1","1","","bad","[-4]"
"html-keyboard-response","195","818258","0.0-11.0-2.0-0.3","4062","2","20","Female","approach_avoid_spark_v1","""event"",""trial"",""time""
""fullscreenenter"",""1"",""1474""
","
","
","""event"",""trial"",""time""
""fullscreenenter"",""1"",""1474""
","
","","","","","","null","<div style=""font-size:60px;"">+</div>","null","","fixation","","","","","","","","","","",""
"aa-learning-trial","196","821266","0.0-11.0-2.0-1.3","4062","2","20","Female","approach_avoid_spark_v1","""event"",""trial"",""time""
""fullscreenenter"",""1"",""1474""
","
","
","""event"",""trial"",""time""
""fullscreenenter"",""1"",""1474""
","
","","","","","","744.0999999940395","images/boat3.png","","","learning","-6","-6","1","1","boat","vehicles","1","1","","bad","[-4]"
"html-keyboard-response","197","821778","0.0-11.0-2.0-0.4","4062","2","20","Female","approach_avoid_spark_v1","""event"",""trial"",""time""
""fullscreenenter"",""1"",""1474""
","
","
","""event"",""trial"",""time""
""fullscreenenter"",""1"",""1474""
","
","","","","","","null","<div style=""font-size:60px;"">+</div>","null","","fixation","","","","","","","","","","",""
"aa-learning-trial","198","824786","0.0-11.0-2.0-1.4","4062","2","20","Female","approach_avoid_spark_v1","""event"",""trial"",""time""
""fullscreenenter"",""1"",""1474""
","
","
","""event"",""trial"",""time""
""fullscreenenter"",""1"",""1474""
","
","","","","","","762.5999999940395","images/boat4.png","","","learning","-5","0","0","0","boat","vehicles","1","1","","bad","[-4]"
"html-keyboard-response","199","825297","0.0-11.0-2.0-0.5","4062","2","20","Female","approach_avoid_spark_v1","""event"",""trial"",""time""
""fullscreenenter"",""1"",""1474""
","
","
","""event"",""trial"",""time""
""fullscreenenter"",""1"",""1474""
","
","","","","","","null","<div style=""font-size:60px;"">+</div>","null","","fixation","","","","","","","","","","",""
"aa-learning-trial","200","828304","0.0-11.0-2.0-1.5","4062","2","20","Female","approach_avoid_spark_v1","""event"",""trial"",""time""
""fullscreenenter"",""1"",""1474""
","
","
","""event"",""trial"",""time""
""fullscreenenter"",""1"",""1474""
","
","","","","","","767.1000000089407","images/plane6.png","","","learning","1","1","1","1","plane","vehicles","1","1","","neutral","0"
"html-keyboard-response","201","828809","0.0-11.0-2.0-0.6","4062","2","20","Female","approach_avoid_spark_v1","""event"",""trial"",""time""
""fullscreenenter"",""1"",""1474""
","
","
","""event"",""trial"",""time""
""fullscreenenter"",""1"",""1474""
","
","","","","","","null","<div style=""font-size:60px;"">+</div>","null","","fixation","","","","","","","","","","",""
"aa-learning-trial","202","831815","0.0-11.0-2.0-1.6","4062","2","20","Female","approach_avoid_spark_v1","""event"",""trial"",""time""
""fullscreenenter"",""1"",""1474""
","
","
","""event"",""trial"",""time""
""fullscreenenter"",""1"",""1474""
","
","","","","","","687.2000000029802","images/truck2.png","","","learning","6","6","1","1","truck","vehicles","1","1","","good","[5]"
"html-keyboard-response","203","832319","0.0-11.0-2.0-0.7","4062","2","20","Female","approach_avoid_spark_v1","""event"",""trial"",""time""
""fullscreenenter"",""1"",""1474""
","
","
","""event"",""trial"",""time""
""fullscreenenter"",""1"",""1474""
","
","","","","","","null","<div style=""font-size:60px;"">+</div>","null","","fixation","","","","","","","","","","",""
"aa-learning-trial","204","835332","0.0-11.0-2.0-1.7","4062","2","20","Female","approach_avoid_spark_v1","""event"",""trial"",""time""
""fullscreenenter"",""1"",""1474""
","
","
","""event"",""trial"",""time""
""fullscreenenter"",""1"",""1474""
","
","","","","","","780.1000000089407","images/plane7.png","","","learning","[1]","0","0","0","plane","vehicles","1","1","","neutral","0"
"html-keyboard-response","205","835843","0.0-11.0-2.0-0.8","4062","2","20","Female","approach_avoid_spark_v1","""event"",""trial"",""time""
""fullscreenenter"",""1"",""1474""
","
","
","""event"",""trial"",""time""
""fullscreenenter"",""1"",""1474""
","
","","","","","","null","<div style=""font-size:60px;"">+</div>","null","","fixation","","","","","","","","","","",""
"aa-learning-trial","206","838856","0.0-11.0-2.0-1.8","4062","2","20","Female","approach_avoid_spark_v1","""event"",""trial"",""time""
""fullscreenenter"",""1"",""1474""
","
","
","""event"",""trial"",""time""
""fullscreenenter"",""1"",""1474""
","
","","","","","","484.19999998807907","images/plane8.png","","","learning","-1","-1","1","1","plane","vehicles","1","1","","neutral","0"
"html-keyboard-response","207","839359","0.0-11.0-2.0-0.9","4062","2","20","Female","approach_avoid_spark_v1","""event"",""trial"",""time""
""fullscreenenter"",""1"",""1474""
","
","
","""event"",""trial"",""time""
""fullscreenenter"",""1"",""1474""
","
","","","","","","null","<div style=""font-size:60px;"">+</div>","null","","fixation","","","","","","","","","","",""
"aa-learning-trial","208","842368","0.0-11.0-2.0-1.9","4062","2","20","Female","approach_avoid_spark_v1","""event"",""trial"",""time""
""fullscreenenter"",""1"",""1474""
","
","
","""event"",""trial"",""time""
""fullscreenenter"",""1"",""1474""
","
","","","","","","530.7999999970198","images/boat8.png","","","learning","-3","0","0","0","boat","vehicles","1","1","","bad","[-4]"
"html-keyboard-response","209","842871","0.0-11.0-2.0-0.10","4062","2","20","Female","approach_avoid_spark_v1","""event"",""trial"",""time""
""fullscreenenter"",""1"",""1474""
","
","
","""event"",""trial"",""time""
""fullscreenenter"",""1"",""1474""
","
","","","","","","null","<div style=""font-size:60px;"">+</div>","null","","fixation","","","","","","","","","","",""
"aa-learning-trial","210","845879","0.0-11.0-2.0-1.10","4062","2","20","Female","approach_avoid_spark_v1","""event"",""trial"",""time""
""fullscreenenter"",""1"",""1474""
","
","
","""event"",""trial"",""time""
""fullscreenenter"",""1"",""1474""
","
","","","","","","744.9000000059605","images/plane6.png","","","learning","[-1]","-1","1","1","plane","vehicles","1","1","","neutral","0"
"html-keyboard-response","211","846383","0.0-11.0-2.0-0.11","4062","2","20","Female","approach_avoid_spark_v1","""event"",""trial"",""time""
""fullscreenenter"",""1"",""1474""
","
","
","""event"",""trial"",""time""
""fullscreenenter"",""1"",""1474""
","
","","","","","","null","<div style=""font-size:60px;"">+</div>","null","","fixation","","","","","","","","","","",""
"aa-learning-trial","212","849391","0.0-11.0-2.0-1.11","4062","2","20","Female","approach_avoid_spark_v1","""event"",""trial"",""time""
""fullscreenenter"",""1"",""1474""
","
","
","""event"",""trial"",""time""
""fullscreenenter"",""1"",""1474""
","
","","","","","","676.5","images/truck2.png","","","learning","5","5","1","1","truck","vehicles","1","1","","good","[5]"
"html-keyboard-response","213","849895","0.0-11.0-2.0-0.12","4062","2","20","Female","approach_avoid_spark_v1","""event"",""trial"",""time""
""fullscreenenter"",""1"",""1474""
","
","
","""event"",""trial"",""time""
""fullscreenenter"",""1"",""1474""
","
","","","","","","null","<div style=""font-size:60px;"">+</div>","null","","fixation","","","","","","","","","","",""
"aa-learning-trial","214","852903","0.0-11.0-2.0-1.12","4062","2","20","Female","approach_avoid_spark_v1","""event"",""trial"",""time""
""fullscreenenter"",""1"",""1474""
","
","
","""event"",""trial"",""time""
""fullscreenenter"",""1"",""1474""
","
","","","","","","1717.7999999970198","images/plane7.png","","","learning","-1","0","0","0","plane","vehicles","1","1","","neutral","0"
"html-keyboard-response","215","853406","0.0-11.0-2.0-0.13","4062","2","20","Female","approach_avoid_spark_v1","""event"",""trial"",""time""
""fullscreenenter"",""1"",""1474""
","
","
","""event"",""trial"",""time""
""fullscreenenter"",""1"",""1474""
","
","","","","","","null","<div style=""font-size:60px;"">+</div>","null","","fixation","","","","","","","","","","",""
"aa-learning-trial","216","856415","0.0-11.0-2.0-1.13","4062","2","20","Female","approach_avoid_spark_v1","""event"",""trial"",""time""
""fullscreenenter"",""1"",""1474""
","
","
","""event"",""trial"",""time""
""fullscreenenter"",""1"",""1474""
","
","","","","","","900","images/truck5.png","","","learning","5","5","1","1","truck","vehicles","1","1","","good","[5]"
"html-keyboard-response","217","856919","0.0-11.0-2.0-0.14","4062","2","20","Female","approach_avoid_spark_v1","""event"",""trial"",""time""
""fullscreenenter"",""1"",""1474""
","
","
","""event"",""trial"",""time""
""fullscreenenter"",""1"",""1474""
","
","","","","","","null","<div style=""font-size:60px;"">+</div>","null","","fixation","","","","","","","","","","",""
"aa-learning-trial","218","859927","0.0-11.0-2.0-1.14","4062","2","20","Female","approach_avoid_spark_v1","""event"",""trial"",""time""
""fullscreenenter"",""1"",""1474""
","
","
","""event"",""trial"",""time""
""fullscreenenter"",""1"",""1474""
","
","","","","","","837.5999999940395","images/boat3.png","","","learning","-2","0","0","0","boat","vehicles","1","1","","bad","[-4]"
"html-keyboard-response","219","860430","0.0-11.0-2.0-0.15","4062","2","20","Female","approach_avoid_spark_v1","""event"",""trial"",""time""
""fullscreenenter"",""1"",""1474""
","
","
","""event"",""trial"",""time""
""fullscreenenter"",""1"",""1474""
","
","","","","","","null","<div style=""font-size:60px;"">+</div>","null","","fixation","","","","","","","","","","",""
"aa-learning-trial","220","863438","0.0-11.0-2.0-1.15","4062","2","20","Female","approach_avoid_spark_v1","""event"",""trial"",""time""
""fullscreenenter"",""1"",""1474""
","
","
","""event"",""trial"",""time""
""fullscreenenter"",""1"",""1474""
","
","","","","","","706.8999999910593","images/truck2.png","","","learning","5","5","1","1","truck","vehicles","1","1","","good","[5]"
"html-keyboard-response","221","863942","0.0-11.0-2.0-0.16","4062","2","20","Female","approach_avoid_spark_v1","""event"",""trial"",""time""
""fullscreenenter"",""1"",""1474""
","
","
","""event"",""trial"",""time""
""fullscreenenter"",""1"",""1474""
","
","","","","","","null","<div style=""font-size:60px;"">+</div>","null","","fixation","","","","","","","","","","",""
"aa-learning-trial","222","866951","0.0-11.0-2.0-1.16","4062","2","20","Female","approach_avoid_spark_v1","""event"",""trial"",""time""
""fullscreenenter"",""1"",""1474""
","
","
","""event"",""trial"",""time""
""fullscreenenter"",""1"",""1474""
","
","","","","","","565.2999999970198","images/truck6.png","","","learning","3","3","1","1","truck","vehicles","1","1","","good","[5]"
"html-keyboard-response","223","867454","0.0-11.0-2.0-0.17","4062","2","20","Female","approach_avoid_spark_v1","""event"",""trial"",""time""
""fullscreenenter"",""1"",""1474""
","
","
","""event"",""trial"",""time""
""fullscreenenter"",""1"",""1474""
","
","","","","","","null","<div style=""font-size:60px;"">+</div>","null","","fixation","","","","","","","","","","",""
"aa-learning-trial","224","870462","0.0-11.0-2.0-1.17","4062","2","20","Female","approach_avoid_spark_v1","""event"",""trial"",""time""
""fullscreenenter"",""1"",""1474""
","
","
","""event"",""trial"",""time""
""fullscreenenter"",""1"",""1474""
","
","","","","","","603","images/boat4.png","","","learning","-4","0","0","0","boat","vehicles","1","1","","bad","[-4]"
"html-keyboard-response","225","870966","0.0-11.0-2.0-0.18","4062","2","20","Female","approach_avoid_spark_v1","""event"",""trial"",""time""
""fullscreenenter"",""1"",""1474""
","
","
","""event"",""trial"",""time""
""fullscreenenter"",""1"",""1474""
","
","","","","","","null","<div style=""font-size:60px;"">+</div>","null","","fixation","","","","","","","","","","",""
"aa-learning-trial","226","873974","0.0-11.0-2.0-1.18","4062","2","20","Female","approach_avoid_spark_v1","""event"",""trial"",""time""
""fullscreenenter"",""1"",""1474""
","
","
","""event"",""trial"",""time""
""fullscreenenter"",""1"",""1474""
","
","","","","","","670.4000000059605","images/boat3.png","","","learning","-3","0","0","0","boat","vehicles","1","1","","bad","[-4]"
"html-keyboard-response","227","874477","0.0-11.0-2.0-0.19","4062","2","20","Female","approach_avoid_spark_v1","""event"",""trial"",""time""
""fullscreenenter"",""1"",""1474""
","
","
","""event"",""trial"",""time""
""fullscreenenter"",""1"",""1474""
","
","","","","","","null","<div style=""font-size:60px;"">+</div>","null","","fixation","","","","","","","","","","",""
"aa-learning-trial","228","877486","0.0-11.0-2.0-1.19","4062","2","20","Female","approach_avoid_spark_v1","""event"",""trial"",""time""
""fullscreenenter"",""1"",""1474""
","
","
","""event"",""trial"",""time""
""fullscreenenter"",""1"",""1474""
","
","","","","","","1587.5999999940395","images/truck2.png","","","learning","6","6","1","1","truck","vehicles","1","1","","good","[5]"
"html-keyboard-response","229","877989","0.0-11.0-2.0-0.20","4062","2","20","Female","approach_avoid_spark_v1","""event"",""trial"",""time""
""fullscreenenter"",""1"",""1474""
","
","
","""event"",""trial"",""time""
""fullscreenenter"",""1"",""1474""
","
","","","","","","null","<div style=""font-size:60px;"">+</div>","null","","fixation","","","","","","","","","","",""
"aa-learning-trial","230","880998","0.0-11.0-2.0-1.20","4062","2","20","Female","approach_avoid_spark_v1","""event"",""trial"",""time""
""fullscreenenter"",""1"",""1474""
","
","
","""event"",""trial"",""time""
""fullscreenenter"",""1"",""1474""
","
","","","","","","667.5","images/truck5.png","","","learning","3","3","1","1","truck","vehicles","1","1","","good","[5]"
"html-keyboard-response","231","881501","0.0-11.0-2.0-0.21","4062","2","20","Female","approach_avoid_spark_v1","""event"",""trial"",""time""
""fullscreenenter"",""1"",""1474""
","
","
","""event"",""trial"",""time""
""fullscreenenter"",""1"",""1474""
","
","","","","","","null","<div style=""font-size:60px;"">+</div>","null","","fixation","","","","","","","","","","",""
"aa-learning-trial","232","884510","0.0-11.0-2.0-1.21","4062","2","20","Female","approach_avoid_spark_v1","""event"",""trial"",""time""
""fullscreenenter"",""1"",""1474""
","
","
","""event"",""trial"",""time""
""fullscreenenter"",""1"",""1474""
","
","","","","","","564.8999999910593","images/boat3.png","","","learning","-3","0","0","0","boat","vehicles","1","1","","bad","[-4]"
"html-keyboard-response","233","885013","0.0-11.0-2.0-0.22","4062","2","20","Female","approach_avoid_spark_v1","""event"",""trial"",""time""
""fullscreenenter"",""1"",""1474""
","
","
","""event"",""trial"",""time""
""fullscreenenter"",""1"",""1474""
","
","","","","","","null","<div style=""font-size:60px;"">+</div>","null","","fixation","","","","","","","","","","",""
"aa-learning-trial","234","888021","0.0-11.0-2.0-1.22","4062","2","20","Female","approach_avoid_spark_v1","""event"",""trial"",""time""
""fullscreenenter"",""1"",""1474""
","
","
","""event"",""trial"",""time""
""fullscreenenter"",""1"",""1474""
","
","","","","","","727.9000000059605","images/boat8.png","","","learning","-5","0","0","0","boat","vehicles","1","1","","bad","[-4]"
"html-keyboard-response","235","888525","0.0-11.0-2.0-0.23","4062","2","20","Female","approach_avoid_spark_v1","""event"",""trial"",""time""
""fullscreenenter"",""1"",""1474""
","
","
","""event"",""trial"",""time""
""fullscreenenter"",""1"",""1474""
","
","","","","","","null","<div style=""font-size:60px;"">+</div>","null","","fixation","","","","","","","","","","",""
"aa-learning-trial","236","891533","0.0-11.0-2.0-1.23","4062","2","20","Female","approach_avoid_spark_v1","""event"",""trial"",""time""
""fullscreenenter"",""1"",""1474""
","
","
","""event"",""trial"",""time""
