"trial_type","trial_index","time_elapsed","internal_node_id","subject_id","task_condition","age","gender","task_version","interactions","blur_events","focus_events","fullscreenenter_events","fullscreenexit_events","success","timeout","failed_images","failed_audio","failed_video","rt","stimulus","response","button_pressed","task_part","approach_reward","points","key_press","option_selected","stim_cat","task_block","block_condition","block_number","correct","cat_type","mean_cat_reward"
"pavlovia","0","8","0.0-0.0","7695","1","8","Male","approach_avoid_spark_v1","""event"",""trial"",""time""
""fullscreenenter"",""1"",""2760""
","
","
","""event"",""trial"",""time""
""fullscreenenter"",""1"",""2760""
","
","","","","","","","","","","","","","","","","","","","","",""
"fullscreen","1","3741","0.0-1.0","7695","1","8","Male","approach_avoid_spark_v1","""event"",""trial"",""time""
""fullscreenenter"",""1"",""2760""
","
","
","""event"",""trial"",""time""
""fullscreenenter"",""1"",""2760""
","
","true","","","","","","","","","","","","","","","","","","","",""
"preload","2","7333","0.0-2.0","7695","1","8","Male","approach_avoid_spark_v1","""event"",""trial"",""time""
""fullscreenenter"",""1"",""2760""
","
","
","""event"",""trial"",""time""
""fullscreenenter"",""1"",""2760""
","
","true","false","[]","[]","[]","","","","","","","","","","","","","","","",""
"audio-keyboard-response","3","25459","0.0-3.0","7695","1","8","Male","approach_avoid_spark_v1","""event"",""trial"",""time""
""fullscreenenter"",""1"",""2760""
","
","
","""event"",""trial"",""time""
""fullscreenenter"",""1"",""2760""
","
","","","","","","18120","audio/beep_loop.wav"," ","","","","","","","","","","","","",""
"audio-button-response","4","49449","0.0-4.0","7695","1","8","Male","approach_avoid_spark_v1","""event"",""trial"",""time""
""fullscreenenter"",""1"",""2760""
","
","
","""event"",""trial"",""time""
""fullscreenenter"",""1"",""2760""
","
","","","","","","23981","audio/shark.wav","0","","","","","","","","","","","","",""
"audio-button-response","5","58738","0.0-5.0","7695","1","8","Male","approach_avoid_spark_v1","""event"",""trial"",""time""
""fullscreenenter"",""1"",""2760""
","
","
","""event"",""trial"",""time""
""fullscreenenter"",""1"",""2760""
","
","","","","","","8272","audio/turtle.wav","0","","","","","","","","","","","","",""
"preload","6","61196","0.0-6.0","7695","1","8","Male","approach_avoid_spark_v1","""event"",""trial"",""time""
""fullscreenenter"",""1"",""2760""
","
","
","""event"",""trial"",""time""
""fullscreenenter"",""1"",""2760""
","
","true","false","[]","[]","[]","","","","","","","","","","","","","","","",""
"html-keyboard-response","7","63937","0.0-7.0","7695","1","8","Male","approach_avoid_spark_v1","""event"",""trial"",""time""
""fullscreenenter"",""1"",""2760""
","
","
","""event"",""trial"",""time""
""fullscreenenter"",""1"",""2760""
","
","","","","","","2739.9000000953674","Welcome to the experiment. Press any key to begin and to advance the instructions."," ","","","","","","","","","","","","",""
"learning-instructions","8","74034","0.0-8.0-0.0-0.0","7695","1","8","Male","approach_avoid_spark_v1","""event"",""trial"",""time""
""fullscreenenter"",""1"",""2760""
","
","
","""event"",""trial"",""time""
""fullscreenenter"",""1"",""2760""
","
","","","","","","3144.5","<p> Welcome! Today you are going to play 6 different rounds of a decision-making game. </p><p> Use the mouse to click next to continue. </p>","","0","instructions","","","","","","","","","","",""
"learning-instructions","9","78449","0.0-8.0-0.0-0.1","7695","1","8","Male","approach_avoid_spark_v1","""event"",""trial"",""time""
""fullscreenenter"",""1"",""2760""
","
","
","""event"",""trial"",""time""
""fullscreenenter"",""1"",""2760""
","
","","","","","","1679.4000000953674","<p> You will start with a practice round to learn the rules. </p>","","0","instructions","","","","","","","","","","",""
"learning-instructions","10","84164","0.0-8.0-0.0-0.2","7695","1","8","Male","approach_avoid_spark_v1","""event"",""trial"",""time""
""fullscreenenter"",""1"",""2760""
","
","
","""event"",""trial"",""time""
""fullscreenenter"",""1"",""2760""
","
","","","","","","2254.5","<p> Your goal in this round is to give out sports equipment to kids. </p></div>","","0","instructions","","","","","","","","","","",""
"learning-instructions","11","93558","0.0-8.0-0.0-0.3","7695","1","8","Male","approach_avoid_spark_v1","""event"",""trial"",""time""
""fullscreenenter"",""1"",""2760""
","
","
","""event"",""trial"",""time""
""fullscreenenter"",""1"",""2760""
","
","","","","","","1838.8999996185303","<p> The kids only like some of the equipment.  </p><p> On each turn, you will see a piece of sports equipment.   </p><p> You need to decide whether to give it to the kids or not.  </p>","","0","instructions","","","","","","","","","","",""
"learning-instructions","12","99384","0.0-8.0-0.0-0.4","7695","1","8","Male","approach_avoid_spark_v1","""event"",""trial"",""time""
""fullscreenenter"",""1"",""2760""
","
","
","""event"",""trial"",""time""
""fullscreenenter"",""1"",""2760""
","
","","","","","","1074.6000003814697","<p> You can give them the equipment by pressing 1 and choose not to give it to them by pressing 0. </p><br><div class=""choice-instructions-grid""> <div class=""choice-option""><img src=""images/approach.png"" class=""choice-option-img"" stage=""instructions"" position=""0"" ><div class=""choice-option-text""> Press ""1."" </div></div><div class=""choice-option""><img src=""images/avoid.png"" class=""choice-option-img"" stage=""instructions"" position=""1"" ><div class=""choice-option-text""> Press ""0."" </div></div>","","0","instructions","","","","","","","","","","",""
"learning-instructions","13","108937","0.0-8.0-0.0-0.5","7695","1","8","Male","approach_avoid_spark_v1","""event"",""trial"",""time""
""fullscreenenter"",""1"",""2760""
","
","
","""event"",""trial"",""time""
""fullscreenenter"",""1"",""2760""
","
","","","","","","2177.4000000953674","<p> If you give them a piece of equipment they like, they will be happy! </p><p> But if you give them a piece of equipment they do not like, they will be sad. </p>","","0","instructions","","","","","","","","","","",""
"learning-instructions","14","120623","0.0-8.0-0.0-0.6","7695","1","8","Male","approach_avoid_spark_v1","""event"",""trial"",""time""
""fullscreenenter"",""1"",""2760""
","
","
","""event"",""trial"",""time""
""fullscreenenter"",""1"",""2760""
","
","","","","","","1173.7999997138977","<p> You will earn points based on how you make kids feel. </p><p> If you make them happy, you will WIN anywhere from 1 - 9 points, </p><p> but if you make them sad, you will LOSE anywhere from 1 - 9 points. </p>","","0","instructions","","","","","","","","","","",""
"learning-instructions","15","132460","0.0-8.0-0.0-0.7","7695","1","8","Male","approach_avoid_spark_v1","""event"",""trial"",""time""
""fullscreenenter"",""1"",""2760""
","
","
","""event"",""trial"",""time""
""fullscreenenter"",""1"",""2760""
","
","","","","","","2270.2000002861023","<p> You will see how many points you won or lost in the center of the screen. </p><p> Here is what you would see if you won 6 points: </p><p style=""color:green;font-size:50px;font-weight:bolder"">6</p><p style=""color:green"">The text is GREEN because you WON points.</p>","","0","instructions","","","","","","","","","","",""
"learning-instructions","16","139829","0.0-8.0-0.0-0.8","7695","1","8","Male","approach_avoid_spark_v1","""event"",""trial"",""time""
""fullscreenenter"",""1"",""2760""
","
","
","""event"",""trial"",""time""
""fullscreenenter"",""1"",""2760""
","
","","","","","","1869.0999999046326","<p> And here is what you would see if you lost 4 points: </p><p style=""color:red;font-size:50px;font-weight:bolder"">-4</p><p style=""color:red"">The text is RED because you LOST points. </p>","","0","instructions","","","","","","","","","","",""
"learning-instructions","17","157344","0.0-8.0-0.0-0.9","7695","1","8","Male","approach_avoid_spark_v1","""event"",""trial"",""time""
""fullscreenenter"",""1"",""2760""
","
","
","""event"",""trial"",""time""
""fullscreenenter"",""1"",""2760""
","
","","","","","","2804.4000000953674","<p> Some of the equipment will make the kids VERY happy or sad. </p><p> These pieces of equipment will make you win or lose LOTS of points. </p><p> Other pieces of equipment will only make the kids a little happy or sad. </p><p> These pieces of equipment will make you win or lose small amounts of points. </p>","","0","instructions","","","","","","","","","","",""
"learning-instructions","18","169855","0.0-8.0-0.0-0.10","7695","1","8","Male","approach_avoid_spark_v1","""event"",""trial"",""time""
""fullscreenenter"",""1"",""2760""
","
","
","""event"",""trial"",""time""
""fullscreenenter"",""1"",""2760""
","
","","","","","","1884.8000001907349","<p> If you choose not to give them the equipment, you will not win or lose any points. </p><p>  However, in the center of the screen, you will see the number of points you WOULD HAVE won or lost if you had given them the equipment. </p>","","0","instructions","","","","","","","","","","",""
"learning-instructions","19","203095","0.0-8.0-0.0-0.11","7695","1","8","Male","approach_avoid_spark_v1","""event"",""trial"",""time""
""fullscreenenter"",""1"",""2760""
","
","
","""event"",""trial"",""time""
""fullscreenenter"",""1"",""2760""
","
","","","","","","11705.89999961853","<p> Here is what you might see if you did not give the equipment to the kids but it would have made them happy: </p><p style=""color:grey; font-size:50px; display: inline-block; border-spacing: 15px; border-width:3px; border-style:solid; border-color:red"">  &nbsp; 7 &nbsp; </p><p> Remember, in this case, you would not win or lose ANY points because you did not give them the equipment.  </p><p style=""color:grey"">The text is GREY because you earned ZERO points. </p><p style=""color:red"">However, choosing to give the kids the equipment would have made you win points. The box around the text is RED because you chose the worse option. </p>","","0","instructions","","","","","","","","","","",""
"learning-instructions","20","225533","0.0-8.0-0.0-0.12","7695","1","8","Male","approach_avoid_spark_v1","""event"",""trial"",""time""
""fullscreenenter"",""1"",""2760""
","
","
","""event"",""trial"",""time""
""fullscreenenter"",""1"",""2760""
","
","","","","","","1362.7000002861023","<p> Here is what you might see if you did not give the equipment to the kids but it would have made them sad: </p><p style=""color:grey;font-size:50px; display: inline-block; border-spacing: 15px; border-width:3px; border-style:solid; border-color:green"">  &nbsp; -8 &nbsp; </p><p> Remember, in this case, you would not win or lose ANY points because you did not give them the equipment.  </p><p style=""color:grey"">The text is GREY because you earned ZERO points. </p><p  style=""color:green""> Choosing to give the kids the equipment would have made you lose points. The box around the text is GREEN because you chose the better option.</p>","","0","instructions","","","","","","","","","","",""
"learning-instructions","21","235606","0.0-8.0-0.0-0.13","7695","1","8","Male","approach_avoid_spark_v1","""event"",""trial"",""time""
""fullscreenenter"",""1"",""2760""
","
","
","""event"",""trial"",""time""
""fullscreenenter"",""1"",""2760""
","
","","","","","","827.0999999046326","<p> You will have 3 seconds to make each choice. Try to respond before time runs out! </p><p> You will lose 5 points each time you do not make a response. </p>","","0","instructions","","","","","","","","","","",""
"learning-instructions","22","242796","0.0-8.0-0.0-0.14","7695","1","8","Male","approach_avoid_spark_v1","""event"",""trial"",""time""
""fullscreenenter"",""1"",""2760""
","
","
","""event"",""trial"",""time""
""fullscreenenter"",""1"",""2760""
","
","","","","","","1776.9000000953674","<p> This is just a practice round, but in the real game, your bonus payment will depend on your total number of points.","","0","instructions","","","","","","","","","","",""
"learning-instructions","23","253918","0.0-8.0-0.0-0.15","7695","1","8","Male","approach_avoid_spark_v1","""event"",""trial"",""time""
""fullscreenenter"",""1"",""2760""
","
","
","""event"",""trial"",""time""
""fullscreenenter"",""1"",""2760""
","
","","","","","","5357.599999904633","<p> Remember, you can give them the equipment by pressing 1 and choose not to give it to them by pressing 0. </p><br><div class=""choice-instructions-grid""> <div class=""choice-option""><img src=""images/approach.png"" class=""choice-option-img"" stage=""instructions"" position=""0"" ><div class=""choice-option-text""> Press ""1."" </div></div><div class=""choice-option""><img src=""images/avoid.png"" class=""choice-option-img"" stage=""instructions"" position=""1"" ><div class=""choice-option-text""> Press ""0."" </div></div>","","0","instructions","","","","","","","","","","",""
"html-button-response","24","256682","0.0-8.0-1.0","7695","1","8","Male","approach_avoid_spark_v1","""event"",""trial"",""time""
""fullscreenenter"",""1"",""2760""
","
","
","""event"",""trial"",""time""
""fullscreenenter"",""1"",""2760""
","
","","","","","","2642.5","<p> Ready to practice? </p>","0","","","","","","","","","","","","",""
"html-keyboard-response","25","257287","0.0-8.0-2.0-0.0","7695","1","8","Male","approach_avoid_spark_v1","""event"",""trial"",""time""
""fullscreenenter"",""1"",""2760""
","
","
","""event"",""trial"",""time""
""fullscreenenter"",""1"",""2760""
","
","","","","","","null","<div style=""font-size:60px;"">+</div>","null","","fixation","","","","","","","","","","",""
"aa-learning-trial","26","260294","0.0-8.0-2.0-1.0","7695","1","8","Male","approach_avoid_spark_v1","""event"",""trial"",""time""
""fullscreenenter"",""1"",""2760""
","
","
","""event"",""trial"",""time""
""fullscreenenter"",""1"",""2760""
","
","","","","","","null","images/ball1.png","","","learning","-3","-5","","null","practice","practice","practice","-1","","",""
"html-keyboard-response","27","260808","0.0-8.0-2.0-0.1","7695","1","8","Male","approach_avoid_spark_v1","""event"",""trial"",""time""
""fullscreenenter"",""1"",""2760""
","
","
","""event"",""trial"",""time""
""fullscreenenter"",""1"",""2760""
","
","","","","","","null","<div style=""font-size:60px;"">+</div>","null","","fixation","","","","","","","","","","",""
"aa-learning-trial","28","263824","0.0-8.0-2.0-1.1","7695","1","8","Male","approach_avoid_spark_v1","""event"",""trial"",""time""
""fullscreenenter"",""1"",""2760""
","
","
","""event"",""trial"",""time""
""fullscreenenter"",""1"",""2760""
","
","","","","","","2202","images/ball3.png","","","learning","-9","-9","1","1","practice","practice","practice","-1","","",""
"html-keyboard-response","29","264339","0.0-8.0-2.0-0.2","7695","1","8","Male","approach_avoid_spark_v1","""event"",""trial"",""time""
""fullscreenenter"",""1"",""2760""
","
","
","""event"",""trial"",""time""
""fullscreenenter"",""1"",""2760""
","
","","","","","","null","<div style=""font-size:60px;"">+</div>","null","","fixation","","","","","","","","","","",""
"aa-learning-trial","30","267358","0.0-8.0-2.0-1.2","7695","1","8","Male","approach_avoid_spark_v1","""event"",""trial"",""time""
""fullscreenenter"",""1"",""2760""
","
","
","""event"",""trial"",""time""
""fullscreenenter"",""1"",""2760""
","
","","","","","","1705.6999998092651","images/ball4.png","","","learning","-3","0","0","0","practice","practice","practice","-1","","",""
"html-keyboard-response","31","267868","0.0-8.0-2.0-0.3","7695","1","8","Male","approach_avoid_spark_v1","""event"",""trial"",""time""
""fullscreenenter"",""1"",""2760""
","
","
","""event"",""trial"",""time""
""fullscreenenter"",""1"",""2760""
","
","","","","","","null","<div style=""font-size:60px;"">+</div>","null","","fixation","","","","","","","","","","",""
"aa-learning-trial","32","270878","0.0-8.0-2.0-1.3","7695","1","8","Male","approach_avoid_spark_v1","""event"",""trial"",""time""
""fullscreenenter"",""1"",""2760""
","
","
","""event"",""trial"",""time""
""fullscreenenter"",""1"",""2760""
","
","","","","","","1837.1999998092651","images/racket1.png","","","learning","-3","0","0","0","practice","practice","practice","-1","","",""
"html-keyboard-response","33","271398","0.0-8.0-2.0-0.4","7695","1","8","Male","approach_avoid_spark_v1","""event"",""trial"",""time""
""fullscreenenter"",""1"",""2760""
","
","
","""event"",""trial"",""time""
""fullscreenenter"",""1"",""2760""
","
","","","","","","null","<div style=""font-size:60px;"">+</div>","null","","fixation","","","","","","","","","","",""
"aa-learning-trial","34","274418","0.0-8.0-2.0-1.4","7695","1","8","Male","approach_avoid_spark_v1","""event"",""trial"",""time""
""fullscreenenter"",""1"",""2760""
","
","
","""event"",""trial"",""time""
""fullscreenenter"",""1"",""2760""
","
","","","","","","1422.4000000953674","images/ball2.png","","","learning","5","0","0","0","practice","practice","practice","-1","","",""
"html-keyboard-response","35","274928","0.0-8.0-2.0-0.5","7695","1","8","Male","approach_avoid_spark_v1","""event"",""trial"",""time""
""fullscreenenter"",""1"",""2760""
","
","
","""event"",""trial"",""time""
""fullscreenenter"",""1"",""2760""
","
","","","","","","null","<div style=""font-size:60px;"">+</div>","null","","fixation","","","","","","","","","","",""
"aa-learning-trial","36","277948","0.0-8.0-2.0-1.5","7695","1","8","Male","approach_avoid_spark_v1","""event"",""trial"",""time""
""fullscreenenter"",""1"",""2760""
","
","
","""event"",""trial"",""time""
""fullscreenenter"",""1"",""2760""
","
","","","","","","1269.7999997138977","images/ball3.png","","","learning","4","0","0","0","practice","practice","practice","-1","","",""
"html-keyboard-response","37","278458","0.0-8.0-2.0-0.6","7695","1","8","Male","approach_avoid_spark_v1","""event"",""trial"",""time""
""fullscreenenter"",""1"",""2760""
","
","
","""event"",""trial"",""time""
""fullscreenenter"",""1"",""2760""
","
","","","","","","null","<div style=""font-size:60px;"">+</div>","null","","fixation","","","","","","","","","","",""
"aa-learning-trial","38","281470","0.0-8.0-2.0-1.6","7695","1","8","Male","approach_avoid_spark_v1","""event"",""trial"",""time""
""fullscreenenter"",""1"",""2760""
","
","
","""event"",""trial"",""time""
""fullscreenenter"",""1"",""2760""
","
","","","","","","427.40000009536743","images/racket1.png","","","learning","-6","-6","1","1","practice","practice","practice","-1","","",""
"html-keyboard-response","39","281973","0.0-8.0-2.0-0.7","7695","1","8","Male","approach_avoid_spark_v1","""event"",""trial"",""time""
""fullscreenenter"",""1"",""2760""
","
","
","""event"",""trial"",""time""
""fullscreenenter"",""1"",""2760""
","
","","","","","","null","<div style=""font-size:60px;"">+</div>","null","","fixation","","","","","","","","","","",""
"aa-learning-trial","40","284979","0.0-8.0-2.0-1.7","7695","1","8","Male","approach_avoid_spark_v1","""event"",""trial"",""time""
""fullscreenenter"",""1"",""2760""
","
","
","""event"",""trial"",""time""
""fullscreenenter"",""1"",""2760""
","
","","","","","","1002.9000000953674","images/ball4.png","","","learning","9","0","0","0","practice","practice","practice","-1","","",""
"html-keyboard-response","41","285489","0.0-8.0-2.0-0.8","7695","1","8","Male","approach_avoid_spark_v1","""event"",""trial"",""time""
""fullscreenenter"",""1"",""2760""
","
","
","""event"",""trial"",""time""
""fullscreenenter"",""1"",""2760""
","
","","","","","","null","<div style=""font-size:60px;"">+</div>","null","","fixation","","","","","","","","","","",""
"aa-learning-trial","42","288493","0.0-8.0-2.0-1.8","7695","1","8","Male","approach_avoid_spark_v1","""event"",""trial"",""time""
""fullscreenenter"",""1"",""2760""
","
","
","""event"",""trial"",""time""
""fullscreenenter"",""1"",""2760""
","
","","","","","","1051.5","images/ball1.png","","","learning","-8","0","0","0","practice","practice","practice","-1","","",""
"html-keyboard-response","43","288997","0.0-8.0-2.0-0.9","7695","1","8","Male","approach_avoid_spark_v1","""event"",""trial"",""time""
""fullscreenenter"",""1"",""2760""
","
","
","""event"",""trial"",""time""
""fullscreenenter"",""1"",""2760""
","
","","","","","","null","<div style=""font-size:60px;"">+</div>","null","","fixation","","","","","","","","","","",""
"aa-learning-trial","44","292014","0.0-8.0-2.0-1.9","7695","1","8","Male","approach_avoid_spark_v1","""event"",""trial"",""time""
""fullscreenenter"",""1"",""2760""
","
","
","""event"",""trial"",""time""
""fullscreenenter"",""1"",""2760""
","
","","","","","","1106.5","images/ball3.png","","","learning","4","0","0","0","practice","practice","practice","-1","","",""
"html-keyboard-response","45","292517","0.0-8.0-2.0-0.10","7695","1","8","Male","approach_avoid_spark_v1","""event"",""trial"",""time""
""fullscreenenter"",""1"",""2760""
","
","
","""event"",""trial"",""time""
""fullscreenenter"",""1"",""2760""
","
","","","","","","null","<div style=""font-size:60px;"">+</div>","null","","fixation","","","","","","","","","","",""
"aa-learning-trial","46","295529","0.0-8.0-2.0-1.10","7695","1","8","Male","approach_avoid_spark_v1","""event"",""trial"",""time""
""fullscreenenter"",""1"",""2760""
","
","
","""event"",""trial"",""time""
""fullscreenenter"",""1"",""2760""
","
","","","","","","513","images/ball2.png","","","learning","-2","-2","1","1","practice","practice","practice","-1","","",""
"html-keyboard-response","47","296040","0.0-8.0-2.0-0.11","7695","1","8","Male","approach_avoid_spark_v1","""event"",""trial"",""time""
""fullscreenenter"",""1"",""2760""
","
","
","""event"",""trial"",""time""
""fullscreenenter"",""1"",""2760""
","
","","","","","","null","<div style=""font-size:60px;"">+</div>","null","","fixation","","","","","","","","","","",""
"aa-learning-trial","48","299049","0.0-8.0-2.0-1.11","7695","1","8","Male","approach_avoid_spark_v1","""event"",""trial"",""time""
""fullscreenenter"",""1"",""2760""
","
","
","""event"",""trial"",""time""
""fullscreenenter"",""1"",""2760""
","
","","","","","","1699.5999999046326","images/racket4.png","","","learning","5","5","1","1","practice","practice","practice","-1","","",""
"html-button-response","49","301476","0.0-8.0-3.0","7695","1","8","Male","approach_avoid_spark_v1","""event"",""trial"",""time""
""fullscreenenter"",""1"",""2760""
","
","
","""event"",""trial"",""time""
""fullscreenenter"",""1"",""2760""
","
","","","","","","2425","<p> You earned -17 points in the practice round! </p>","0","","break","","","","","","","","","","",""
"learning-instructions","50","309629","0.0-8.0-4.0-0.0","7695","1","8","Male","approach_avoid_spark_v1","""event"",""trial"",""time""
""fullscreenenter"",""1"",""2760""
","
","
","""event"",""trial"",""time""
""fullscreenenter"",""1"",""2760""
","
","","","","","","1568.6999998092651","<p> It's almost time to start the real game. </p><p> Before you start, we're going to ask you a few questions about how the game works. </p>","","0","instructions","","","","","","","","","","",""
"preload","51","311072","0.0-8.0-5.0","7695","1","8","Male","approach_avoid_spark_v1","""event"",""trial"",""time""
""fullscreenenter"",""1"",""2760""
","
","
","""event"",""trial"",""time""
""fullscreenenter"",""1"",""2760""
","
","true","false","[]","[]","[]","","","","","","","","","","","","","","","",""
"comp-q","52","317879","0.0-8.0-6.0-0.0","7695","1","8","Male","approach_avoid_spark_v1","""event"",""trial"",""time""
""fullscreenenter"",""1"",""2760""
","
","
","""event"",""trial"",""time""
""fullscreenenter"",""1"",""2760""
","
","","","","","","1807.8000001907349","<p> <b> True or False? </b> </p><p> If you see a number in GREY, that means you earned that many points. </p>","","1","comp_question","","","","","","","","","true","",""
"comp-q","53","327860","0.0-8.0-6.0-1.0","7695","1","8","Male","approach_avoid_spark_v1","""event"",""trial"",""time""
""fullscreenenter"",""1"",""2760""
","
","
","""event"",""trial"",""time""
""fullscreenenter"",""1"",""2760""
","
","","","","","","1599.6999998092651","<p><b> That's right! </b> If you see a grey number, it means you earned ZERO points. <br> The grey numbers show the points you WOULD HAVE earned if you had made the other choice. </p>","","0","comp_answer","","","","","","","","","","",""
"comp-q","54","334196","0.0-8.0-7.0-0.0","7695","1","8","Male","approach_avoid_spark_v1","""event"",""trial"",""time""
""fullscreenenter"",""1"",""2760""
","
","
","""event"",""trial"",""time""
""fullscreenenter"",""1"",""2760""
","
","","","","","","1636.5","<p> <b> True or False? </b> </p><p> You will have as much time as you want to make each choice. </p>","","1","comp_question","","","","","","","","","true","",""
"comp-q","55","339502","0.0-8.0-7.0-1.0","7695","1","8","Male","approach_avoid_spark_v1","""event"",""trial"",""time""
""fullscreenenter"",""1"",""2760""
","
","
","""event"",""trial"",""time""
""fullscreenenter"",""1"",""2760""
","
","","","","","","1252.5999999046326","<p> <b> That's right! </b> You will only have 3 seconds to make each choice. </p>","","0","comp_answer","","","","","","","","","","",""
"comp-q","56","345510","0.0-8.0-8.0-0.0","7695","1","8","Male","approach_avoid_spark_v1","""event"",""trial"",""time""
""fullscreenenter"",""1"",""2760""
","
","
","""event"",""trial"",""time""
""fullscreenenter"",""1"",""2760""
","
","","","","","","1350.7999997138977","<p> <b> True or False? </b> </p><p> You should use the '1' and '0' keys to make your choices. </p>","","0","comp_question","","","","","","","","","true","",""
"comp-q","57","351604","0.0-8.0-8.0-1.0","7695","1","8","Male","approach_avoid_spark_v1","""event"",""trial"",""time""
""fullscreenenter"",""1"",""2760""
","
","
","""event"",""trial"",""time""
""fullscreenenter"",""1"",""2760""
","
","","","","","","1464","<p> <b> That's right! </b> You should use the '1' and '0' keys to make each choice. </p>","","0","comp_answer","","","","","","","","","","",""
"learning-instructions","58","361027","0.0-8.0-9.0-0.0","7695","1","8","Male","approach_avoid_spark_v1","""event"",""trial"",""time""
""fullscreenenter"",""1"",""2760""
","
","
","""event"",""trial"",""time""
""fullscreenenter"",""1"",""2760""
","
","","","","","","3137.300000190735","<p> It's now time to start the real game. </p>Do your best, because the points you earn in the next rounds will influence your bonus payment. </p>","","0","instructions","","","","","","","","","","",""
"preload","59","361176","0.0-9.0-0.0","7695","1","8","Male","approach_avoid_spark_v1","""event"",""trial"",""time""
""fullscreenenter"",""1"",""2760""
","
","
","""event"",""trial"",""time""
""fullscreenenter"",""1"",""2760""
","
","true","false","[]","[]","[]","","","","","","","","","","","","","","","",""
"learning-instructions","60","366920","0.0-9.0-1.0-0.0","7695","1","8","Male","approach_avoid_spark_v1","""event"",""trial"",""time""
""fullscreenenter"",""1"",""2760""
","
","
","""event"",""trial"",""time""
""fullscreenenter"",""1"",""2760""
","
","","","","","","1570.5999999046326","<p> Your goal in this round is to take care of lots of animals. </p></div>","","0","instructions","","","","","","","","","","",""
"learning-instructions","61","377697","0.0-9.0-1.0-0.1","7695","1","8","Male","approach_avoid_spark_v1","""event"",""trial"",""time""
""fullscreenenter"",""1"",""2760""
","
","
","""event"",""trial"",""time""
""fullscreenenter"",""1"",""2760""
","
","","","","","","1357.0999999046326","<p> Some animals want to be pet, while other animals want to be left alone.  </p><p> On each turn, you will see an animal.   </p><p> You need to decide whether to pet it or not.  </p>","","0","instructions","","","","","","","","","","",""
"learning-instructions","62","383712","0.0-9.0-1.0-0.2","7695","1","8","Male","approach_avoid_spark_v1","""event"",""trial"",""time""
""fullscreenenter"",""1"",""2760""
","
","
","""event"",""trial"",""time""
""fullscreenenter"",""1"",""2760""
","
","","","","","","962","<p> You can pet the animal by pressing 1 and leave the animal alone by pressing 0. </p><br><div class=""choice-instructions-grid""> <div class=""choice-option""><img src=""images/approach.png"" class=""choice-option-img"" stage=""instructions"" position=""0"" ><div class=""choice-option-text""> Press ""1."" </div></div><div class=""choice-option""><img src=""images/avoid.png"" class=""choice-option-img"" stage=""instructions"" position=""1"" ><div class=""choice-option-text""> Press ""0."" </div></div>","","0","instructions","","","","","","","","","","",""
"learning-instructions","63","397250","0.0-9.0-1.0-0.3","7695","1","8","Male","approach_avoid_spark_v1","""event"",""trial"",""time""
""fullscreenenter"",""1"",""2760""
","
","
","""event"",""trial"",""time""
""fullscreenenter"",""1"",""2760""
","
","","","","","","4779.699999809265","<p> If you pet an animal that wants to be pet, you will make it feel happy! </p><p> But if you pet an animal that wants to be left alone, you will make it feel angry. </p>","","0","instructions","","","","","","","","","","",""
"learning-instructions","64","411239","0.0-9.0-1.0-0.4","7695","1","8","Male","approach_avoid_spark_v1","""event"",""trial"",""time""
""fullscreenenter"",""1"",""2760""
","
","
","""event"",""trial"",""time""
""fullscreenenter"",""1"",""2760""
","
","","","","","","1679.6999998092651","<p> You will earn points based on how you made the animal feel. </p><p> If you made it feel happy, you will WIN anywhere from 1 - 9 points, </p><p> but if you made it feel angry, you will LOSE anywhere from 1 - 9 points. </p>","","0","instructions","","","","","","","","","","",""
"learning-instructions","65","420659","0.0-9.0-1.0-0.5","7695","1","8","Male","approach_avoid_spark_v1","""event"",""trial"",""time""
""fullscreenenter"",""1"",""2760""
","
","
","""event"",""trial"",""time""
""fullscreenenter"",""1"",""2760""
","
","","","","","","1649.4000000953674","<p> You will see how many points you won or lost in the center of the screen. </p><p> Here is what you would see if you won 5 points: </p><p style=""color:green;font-size:50px;font-weight:bolder"">5</p>","","0","instructions","","","","","","","","","","",""
"learning-instructions","66","424939","0.0-9.0-1.0-0.6","7695","1","8","Male","approach_avoid_spark_v1","""event"",""trial"",""time""
""fullscreenenter"",""1"",""2760""
","
","
","""event"",""trial"",""time""
""fullscreenenter"",""1"",""2760""
","
","","","","","","749.2999997138977","<p> And here is what you would see if you lost 3 points: </p><p style=""color:red;font-size:50px;font-weight:bolder"">-3</p>","","0","instructions","","","","","","","","","","",""
"learning-instructions","67","440839","0.0-9.0-1.0-0.7","7695","1","8","Male","approach_avoid_spark_v1","""event"",""trial"",""time""
""fullscreenenter"",""1"",""2760""
","
","
","""event"",""trial"",""time""
""fullscreenenter"",""1"",""2760""
","
","","","","","","2179.2999997138977","<p> Some animals will become very happy or very angry. </p><p> These animals will make you win or lose LOTS of points. </p><p> Other animals have less strong feelings. </p><p> These animals will make you win or lose small amounts of points. </p>","","0","instructions","","","","","","","","","","",""
"learning-instructions","68","453484","0.0-9.0-1.0-0.8","7695","1","8","Male","approach_avoid_spark_v1","""event"",""trial"",""time""
""fullscreenenter"",""1"",""2760""
","
","
","""event"",""trial"",""time""
""fullscreenenter"",""1"",""2760""
","
","","","","","","1435","<p> If you choose to leave the animal alone, you will not win or lose any points. </p><p>  However, in the center of the screen, you will see the number of points you WOULD HAVE won or lost if you had pet the animal. </p>","","0","instructions","","","","","","","","","","",""
"learning-instructions","69","465229","0.0-9.0-1.0-0.9","7695","1","8","Male","approach_avoid_spark_v1","""event"",""trial"",""time""
""fullscreenenter"",""1"",""2760""
","
","
","""event"",""trial"",""time""
""fullscreenenter"",""1"",""2760""
","
","","","","","","319.59999990463257","<p> Here is what you might see if you did not pet the animal but the animal wanted to be pet: </p><p style=""color:grey; font-size:50px; display: inline-block; border-spacing: 15px; border-width:3px; border-style:solid; border-color:red"">  &nbsp; 6 &nbsp; </p><p> Remember, in this case, you would not win or lose ANY points because you did not pet the animal.  </p>","","0","instructions","","","","","","","","","","",""
"learning-instructions","70","473998","0.0-9.0-1.0-0.10","7695","1","8","Male","approach_avoid_spark_v1","""event"",""trial"",""time""
""fullscreenenter"",""1"",""2760""
","
","
","""event"",""trial"",""time""
""fullscreenenter"",""1"",""2760""
","
","","","","","","1669.3000001907349","<p> Try to make the best choice for each animal because </p><p> at the end of the game, you will earn bonus money based on how many points you earned. </p>","","0","instructions","","","","","","","","","","",""
"learning-instructions","71","483878","0.0-9.0-1.0-0.11","7695","1","8","Male","approach_avoid_spark_v1","""event"",""trial"",""time""
""fullscreenenter"",""1"",""2760""
","
","
","""event"",""trial"",""time""
""fullscreenenter"",""1"",""2760""
","
","","","","","","1678.3000001907349","<p> You will have 3 seconds to make each choice. Try to respond before time runs out! </p><p> You will lose 5 points each time you do not make a response. </p>","","0","instructions","","","","","","","","","","",""
"html-keyboard-response","72","484507","0.0-9.0-2.0-0.0","7695","1","8","Male","approach_avoid_spark_v1","""event"",""trial"",""time""
""fullscreenenter"",""1"",""2760""
","
","
","""event"",""trial"",""time""
""fullscreenenter"",""1"",""2760""
","
","","","","","","null","<div style=""font-size:60px;"">+</div>","null","","fixation","","","","","","","","","","",""
"aa-learning-trial","73","487517","0.0-9.0-2.0-1.0","7695","1","8","Male","approach_avoid_spark_v1","""event"",""trial"",""time""
""fullscreenenter"",""1"",""2760""
","
","
","""event"",""trial"",""time""
""fullscreenenter"",""1"",""2760""
","
","","","","","","1638.4000000953674","images/rabbit2.png","","","learning","[-1]","-1","1","1","rabbit","pets","1","0","","neutral","0"
"html-keyboard-response","74","488037","0.0-9.0-2.0-0.1","7695","1","8","Male","approach_avoid_spark_v1","""event"",""trial"",""time""
""fullscreenenter"",""1"",""2760""
","
","
","""event"",""trial"",""time""
""fullscreenenter"",""1"",""2760""
","
","","","","","","null","<div style=""font-size:60px;"">+</div>","null","","fixation","","","","","","","","","","",""
"aa-learning-trial","75","491047","0.0-9.0-2.0-1.1","7695","1","8","Male","approach_avoid_spark_v1","""event"",""trial"",""time""
""fullscreenenter"",""1"",""2760""
","
","
","""event"",""trial"",""time""
""fullscreenenter"",""1"",""2760""
","
","","","","","","1359.0999999046326","images/cat7.png","","","learning","-8","0","0","0","cat","pets","1","0","","bad","[-4]"
"html-keyboard-response","76","491567","0.0-9.0-2.0-0.2","7695","1","8","Male","approach_avoid_spark_v1","""event"",""trial"",""time""
""fullscreenenter"",""1"",""2760""
","
","
","""event"",""trial"",""time""
""fullscreenenter"",""1"",""2760""
","
","","","","","","null","<div style=""font-size:60px;"">+</div>","null","","fixation","","","","","","","","","","",""
"aa-learning-trial","77","494587","0.0-9.0-2.0-1.2","7695","1","8","Male","approach_avoid_spark_v1","""event"",""trial"",""time""
""fullscreenenter"",""1"",""2760""
","
","
","""event"",""trial"",""time""
""fullscreenenter"",""1"",""2760""
","
","","","","","","1410.8999996185303","images/rabbit8.png","","","learning","[-1]","0","0","0","rabbit","pets","1","0","","neutral","0"
"html-keyboard-response","78","495107","0.0-9.0-2.0-0.3","7695","1","8","Male","approach_avoid_spark_v1","""event"",""trial"",""time""
""fullscreenenter"",""1"",""2760""
","
","
","""event"",""trial"",""time""
""fullscreenenter"",""1"",""2760""
","
","","","","","","null","<div style=""font-size:60px;"">+</div>","null","","fixation","","","","","","","","","","",""
"aa-learning-trial","79","498117","0.0-9.0-2.0-1.3","7695","1","8","Male","approach_avoid_spark_v1","""event"",""trial"",""time""
""fullscreenenter"",""1"",""2760""
","
","
","""event"",""trial"",""time""
""fullscreenenter"",""1"",""2760""
","
","","","","","","1021.9000000953674","images/dog3.png","","","learning","2","2","1","1","dog","pets","1","0","","good","[4]"
"html-keyboard-response","80","498627","0.0-9.0-2.0-0.4","7695","1","8","Male","approach_avoid_spark_v1","""event"",""trial"",""time""
""fullscreenenter"",""1"",""2760""
","
","
","""event"",""trial"",""time""
""fullscreenenter"",""1"",""2760""
","
","","","","","","null","<div style=""font-size:60px;"">+</div>","null","","fixation","","","","","","","","","","",""
"aa-learning-trial","81","501647","0.0-9.0-2.0-1.4","7695","1","8","Male","approach_avoid_spark_v1","""event"",""trial"",""time""
""fullscreenenter"",""1"",""2760""
","
","
","""event"",""trial"",""time""
""fullscreenenter"",""1"",""2760""
","
","","","","","","1411.3000001907349","images/dog4.png","","","learning","3","3","1","1","dog","pets","1","0","","good","[4]"
"html-keyboard-response","82","502162","0.0-9.0-2.0-0.5","7695","1","8","Male","approach_avoid_spark_v1","""event"",""trial"",""time""
""fullscreenenter"",""1"",""2760""
","
","
","""event"",""trial"",""time""
""fullscreenenter"",""1"",""2760""
","
","","","","","","null","<div style=""font-size:60px;"">+</div>","null","","fixation","","","","","","","","","","",""
"aa-learning-trial","83","505177","0.0-9.0-2.0-1.5","7695","1","8","Male","approach_avoid_spark_v1","""event"",""trial"",""time""
""fullscreenenter"",""1"",""2760""
","
","
","""event"",""trial"",""time""
""fullscreenenter"",""1"",""2760""
","
","","","","","","1021.5","images/dog8.png","","","learning","4","4","1","1","dog","pets","1","0","","good","[4]"
"html-keyboard-response","84","505697","0.0-9.0-2.0-0.6","7695","1","8","Male","approach_avoid_spark_v1","""event"",""trial"",""time""
""fullscreenenter"",""1"",""2760""
","
","
","""event"",""trial"",""time""
""fullscreenenter"",""1"",""2760""
","
","","","","","","null","<div style=""font-size:60px;"">+</div>","null","","fixation","","","","","","","","","","",""
"aa-learning-trial","85","508717","0.0-9.0-2.0-1.6","7695","1","8","Male","approach_avoid_spark_v1","""event"",""trial"",""time""
""fullscreenenter"",""1"",""2760""
","
","
","""event"",""trial"",""time""
""fullscreenenter"",""1"",""2760""
","
","","","","","","964.8999996185303","images/cat4.png","","","learning","-5","0","0","0","cat","pets","1","0","","bad","[-4]"
"html-keyboard-response","86","509222","0.0-9.0-2.0-0.7","7695","1","8","Male","approach_avoid_spark_v1","""event"",""trial"",""time""
""fullscreenenter"",""1"",""2760""
","
","
","""event"",""trial"",""time""
""fullscreenenter"",""1"",""2760""
","
","","","","","","null","<div style=""font-size:60px;"">+</div>","null","","fixation","","","","","","","","","","",""
"aa-learning-trial","87","512227","0.0-9.0-2.0-1.7","7695","1","8","Male","approach_avoid_spark_v1","""event"",""trial"",""time""
""fullscreenenter"",""1"",""2760""
","
","
","""event"",""trial"",""time""
""fullscreenenter"",""1"",""2760""
","
","","","","","","989.8000001907349","images/cat7.png","","","learning","-3","0","0","0","cat","pets","1","0","","bad","[-4]"
"html-keyboard-response","88","512733","0.0-9.0-2.0-0.8","7695","1","8","Male","approach_avoid_spark_v1","""event"",""trial"",""time""
""fullscreenenter"",""1"",""2760""
","
","
","""event"",""trial"",""time""
""fullscreenenter"",""1"",""2760""
","
","","","","","","null","<div style=""font-size:60px;"">+</div>","null","","fixation","","","","","","","","","","",""
"aa-learning-trial","89","515746","0.0-9.0-2.0-1.8","7695","1","8","Male","approach_avoid_spark_v1","""event"",""trial"",""time""
""fullscreenenter"",""1"",""2760""
","
","
","""event"",""trial"",""time""
""fullscreenenter"",""1"",""2760""
","
","","","","","","705","images/dog4.png","","","learning","5","5","1","1","dog","pets","1","0","","good","[4]"
"html-keyboard-response","90","516263","0.0-9.0-2.0-0.9","7695","1","8","Male","approach_avoid_spark_v1","""event"",""trial"",""time""
""fullscreenenter"",""1"",""2760""
","
","
","""event"",""trial"",""time""
""fullscreenenter"",""1"",""2760""
","
","","","","","","null","<div style=""font-size:60px;"">+</div>","null","","fixation","","","","","","","","","","",""
"aa-learning-trial","91","519272","0.0-9.0-2.0-1.9","7695","1","8","Male","approach_avoid_spark_v1","""event"",""trial"",""time""
""fullscreenenter"",""1"",""2760""
","
","
","""event"",""trial"",""time""
""fullscreenenter"",""1"",""2760""
","
","","","","","","947.2000002861023","images/cat8.png","","","learning","-4","0","0","0","cat","pets","1","0","","bad","[-4]"
"html-keyboard-response","92","519779","0.0-9.0-2.0-0.10","7695","1","8","Male","approach_avoid_spark_v1","""event"",""trial"",""time""
""fullscreenenter"",""1"",""2760""
","
","
","""event"",""trial"",""time""
""fullscreenenter"",""1"",""2760""
","
","","","","","","null","<div style=""font-size:60px;"">+</div>","null","","fixation","","","","","","","","","","",""
"aa-learning-trial","93","522789","0.0-9.0-2.0-1.10","7695","1","8","Male","approach_avoid_spark_v1","""event"",""trial"",""time""
""fullscreenenter"",""1"",""2760""
","
","
","""event"",""trial"",""time""
""fullscreenenter"",""1"",""2760""
","
","","","","","","788.3000001907349","images/dog8.png","","","learning","4","4","1","1","dog","pets","1","0","","good","[4]"
"html-keyboard-response","94","523304","0.0-9.0-2.0-0.11","7695","1","8","Male","approach_avoid_spark_v1","""event"",""trial"",""time""
""fullscreenenter"",""1"",""2760""
","
","
","""event"",""trial"",""time""
""fullscreenenter"",""1"",""2760""
","
","","","","","","null","<div style=""font-size:60px;"">+</div>","null","","fixation","","","","","","","","","","",""
"aa-learning-trial","95","526314","0.0-9.0-2.0-1.11","7695","1","8","Male","approach_avoid_spark_v1","""event"",""trial"",""time""
""fullscreenenter"",""1"",""2760""
","
","
","""event"",""trial"",""time""
""fullscreenenter"",""1"",""2760""
","
","","","","","","882.3000001907349","images/rabbit1.png","","","learning","-1","0","0","0","rabbit","pets","1","0","","neutral","0"
"html-keyboard-response","96","526826","0.0-9.0-2.0-0.12","7695","1","8","Male","approach_avoid_spark_v1","""event"",""trial"",""time""
""fullscreenenter"",""1"",""2760""
","
","
","""event"",""trial"",""time""
""fullscreenenter"",""1"",""2760""
","
","","","","","","null","<div style=""font-size:60px;"">+</div>","null","","fixation","","","","","","","","","","",""
"aa-learning-trial","97","529847","0.0-9.0-2.0-1.12","7695","1","8","Male","approach_avoid_spark_v1","""event"",""trial"",""time""
""fullscreenenter"",""1"",""2760""
","
","
","""event"",""trial"",""time""
""fullscreenenter"",""1"",""2760""
","
","","","","","","840.8000001907349","images/cat8.png","","","learning","-3","-5","alt","","cat","pets","1","0","","bad","[-4]"
"html-keyboard-response","98","530357","0.0-9.0-2.0-0.13","7695","1","8","Male","approach_avoid_spark_v1","""event"",""trial"",""time""
""fullscreenenter"",""1"",""2760""
","
","
","""event"",""trial"",""time""
""fullscreenenter"",""1"",""2760""
","
","","","","","","null","<div style=""font-size:60px;"">+</div>","null","","fixation","","","","","","","","","","",""
"aa-learning-trial","99","533373","0.0-9.0-2.0-1.13","7695","1","8","Male","approach_avoid_spark_v1","""event"",""trial"",""time""
""fullscreenenter"",""1"",""2760""
","
","
","""event"",""trial"",""time""
""fullscreenenter"",""1"",""2760""
","
","","","","","","1406.8000001907349","images/rabbit2.png","","","learning","-3","0","0","0","rabbit","pets","1","0","","neutral","0"
"html-keyboard-response","100","533884","0.0-9.0-2.0-0.14","7695","1","8","Male","approach_avoid_spark_v1","""event"",""trial"",""time""
""fullscreenenter"",""1"",""2760""
","
","
","""event"",""trial"",""time""
""fullscreenenter"",""1"",""2760""
","
","","","","","","null","<div style=""font-size:60px;"">+</div>","null","","fixation","","","","","","","","","","",""
"aa-learning-trial","101","536895","0.0-9.0-2.0-1.14","7695","1","8","Male","approach_avoid_spark_v1","""event"",""trial"",""time""
""fullscreenenter"",""1"",""2760""
","
","
","""event"",""trial"",""time""
""fullscreenenter"",""1"",""2760""
","
","","","","","","1155.5999999046326","images/rabbit8.png","","","learning","[-1]","0","0","0","rabbit","pets","1","0","","neutral","0"
"html-keyboard-response","102","537405","0.0-9.0-2.0-0.15","7695","1","8","Male","approach_avoid_spark_v1","""event"",""trial"",""time""
""fullscreenenter"",""1"",""2760""
","
","
","""event"",""trial"",""time""
""fullscreenenter"",""1"",""2760""
","
","","","","","","null","<div style=""font-size:60px;"">+</div>","null","","fixation","","","","","","","","","","",""
"aa-learning-trial","103","540413","0.0-9.0-2.0-1.15","7695","1","8","Male","approach_avoid_spark_v1","""event"",""trial"",""time""
""fullscreenenter"",""1"",""2760""
","
","
","""event"",""trial"",""time""
""fullscreenenter"",""1"",""2760""
","
","","","","","","732.6999998092651","images/dog3.png","","","learning","5","5","1","1","dog","pets","1","0","","good","[4]"
"html-keyboard-response","104","540931","0.0-9.0-2.0-0.16","7695","1","8","Male","approach_avoid_spark_v1","""event"",""trial"",""time""
""fullscreenenter"",""1"",""2760""
","
","
","""event"",""trial"",""time""
""fullscreenenter"",""1"",""2760""
","
","","","","","","null","<div style=""font-size:60px;"">+</div>","null","","fixation","","","","","","","","","","",""
"aa-learning-trial","105","543937","0.0-9.0-2.0-1.16","7695","1","8","Male","approach_avoid_spark_v1","""event"",""trial"",""time""
""fullscreenenter"",""1"",""2760""
","
","
","""event"",""trial"",""time""
""fullscreenenter"",""1"",""2760""
","
","","","","","","714.4000000953674","images/dog8.png","","","learning","5","5","1","1","dog","pets","1","0","","good","[4]"
"html-keyboard-response","106","544447","0.0-9.0-2.0-0.17","7695","1","8","Male","approach_avoid_spark_v1","""event"",""trial"",""time""
""fullscreenenter"",""1"",""2760""
","
","
","""event"",""trial"",""time""
""fullscreenenter"",""1"",""2760""
","
","","","","","","null","<div style=""font-size:60px;"">+</div>","null","","fixation","","","","","","","","","","",""
"aa-learning-trial","107","547457","0.0-9.0-2.0-1.17","7695","1","8","Male","approach_avoid_spark_v1","""event"",""trial"",""time""
""fullscreenenter"",""1"",""2760""
","
","
","""event"",""trial"",""time""
""fullscreenenter"",""1"",""2760""
","
","","","","","","877.8999996185303","images/rabbit8.png","","","learning","-1","0","0","0","rabbit","pets","1","0","","neutral","0"
"html-keyboard-response","108","547966","0.0-9.0-2.0-0.18","7695","1","8","Male","approach_avoid_spark_v1","""event"",""trial"",""time""
""fullscreenenter"",""1"",""2760""
","
","
","""event"",""trial"",""time""
""fullscreenenter"",""1"",""2760""
","
","","","","","","null","<div style=""font-size:60px;"">+</div>","null","","fixation","","","","","","","","","","",""
"aa-learning-trial","109","550971","0.0-9.0-2.0-1.18","7695","1","8","Male","approach_avoid_spark_v1","""event"",""trial"",""time""
""fullscreenenter"",""1"",""2760""
","
","
","""event"",""trial"",""time""
""fullscreenenter"",""1"",""2760""
","
","","","","","","770.2999997138977","images/cat8.png","","","learning","-4","0","0","0","cat","pets","1","0","","bad","[-4]"
"html-keyboard-response","110","551477","0.0-9.0-2.0-0.19","7695","1","8","Male","approach_avoid_spark_v1","""event"",""trial"",""time""
""fullscreenenter"",""1"",""2760""
","
","
","""event"",""trial"",""time""
""fullscreenenter"",""1"",""2760""
","
","","","","","","null","<div style=""font-size:60px;"">+</div>","null","","fixation","","","","","","","","","","",""
"aa-learning-trial","111","554481","0.0-9.0-2.0-1.19","7695","1","8","Male","approach_avoid_spark_v1","""event"",""trial"",""time""
""fullscreenenter"",""1"",""2760""
","
","
","""event"",""trial"",""time""
""fullscreenenter"",""1"",""2760""
","
","","","","","","549","images/dog8.png","","","learning","3","3","1","1","dog","pets","1","0","","good","[4]"
"html-keyboard-response","112","554983","0.0-9.0-2.0-0.20","7695","1","8","Male","approach_avoid_spark_v1","""event"",""trial"",""time""
""fullscreenenter"",""1"",""2760""
","
","
","""event"",""trial"",""time""
""fullscreenenter"",""1"",""2760""
","
","","","","","","null","<div style=""font-size:60px;"">+</div>","null","","fixation","","","","","","","","","","",""
"aa-learning-trial","113","557999","0.0-9.0-2.0-1.20","7695","1","8","Male","approach_avoid_spark_v1","""event"",""trial"",""time""
""fullscreenenter"",""1"",""2760""
","
","
","""event"",""trial"",""time""
""fullscreenenter"",""1"",""2760""
","
","","","","","","1055.2000002861023","images/cat7.png","","","learning","-4","0","0","0","cat","pets","1","0","","bad","[-4]"
"html-keyboard-response","114","558505","0.0-9.0-2.0-0.21","7695","1","8","Male","approach_avoid_spark_v1","""event"",""trial"",""time""
""fullscreenenter"",""1"",""2760""
","
","
","""event"",""trial"",""time""
""fullscreenenter"",""1"",""2760""
","
","","","","","","null","<div style=""font-size:60px;"">+</div>","null","","fixation","","","","","","","","","","",""
"aa-learning-trial","115","561516","0.0-9.0-2.0-1.21","7695","1","8","Male","approach_avoid_spark_v1","""event"",""trial"",""time""
""fullscreenenter"",""1"",""2760""
","
","
","""event"",""trial"",""time""
""fullscreenenter"",""1"",""2760""
","
","","","","","","969.7000002861023","images/cat8.png","","","learning","-5","0","0","0","cat","pets","1","0","","bad","[-4]"
"html-keyboard-response","116","562025","0.0-9.0-2.0-0.22","7695","1","8","Male","approach_avoid_spark_v1","""event"",""trial"",""time""
""fullscreenenter"",""1"",""2760""
","
","
","""event"",""trial"",""time""
""fullscreenenter"",""1"",""2760""
","
","","","","","","null","<div style=""font-size:60px;"">+</div>","null","","fixation","","","","","","","","","","",""
"aa-learning-trial","117","565039","0.0-9.0-2.0-1.22","7695","1","8","Male","approach_avoid_spark_v1","""event"",""trial"",""time""
""fullscreenenter"",""1"",""2760""
","
","
","""event"",""trial"",""time""
""fullscreenenter"",""1"",""2760""
","
","","","","","","652.7000002861023","images/dog8.png","","","learning","5","5","1","1","dog","pets","1","0","","good","[4]"
"html-keyboard-response","118","565553","0.0-9.0-2.0-0.23","7695","1","8","Male","approach_avoid_spark_v1","""event"",""trial"",""time""
""fullscreenenter"",""1"",""2760""
","
","
","""event"",""trial"",""time""
""fullscreenenter"",""1"",""2760""
","
","","","","","","null","<div style=""font-size:60px;"">+</div>","null","","fixation","","","","","","","","","","",""
"aa-learning-trial","119","568566","0.0-9.0-2.0-1.23","7695","1","8","Male","approach_avoid_spark_v1","""event"",""trial"",""time""
""fullscreenenter"",""1"",""2760""
","
","
","""event"",""trial"",""time""
""fullscreenenter"",""1"",""2760""
","
","","","","","","1164.7999997138977","images/rabbit2.png","","","learning","-3","0","0","0","rabbit","pets","1","0","","neutral","0"
"html-keyboard-response","120","569070","0.0-9.0-2.0-0.24","7695","1","8","Male","approach_avoid_spark_v1","""event"",""trial"",""time""
""fullscreenenter"",""1"",""2760""
","
","
","""event"",""trial"",""time""
""fullscreenenter"",""1"",""2760""
","
","","","","","","null","<div style=""font-size:60px;"">+</div>","null","","fixation","","","","","","","","","","",""
"aa-learning-trial","121","572079","0.0-9.0-2.0-1.24","7695","1","8","Male","approach_avoid_spark_v1","""event"",""trial"",""time""
""fullscreenenter"",""1"",""2760""
","
","
","""event"",""trial"",""time""
""fullscreenenter"",""1"",""2760""
","
","","","","","","811.8000001907349","images/cat1.png","","","learning","2","0","0","0","cat","pets","1","0","","bad","[-4]"
"html-keyboard-response","122","572585","0.0-9.0-2.0-0.25","7695","1","8","Male","approach_avoid_spark_v1","""event"",""trial"",""time""
""fullscreenenter"",""1"",""2760""
","
","
","""event"",""trial"",""time""
""fullscreenenter"",""1"",""2760""
","
","","","","","","null","<div style=""font-size:60px;"">+</div>","null","","fixation","","","","","","","","","","",""
"aa-learning-trial","123","575596","0.0-9.0-2.0-1.25","7695","1","8","Male","approach_avoid_spark_v1","""event"",""trial"",""time""
""fullscreenenter"",""1"",""2760""
","
","
","""event"",""trial"",""time""
""fullscreenenter"",""1"",""2760""
","
","","","","","","858.2000002861023","images/cat8.png","","","learning","-2","0","0","0","cat","pets","1","0","","bad","[-4]"
"html-keyboard-response","124","576109","0.0-9.0-2.0-0.26","7695","1","8","Male","approach_avoid_spark_v1","""event"",""trial"",""time""
""fullscreenenter"",""1"",""2760""
","
","
","""event"",""trial"",""time""
""fullscreenenter"",""1"",""2760""
","
","","","","","","null","<div style=""font-size:60px;"">+</div>","null","","fixation","","","","","","","","","","",""
"aa-learning-trial","125","579122","0.0-9.0-2.0-1.26","7695","1","8","Male","approach_avoid_spark_v1","""event"",""trial"",""time""
""fullscreenenter"",""1"",""2760""
","
","
","""event"",""trial"",""time""
""fullscreenenter"",""1"",""2760""
","
","","","","","","650.8999996185303","images/dog3.png","","","learning","1","1","1","1","dog","pets","1","0","","good","[4]"
"html-keyboard-response","126","579628","0.0-9.0-2.0-0.27","7695","1","8","Male","approach_avoid_spark_v1","""event"",""trial"",""time""
""fullscreenenter"",""1"",""2760""
","
","
","""event"",""trial"",""time""
""fullscreenenter"",""1"",""2760""
","
","","","","","","null","<div style=""font-size:60px;"">+</div>","null","","fixation","","","","","","","","","","",""
"aa-learning-trial","127","582634","0.0-9.0-2.0-1.27","7695","1","8","Male","approach_avoid_spark_v1","""event"",""trial"",""time""
""fullscreenenter"",""1"",""2760""
","
","
","""event"",""trial"",""time""
""fullscreenenter"",""1"",""2760""
","
","","","","","","1299.3000001907349","images/cat3.png","","","learning","-5","-5","1","1","cat","pets","1","0","","bad","[-4]"
"html-keyboard-response","128","583139","0.0-9.0-2.0-0.28","7695","1","8","Male","approach_avoid_spark_v1","""event"",""trial"",""time""
""fullscreenenter"",""1"",""2760""
","
","
","""event"",""trial"",""time""
""fullscreenenter"",""1"",""2760""
","
","","","","","","null","<div style=""font-size:60px;"">+</div>","null","","fixation","","","","","","","","","","",""
"aa-learning-trial","129","586145","0.0-9.0-2.0-1.28","7695","1","8","Male","approach_avoid_spark_v1","""event"",""trial"",""time""
""fullscreenenter"",""1"",""2760""
","
","
","""event"",""trial"",""time""
""fullscreenenter"",""1"",""2760""
","
","","","","","","900.5","images/cat8.png","","","learning","-2","0","0","0","cat","pets","1","0","","bad","[-4]"
"html-keyboard-response","130","586655","0.0-9.0-2.0-0.29","7695","1","8","Male","approach_avoid_spark_v1","""event"",""trial"",""time""
""fullscreenenter"",""1"",""2760""
","
","
","""event"",""trial"",""time""
""fullscreenenter"",""1"",""2760""
","
","","","","","","null","<div style=""font-size:60px;"">+</div>","null","","fixation","","","","","","","","","","",""
"aa-learning-trial","131","589669","0.0-9.0-2.0-1.29","7695","1","8","Male","approach_avoid_spark_v1","""event"",""trial"",""time""
""fullscreenenter"",""1"",""2760""
","
","
","""event"",""trial"",""time""
""fullscreenenter"",""1"",""2760""
","
","","","","","","841.6999998092651","images/cat4.png","","","learning","-3","0","0","0","cat","pets","1","0","","bad","[-4]"
"html-keyboard-response","132","590171","0.0-9.0-2.0-0.30","7695","1","8","Male","approach_avoid_spark_v1","""event"",""trial"",""time""
""fullscreenenter"",""1"",""2760""
","
","
","""event"",""trial"",""time""
""fullscreenenter"",""1"",""2760""
","
","","","","","","null","<div style=""font-size:60px;"">+</div>","null","","fixation","","","","","","","","","","",""
"aa-learning-trial","133","593180","0.0-9.0-2.0-1.30","7695","1","8","Male","approach_avoid_spark_v1","""event"",""trial"",""time""
""fullscreenenter"",""1"",""2760""
","
","
","""event"",""trial"",""time""
""fullscreenenter"",""1"",""2760""
","
","","","","","","766.4000000953674","images/dog4.png","","","learning","3","3","1","1","dog","pets","1","0","","good","[4]"
"html-keyboard-response","134","593687","0.0-9.0-2.0-0.31","7695","1","8","Male","approach_avoid_spark_v1","""event"",""trial"",""time""
""fullscreenenter"",""1"",""2760""
","
","
","""event"",""trial"",""time""
""fullscreenenter"",""1"",""2760""
","
","","","","","","null","<div style=""font-size:60px;"">+</div>","null","","fixation","","","","","","","","","","",""
"aa-learning-trial","135","596694","0.0-9.0-2.0-1.31","7695","1","8","Male","approach_avoid_spark_v1","""event"",""trial"",""time""
""fullscreenenter"",""1"",""2760""
","
","
","""event"",""trial"",""time""
""fullscreenenter"",""1"",""2760""
","
","","","","","","985.4000000953674","images/dog5.png","","","learning","7","7","1","1","dog","pets","1","0","","good","[4]"
"html-keyboard-response","136","597205","0.0-9.0-2.0-0.32","7695","1","8","Male","approach_avoid_spark_v1","""event"",""trial"",""time""
""fullscreenenter"",""1"",""2760""
","
","
","""event"",""trial"",""time""
""fullscreenenter"",""1"",""2760""
","
","","","","","","null","<div style=""font-size:60px;"">+</div>","null","","fixation","","","","","","","","","","",""
"aa-learning-trial","137","600215","0.0-9.0-2.0-1.32","7695","1","8","Male","approach_avoid_spark_v1","""event"",""trial"",""time""
""fullscreenenter"",""1"",""2760""
","
","
","""event"",""trial"",""time""
""fullscreenenter"",""1"",""2760""
","
","","","","","","988.3999996185303","images/rabbit5.png","","","learning","-1","0","0","0","rabbit","pets","1","0","","neutral","0"
"html-keyboard-response","138","600730","0.0-9.0-2.0-0.33","7695","1","8","Male","approach_avoid_spark_v1","""event"",""trial"",""time""
""fullscreenenter"",""1"",""2760""
","
","
","""event"",""trial"",""time""
""fullscreenenter"",""1"",""2760""
","
","","","","","","null","<div style=""font-size:60px;"">+</div>","null","","fixation","","","","","","","","","","",""
"aa-learning-trial","139","603737","0.0-9.0-2.0-1.33","7695","1","8","Male","approach_avoid_spark_v1","""event"",""trial"",""time""
""fullscreenenter"",""1"",""2760""
","
","
","""event"",""trial"",""time""
""fullscreenenter"",""1"",""2760""
","
","","","","","","768.3000001907349","images/rabbit2.png","","","learning","-1","0","0","0","rabbit","pets","1","0","","neutral","0"
"html-keyboard-response","140","604251","0.0-9.0-2.0-0.34","7695","1","8","Male","approach_avoid_spark_v1","""event"",""trial"",""time""
""fullscreenenter"",""1"",""2760""
","
","
","""event"",""trial"",""time""
""fullscreenenter"",""1"",""2760""
","
","","","","","","null","<div style=""font-size:60px;"">+</div>","null","","fixation","","","","","","","","","","",""
"aa-learning-trial","141","607260","0.0-9.0-2.0-1.34","7695","1","8","Male","approach_avoid_spark_v1","""event"",""trial"",""time""
""fullscreenenter"",""1"",""2760""
","
","
","""event"",""trial"",""time""
""fullscreenenter"",""1"",""2760""
","
","","","","","","1233.1999998092651","images/cat7.png","","","learning","-4","0","0","0","cat","pets","1","0","","bad","[-4]"
"html-keyboard-response","142","607770","0.0-9.0-2.0-0.35","7695","1","8","Male","approach_avoid_spark_v1","""event"",""trial"",""time""
""fullscreenenter"",""1"",""2760""
","
","
","""event"",""trial"",""time""
""fullscreenenter"",""1"",""2760""
","
","","","","","","null","<div style=""font-size:60px;"">+</div>","null","","fixation","","","","","","","","","","",""
"aa-learning-trial","143","610775","0.0-9.0-2.0-1.35","7695","1","8","Male","approach_avoid_spark_v1","""event"",""trial"",""time""
""fullscreenenter"",""1"",""2760""
","
","
","""event"",""trial"",""time""
""fullscreenenter"",""1"",""2760""
","
","","","","","","825.9000000953674","images/rabbit8.png","","","learning","[1]","0","0","0","rabbit","pets","1","0","","neutral","0"
"html-keyboard-response","144","611282","0.0-9.0-2.0-0.36","7695","1","8","Male","approach_avoid_spark_v1","""event"",""trial"",""time""
""fullscreenenter"",""1"",""2760""
","
","
","""event"",""trial"",""time""
""fullscreenenter"",""1"",""2760""
","
","","","","","","null","<div style=""font-size:60px;"">+</div>","null","","fixation","","","","","","","","","","",""
"aa-learning-trial","145","614293","0.0-9.0-2.0-1.36","7695","1","8","Male","approach_avoid_spark_v1","""event"",""trial"",""time""
""fullscreenenter"",""1"",""2760""
","
","
","""event"",""trial"",""time""
""fullscreenenter"",""1"",""2760""
","
","","","","","","774.1000003814697","images/dog4.png","","","learning","5","5","1","1","dog","pets","1","0","","good","[4]"
"html-keyboard-response","146","614796","0.0-9.0-2.0-0.37","7695","1","8","Male","approach_avoid_spark_v1","""event"",""trial"",""time""
""fullscreenenter"",""1"",""2760""
","
","
","""event"",""trial"",""time""
""fullscreenenter"",""1"",""2760""
","
","","","","","","null","<div style=""font-size:60px;"">+</div>","null","","fixation","","","","","","","","","","",""
"aa-learning-trial","147","617815","0.0-9.0-2.0-1.37","7695","1","8","Male","approach_avoid_spark_v1","""event"",""trial"",""time""
""fullscreenenter"",""1"",""2760""
","
","
","""event"",""trial"",""time""
""fullscreenenter"",""1"",""2760""
","
","","","","","","1164.1999998092651","images/cat7.png","","","learning","-4","0","0","0","cat","pets","1","0","","bad","[-4]"
"html-keyboard-response","148","618320","0.0-9.0-2.0-0.38","7695","1","8","Male","approach_avoid_spark_v1","""event"",""trial"",""time""
""fullscreenenter"",""1"",""2760""
","
","
","""event"",""trial"",""time""
""fullscreenenter"",""1"",""2760""
","
","","","","","","null","<div style=""font-size:60px;"">+</div>","null","","fixation","","","","","","","","","","",""
"aa-learning-trial","149","621325","0.0-9.0-2.0-1.38","7695","1","8","Male","approach_avoid_spark_v1","""event"",""trial"",""time""
""fullscreenenter"",""1"",""2760""
","
","
","""event"",""trial"",""time""
""fullscreenenter"",""1"",""2760""
","
","","","","","","988.5999999046326","images/rabbit3.png","","","learning","[1]","1","1","1","rabbit","pets","1","0","","neutral","0"
"html-keyboard-response","150","621838","0.0-9.0-2.0-0.39","7695","1","8","Male","approach_avoid_spark_v1","""event"",""trial"",""time""
""fullscreenenter"",""1"",""2760""
","
","
","""event"",""trial"",""time""
""fullscreenenter"",""1"",""2760""
","
","","","","","","null","<div style=""font-size:60px;"">+</div>","null","","fixation","","","","","","","","","","",""
"aa-learning-trial","151","624846","0.0-9.0-2.0-1.39","7695","1","8","Male","approach_avoid_spark_v1","""event"",""trial"",""time""
""fullscreenenter"",""1"",""2760""
","
","
","""event"",""trial"",""time""
""fullscreenenter"",""1"",""2760""
","
","","","","","","749.9000000953674","images/dog8.png","","","learning","4","4","1","1","dog","pets","1","0","","good","[4]"
"html-keyboard-response","152","625353","0.0-9.0-2.0-0.40","7695","1","8","Male","approach_avoid_spark_v1","""event"",""trial"",""time""
""fullscreenenter"",""1"",""2760""
","
","
","""event"",""trial"",""time""
""fullscreenenter"",""1"",""2760""
","
","","","","","","null","<div style=""font-size:60px;"">+</div>","null","","fixation","","","","","","","","","","",""
"aa-learning-trial","153","628363","0.0-9.0-2.0-1.40","7695","1","8","Male","approach_avoid_spark_v1","""event"",""trial"",""time""
""fullscreenenter"",""1"",""2760""
","
","
","""event"",""trial"",""time""
""fullscreenenter"",""1"",""2760""
","
","","","","","","770.5999999046326","images/rabbit1.png","","","learning","2","0","0","0","rabbit","pets","1","0","","neutral","0"
"html-keyboard-response","154","628882","0.0-9.0-2.0-0.41","7695","1","8","Male","approach_avoid_spark_v1","""event"",""trial"",""time""
""fullscreenenter"",""1"",""2760""
","
","
","""event"",""trial"",""time""
""fullscreenenter"",""1"",""2760""
","
","","","","","","null","<div style=""font-size:60px;"">+</div>","null","","fixation","","","","","","","","","","",""
"aa-learning-trial","155","631889","0.0-9.0-2.0-1.41","7695","1","8","Male","approach_avoid_spark_v1","""event"",""trial"",""time""
""fullscreenenter"",""1"",""2760""
","
","
","""event"",""trial"",""time""
""fullscreenenter"",""1"",""2760""
","
","","","","","","1014.5","images/rabbit8.png","","","learning","2","2","1","1","rabbit","pets","1","0","","neutral","0"
"html-keyboard-response","156","632399","0.0-9.0-2.0-0.42","7695","1","8","Male","approach_avoid_spark_v1","""event"",""trial"",""time""
""fullscreenenter"",""1"",""2760""
","
","
","""event"",""trial"",""time""
""fullscreenenter"",""1"",""2760""
","
","","","","","","null","<div style=""font-size:60px;"">+</div>","null","","fixation","","","","","","","","","","",""
"aa-learning-trial","157","635409","0.0-9.0-2.0-1.42","7695","1","8","Male","approach_avoid_spark_v1","""event"",""trial"",""time""
""fullscreenenter"",""1"",""2760""
","
","
","""event"",""trial"",""time""
""fullscreenenter"",""1"",""2760""
","
","","","","","","707","images/dog6.png","","","learning","4","4","1","1","dog","pets","1","0","","good","[4]"
"html-keyboard-response","158","635920","0.0-9.0-2.0-0.43","7695","1","8","Male","approach_avoid_spark_v1","""event"",""trial"",""time""
""fullscreenenter"",""1"",""2760""
","
","
","""event"",""trial"",""time""
""fullscreenenter"",""1"",""2760""
","
","","","","","","null","<div style=""font-size:60px;"">+</div>","null","","fixation","","","","","","","","","","",""
"aa-learning-trial","159","638928","0.0-9.0-2.0-1.43","7695","1","8","Male","approach_avoid_spark_v1","""event"",""trial"",""time""
""fullscreenenter"",""1"",""2760""
","
","
","""event"",""trial"",""time""
""fullscreenenter"",""1"",""2760""
","
","","","","","","887.1999998092651","images/rabbit2.png","","","learning","-1","0","0","0","rabbit","pets","1","0","","neutral","0"
"html-keyboard-response","160","639442","0.0-9.0-2.0-0.44","7695","1","8","Male","approach_avoid_spark_v1","""event"",""trial"",""time""
""fullscreenenter"",""1"",""2760""
","
","
","""event"",""trial"",""time""
""fullscreenenter"",""1"",""2760""
","
","","","","","","null","<div style=""font-size:60px;"">+</div>","null","","fixation","","","","","","","","","","",""
"aa-learning-trial","161","642448","0.0-9.0-2.0-1.44","7695","1","8","Male","approach_avoid_spark_v1","""event"",""trial"",""time""
""fullscreenenter"",""1"",""2760""
","
","
","""event"",""trial"",""time""
""fullscreenenter"",""1"",""2760""
","
","","","","","","773.2000002861023","images/rabbit1.png","","","learning","-2","0","0","0","rabbit","pets","1","0","","neutral","0"
"html-keyboard-response","162","642954","0.0-9.0-2.0-0.45","7695","1","8","Male","approach_avoid_spark_v1","""event"",""trial"",""time""
""fullscreenenter"",""1"",""2760""
","
","
","""event"",""trial"",""time""
""fullscreenenter"",""1"",""2760""
","
","","","","","","null","<div style=""font-size:60px;"">+</div>","null","","fixation","","","","","","","","","","",""
"aa-learning-trial","163","645965","0.0-9.0-2.0-1.45","7695","1","8","Male","approach_avoid_spark_v1","""event"",""trial"",""time""
""fullscreenenter"",""1"",""2760""
","
","
","""event"",""trial"",""time""
""fullscreenenter"",""1"",""2760""
","
","","","","","","752.4000000953674","images/cat4.png","","","learning","-4","0","0","0","cat","pets","1","0","","bad","[-4]"
"html-keyboard-response","164","646484","0.0-9.0-2.0-0.46","7695","1","8","Male","approach_avoid_spark_v1","""event"",""trial"",""time""
""fullscreenenter"",""1"",""2760""
","
","
","""event"",""trial"",""time""
""fullscreenenter"",""1"",""2760""
","
","","","","","","null","<div style=""font-size:60px;"">+</div>","null","","fixation","","","","","","","","","","",""
"aa-learning-trial","165","649488","0.0-9.0-2.0-1.46","7695","1","8","Male","approach_avoid_spark_v1","""event"",""trial"",""time""
""fullscreenenter"",""1"",""2760""
","
","
","""event"",""trial"",""time""
""fullscreenenter"",""1"",""2760""
","
","","","","","","706.6000003814697","images/rabbit2.png","","","learning","1","0","0","0","rabbit","pets","1","0","","neutral","0"
"html-keyboard-response","166","649998","0.0-9.0-2.0-0.47","7695","1","8","Male","approach_avoid_spark_v1","""event"",""trial"",""time""
""fullscreenenter"",""1"",""2760""
","
","
","""event"",""trial"",""time""
""fullscreenenter"",""1"",""2760""
","
","","","","","","null","<div style=""font-size:60px;"">+</div>","null","","fixation","","","","","","","","","","",""
"aa-learning-trial","167","653014","0.0-9.0-2.0-1.47","7695","1","8","Male","approach_avoid_spark_v1","""event"",""trial"",""time""
""fullscreenenter"",""1"",""2760""
","
","
","""event"",""trial"",""time""
""fullscreenenter"",""1"",""2760""
","
","","","","","","774.5","images/dog4.png","","","learning","4","4","1","1","dog","pets","1","0","","good","[4]"
"html-keyboard-response","168","653520","0.0-9.0-2.0-0.48","7695","1","8","Male","approach_avoid_spark_v1","""event"",""trial"",""time""
""fullscreenenter"",""1"",""2760""
","
","
","""event"",""trial"",""time""
""fullscreenenter"",""1"",""2760""
","
","","","","","","null","<div style=""font-size:60px;"">+</div>","null","","fixation","","","","","","","","","","",""
"aa-learning-trial","169","656539","0.0-9.0-2.0-1.48","7695","1","8","Male","approach_avoid_spark_v1","""event"",""trial"",""time""
""fullscreenenter"",""1"",""2760""
","
","
","""event"",""trial"",""time""
""fullscreenenter"",""1"",""2760""
","
","","","","","","697.3000001907349","images/cat7.png","","","learning","-4","0","0","0","cat","pets","1","0","","bad","[-4]"
"html-keyboard-response","170","657052","0.0-9.0-2.0-0.49","7695","1","8","Male","approach_avoid_spark_v1","""event"",""trial"",""time""
""fullscreenenter"",""1"",""2760""
","
","
","""event"",""trial"",""time""
""fullscreenenter"",""1"",""2760""
","
","","","","","","null","<div style=""font-size:60px;"">+</div>","null","","fixation","","","","","","","","","","",""
"aa-learning-trial","171","660072","0.0-9.0-2.0-1.49","7695","1","8","Male","approach_avoid_spark_v1","""event"",""trial"",""time""
""fullscreenenter"",""1"",""2760""
","
","
","""event"",""trial"",""time""
""fullscreenenter"",""1"",""2760""
","
","","","","","","610.4000000953674","images/rabbit8.png","","","learning","-1","-1","1","1","rabbit","pets","1","0","","neutral","0"
"html-keyboard-response","172","660590","0.0-9.0-2.0-0.50","7695","1","8","Male","approach_avoid_spark_v1","""event"",""trial"",""time""
""fullscreenenter"",""1"",""2760""
","
","
","""event"",""trial"",""time""
""fullscreenenter"",""1"",""2760""
","
","","","","","","null","<div style=""font-size:60px;"">+</div>","null","","fixation","","","","","","","","","","",""
"aa-learning-trial","173","663599","0.0-9.0-2.0-1.50","7695","1","8","Male","approach_avoid_spark_v1","""event"",""trial"",""time""
""fullscreenenter"",""1"",""2760""
","
","
","""event"",""trial"",""time""
""fullscreenenter"",""1"",""2760""
","
","","","","","","1637.1999998092651","images/dog4.png","","","learning","4","4","1","1","dog","pets","1","0","","good","[4]"
"html-button-response","174","666802","0.0-9.0-3.0","7695","1","8","Male","approach_avoid_spark_v1","""event"",""trial"",""time""
""fullscreenenter"",""1"",""2760""
","
","
","""event"",""trial"",""time""
""fullscreenenter"",""1"",""2760""
","
","","","","","","3200.7999997138977","<p> You have completed the round! <p> In this round, you earned 59 points! </p>","0","","break","","","","","","","","","","",""
"html-button-response","175","669186","0.0-10.0","7695","1","8","Male","approach_avoid_spark_v1","""event"",""trial"",""time""
""fullscreenenter"",""1"",""2760""
","
","
","""event"",""trial"",""time""
""fullscreenenter"",""1"",""2760""
","
","","","","","","2382.199999809265","<p> Now it's time to play another round. </p>","0","","transition_screen","","","","","","","","","","",""
"preload","176","669326","0.0-11.0-0.0","7695","1","8","Male","approach_avoid_spark_v1","""event"",""trial"",""time""
""fullscreenenter"",""1"",""2760""
","
","
","""event"",""trial"",""time""
""fullscreenenter"",""1"",""2760""
","
","true","false","[]","[]","[]","","","","","","","","","","","","","","","",""
"learning-instructions","177","678091","0.0-11.0-1.0-0.0","7695","1","8","Male","approach_avoid_spark_v1","""event"",""trial"",""time""
""fullscreenenter"",""1"",""2760""
","
","
","""event"",""trial"",""time""
""fullscreenenter"",""1"",""2760""
","
","","","","","","2424","<p> Your goal in this round is to take your friend for rides in different vehicles. </p></div>","","0","instructions","","","","","","","","","","",""
"learning-instructions","178","688826","0.0-11.0-1.0-0.1","7695","1","8","Male","approach_avoid_spark_v1","""event"",""trial"",""time""
""fullscreenenter"",""1"",""2760""
","
","
","""event"",""trial"",""time""
""fullscreenenter"",""1"",""2760""
","
","","","","","","739.1999998092651","<p> Your friend enjoys riding in some vehicles but not in others.  </p><p> On each turn, you will see a vehicle.   </p><p> You need to decide whether to take your friend for a ride or not.  </p>","","0","instructions","","","","","","","","","","",""
"learning-instructions","179","696818","0.0-11.0-1.0-0.2","7695","1","8","Male","approach_avoid_spark_v1","""event"",""trial"",""time""
""fullscreenenter"",""1"",""2760""
","
","
","""event"",""trial"",""time""
""fullscreenenter"",""1"",""2760""
","
","","","","","","1269.8999996185303","<p> You can take your friend for a ride in the vehicle by pressing 1 and skip the ride by pressing 0. </p><br><div class=""choice-instructions-grid""> <div class=""choice-option""><img src=""images/approach.png"" class=""choice-option-img"" stage=""instructions"" position=""0"" ><div class=""choice-option-text""> Press ""1."" </div></div><div class=""choice-option""><img src=""images/avoid.png"" class=""choice-option-img"" stage=""instructions"" position=""1"" ><div class=""choice-option-text""> Press ""0."" </div></div>","","0","instructions","","","","","","","","","","",""
"learning-instructions","180","707273","0.0-11.0-1.0-0.3","7695","1","8","Male","approach_avoid_spark_v1","""event"",""trial"",""time""
""fullscreenenter"",""1"",""2760""
","
","
","""event"",""trial"",""time""
""fullscreenenter"",""1"",""2760""
","
","","","","","","1305.6999998092651","<p> If you take them for a ride in a vehicle they like, they will be thrilled! </p><p> But if you take them for a ride in a vehicle they do not like, they will be upset. </p>","","0","instructions","","","","","","","","","","",""
"learning-instructions","181","720516","0.0-11.0-1.0-0.4","7695","1","8","Male","approach_avoid_spark_v1","""event"",""trial"",""time""
""fullscreenenter"",""1"",""2760""
","
","
","""event"",""trial"",""time""
""fullscreenenter"",""1"",""2760""
","
","","","","","","1569.8999996185303","<p> You will earn points based on how you made your friend feel. </p><p> If you made him thrilled, you will WIN anywhere from 1 - 9 points, </p><p> but if you made him upset, you will LOSE anywhere from 1 - 9 points. </p>","","0","instructions","","","","","","","","","","",""
"learning-instructions","182","728599","0.0-11.0-1.0-0.5","7695","1","8","Male","approach_avoid_spark_v1","""event"",""trial"",""time""
""fullscreenenter"",""1"",""2760""
","
","
","""event"",""trial"",""time""
""fullscreenenter"",""1"",""2760""
","
","","","","","","1422.1999998092651","<p> You will see how many points you won or lost in the center of the screen. </p><p> Here is what you would see if you won 5 points: </p><p style=""color:green;font-size:50px;font-weight:bolder"">5</p>","","0","instructions","","","","","","","","","","",""
"learning-instructions","183","732227","0.0-11.0-1.0-0.6","7695","1","8","Male","approach_avoid_spark_v1","""event"",""trial"",""time""
""fullscreenenter"",""1"",""2760""
","
","
","""event"",""trial"",""time""
""fullscreenenter"",""1"",""2760""
","
","","","","","","780.0999999046326","<p> And here is what you would see if you lost 3 points: </p><p style=""color:red;font-size:50px;font-weight:bolder"">-3</p>","","0","instructions","","","","","","","","","","",""
"learning-instructions","184","748636","0.0-11.0-1.0-0.7","7695","1","8","Male","approach_avoid_spark_v1","""event"",""trial"",""time""
""fullscreenenter"",""1"",""2760""
","
","
","""event"",""trial"",""time""
""fullscreenenter"",""1"",""2760""
","
","","","","","","399.7000002861023","<p> Some vehicles will make your friend REALLY thrilled or upset. </p><p> These vehicles will make you win or lose LOTS of points. </p><p> Other vehicles will only make him feel a little thrilled or upset. </p><p> These vehicles will make you win or lose small amounts of points. </p>","","0","instructions","","","","","","","","","","",""
"learning-instructions","185","761386","0.0-11.0-1.0-0.8","7695","1","8","Male","approach_avoid_spark_v1","""event"",""trial"",""time""
""fullscreenenter"",""1"",""2760""
","
","
","""event"",""trial"",""time""
""fullscreenenter"",""1"",""2760""
","
","","","","","","959.6999998092651","<p> If you choose to skip the ride, you will not win or lose any points. </p><p>  However, in the center of the screen, you will see the number of points you WOULD HAVE won or lost if you had taken your friend for a ride. </p>","","0","instructions","","","","","","","","","","",""
"learning-instructions","186","774256","0.0-11.0-1.0-0.9","7695","1","8","Male","approach_avoid_spark_v1","""event"",""trial"",""time""
""fullscreenenter"",""1"",""2760""
","
","
","""event"",""trial"",""time""
""fullscreenenter"",""1"",""2760""
","
","","","","","","739.4000000953674","<p> Here is what you might see if you did not take your friend for a ride but he would have enjoyed it: </p><p style=""color:grey; font-size:50px; display: inline-block; border-spacing: 15px; border-width:3px; border-style:solid; border-color:red"">  &nbsp; 6 &nbsp; </p><p> Remember, in this case, you would not win or lose ANY points because you skipped the ride.  </p>","","0","instructions","","","","","","","","","","",""
"learning-instructions","187","784296","0.0-11.0-1.0-0.10","7695","1","8","Male","approach_avoid_spark_v1","""event"",""trial"",""time""
""fullscreenenter"",""1"",""2760""
","
","
","""event"",""trial"",""time""
""fullscreenenter"",""1"",""2760""
","
","","","","","","1370","<p> Try to make the best choice for each vehicle because </p><p> at the end of the game, you will earn bonus money based on how many points you earned. </p>","","0","instructions","","","","","","","","","","",""
"learning-instructions","188","793756","0.0-11.0-1.0-0.11","7695","1","8","Male","approach_avoid_spark_v1","""event"",""trial"",""time""
""fullscreenenter"",""1"",""2760""
","
","
","""event"",""trial"",""time""
""fullscreenenter"",""1"",""2760""
","
","","","","","","1259.5","<p> You will have 3 seconds to make each choice. Try to respond before time runs out! </p><p> You will lose 5 points each time you do not make a response. </p>","","0","instructions","","","","","","","","","","",""
"html-keyboard-response","189","794369","0.0-11.0-2.0-0.0","7695","1","8","Male","approach_avoid_spark_v1","""event"",""trial"",""time""
""fullscreenenter"",""1"",""2760""
","
","
","""event"",""trial"",""time""
""fullscreenenter"",""1"",""2760""
","
","","","","","","null","<div style=""font-size:60px;"">+</div>","null","","fixation","","","","","","","","","","",""
"aa-learning-trial","190","797374","0.0-11.0-2.0-1.0","7695","1","8","Male","approach_avoid_spark_v1","""event"",""trial"",""time""
""fullscreenenter"",""1"",""2760""
","
","
","""event"",""trial"",""time""
""fullscreenenter"",""1"",""2760""
","
","","","","","","1641.7999997138977","images/truck2.png","","","learning","-4","0","0","0","truck","vehicles","2","1","","good","[5]"
"html-keyboard-response","191","797884","0.0-11.0-2.0-0.1","7695","1","8","Male","approach_avoid_spark_v1","""event"",""trial"",""time""
""fullscreenenter"",""1"",""2760""
","
","
","""event"",""trial"",""time""
""fullscreenenter"",""1"",""2760""
","
","","","","","","null","<div style=""font-size:60px;"">+</div>","null","","fixation","","","","","","","","","","",""
"aa-learning-trial","192","800894","0.0-11.0-2.0-1.1","7695","1","8","Male","approach_avoid_spark_v1","""event"",""trial"",""time""
""fullscreenenter"",""1"",""2760""
","
","
","""event"",""trial"",""time""
""fullscreenenter"",""1"",""2760""
","
","","","","","","1010.3000001907349","images/train7.png","","","learning","-2","0","0","0","train","vehicles","2","1","","neutral","0"
"html-keyboard-response","193","801404","0.0-11.0-2.0-0.2","7695","1","8","Male","approach_avoid_spark_v1","""event"",""trial"",""time""
""fullscreenenter"",""1"",""2760""
","
","
","""event"",""trial"",""time""
""fullscreenenter"",""1"",""2760""
","
","","","","","","null","<div style=""font-size:60px;"">+</div>","null","","fixation","","","","","","","","","","",""
"aa-learning-trial","194","804424","0.0-11.0-2.0-1.2","7695","1","8","Male","approach_avoid_spark_v1","""event"",""trial"",""time""
""fullscreenenter"",""1"",""2760""
","
","
","""event"",""trial"",""time""
""fullscreenenter"",""1"",""2760""
","
","","","","","","594.5","images/train5.png","","","learning","-9","-9","1","1","train","vehicles","2","1","","neutral","0"
"html-keyboard-response","195","804934","0.0-11.0-2.0-0.3","7695","1","8","Male","approach_avoid_spark_v1","""event"",""trial"",""time""
""fullscreenenter"",""1"",""2760""
","
","
","""event"",""trial"",""time""
""fullscreenenter"",""1"",""2760""
","
","","","","","","null","<div style=""font-size:60px;"">+</div>","null","","fixation","","","","","","","","","","",""
"aa-learning-trial","196","807944","0.0-11.0-2.0-1.3","7695","1","8","Male","approach_avoid_spark_v1","""event"",""trial"",""time""
""fullscreenenter"",""1"",""2760""
","
","
","""event"",""trial"",""time""
""fullscreenenter"",""1"",""2760""
","
","","","","","","934.5","images/truck5.png","","","learning","2","0","0","0","truck","vehicles","2","1","","good","[5]"
"html-keyboard-response","197","808458","0.0-11.0-2.0-0.4","7695","1","8","Male","approach_avoid_spark_v1","""event"",""trial"",""time""
""fullscreenenter"",""1"",""2760""
","
","
","""event"",""trial"",""time""
""fullscreenenter"",""1"",""2760""
","
","","","","","","null","<div style=""font-size:60px;"">+</div>","null","","fixation","","","","","","","","","","",""
"aa-learning-trial","198","811471","0.0-11.0-2.0-1.4","7695","1","8","Male","approach_avoid_spark_v1","""event"",""trial"",""time""
""fullscreenenter"",""1"",""2760""
","
","
","""event"",""trial"",""time""
""fullscreenenter"",""1"",""2760""
","
","","","","","","816.4000000953674","images/truck5.png","","","learning","2","0","0","0","truck","vehicles","2","1","","good","[5]"
"html-keyboard-response","199","811985","0.0-11.0-2.0-0.5","7695","1","8","Male","approach_avoid_spark_v1","""event"",""trial"",""time""
""fullscreenenter"",""1"",""2760""
","
","
","""event"",""trial"",""time""
""fullscreenenter"",""1"",""2760""
","
","","","","","","null","<div style=""font-size:60px;"">+</div>","null","","fixation","","","","","","","","","","",""
"aa-learning-trial","200","814995","0.0-11.0-2.0-1.5","7695","1","8","Male","approach_avoid_spark_v1","""event"",""trial"",""time""
""fullscreenenter"",""1"",""2760""
","
","
","""event"",""trial"",""time""
""fullscreenenter"",""1"",""2760""
","
","","","","","","890.1999998092651","images/plane5.png","","","learning","1","1","1","1","plane","vehicles","2","1","","bad","[-5]"
"html-keyboard-response","201","815505","0.0-11.0-2.0-0.6","7695","1","8","Male","approach_avoid_spark_v1","""event"",""trial"",""time""
""fullscreenenter"",""1"",""2760""
","
","
","""event"",""trial"",""time""
""fullscreenenter"",""1"",""2760""
","
","","","","","","null","<div style=""font-size:60px;"">+</div>","null","","fixation","","","","","","","","","","",""
"aa-learning-trial","202","818515","0.0-11.0-2.0-1.6","7695","1","8","Male","approach_avoid_spark_v1","""event"",""trial"",""time""
""fullscreenenter"",""1"",""2760""
","
","
","""event"",""trial"",""time""
""fullscreenenter"",""1"",""2760""
","
","","","","","","864.9000000953674","images/plane7.png","","","learning","8","8","1","1","plane","vehicles","2","1","","bad","[-5]"
"html-keyboard-response","203","819028","0.0-11.0-2.0-0.7","7695","1","8","Male","approach_avoid_spark_v1","""event"",""trial"",""time""
""fullscreenenter"",""1"",""2760""
","
","
","""event"",""trial"",""time""
""fullscreenenter"",""1"",""2760""
","
","","","","","","null","<div style=""font-size:60px;"">+</div>","null","","fixation","","","","","","","","","","",""
"aa-learning-trial","204","822043","0.0-11.0-2.0-1.7","7695","1","8","Male","approach_avoid_spark_v1","""event"",""trial"",""time""
""fullscreenenter"",""1"",""2760""
","
","
","""event"",""trial"",""time""
""fullscreenenter"",""1"",""2760""
","
","","","","","","451","images/plane3.png","","","learning","-5","-5","1","1","plane","vehicles","2","1","","bad","[-5]"
"html-keyboard-response","205","822545","0.0-11.0-2.0-0.8","7695","1","8","Male","approach_avoid_spark_v1","""event"",""trial"",""time""
""fullscreenenter"",""1"",""2760""
","
","
","""event"",""trial"",""time""
""fullscreenenter"",""1"",""2760""
","
","","","","","","null","<div style=""font-size:60px;"">+</div>","null","","fixation","","","","","","","","","","",""
"aa-learning-trial","206","825553","0.0-11.0-2.0-1.8","7695","1","8","Male","approach_avoid_spark_v1","""event"",""trial"",""time""
""fullscreenenter"",""1"",""2760""
","
","
","""event"",""trial"",""time""
""fullscreenenter"",""1"",""2760""
","
","","","","","","732.5","images/train7.png","","","learning","-2","0","0","0","train","vehicles","2","1","","neutral","0"
"html-keyboard-response","207","826055","0.0-11.0-2.0-0.9","7695","1","8","Male","approach_avoid_spark_v1","""event"",""trial"",""time""
""fullscreenenter"",""1"",""2760""
","
","
","""event"",""trial"",""time""
""fullscreenenter"",""1"",""2760""
","
","","","","","","null","<div style=""font-size:60px;"">+</div>","null","","fixation","","","","","","","","","","",""
"aa-learning-trial","208","829064","0.0-11.0-2.0-1.9","7695","1","8","Male","approach_avoid_spark_v1","""event"",""trial"",""time""
""fullscreenenter"",""1"",""2760""
","
","
","""event"",""trial"",""time""
""fullscreenenter"",""1"",""2760""
","
","","","","","","882.5999999046326","images/train5.png","","","learning","-9","0","0","0","train","vehicles","2","1","","neutral","0"
"html-keyboard-response","209","829571","0.0-11.0-2.0-0.10","7695","1","8","Male","approach_avoid_spark_v1","""event"",""trial"",""time""
""fullscreenenter"",""1"",""2760""
","
","
","""event"",""trial"",""time""
""fullscreenenter"",""1"",""2760""
","
","","","","","","null","<div style=""font-size:60px;"">+</div>","null","","fixation","","","","","","","","","","",""
"aa-learning-trial","210","832591","0.0-11.0-2.0-1.10","7695","1","8","Male","approach_avoid_spark_v1","""event"",""trial"",""time""
""fullscreenenter"",""1"",""2760""
","
","
","""event"",""trial"",""time""
""fullscreenenter"",""1"",""2760""
","
","","","","","","702","images/train1.png","","","learning","-3","0","0","0","train","vehicles","2","1","","neutral","0"
"html-keyboard-response","211","833097","0.0-11.0-2.0-0.11","7695","1","8","Male","approach_avoid_spark_v1","""event"",""trial"",""time""
""fullscreenenter"",""1"",""2760""
","
","
","""event"",""trial"",""time""
""fullscreenenter"",""1"",""2760""
","
","","","","","","null","<div style=""font-size:60px;"">+</div>","null","","fixation","","","","","","","","","","",""
"aa-learning-trial","212","836101","0.0-11.0-2.0-1.11","7695","1","8","Male","approach_avoid_spark_v1","""event"",""trial"",""time""
""fullscreenenter"",""1"",""2760""
","
","
","""event"",""trial"",""time""
""fullscreenenter"",""1"",""2760""
","
","","","","","","866.2999997138977","images/plane3.png","","","learning","-5","-5","1","1","plane","vehicles","2","1","","bad","[-5]"
"html-keyboard-response","213","836607","0.0-11.0-2.0-0.12","7695","1","8","Male","approach_avoid_spark_v1","""event"",""trial"",""time""
""fullscreenenter"",""1"",""2760""
","
","
","""event"",""trial"",""time""
""fullscreenenter"",""1"",""2760""
","
","","","","","","null","<div style=""font-size:60px;"">+</div>","null","","fixation","","","","","","","","","","",""
"aa-learning-trial","214","839612","0.0-11.0-2.0-1.12","7695","1","8","Male","approach_avoid_spark_v1","""event"",""trial"",""time""
""fullscreenenter"",""1"",""2760""
","
","
","""event"",""trial"",""time""
""fullscreenenter"",""1"",""2760""
","
","","","","","","1138.1000003814697","images/truck3.png","","","learning","7","7","1","1","truck","vehicles","2","1","","good","[5]"
"html-keyboard-response","215","840118","0.0-11.0-2.0-0.13","7695","1","8","Male","approach_avoid_spark_v1","""event"",""trial"",""time""
""fullscreenenter"",""1"",""2760""
","
","
","""event"",""trial"",""time""
""fullscreenenter"",""1"",""2760""
","
","","","","","","null","<div style=""font-size:60px;"">+</div>","null","","fixation","","","","","","","","","","",""
"aa-learning-trial","216","843121","0.0-11.0-2.0-1.13","7695","1","8","Male","approach_avoid_spark_v1","""event"",""trial"",""time""
""fullscreenenter"",""1"",""2760""
","
","
","""event"",""trial"",""time""
""fullscreenenter"",""1"",""2760""
","
","","","","","","1242.2999997138977","images/plane5.png","","","learning","1","1","1","1","plane","vehicles","2","1","","bad","[-5]"
"html-keyboard-response","217","843627","0.0-11.0-2.0-0.14","7695","1","8","Male","approach_avoid_spark_v1","""event"",""trial"",""time""
""fullscreenenter"",""1"",""2760""
","
","
","""event"",""trial"",""time""
""fullscreenenter"",""1"",""2760""
","
","","","","","","null","<div style=""font-size:60px;"">+</div>","null","","fixation","","","","","","","","","","",""
"aa-learning-trial","218","846649","0.0-11.0-2.0-1.14","7695","1","8","Male","approach_avoid_spark_v1","""event"",""trial"",""time""
""fullscreenenter"",""1"",""2760""
","
","
","""event"",""trial"",""time""
""fullscreenenter"",""1"",""2760""
","
","","","","","","889.4000000953674","images/truck2.png","","","learning","-4","0","0","0","truck","vehicles","2","1","","good","[5]"
"html-keyboard-response","219","847156","0.0-11.0-2.0-0.15","7695","1","8","Male","approach_avoid_spark_v1","""event"",""trial"",""time""
""fullscreenenter"",""1"",""2760""
","
","
","""event"",""trial"",""time""
""fullscreenenter"",""1"",""2760""
","
","","","","","","null","<div style=""font-size:60px;"">+</div>","null","","fixation","","","","","","","","","","",""
"aa-learning-trial","220","850167","0.0-11.0-2.0-1.15","7695","1","8","Male","approach_avoid_spark_v1","""event"",""trial"",""time""
""fullscreenenter"",""1"",""2760""
","
","
","""event"",""trial"",""time""
""fullscreenenter"",""1"",""2760""
","
","","","","","","822.4000000953674","images/truck2.png","","","learning","-4","0","0","0","truck","vehicles","2","1","","good","[5]"
"html-keyboard-response","221","850669","0.0-11.0-2.0-0.16","7695","1","8","Male","approach_avoid_spark_v1","""event"",""trial"",""time""
""fullscreenenter"",""1"",""2760""
","
","
","""event"",""trial"",""time""
""fullscreenenter"",""1"",""2760""
","
","","","","","","null","<div style=""font-size:60px;"">+</div>","null","","fixation","","","","","","","","","","",""
"aa-learning-trial","222","853673","0.0-11.0-2.0-1.16","7695","1","8","Male","approach_avoid_spark_v1","""event"",""trial"",""time""
""fullscreenenter"",""1"",""2760""
","
","
","""event"",""trial"",""time""
""fullscreenenter"",""1"",""2760""
","
","","","","","","866.2000002861023","images/truck3.png","","","learning","7","0","0","0","truck","vehicles","2","1","","good","[5]"
"html-keyboard-response","223","854176","0.0-11.0-2.0-0.17","7695","1","8","Male","approach_avoid_spark_v1","""event"",""trial"",""time""
""fullscreenenter"",""1"",""2760""
","
","
","""event"",""trial"",""time""
""fullscreenenter"",""1"",""2760""
","
","","","","","","null","<div style=""font-size:60px;"">+</div>","null","","fixation","","","","","","","","","","",""
"aa-learning-trial","224","857182","0.0-11.0-2.0-1.17","7695","1","8","Male","approach_avoid_spark_v1","""event"",""trial"",""time""
""fullscreenenter"",""1"",""2760""
","
","
","""event"",""trial"",""time""
""fullscreenenter"",""1"",""2760""
","
","","","","","","851.3000001907349","images/plane5.png","","","learning","1","1","1","1","plane","vehicles","2","1","","bad","[-5]"
"html-keyboard-response","225","857685","0.0-11.0-2.0-0.18","7695","1","8","Male","approach_avoid_spark_v1","""event"",""trial"",""time""
""fullscreenenter"",""1"",""2760""
","
","
","""event"",""trial"",""time""
""fullscreenenter"",""1"",""2760""
","
","","","","","","null","<div style=""font-size:60px;"">+</div>","null","","fixation","","","","","","","","","","",""
"aa-learning-trial","226","860696","0.0-11.0-2.0-1.18","7695","1","8","Male","approach_avoid_spark_v1","""event"",""trial"",""time""
""fullscreenenter"",""1"",""2760""
","
","
","""event"",""trial"",""time""
""fullscreenenter"",""1"",""2760""
","
","","","","","","767.5","images/train5.png","","","learning","-9","0","0","0","train","vehicles","2","1","","neutral","0"
"html-keyboard-response","227","861216","0.0-11.0-2.0-0.19","7695","1","8","Male","approach_avoid_spark_v1","""event"",""trial"",""time""
""fullscreenenter"",""1"",""2760""
","
","
","""event"",""trial"",""time""
""fullscreenenter"",""1"",""2760""
","
","","","","","","null","<div style=""font-size:60px;"">+</div>","null","","fixation","","","","","","","","","","",""
"aa-learning-trial","228","864232","0.0-11.0-2.0-1.19","7695","1","8","Male","approach_avoid_spark_v1","""event"",""trial"",""time""
""fullscreenenter"",""1"",""2760""
","
","
","""event"",""trial"",""time""
""fullscreenenter"",""1"",""2760""
","
","","","","","","834.2999997138977","images/plane4.png","","","learning","5","5","1","1","plane","vehicles","2","1","","bad","[-5]"
"html-keyboard-response","229","864745","0.0-11.0-2.0-0.20","7695","1","8","Male","approach_avoid_spark_v1","""event"",""trial"",""time""
""fullscreenenter"",""1"",""2760""
","
","
","""event"",""trial"",""time""
""fullscreenenter"",""1"",""2760""
","
","","","","","","null","<div style=""font-size:60px;"">+</div>","null","","fixation","","","","","","","","","","",""
"aa-learning-trial","230","867749","0.0-11.0-2.0-1.20","7695","1","8","Male","approach_avoid_spark_v1","""event"",""trial"",""time""
""fullscreenenter"",""1"",""2760""
","
","
","""event"",""trial"",""time""
""fullscreenenter"",""1"",""2760""
","
","","","","","","694.4000000953674","images/truck2.png","","","learning","-4","0","0","0","truck","vehicles","2","1","","good","[5]"
"html-keyboard-response","231","868264","0.0-11.0-2.0-0.21","7695","1","8","Male","approach_avoid_spark_v1","""event"",""trial"",""time""
""fullscreenenter"",""1"",""2760""
","
","
","""event"",""trial"",""time""
""fullscreenenter"",""1"",""2760""
","
","","","","","","null","<div style=""font-size:60px;"">+</div>","null","","fixation","","","","","","","","","","",""
"aa-learning-trial","232","871281","0.0-11.0-2.0-1.21","7695","1","8","Male","approach_avoid_spark_v1","""event"",""trial"",""time""
""fullscreenenter"",""1"",""2760""
","
","
","""event"",""trial"",""time""
""fullscreenenter"",""1"",""2760""
","
","","","","","","831.7999997138977","images/plane7.png","","","learning","8","8","1","1","plane","vehicles","2","1","","bad","[-5]"
"html-keyboard-response","233","871787","0.0-11.0-2.0-0.22","7695","1","8","Male","approach_avoid_spark_v1","""event"",""trial"",""time""
""fullscreenenter"",""1"",""2760""
","
","
","""event"",""trial"",""time""
""fullscreenenter"",""1"",""2760""
","
","","","","","","null","<div style=""font-size:60px;"">+</div>","null","","fixation","","","","","","","","","","",""
"aa-learning-trial","234","874792","0.0-11.0-2.0-1.22","7695","1","8","Male","approach_avoid_spark_v1","""event"",""trial"",""time""
""fullscreenenter"",""1"",""2760""
","
","
","""event"",""trial"",""time""
""fullscreenenter"",""1"",""2760""
","
","","","","","","656.7999997138977","images/plane5.png","","","learning","1","1","1","1","plane","vehicles","2","1","","bad","[-5]"
"html-keyboard-response","235","875299","0.0-11.0-2.0-0.23","7695","1","8","Male","approach_avoid_spark_v1","""event"",""trial"",""time""
""fullscreenenter"",""1"",""2760""
","
","
","""event"",""trial"",""time""
""fullscreenenter"",""1"",""2760""
","
","","","","","","null","<div style=""font-size:60px;"">+</div>","null","","fixation","","","","","","","","","","",""
"aa-learning-trial","236","878316","0.0-11.0-2.0-1.23","7695","1","8","Male","approach_avoid_spark_v1","""event"",""trial"",""time""
""fullscreenenter"",""1"",""2760""
","
","
","""event"",""trial"",""time""
""fullscreenenter"",""1"",""2760""
","
","","","","","","458.2999997138977","images/truck5.png","","","learning","2","2","1","1","truck","vehicles","2","1","","good","[5]"
"html-keyboard-response","237","878834","0.0-11.0-2.0-0.24","7695","1","8","Male","approach_avoid_spark_v1","""event"",""trial"",""time""
""fullscreenenter"",""1"",""2760""
","
","
","""event"",""trial"",""time""
""fullscreenenter"",""1"",""2760""
","
","","","","","","null","<div style=""font-size:60px;"">+</div>","null","","fixation","","","","","","","","","","",""
"aa-learning-trial","238","881846","0.0-11.0-2.0-1.24","7695","1","8","Male","approach_avoid_spark_v1","""event"",""trial"",""time""
""fullscreenenter"",""1"",""2760""
","
","
","""event"",""trial"",""time""
""fullscreenenter"",""1"",""2760""
","
