"trial_type","trial_index","time_elapsed","internal_node_id","subject_id","task_condition","age","gender","task_version","interactions","blur_events","focus_events","fullscreenenter_events","fullscreenexit_events","success","timeout","failed_images","failed_audio","failed_video","rt","stimulus","response","button_pressed","task_part","approach_reward","points","key_press","option_selected","stim_cat","task_block","block_condition","block_number","correct","cat_type","mean_cat_reward"
"pavlovia","0","5","0.0-0.0","6293","1","10","Female","approach_avoid_spark_v1","""event"",""trial"",""time""
""fullscreenenter"",""1"",""3192""
","
","
","""event"",""trial"",""time""
""fullscreenenter"",""1"",""3192""
","
","","","","","","","","","","","","","","","","","","","","",""
"fullscreen","1","4188","0.0-1.0","6293","1","10","Female","approach_avoid_spark_v1","""event"",""trial"",""time""
""fullscreenenter"",""1"",""3192""
","
","
","""event"",""trial"",""time""
""fullscreenenter"",""1"",""3192""
","
","true","","","","","","","","","","","","","","","","","","","",""
"preload","2","10653","0.0-2.0","6293","1","10","Female","approach_avoid_spark_v1","""event"",""trial"",""time""
""fullscreenenter"",""1"",""3192""
","
","
","""event"",""trial"",""time""
""fullscreenenter"",""1"",""3192""
","
","true","false","[]","[]","[]","","","","","","","","","","","","","","","",""
"audio-keyboard-response","3","23078","0.0-3.0","6293","1","10","Female","approach_avoid_spark_v1","""event"",""trial"",""time""
""fullscreenenter"",""1"",""3192""
","
","
","""event"",""trial"",""time""
""fullscreenenter"",""1"",""3192""
","
","","","","","","12422.675736961452","audio/beep_loop.wav"," ","","","","","","","","","","","","",""
"audio-button-response","4","25833","0.0-4.0","6293","1","10","Female","approach_avoid_spark_v1","""event"",""trial"",""time""
""fullscreenenter"",""1"",""3192""
","
","
","""event"",""trial"",""time""
""fullscreenenter"",""1"",""3192""
","
","","","","","","2752","audio/shark.wav","4","","","","","","","","","","","","",""
"audio-button-response","5","28386","0.0-5.0","6293","1","10","Female","approach_avoid_spark_v1","""event"",""trial"",""time""
""fullscreenenter"",""1"",""3192""
","
","
","""event"",""trial"",""time""
""fullscreenenter"",""1"",""3192""
","
","","","","","","1544","audio/turtle.wav","1","","","","","","","","","","","","",""
"preload","6","31847","0.0-6.0","6293","1","10","Female","approach_avoid_spark_v1","""event"",""trial"",""time""
""fullscreenenter"",""1"",""3192""
","
","
","""event"",""trial"",""time""
""fullscreenenter"",""1"",""3192""
","
","true","false","[]","[]","[]","","","","","","","","","","","","","","","",""
"html-keyboard-response","7","39052","0.0-7.0","6293","1","10","Female","approach_avoid_spark_v1","""event"",""trial"",""time""
""fullscreenenter"",""1"",""3192""
","
","
","""event"",""trial"",""time""
""fullscreenenter"",""1"",""3192""
","
","","","","","","7203.399999999965","Welcome to the experiment. Press any key to begin and to advance the instructions."," ","","","","","","","","","","","","",""
"learning-instructions","8","47402","0.0-8.0-0.0-0.0","6293","1","10","Female","approach_avoid_spark_v1","""event"",""trial"",""time""
""fullscreenenter"",""1"",""3192""
","
","
","""event"",""trial"",""time""
""fullscreenenter"",""1"",""3192""
","
","","","","","","1398.2000000000116","<p> Welcome! Today you are going to play 6 different rounds of a decision-making game. </p><p> Use the mouse to click next to continue. </p>","","0","instructions","","","","","","","","","","",""
"learning-instructions","9","51385","0.0-8.0-0.0-0.1","6293","1","10","Female","approach_avoid_spark_v1","""event"",""trial"",""time""
""fullscreenenter"",""1"",""3192""
","
","
","""event"",""trial"",""time""
""fullscreenenter"",""1"",""3192""
","
","","","","","","1254.600000000035","<p> You will start with a practice round to learn the rules. </p>","","0","instructions","","","","","","","","","","",""
"learning-instructions","10","55485","0.0-8.0-0.0-0.2","6293","1","10","Female","approach_avoid_spark_v1","""event"",""trial"",""time""
""fullscreenenter"",""1"",""3192""
","
","
","""event"",""trial"",""time""
""fullscreenenter"",""1"",""3192""
","
","","","","","","646.8000000000466","<p> Your goal in this round is to give out sports equipment to kids. </p></div>","","0","instructions","","","","","","","","","","",""
"learning-instructions","11","64869","0.0-8.0-0.0-0.3","6293","1","10","Female","approach_avoid_spark_v1","""event"",""trial"",""time""
""fullscreenenter"",""1"",""3192""
","
","
","""event"",""trial"",""time""
""fullscreenenter"",""1"",""3192""
","
","","","","","","1840.399999999965","<p> The kids only like some of the equipment.  </p><p> On each turn, you will see a piece of sports equipment.   </p><p> You need to decide whether to give it to the kids or not.  </p>","","0","instructions","","","","","","","","","","",""
"learning-instructions","12","70770","0.0-8.0-0.0-0.4","6293","1","10","Female","approach_avoid_spark_v1","""event"",""trial"",""time""
""fullscreenenter"",""1"",""3192""
","
","
","""event"",""trial"",""time""
""fullscreenenter"",""1"",""3192""
","
","","","","","","1151.7999999999884","<p> You can give them the equipment by pressing 1 and choose not to give it to them by pressing 0. </p><br><div class=""choice-instructions-grid""> <div class=""choice-option""><img src=""images/approach.png"" class=""choice-option-img"" stage=""instructions"" position=""0"" ><div class=""choice-option-text""> Press ""1."" </div></div><div class=""choice-option""><img src=""images/avoid.png"" class=""choice-option-img"" stage=""instructions"" position=""1"" ><div class=""choice-option-text""> Press ""0."" </div></div>","","0","instructions","","","","","","","","","","",""
"learning-instructions","13","80070","0.0-8.0-0.0-0.5","6293","1","10","Female","approach_avoid_spark_v1","""event"",""trial"",""time""
""fullscreenenter"",""1"",""3192""
","
","
","""event"",""trial"",""time""
""fullscreenenter"",""1"",""3192""
","
","","","","","","1913","<p> If you give them a piece of equipment they like, they will be happy! </p><p> But if you give them a piece of equipment they do not like, they will be sad. </p>","","0","instructions","","","","","","","","","","",""
"learning-instructions","14","91321","0.0-8.0-0.0-0.6","6293","1","10","Female","approach_avoid_spark_v1","""event"",""trial"",""time""
""fullscreenenter"",""1"",""3192""
","
","
","""event"",""trial"",""time""
""fullscreenenter"",""1"",""3192""
","
","","","","","","747.5","<p> You will earn points based on how you make kids feel. </p><p> If you make them happy, you will WIN anywhere from 1 - 9 points, </p><p> but if you make them sad, you will LOSE anywhere from 1 - 9 points. </p>","","0","instructions","","","","","","","","","","",""
"learning-instructions","15","102289","0.0-8.0-0.0-0.7","6293","1","10","Female","approach_avoid_spark_v1","""event"",""trial"",""time""
""fullscreenenter"",""1"",""3192""
","
","
","""event"",""trial"",""time""
""fullscreenenter"",""1"",""3192""
","
","","","","","","1405.7999999999884","<p> You will see how many points you won or lost in the center of the screen. </p><p> Here is what you would see if you won 6 points: </p><p style=""color:green;font-size:50px;font-weight:bolder"">6</p><p style=""color:green"">The text is GREEN because you WON points.</p>","","0","instructions","","","","","","","","","","",""
"learning-instructions","16","108922","0.0-8.0-0.0-0.8","6293","1","10","Female","approach_avoid_spark_v1","""event"",""trial"",""time""
""fullscreenenter"",""1"",""3192""
","
","
","""event"",""trial"",""time""
""fullscreenenter"",""1"",""3192""
","
","","","","","","1124.7999999999884","<p> And here is what you would see if you lost 4 points: </p><p style=""color:red;font-size:50px;font-weight:bolder"">-4</p><p style=""color:red"">The text is RED because you LOST points. </p>","","0","instructions","","","","","","","","","","",""
"learning-instructions","17","124590","0.0-8.0-0.0-0.9","6293","1","10","Female","approach_avoid_spark_v1","""event"",""trial"",""time""
""fullscreenenter"",""1"",""3192""
","
","
","""event"",""trial"",""time""
""fullscreenenter"",""1"",""3192""
","
","","","","","","950.6000000000349","<p> Some of the equipment will make the kids VERY happy or sad. </p><p> These pieces of equipment will make you win or lose LOTS of points. </p><p> Other pieces of equipment will only make the kids a little happy or sad. </p><p> These pieces of equipment will make you win or lose small amounts of points. </p>","","0","instructions","","","","","","","","","","",""
"learning-instructions","18","136007","0.0-8.0-0.0-0.10","6293","1","10","Female","approach_avoid_spark_v1","""event"",""trial"",""time""
""fullscreenenter"",""1"",""3192""
","
","
","""event"",""trial"",""time""
""fullscreenenter"",""1"",""3192""
","
","","","","","","793","<p> If you choose not to give them the equipment, you will not win or lose any points. </p><p>  However, in the center of the screen, you will see the number of points you WOULD HAVE won or lost if you had given them the equipment. </p>","","0","instructions","","","","","","","","","","",""
"learning-instructions","19","158527","0.0-8.0-0.0-0.11","6293","1","10","Female","approach_avoid_spark_v1","""event"",""trial"",""time""
""fullscreenenter"",""1"",""3192""
","
","
","""event"",""trial"",""time""
""fullscreenenter"",""1"",""3192""
","
","","","","","","991.8000000000466","<p> Here is what you might see if you did not give the equipment to the kids but it would have made them happy: </p><p style=""color:grey; font-size:50px; display: inline-block; border-spacing: 15px; border-width:3px; border-style:solid; border-color:red"">  &nbsp; 7 &nbsp; </p><p> Remember, in this case, you would not win or lose ANY points because you did not give them the equipment.  </p><p style=""color:grey"">The text is GREY because you earned ZERO points. </p><p style=""color:red"">However, choosing to give the kids the equipment would have made you win points. The box around the text is RED because you chose the worse option. </p>","","0","instructions","","","","","","","","","","",""
"learning-instructions","20","180728","0.0-8.0-0.0-0.12","6293","1","10","Female","approach_avoid_spark_v1","""event"",""trial"",""time""
""fullscreenenter"",""1"",""3192""
","
","
","""event"",""trial"",""time""
""fullscreenenter"",""1"",""3192""
","
","","","","","","1128","<p> Here is what you might see if you did not give the equipment to the kids but it would have made them sad: </p><p style=""color:grey;font-size:50px; display: inline-block; border-spacing: 15px; border-width:3px; border-style:solid; border-color:green"">  &nbsp; -8 &nbsp; </p><p> Remember, in this case, you would not win or lose ANY points because you did not give them the equipment.  </p><p style=""color:grey"">The text is GREY because you earned ZERO points. </p><p  style=""color:green""> Choosing to give the kids the equipment would have made you lose points. The box around the text is GREEN because you chose the better option.</p>","","0","instructions","","","","","","","","","","",""
"learning-instructions","21","190479","0.0-8.0-0.0-0.13","6293","1","10","Female","approach_avoid_spark_v1","""event"",""trial"",""time""
""fullscreenenter"",""1"",""3192""
","
","
","""event"",""trial"",""time""
""fullscreenenter"",""1"",""3192""
","
","","","","","","958.5","<p> You will have 3 seconds to make each choice. Try to respond before time runs out! </p><p> You will lose 5 points each time you do not make a response. </p>","","0","instructions","","","","","","","","","","",""
"learning-instructions","22","196679","0.0-8.0-0.0-0.14","6293","1","10","Female","approach_avoid_spark_v1","""event"",""trial"",""time""
""fullscreenenter"",""1"",""3192""
","
","
","""event"",""trial"",""time""
""fullscreenenter"",""1"",""3192""
","
","","","","","","790.5999999999767","<p> This is just a practice round, but in the real game, your bonus payment will depend on your total number of points.","","0","instructions","","","","","","","","","","",""
"learning-instructions","23","203263","0.0-8.0-0.0-0.15","6293","1","10","Female","approach_avoid_spark_v1","""event"",""trial"",""time""
""fullscreenenter"",""1"",""3192""
","
","
","""event"",""trial"",""time""
""fullscreenenter"",""1"",""3192""
","
","","","","","","825.7000000000116","<p> Remember, you can give them the equipment by pressing 1 and choose not to give it to them by pressing 0. </p><br><div class=""choice-instructions-grid""> <div class=""choice-option""><img src=""images/approach.png"" class=""choice-option-img"" stage=""instructions"" position=""0"" ><div class=""choice-option-text""> Press ""1."" </div></div><div class=""choice-option""><img src=""images/avoid.png"" class=""choice-option-img"" stage=""instructions"" position=""1"" ><div class=""choice-option-text""> Press ""0."" </div></div>","","0","instructions","","","","","","","","","","",""
"html-button-response","24","204614","0.0-8.0-1.0","6293","1","10","Female","approach_avoid_spark_v1","""event"",""trial"",""time""
""fullscreenenter"",""1"",""3192""
","
","
","""event"",""trial"",""time""
""fullscreenenter"",""1"",""3192""
","
","","","","","","1245.2999999999884","<p> Ready to practice? </p>","0","","","","","","","","","","","","",""
"html-keyboard-response","25","205222","0.0-8.0-2.0-0.0","6293","1","10","Female","approach_avoid_spark_v1","""event"",""trial"",""time""
""fullscreenenter"",""1"",""3192""
","
","
","""event"",""trial"",""time""
""fullscreenenter"",""1"",""3192""
","
","","","","","","null","<div style=""font-size:60px;"">+</div>","null","","fixation","","","","","","","","","","",""
"aa-learning-trial","26","208229","0.0-8.0-2.0-1.0","6293","1","10","Female","approach_avoid_spark_v1","""event"",""trial"",""time""
""fullscreenenter"",""1"",""3192""
","
","
","""event"",""trial"",""time""
""fullscreenenter"",""1"",""3192""
","
","","","","","","null","images/racket4.png","","","learning","-9","-5","","null","practice","practice","practice","-1","","",""
"html-keyboard-response","27","208734","0.0-8.0-2.0-0.1","6293","1","10","Female","approach_avoid_spark_v1","""event"",""trial"",""time""
""fullscreenenter"",""1"",""3192""
","
","
","""event"",""trial"",""time""
""fullscreenenter"",""1"",""3192""
","
","","","","","","null","<div style=""font-size:60px;"">+</div>","null","","fixation","","","","","","","","","","",""
"aa-learning-trial","28","211741","0.0-8.0-2.0-1.1","6293","1","10","Female","approach_avoid_spark_v1","""event"",""trial"",""time""
""fullscreenenter"",""1"",""3192""
","
","
","""event"",""trial"",""time""
""fullscreenenter"",""1"",""3192""
","
","","","","","","991.3999999999651","images/ball4.png","","","learning","-9","-9","1","1","practice","practice","practice","-1","","",""
"html-keyboard-response","29","212246","0.0-8.0-2.0-0.2","6293","1","10","Female","approach_avoid_spark_v1","""event"",""trial"",""time""
""fullscreenenter"",""1"",""3192""
","
","
","""event"",""trial"",""time""
""fullscreenenter"",""1"",""3192""
","
","","","","","","null","<div style=""font-size:60px;"">+</div>","null","","fixation","","","","","","","","","","",""
"aa-learning-trial","30","215253","0.0-8.0-2.0-1.2","6293","1","10","Female","approach_avoid_spark_v1","""event"",""trial"",""time""
""fullscreenenter"",""1"",""3192""
","
","
","""event"",""trial"",""time""
""fullscreenenter"",""1"",""3192""
","
","","","","","","1019.6999999999534","images/ball4.png","","","learning","6","0","0","0","practice","practice","practice","-1","","",""
"html-keyboard-response","31","215758","0.0-8.0-2.0-0.3","6293","1","10","Female","approach_avoid_spark_v1","""event"",""trial"",""time""
""fullscreenenter"",""1"",""3192""
","
","
","""event"",""trial"",""time""
""fullscreenenter"",""1"",""3192""
","
","","","","","","null","<div style=""font-size:60px;"">+</div>","null","","fixation","","","","","","","","","","",""
"aa-learning-trial","32","218765","0.0-8.0-2.0-1.3","6293","1","10","Female","approach_avoid_spark_v1","""event"",""trial"",""time""
""fullscreenenter"",""1"",""3192""
","
","
","""event"",""trial"",""time""
""fullscreenenter"",""1"",""3192""
","
","","","","","","1136.100000000035","images/ball2.png","","","learning","-3","-3","1","1","practice","practice","practice","-1","","",""
"html-keyboard-response","33","219270","0.0-8.0-2.0-0.4","6293","1","10","Female","approach_avoid_spark_v1","""event"",""trial"",""time""
""fullscreenenter"",""1"",""3192""
","
","
","""event"",""trial"",""time""
""fullscreenenter"",""1"",""3192""
","
","","","","","","null","<div style=""font-size:60px;"">+</div>","null","","fixation","","","","","","","","","","",""
"aa-learning-trial","34","222281","0.0-8.0-2.0-1.4","6293","1","10","Female","approach_avoid_spark_v1","""event"",""trial"",""time""
""fullscreenenter"",""1"",""3192""
","
","
","""event"",""trial"",""time""
""fullscreenenter"",""1"",""3192""
","
","","","","","","876.9000000000233","images/ball2.png","","","learning","-1","0","0","0","practice","practice","practice","-1","","",""
"html-keyboard-response","35","222793","0.0-8.0-2.0-0.5","6293","1","10","Female","approach_avoid_spark_v1","""event"",""trial"",""time""
""fullscreenenter"",""1"",""3192""
","
","
","""event"",""trial"",""time""
""fullscreenenter"",""1"",""3192""
","
","","","","","","null","<div style=""font-size:60px;"">+</div>","null","","fixation","","","","","","","","","","",""
"aa-learning-trial","36","225801","0.0-8.0-2.0-1.5","6293","1","10","Female","approach_avoid_spark_v1","""event"",""trial"",""time""
""fullscreenenter"",""1"",""3192""
","
","
","""event"",""trial"",""time""
""fullscreenenter"",""1"",""3192""
","
","","","","","","842.0999999999767","images/racket4.png","","","learning","-7","0","0","0","practice","practice","practice","-1","","",""
"html-keyboard-response","37","226311","0.0-8.0-2.0-0.6","6293","1","10","Female","approach_avoid_spark_v1","""event"",""trial"",""time""
""fullscreenenter"",""1"",""3192""
","
","
","""event"",""trial"",""time""
""fullscreenenter"",""1"",""3192""
","
","","","","","","null","<div style=""font-size:60px;"">+</div>","null","","fixation","","","","","","","","","","",""
"aa-learning-trial","38","229318","0.0-8.0-2.0-1.6","6293","1","10","Female","approach_avoid_spark_v1","""event"",""trial"",""time""
""fullscreenenter"",""1"",""3192""
","
","
","""event"",""trial"",""time""
""fullscreenenter"",""1"",""3192""
","
","","","","","","1520.100000000035","images/racket3.png","","","learning","8","8","1","1","practice","practice","practice","-1","","",""
"html-keyboard-response","39","229822","0.0-8.0-2.0-0.7","6293","1","10","Female","approach_avoid_spark_v1","""event"",""trial"",""time""
""fullscreenenter"",""1"",""3192""
","
","
","""event"",""trial"",""time""
""fullscreenenter"",""1"",""3192""
","
","","","","","","null","<div style=""font-size:60px;"">+</div>","null","","fixation","","","","","","","","","","",""
"aa-learning-trial","40","232832","0.0-8.0-2.0-1.7","6293","1","10","Female","approach_avoid_spark_v1","""event"",""trial"",""time""
""fullscreenenter"",""1"",""3192""
","
","
","""event"",""trial"",""time""
""fullscreenenter"",""1"",""3192""
","
","","","","","","721.4000000000233","images/ball3.png","","","learning","-5","-5","1","1","practice","practice","practice","-1","","",""
"html-keyboard-response","41","233342","0.0-8.0-2.0-0.8","6293","1","10","Female","approach_avoid_spark_v1","""event"",""trial"",""time""
""fullscreenenter"",""1"",""3192""
","
","
","""event"",""trial"",""time""
""fullscreenenter"",""1"",""3192""
","
","","","","","","null","<div style=""font-size:60px;"">+</div>","null","","fixation","","","","","","","","","","",""
"aa-learning-trial","42","236350","0.0-8.0-2.0-1.8","6293","1","10","Female","approach_avoid_spark_v1","""event"",""trial"",""time""
""fullscreenenter"",""1"",""3192""
","
","
","""event"",""trial"",""time""
""fullscreenenter"",""1"",""3192""
","
","","","","","","307.3999999999651","images/racket3.png","","","learning","-5","0","0","0","practice","practice","practice","-1","","",""
"html-keyboard-response","43","236853","0.0-8.0-2.0-0.9","6293","1","10","Female","approach_avoid_spark_v1","""event"",""trial"",""time""
""fullscreenenter"",""1"",""3192""
","
","
","""event"",""trial"",""time""
""fullscreenenter"",""1"",""3192""
","
","","","","","","null","<div style=""font-size:60px;"">+</div>","null","","fixation","","","","","","","","","","",""
"aa-learning-trial","44","239866","0.0-8.0-2.0-1.9","6293","1","10","Female","approach_avoid_spark_v1","""event"",""trial"",""time""
""fullscreenenter"",""1"",""3192""
","
","
","""event"",""trial"",""time""
""fullscreenenter"",""1"",""3192""
","
","","","","","","291.70000000001164","images/ball4.png","","","learning","-7","0","0","0","practice","practice","practice","-1","","",""
"html-keyboard-response","45","240378","0.0-8.0-2.0-0.10","6293","1","10","Female","approach_avoid_spark_v1","""event"",""trial"",""time""
""fullscreenenter"",""1"",""3192""
","
","
","""event"",""trial"",""time""
""fullscreenenter"",""1"",""3192""
","
","","","","","","null","<div style=""font-size:60px;"">+</div>","null","","fixation","","","","","","","","","","",""
"aa-learning-trial","46","243385","0.0-8.0-2.0-1.10","6293","1","10","Female","approach_avoid_spark_v1","""event"",""trial"",""time""
""fullscreenenter"",""1"",""3192""
","
","
","""event"",""trial"",""time""
""fullscreenenter"",""1"",""3192""
","
","","","","","","355.1000000000349","images/ball4.png","","","learning","1","1","1","1","practice","practice","practice","-1","","",""
"html-keyboard-response","47","243894","0.0-8.0-2.0-0.11","6293","1","10","Female","approach_avoid_spark_v1","""event"",""trial"",""time""
""fullscreenenter"",""1"",""3192""
","
","
","""event"",""trial"",""time""
""fullscreenenter"",""1"",""3192""
","
","","","","","","null","<div style=""font-size:60px;"">+</div>","null","","fixation","","","","","","","","","","",""
"aa-learning-trial","48","246903","0.0-8.0-2.0-1.11","6293","1","10","Female","approach_avoid_spark_v1","""event"",""trial"",""time""
""fullscreenenter"",""1"",""3192""
","
","
","""event"",""trial"",""time""
""fullscreenenter"",""1"",""3192""
","
","","","","","","370.4000000000233","images/racket2.png","","","learning","1","1","1","1","practice","practice","practice","-1","","",""
"html-button-response","49","248716","0.0-8.0-3.0","6293","1","10","Female","approach_avoid_spark_v1","""event"",""trial"",""time""
""fullscreenenter"",""1"",""3192""
","
","
","""event"",""trial"",""time""
""fullscreenenter"",""1"",""3192""
","
","","","","","","1810.5","<p> You earned -12 points in the practice round! </p>","0","","break","","","","","","","","","","",""
"learning-instructions","50","255700","0.0-8.0-4.0-0.0","6293","1","10","Female","approach_avoid_spark_v1","""event"",""trial"",""time""
""fullscreenenter"",""1"",""3192""
","
","
","""event"",""trial"",""time""
""fullscreenenter"",""1"",""3192""
","
","","","","","","926.3999999999069","<p> It's almost time to start the real game. </p><p> Before you start, we're going to ask you a few questions about how the game works. </p>","","0","instructions","","","","","","","","","","",""
"preload","51","256941","0.0-8.0-5.0","6293","1","10","Female","approach_avoid_spark_v1","""event"",""trial"",""time""
""fullscreenenter"",""1"",""3192""
","
","
","""event"",""trial"",""time""
""fullscreenenter"",""1"",""3192""
","
","true","false","[]","[]","[]","","","","","","","","","","","","","","","",""
"comp-q","52","263618","0.0-8.0-6.0-0.0","6293","1","10","Female","approach_avoid_spark_v1","""event"",""trial"",""time""
""fullscreenenter"",""1"",""3192""
","
","
","""event"",""trial"",""time""
""fullscreenenter"",""1"",""3192""
","
","","","","","","1685.7000000000698","<p> <b> True or False? </b> </p><p> If you see a number in GREY, that means you earned that many points. </p>","","1","comp_question","","","","","","","","","true","",""
"comp-q","53","273318","0.0-8.0-6.0-1.0","6293","1","10","Female","approach_avoid_spark_v1","""event"",""trial"",""time""
""fullscreenenter"",""1"",""3192""
","
","
","""event"",""trial"",""time""
""fullscreenenter"",""1"",""3192""
","
","","","","","","1332.5","<p><b> That's right! </b> If you see a grey number, it means you earned ZERO points. <br> The grey numbers show the points you WOULD HAVE earned if you had made the other choice. </p>","","0","comp_answer","","","","","","","","","","",""
"comp-q","54","278618","0.0-8.0-7.0-0.0","6293","1","10","Female","approach_avoid_spark_v1","""event"",""trial"",""time""
""fullscreenenter"",""1"",""3192""
","
","
","""event"",""trial"",""time""
""fullscreenenter"",""1"",""3192""
","
","","","","","","613","<p> <b> True or False? </b> </p><p> You will have as much time as you want to make each choice. </p>","","1","comp_question","","","","","","","","","true","",""
"comp-q","55","283236","0.0-8.0-7.0-1.0","6293","1","10","Female","approach_avoid_spark_v1","""event"",""trial"",""time""
""fullscreenenter"",""1"",""3192""
","
","
","""event"",""trial"",""time""
""fullscreenenter"",""1"",""3192""
","
","","","","","","567.8000000000466","<p> <b> That's right! </b> You will only have 3 seconds to make each choice. </p>","","0","comp_answer","","","","","","","","","","",""
"comp-q","56","288369","0.0-8.0-8.0-0.0","6293","1","10","Female","approach_avoid_spark_v1","""event"",""trial"",""time""
""fullscreenenter"",""1"",""3192""
","
","
","""event"",""trial"",""time""
""fullscreenenter"",""1"",""3192""
","
","","","","","","471.89999999990687","<p> <b> True or False? </b> </p><p> You should use the '1' and '0' keys to make your choices. </p>","","0","comp_question","","","","","","","","","true","",""
"comp-q","57","293853","0.0-8.0-8.0-1.0","6293","1","10","Female","approach_avoid_spark_v1","""event"",""trial"",""time""
""fullscreenenter"",""1"",""3192""
","
","
","""event"",""trial"",""time""
""fullscreenenter"",""1"",""3192""
","
","","","","","","876.5","<p> <b> That's right! </b> You should use the '1' and '0' keys to make each choice. </p>","","0","comp_answer","","","","","","","","","","",""
"learning-instructions","58","301670","0.0-8.0-9.0-0.0","6293","1","10","Female","approach_avoid_spark_v1","""event"",""trial"",""time""
""fullscreenenter"",""1"",""3192""
","
","
","""event"",""trial"",""time""
""fullscreenenter"",""1"",""3192""
","
","","","","","","1547.9000000000233","<p> It's now time to start the real game. </p>Do your best, because the points you earn in the next rounds will influence your bonus payment. </p>","","0","instructions","","","","","","","","","","",""
"preload","59","301798","0.0-9.0-0.0","6293","1","10","Female","approach_avoid_spark_v1","""event"",""trial"",""time""
""fullscreenenter"",""1"",""3192""
","
","
","""event"",""trial"",""time""
""fullscreenenter"",""1"",""3192""
","
","true","false","[]","[]","[]","","","","","","","","","","","","","","","",""
"learning-instructions","60","307437","0.0-9.0-1.0-0.0","6293","1","10","Female","approach_avoid_spark_v1","""event"",""trial"",""time""
""fullscreenenter"",""1"",""3192""
","
","
","""event"",""trial"",""time""
""fullscreenenter"",""1"",""3192""
","
","","","","","","761.4000000000233","<p> Your goal in this round is to sell different plants to a picky customer. </p></div>","","0","instructions","","","","","","","","","","",""
"learning-instructions","61","316988","0.0-9.0-1.0-0.1","6293","1","10","Female","approach_avoid_spark_v1","""event"",""trial"",""time""
""fullscreenenter"",""1"",""3192""
","
","
","""event"",""trial"",""time""
""fullscreenenter"",""1"",""3192""
","
","","","","","","489.5","<p> The customer likes some plants and dislikes others.  </p><p> On each turn, you will see a plant.   </p><p> You need to decide whether to offer it to the customer or not.  </p>","","0","instructions","","","","","","","","","","",""
"learning-instructions","62","322938","0.0-9.0-1.0-0.2","6293","1","10","Female","approach_avoid_spark_v1","""event"",""trial"",""time""
""fullscreenenter"",""1"",""3192""
","
","
","""event"",""trial"",""time""
""fullscreenenter"",""1"",""3192""
","
","","","","","","565.1999999999534","<p> You can offer the plant by pressing 1 and decide to not offer it by pressing 0. </p><br><div class=""choice-instructions-grid""> <div class=""choice-option""><img src=""images/approach.png"" class=""choice-option-img"" stage=""instructions"" position=""0"" ><div class=""choice-option-text""> Press ""1."" </div></div><div class=""choice-option""><img src=""images/avoid.png"" class=""choice-option-img"" stage=""instructions"" position=""1"" ><div class=""choice-option-text""> Press ""0."" </div></div>","","0","instructions","","","","","","","","","","",""
"learning-instructions","63","332573","0.0-9.0-1.0-0.3","6293","1","10","Female","approach_avoid_spark_v1","""event"",""trial"",""time""
""fullscreenenter"",""1"",""3192""
","
","
","""event"",""trial"",""time""
""fullscreenenter"",""1"",""3192""
","
","","","","","","969.7000000000698","<p> If you offer a plant to the customer that she likes, she will be very pleased! </p><p> But if you offer a plant that she does NOT like, she will be annoyed. </p>","","0","instructions","","","","","","","","","","",""
"learning-instructions","64","345189","0.0-9.0-1.0-0.4","6293","1","10","Female","approach_avoid_spark_v1","""event"",""trial"",""time""
""fullscreenenter"",""1"",""3192""
","
","
","""event"",""trial"",""time""
""fullscreenenter"",""1"",""3192""
","
","","","","","","472.79999999993015","<p> You will earn points based on how you made the customer feel. </p><p> If you made her pleased, you will WIN anywhere from 1 - 9 points, </p><p> but if you made her annoyed, you will LOSE anywhere from 1 - 9 points. </p>","","0","instructions","","","","","","","","","","",""
"learning-instructions","65","353740","0.0-9.0-1.0-0.5","6293","1","10","Female","approach_avoid_spark_v1","""event"",""trial"",""time""
""fullscreenenter"",""1"",""3192""
","
","
","""event"",""trial"",""time""
""fullscreenenter"",""1"",""3192""
","
","","","","","","1291.6999999999534","<p> You will see how many points you won or lost in the center of the screen. </p><p> Here is what you would see if you won 5 points: </p><p style=""color:green;font-size:50px;font-weight:bolder"">5</p>","","0","instructions","","","","","","","","","","",""
"learning-instructions","66","357690","0.0-9.0-1.0-0.6","6293","1","10","Female","approach_avoid_spark_v1","""event"",""trial"",""time""
""fullscreenenter"",""1"",""3192""
","
","
","""event"",""trial"",""time""
""fullscreenenter"",""1"",""3192""
","
","","","","","","714.3999999999069","<p> And here is what you would see if you lost 3 points: </p><p style=""color:red;font-size:50px;font-weight:bolder"">-3</p>","","0","instructions","","","","","","","","","","",""
"learning-instructions","67","372744","0.0-9.0-1.0-0.7","6293","1","10","Female","approach_avoid_spark_v1","""event"",""trial"",""time""
""fullscreenenter"",""1"",""3192""
","
","
","""event"",""trial"",""time""
""fullscreenenter"",""1"",""3192""
","
","","","","","","697.2999999999302","<p> Some plants will make the customer VERY pleased or annoyed. </p><p> These plants will make you win or lose LOTS of points. </p><p> The customer will have less strong feelings about other plants. </p><p> These plants will make you win or lose small amounts of points. </p>","","0","instructions","","","","","","","","","","",""
"learning-instructions","68","386459","0.0-9.0-1.0-0.8","6293","1","10","Female","approach_avoid_spark_v1","""event"",""trial"",""time""
""fullscreenenter"",""1"",""3192""
","
","
","""event"",""trial"",""time""
""fullscreenenter"",""1"",""3192""
","
","","","","","","1479.0999999999767","<p> If you choose to not offer the plant to the customer, you will not win or lose any points. </p><p>  However, in the center of the screen, you will see the number of points you WOULD HAVE won or lost if you had offered the plant. </p>","","0","instructions","","","","","","","","","","",""
"learning-instructions","69","399327","0.0-9.0-1.0-0.9","6293","1","10","Female","approach_avoid_spark_v1","""event"",""trial"",""time""
""fullscreenenter"",""1"",""3192""
","
","
","""event"",""trial"",""time""
""fullscreenenter"",""1"",""3192""
","
","","","","","","1708.9000000000233","<p> Here is what you might see if you did not offer the plant but the customer would have liked it: </p><p style=""color:grey; font-size:50px; display: inline-block; border-spacing: 15px; border-width:3px; border-style:solid; border-color:red"">  &nbsp; 6 &nbsp; </p><p> Remember, in this case, you would not win or lose ANY points because you did not offer the plant.  </p>","","0","instructions","","","","","","","","","","",""
"learning-instructions","70","407261","0.0-9.0-1.0-0.10","6293","1","10","Female","approach_avoid_spark_v1","""event"",""trial"",""time""
""fullscreenenter"",""1"",""3192""
","
","
","""event"",""trial"",""time""
""fullscreenenter"",""1"",""3192""
","
","","","","","","570.6999999999534","<p> Try to make the best choice for each plant because </p><p> at the end of the game, you will earn bonus money based on how many points you earned. </p>","","0","instructions","","","","","","","","","","",""
"learning-instructions","71","415861","0.0-9.0-1.0-0.11","6293","1","10","Female","approach_avoid_spark_v1","""event"",""trial"",""time""
""fullscreenenter"",""1"",""3192""
","
","
","""event"",""trial"",""time""
""fullscreenenter"",""1"",""3192""
","
","","","","","","411","<p> You will have 3 seconds to make each choice. Try to respond before time runs out! </p><p> You will lose 5 points each time you do not make a response. </p>","","0","instructions","","","","","","","","","","",""
"html-keyboard-response","72","416469","0.0-9.0-2.0-0.0","6293","1","10","Female","approach_avoid_spark_v1","""event"",""trial"",""time""
""fullscreenenter"",""1"",""3192""
","
","
","""event"",""trial"",""time""
""fullscreenenter"",""1"",""3192""
","
","","","","","","null","<div style=""font-size:60px;"">+</div>","null","","fixation","","","","","","","","","","",""
"aa-learning-trial","73","419478","0.0-9.0-2.0-1.0","6293","1","10","Female","approach_avoid_spark_v1","""event"",""trial"",""time""
""fullscreenenter"",""1"",""3192""
","
","
","""event"",""trial"",""time""
""fullscreenenter"",""1"",""3192""
","
","","","","","","1675.1999999999534","images/tree3.png","","","learning","-8","-8","1","1","tree","plants","1","0","","bad","[-5]"
"html-keyboard-response","74","419983","0.0-9.0-2.0-0.1","6293","1","10","Female","approach_avoid_spark_v1","""event"",""trial"",""time""
""fullscreenenter"",""1"",""3192""
","
","
","""event"",""trial"",""time""
""fullscreenenter"",""1"",""3192""
","
","","","","","","null","<div style=""font-size:60px;"">+</div>","null","","fixation","","","","","","","","","","",""
"aa-learning-trial","75","422990","0.0-9.0-2.0-1.1","6293","1","10","Female","approach_avoid_spark_v1","""event"",""trial"",""time""
""fullscreenenter"",""1"",""3192""
","
","
","""event"",""trial"",""time""
""fullscreenenter"",""1"",""3192""
","
","","","","","","688.2000000000698","images/bush3.png","","","learning","5","0","0","0","bush","plants","1","0","","good","[3]"
"html-keyboard-response","76","423495","0.0-9.0-2.0-0.2","6293","1","10","Female","approach_avoid_spark_v1","""event"",""trial"",""time""
""fullscreenenter"",""1"",""3192""
","
","
","""event"",""trial"",""time""
""fullscreenenter"",""1"",""3192""
","
","","","","","","null","<div style=""font-size:60px;"">+</div>","null","","fixation","","","","","","","","","","",""
"aa-learning-trial","77","426502","0.0-9.0-2.0-1.2","6293","1","10","Female","approach_avoid_spark_v1","""event"",""trial"",""time""
""fullscreenenter"",""1"",""3192""
","
","
","""event"",""trial"",""time""
""fullscreenenter"",""1"",""3192""
","
","","","","","","435.19999999995343","images/flower3.png","","","learning","-1","-1","1","1","flower","plants","1","0","","neutral","0"
"html-keyboard-response","78","427007","0.0-9.0-2.0-0.3","6293","1","10","Female","approach_avoid_spark_v1","""event"",""trial"",""time""
""fullscreenenter"",""1"",""3192""
","
","
","""event"",""trial"",""time""
""fullscreenenter"",""1"",""3192""
","
","","","","","","null","<div style=""font-size:60px;"">+</div>","null","","fixation","","","","","","","","","","",""
"aa-learning-trial","79","430014","0.0-9.0-2.0-1.3","6293","1","10","Female","approach_avoid_spark_v1","""event"",""trial"",""time""
""fullscreenenter"",""1"",""3192""
","
","
","""event"",""trial"",""time""
""fullscreenenter"",""1"",""3192""
","
","","","","","","419.5","images/bush1.png","","","learning","4","0","0","0","bush","plants","1","0","","good","[3]"
"html-keyboard-response","80","430517","0.0-9.0-2.0-0.4","6293","1","10","Female","approach_avoid_spark_v1","""event"",""trial"",""time""
""fullscreenenter"",""1"",""3192""
","
","
","""event"",""trial"",""time""
""fullscreenenter"",""1"",""3192""
","
","","","","","","null","<div style=""font-size:60px;"">+</div>","null","","fixation","","","","","","","","","","",""
"aa-learning-trial","81","433526","0.0-9.0-2.0-1.4","6293","1","10","Female","approach_avoid_spark_v1","""event"",""trial"",""time""
""fullscreenenter"",""1"",""3192""
","
","
","""event"",""trial"",""time""
""fullscreenenter"",""1"",""3192""
","
","","","","","","786.5","images/tree6.png","","","learning","-3","0","0","0","tree","plants","1","0","","bad","[-5]"
"html-keyboard-response","82","434031","0.0-9.0-2.0-0.5","6293","1","10","Female","approach_avoid_spark_v1","""event"",""trial"",""time""
""fullscreenenter"",""1"",""3192""
","
","
","""event"",""trial"",""time""
""fullscreenenter"",""1"",""3192""
","
","","","","","","null","<div style=""font-size:60px;"">+</div>","null","","fixation","","","","","","","","","","",""
"aa-learning-trial","83","437038","0.0-9.0-2.0-1.5","6293","1","10","Female","approach_avoid_spark_v1","""event"",""trial"",""time""
""fullscreenenter"",""1"",""3192""
","
","
","""event"",""trial"",""time""
""fullscreenenter"",""1"",""3192""
","
","","","","","","312.5999999999767","images/flower3.png","","","learning","1","1","1","1","flower","plants","1","0","","neutral","0"
"html-keyboard-response","84","437541","0.0-9.0-2.0-0.6","6293","1","10","Female","approach_avoid_spark_v1","""event"",""trial"",""time""
""fullscreenenter"",""1"",""3192""
","
","
","""event"",""trial"",""time""
""fullscreenenter"",""1"",""3192""
","
","","","","","","null","<div style=""font-size:60px;"">+</div>","null","","fixation","","","","","","","","","","",""
"aa-learning-trial","85","440544","0.0-9.0-2.0-1.6","6293","1","10","Female","approach_avoid_spark_v1","""event"",""trial"",""time""
""fullscreenenter"",""1"",""3192""
","
","
","""event"",""trial"",""time""
""fullscreenenter"",""1"",""3192""
","
","","","","","","623.0999999999767","images/tree6.png","","","learning","-5","-5","1","1","tree","plants","1","0","","bad","[-5]"
"html-keyboard-response","86","441055","0.0-9.0-2.0-0.7","6293","1","10","Female","approach_avoid_spark_v1","""event"",""trial"",""time""
""fullscreenenter"",""1"",""3192""
","
","
","""event"",""trial"",""time""
""fullscreenenter"",""1"",""3192""
","
","","","","","","null","<div style=""font-size:60px;"">+</div>","null","","fixation","","","","","","","","","","",""
"aa-learning-trial","87","444062","0.0-9.0-2.0-1.7","6293","1","10","Female","approach_avoid_spark_v1","""event"",""trial"",""time""
""fullscreenenter"",""1"",""3192""
","
","
","""event"",""trial"",""time""
""fullscreenenter"",""1"",""3192""
","
","","","","","","395.5","images/tree8.png","","","learning","-5","0","0","0","tree","plants","1","0","","bad","[-5]"
"html-keyboard-response","88","444565","0.0-9.0-2.0-0.8","6293","1","10","Female","approach_avoid_spark_v1","""event"",""trial"",""time""
""fullscreenenter"",""1"",""3192""
","
","
","""event"",""trial"",""time""
""fullscreenenter"",""1"",""3192""
","
","","","","","","null","<div style=""font-size:60px;"">+</div>","null","","fixation","","","","","","","","","","",""
"aa-learning-trial","89","447575","0.0-9.0-2.0-1.8","6293","1","10","Female","approach_avoid_spark_v1","""event"",""trial"",""time""
""fullscreenenter"",""1"",""3192""
","
","
","""event"",""trial"",""time""
""fullscreenenter"",""1"",""3192""
","
","","","","","","133.5","images/flower5.png","","","learning","-1","0","0","0","flower","plants","1","0","","neutral","0"
"html-keyboard-response","90","448080","0.0-9.0-2.0-0.9","6293","1","10","Female","approach_avoid_spark_v1","""event"",""trial"",""time""
""fullscreenenter"",""1"",""3192""
","
","
","""event"",""trial"",""time""
""fullscreenenter"",""1"",""3192""
","
","","","","","","null","<div style=""font-size:60px;"">+</div>","null","","fixation","","","","","","","","","","",""
"aa-learning-trial","91","451087","0.0-9.0-2.0-1.9","6293","1","10","Female","approach_avoid_spark_v1","""event"",""trial"",""time""
""fullscreenenter"",""1"",""3192""
","
","
","""event"",""trial"",""time""
""fullscreenenter"",""1"",""3192""
","
","","","","","","102.80000000004657","images/flower1.png","","","learning","-1","-1","1","1","flower","plants","1","0","","neutral","0"
"html-keyboard-response","92","451592","0.0-9.0-2.0-0.10","6293","1","10","Female","approach_avoid_spark_v1","""event"",""trial"",""time""
""fullscreenenter"",""1"",""3192""
","
","
","""event"",""trial"",""time""
""fullscreenenter"",""1"",""3192""
","
","","","","","","null","<div style=""font-size:60px;"">+</div>","null","","fixation","","","","","","","","","","",""
"aa-learning-trial","93","454599","0.0-9.0-2.0-1.10","6293","1","10","Female","approach_avoid_spark_v1","""event"",""trial"",""time""
""fullscreenenter"",""1"",""3192""
","
","
","""event"",""trial"",""time""
""fullscreenenter"",""1"",""3192""
","
","","","","","","255","images/flower1.png","","","learning","1","0","0","0","flower","plants","1","0","","neutral","0"
"html-keyboard-response","94","455104","0.0-9.0-2.0-0.11","6293","1","10","Female","approach_avoid_spark_v1","""event"",""trial"",""time""
""fullscreenenter"",""1"",""3192""
","
","
","""event"",""trial"",""time""
""fullscreenenter"",""1"",""3192""
","
","","","","","","null","<div style=""font-size:60px;"">+</div>","null","","fixation","","","","","","","","","","",""
"aa-learning-trial","95","458111","0.0-9.0-2.0-1.11","6293","1","10","Female","approach_avoid_spark_v1","""event"",""trial"",""time""
""fullscreenenter"",""1"",""3192""
","
","
","""event"",""trial"",""time""
""fullscreenenter"",""1"",""3192""
","
","","","","","","289.9000000000233","images/bush2.png","","","learning","3","3","1","1","bush","plants","1","0","","good","[3]"
"html-keyboard-response","96","458616","0.0-9.0-2.0-0.12","6293","1","10","Female","approach_avoid_spark_v1","""event"",""trial"",""time""
""fullscreenenter"",""1"",""3192""
","
","
","""event"",""trial"",""time""
""fullscreenenter"",""1"",""3192""
","
","","","","","","null","<div style=""font-size:60px;"">+</div>","null","","fixation","","","","","","","","","","",""
"aa-learning-trial","97","461623","0.0-9.0-2.0-1.12","6293","1","10","Female","approach_avoid_spark_v1","""event"",""trial"",""time""
""fullscreenenter"",""1"",""3192""
","
","
","""event"",""trial"",""time""
""fullscreenenter"",""1"",""3192""
","
","","","","","","179.70000000006985","images/bush2.png","","","learning","6","6","1","1","bush","plants","1","0","","good","[3]"
"html-keyboard-response","98","462128","0.0-9.0-2.0-0.13","6293","1","10","Female","approach_avoid_spark_v1","""event"",""trial"",""time""
""fullscreenenter"",""1"",""3192""
","
","
","""event"",""trial"",""time""
""fullscreenenter"",""1"",""3192""
","
","","","","","","null","<div style=""font-size:60px;"">+</div>","null","","fixation","","","","","","","","","","",""
"aa-learning-trial","99","465135","0.0-9.0-2.0-1.13","6293","1","10","Female","approach_avoid_spark_v1","""event"",""trial"",""time""
""fullscreenenter"",""1"",""3192""
","
","
","""event"",""trial"",""time""
""fullscreenenter"",""1"",""3192""
","
","","","","","","263.20000000006985","images/tree8.png","","","learning","-6","-6","1","1","tree","plants","1","0","","bad","[-5]"
"html-keyboard-response","100","465640","0.0-9.0-2.0-0.14","6293","1","10","Female","approach_avoid_spark_v1","""event"",""trial"",""time""
""fullscreenenter"",""1"",""3192""
","
","
","""event"",""trial"",""time""
""fullscreenenter"",""1"",""3192""
","
","","","","","","null","<div style=""font-size:60px;"">+</div>","null","","fixation","","","","","","","","","","",""
"aa-learning-trial","101","468647","0.0-9.0-2.0-1.14","6293","1","10","Female","approach_avoid_spark_v1","""event"",""trial"",""time""
""fullscreenenter"",""1"",""3192""
","
","
","""event"",""trial"",""time""
""fullscreenenter"",""1"",""3192""
","
","","","","","","223.79999999993015","images/bush3.png","","","learning","6","0","0","0","bush","plants","1","0","","good","[3]"
"html-keyboard-response","102","469152","0.0-9.0-2.0-0.15","6293","1","10","Female","approach_avoid_spark_v1","""event"",""trial"",""time""
""fullscreenenter"",""1"",""3192""
","
","
","""event"",""trial"",""time""
""fullscreenenter"",""1"",""3192""
","
","","","","","","null","<div style=""font-size:60px;"">+</div>","null","","fixation","","","","","","","","","","",""
"aa-learning-trial","103","472159","0.0-9.0-2.0-1.15","6293","1","10","Female","approach_avoid_spark_v1","""event"",""trial"",""time""
""fullscreenenter"",""1"",""3192""
","
","
","""event"",""trial"",""time""
""fullscreenenter"",""1"",""3192""
","
","","","","","","254.70000000006985","images/flower1.png","","","learning","[-1]","-1","1","1","flower","plants","1","0","","neutral","0"
"html-keyboard-response","104","472664","0.0-9.0-2.0-0.16","6293","1","10","Female","approach_avoid_spark_v1","""event"",""trial"",""time""
""fullscreenenter"",""1"",""3192""
","
","
","""event"",""trial"",""time""
""fullscreenenter"",""1"",""3192""
","
","","","","","","null","<div style=""font-size:60px;"">+</div>","null","","fixation","","","","","","","","","","",""
"aa-learning-trial","105","475671","0.0-9.0-2.0-1.16","6293","1","10","Female","approach_avoid_spark_v1","""event"",""trial"",""time""
""fullscreenenter"",""1"",""3192""
","
","
","""event"",""trial"",""time""
""fullscreenenter"",""1"",""3192""
","
","","","","","","340.0999999999767","images/flower1.png","","","learning","-1","0","0","0","flower","plants","1","0","","neutral","0"
"html-keyboard-response","106","476176","0.0-9.0-2.0-0.17","6293","1","10","Female","approach_avoid_spark_v1","""event"",""trial"",""time""
""fullscreenenter"",""1"",""3192""
","
","
","""event"",""trial"",""time""
""fullscreenenter"",""1"",""3192""
","
","","","","","","null","<div style=""font-size:60px;"">+</div>","null","","fixation","","","","","","","","","","",""
"aa-learning-trial","107","479183","0.0-9.0-2.0-1.17","6293","1","10","Female","approach_avoid_spark_v1","""event"",""trial"",""time""
""fullscreenenter"",""1"",""3192""
","
","
","""event"",""trial"",""time""
""fullscreenenter"",""1"",""3192""
","
","","","","","","130.5","images/flower3.png","","","learning","1","0","0","0","flower","plants","1","0","","neutral","0"
"html-keyboard-response","108","479688","0.0-9.0-2.0-0.18","6293","1","10","Female","approach_avoid_spark_v1","""event"",""trial"",""time""
""fullscreenenter"",""1"",""3192""
","
","
","""event"",""trial"",""time""
""fullscreenenter"",""1"",""3192""
","
","","","","","","null","<div style=""font-size:60px;"">+</div>","null","","fixation","","","","","","","","","","",""
"aa-learning-trial","109","482695","0.0-9.0-2.0-1.18","6293","1","10","Female","approach_avoid_spark_v1","""event"",""trial"",""time""
""fullscreenenter"",""1"",""3192""
","
","
","""event"",""trial"",""time""
""fullscreenenter"",""1"",""3192""
","
","","","","","","92.20000000006985","images/bush1.png","","","learning","1","1","1","1","bush","plants","1","0","","good","[3]"
"html-keyboard-response","110","483200","0.0-9.0-2.0-0.19","6293","1","10","Female","approach_avoid_spark_v1","""event"",""trial"",""time""
""fullscreenenter"",""1"",""3192""
","
","
","""event"",""trial"",""time""
""fullscreenenter"",""1"",""3192""
","
","","","","","","null","<div style=""font-size:60px;"">+</div>","null","","fixation","","","","","","","","","","",""
"aa-learning-trial","111","486207","0.0-9.0-2.0-1.19","6293","1","10","Female","approach_avoid_spark_v1","""event"",""trial"",""time""
""fullscreenenter"",""1"",""3192""
","
","
","""event"",""trial"",""time""
""fullscreenenter"",""1"",""3192""
","
","","","","","","368.89999999990687","images/tree8.png","","","learning","-3","-3","1","1","tree","plants","1","0","","bad","[-5]"
"html-keyboard-response","112","486712","0.0-9.0-2.0-0.20","6293","1","10","Female","approach_avoid_spark_v1","""event"",""trial"",""time""
""fullscreenenter"",""1"",""3192""
","
","
","""event"",""trial"",""time""
""fullscreenenter"",""1"",""3192""
","
","","","","","","null","<div style=""font-size:60px;"">+</div>","null","","fixation","","","","","","","","","","",""
"aa-learning-trial","113","489719","0.0-9.0-2.0-1.20","6293","1","10","Female","approach_avoid_spark_v1","""event"",""trial"",""time""
""fullscreenenter"",""1"",""3192""
","
","
","""event"",""trial"",""time""
""fullscreenenter"",""1"",""3192""
","
","","","","","","302.19999999995343","images/bush2.png","","","learning","6","0","0","0","bush","plants","1","0","","good","[3]"
"html-keyboard-response","114","490224","0.0-9.0-2.0-0.21","6293","1","10","Female","approach_avoid_spark_v1","""event"",""trial"",""time""
""fullscreenenter"",""1"",""3192""
","
","
","""event"",""trial"",""time""
""fullscreenenter"",""1"",""3192""
","
","","","","","","null","<div style=""font-size:60px;"">+</div>","null","","fixation","","","","","","","","","","",""
"aa-learning-trial","115","493231","0.0-9.0-2.0-1.21","6293","1","10","Female","approach_avoid_spark_v1","""event"",""trial"",""time""
""fullscreenenter"",""1"",""3192""
","
","
","""event"",""trial"",""time""
""fullscreenenter"",""1"",""3192""
","
","","","","","","307","images/bush2.png","","","learning","2","2","1","1","bush","plants","1","0","","good","[3]"
"html-keyboard-response","116","493736","0.0-9.0-2.0-0.22","6293","1","10","Female","approach_avoid_spark_v1","""event"",""trial"",""time""
""fullscreenenter"",""1"",""3192""
","
","
","""event"",""trial"",""time""
""fullscreenenter"",""1"",""3192""
","
","","","","","","null","<div style=""font-size:60px;"">+</div>","null","","fixation","","","","","","","","","","",""
"aa-learning-trial","117","496743","0.0-9.0-2.0-1.22","6293","1","10","Female","approach_avoid_spark_v1","""event"",""trial"",""time""
""fullscreenenter"",""1"",""3192""
","
","
","""event"",""trial"",""time""
""fullscreenenter"",""1"",""3192""
","
","","","","","","32.79999999993015","images/flower1.png","","","learning","1","1","1","1","flower","plants","1","0","","neutral","0"
"html-keyboard-response","118","497254","0.0-9.0-2.0-0.23","6293","1","10","Female","approach_avoid_spark_v1","""event"",""trial"",""time""
""fullscreenenter"",""1"",""3192""
","
","
","""event"",""trial"",""time""
""fullscreenenter"",""1"",""3192""
","
","","","","","","null","<div style=""font-size:60px;"">+</div>","null","","fixation","","","","","","","","","","",""
"aa-learning-trial","119","500261","0.0-9.0-2.0-1.23","6293","1","10","Female","approach_avoid_spark_v1","""event"",""trial"",""time""
""fullscreenenter"",""1"",""3192""
","
","
","""event"",""trial"",""time""
""fullscreenenter"",""1"",""3192""
","
","","","","","","85.30000000004657","images/bush3.png","","","learning","4","0","0","0","bush","plants","1","0","","good","[3]"
"html-keyboard-response","120","500766","0.0-9.0-2.0-0.24","6293","1","10","Female","approach_avoid_spark_v1","""event"",""trial"",""time""
""fullscreenenter"",""1"",""3192""
","
","
","""event"",""trial"",""time""
""fullscreenenter"",""1"",""3192""
","
","","","","","","null","<div style=""font-size:60px;"">+</div>","null","","fixation","","","","","","","","","","",""
"aa-learning-trial","121","503773","0.0-9.0-2.0-1.24","6293","1","10","Female","approach_avoid_spark_v1","""event"",""trial"",""time""
""fullscreenenter"",""1"",""3192""
","
","
","""event"",""trial"",""time""
""fullscreenenter"",""1"",""3192""
","
","","","","","","165.20000000006985","images/flower6.png","","","learning","1","1","1","1","flower","plants","1","0","","neutral","0"
"html-keyboard-response","122","504277","0.0-9.0-2.0-0.25","6293","1","10","Female","approach_avoid_spark_v1","""event"",""trial"",""time""
""fullscreenenter"",""1"",""3192""
","
","
","""event"",""trial"",""time""
""fullscreenenter"",""1"",""3192""
","
","","","","","","null","<div style=""font-size:60px;"">+</div>","null","","fixation","","","","","","","","","","",""
"aa-learning-trial","123","507285","0.0-9.0-2.0-1.25","6293","1","10","Female","approach_avoid_spark_v1","""event"",""trial"",""time""
""fullscreenenter"",""1"",""3192""
","
","
","""event"",""trial"",""time""
""fullscreenenter"",""1"",""3192""
","
","","","","","","366.69999999995343","images/tree8.png","","","learning","-4","-4","1","1","tree","plants","1","0","","bad","[-5]"
"html-keyboard-response","124","507790","0.0-9.0-2.0-0.26","6293","1","10","Female","approach_avoid_spark_v1","""event"",""trial"",""time""
""fullscreenenter"",""1"",""3192""
","
","
","""event"",""trial"",""time""
""fullscreenenter"",""1"",""3192""
","
","","","","","","null","<div style=""font-size:60px;"">+</div>","null","","fixation","","","","","","","","","","",""
"aa-learning-trial","125","510797","0.0-9.0-2.0-1.26","6293","1","10","Female","approach_avoid_spark_v1","""event"",""trial"",""time""
""fullscreenenter"",""1"",""3192""
","
","
","""event"",""trial"",""time""
""fullscreenenter"",""1"",""3192""
","
","","","","","","455","images/tree6.png","","","learning","-3","0","0","0","tree","plants","1","0","","bad","[-5]"
"html-keyboard-response","126","511304","0.0-9.0-2.0-0.27","6293","1","10","Female","approach_avoid_spark_v1","""event"",""trial"",""time""
""fullscreenenter"",""1"",""3192""
","
","
","""event"",""trial"",""time""
""fullscreenenter"",""1"",""3192""
","
","","","","","","null","<div style=""font-size:60px;"">+</div>","null","","fixation","","","","","","","","","","",""
"aa-learning-trial","127","514308","0.0-9.0-2.0-1.27","6293","1","10","Female","approach_avoid_spark_v1","""event"",""trial"",""time""
""fullscreenenter"",""1"",""3192""
","
","
","""event"",""trial"",""time""
""fullscreenenter"",""1"",""3192""
","
","","","","","","200.90000000002328","images/bush3.png","","","learning","2","0","0","0","bush","plants","1","0","","good","[3]"
"html-keyboard-response","128","514814","0.0-9.0-2.0-0.28","6293","1","10","Female","approach_avoid_spark_v1","""event"",""trial"",""time""
""fullscreenenter"",""1"",""3192""
","
","
","""event"",""trial"",""time""
""fullscreenenter"",""1"",""3192""
","
","","","","","","null","<div style=""font-size:60px;"">+</div>","null","","fixation","","","","","","","","","","",""
"aa-learning-trial","129","517821","0.0-9.0-2.0-1.28","6293","1","10","Female","approach_avoid_spark_v1","""event"",""trial"",""time""
""fullscreenenter"",""1"",""3192""
","
","
","""event"",""trial"",""time""
""fullscreenenter"",""1"",""3192""
","
","","","","","","163.59999999997672","images/flower2.png","","","learning","[-1]","-1","1","1","flower","plants","1","0","","neutral","0"
"html-keyboard-response","130","518326","0.0-9.0-2.0-0.29","6293","1","10","Female","approach_avoid_spark_v1","""event"",""trial"",""time""
""fullscreenenter"",""1"",""3192""
","
","
","""event"",""trial"",""time""
""fullscreenenter"",""1"",""3192""
","
","","","","","","null","<div style=""font-size:60px;"">+</div>","null","","fixation","","","","","","","","","","",""
"aa-learning-trial","131","521333","0.0-9.0-2.0-1.29","6293","1","10","Female","approach_avoid_spark_v1","""event"",""trial"",""time""
""fullscreenenter"",""1"",""3192""
","
","
","""event"",""trial"",""time""
""fullscreenenter"",""1"",""3192""
","
","","","","","","317.79999999993015","images/flower3.png","","","learning","-3","-3","1","1","flower","plants","1","0","","neutral","0"
"html-keyboard-response","132","521838","0.0-9.0-2.0-0.30","6293","1","10","Female","approach_avoid_spark_v1","""event"",""trial"",""time""
""fullscreenenter"",""1"",""3192""
","
","
","""event"",""trial"",""time""
""fullscreenenter"",""1"",""3192""
","
","","","","","","null","<div style=""font-size:60px;"">+</div>","null","","fixation","","","","","","","","","","",""
"aa-learning-trial","133","524845","0.0-9.0-2.0-1.30","6293","1","10","Female","approach_avoid_spark_v1","""event"",""trial"",""time""
""fullscreenenter"",""1"",""3192""
","
","
","""event"",""trial"",""time""
""fullscreenenter"",""1"",""3192""
","
","","","","","","193.59999999997672","images/tree6.png","","","learning","-7","-7","1","1","tree","plants","1","0","","bad","[-5]"
"html-keyboard-response","134","525350","0.0-9.0-2.0-0.31","6293","1","10","Female","approach_avoid_spark_v1","""event"",""trial"",""time""
""fullscreenenter"",""1"",""3192""
","
","
","""event"",""trial"",""time""
""fullscreenenter"",""1"",""3192""
","
","","","","","","null","<div style=""font-size:60px;"">+</div>","null","","fixation","","","","","","","","","","",""
"aa-learning-trial","135","528357","0.0-9.0-2.0-1.31","6293","1","10","Female","approach_avoid_spark_v1","""event"",""trial"",""time""
""fullscreenenter"",""1"",""3192""
","
","
","""event"",""trial"",""time""
""fullscreenenter"",""1"",""3192""
","
","","","","","","274.5999999999767","images/tree5.png","","","learning","-4","0","0","0","tree","plants","1","0","","bad","[-5]"
"html-keyboard-response","136","528862","0.0-9.0-2.0-0.32","6293","1","10","Female","approach_avoid_spark_v1","""event"",""trial"",""time""
""fullscreenenter"",""1"",""3192""
","
","
","""event"",""trial"",""time""
""fullscreenenter"",""1"",""3192""
","
","","","","","","null","<div style=""font-size:60px;"">+</div>","null","","fixation","","","","","","","","","","",""
"aa-learning-trial","137","531869","0.0-9.0-2.0-1.32","6293","1","10","Female","approach_avoid_spark_v1","""event"",""trial"",""time""
""fullscreenenter"",""1"",""3192""
","
","
","""event"",""trial"",""time""
""fullscreenenter"",""1"",""3192""
","
","","","","","","194.80000000004657","images/bush3.png","","","learning","3","0","0","0","bush","plants","1","0","","good","[3]"
"html-keyboard-response","138","532374","0.0-9.0-2.0-0.33","6293","1","10","Female","approach_avoid_spark_v1","""event"",""trial"",""time""
""fullscreenenter"",""1"",""3192""
","
","
","""event"",""trial"",""time""
""fullscreenenter"",""1"",""3192""
","
","","","","","","null","<div style=""font-size:60px;"">+</div>","null","","fixation","","","","","","","","","","",""
"aa-learning-trial","139","535381","0.0-9.0-2.0-1.33","6293","1","10","Female","approach_avoid_spark_v1","""event"",""trial"",""time""
""fullscreenenter"",""1"",""3192""
","
","
","""event"",""trial"",""time""
""fullscreenenter"",""1"",""3192""
","
","","","","","","327.0999999999767","images/tree6.png","","","learning","-5","-5","1","1","tree","plants","1","0","","bad","[-5]"
"html-keyboard-response","140","535886","0.0-9.0-2.0-0.34","6293","1","10","Female","approach_avoid_spark_v1","""event"",""trial"",""time""
""fullscreenenter"",""1"",""3192""
","
","
","""event"",""trial"",""time""
""fullscreenenter"",""1"",""3192""
","
","","","","","","null","<div style=""font-size:60px;"">+</div>","null","","fixation","","","","","","","","","","",""
"aa-learning-trial","141","538893","0.0-9.0-2.0-1.34","6293","1","10","Female","approach_avoid_spark_v1","""event"",""trial"",""time""
""fullscreenenter"",""1"",""3192""
","
","
","""event"",""trial"",""time""
""fullscreenenter"",""1"",""3192""
","
","","","","","","90.69999999995343","images/flower3.png","","","learning","3","0","0","0","flower","plants","1","0","","neutral","0"
"html-keyboard-response","142","539398","0.0-9.0-2.0-0.35","6293","1","10","Female","approach_avoid_spark_v1","""event"",""trial"",""time""
""fullscreenenter"",""1"",""3192""
","
","
","""event"",""trial"",""time""
""fullscreenenter"",""1"",""3192""
","
","","","","","","null","<div style=""font-size:60px;"">+</div>","null","","fixation","","","","","","","","","","",""
"aa-learning-trial","143","542405","0.0-9.0-2.0-1.35","6293","1","10","Female","approach_avoid_spark_v1","""event"",""trial"",""time""
""fullscreenenter"",""1"",""3192""
","
","
","""event"",""trial"",""time""
""fullscreenenter"",""1"",""3192""
","
","","","","","","267.69999999995343","images/tree3.png","","","learning","-5","-5","1","1","tree","plants","1","0","","bad","[-5]"
"html-keyboard-response","144","542910","0.0-9.0-2.0-0.36","6293","1","10","Female","approach_avoid_spark_v1","""event"",""trial"",""time""
""fullscreenenter"",""1"",""3192""
","
","
","""event"",""trial"",""time""
""fullscreenenter"",""1"",""3192""
","
","","","","","","null","<div style=""font-size:60px;"">+</div>","null","","fixation","","","","","","","","","","",""
"aa-learning-trial","145","545917","0.0-9.0-2.0-1.36","6293","1","10","Female","approach_avoid_spark_v1","""event"",""trial"",""time""
""fullscreenenter"",""1"",""3192""
","
","
","""event"",""trial"",""time""
""fullscreenenter"",""1"",""3192""
","
","","","","","","297.30000000004657","images/tree6.png","","","learning","-3","0","0","0","tree","plants","1","0","","bad","[-5]"
"html-keyboard-response","146","546423","0.0-9.0-2.0-0.37","6293","1","10","Female","approach_avoid_spark_v1","""event"",""trial"",""time""
""fullscreenenter"",""1"",""3192""
","
","
","""event"",""trial"",""time""
""fullscreenenter"",""1"",""3192""
","
","","","","","","null","<div style=""font-size:60px;"">+</div>","null","","fixation","","","","","","","","","","",""
"aa-learning-trial","147","549429","0.0-9.0-2.0-1.37","6293","1","10","Female","approach_avoid_spark_v1","""event"",""trial"",""time""
""fullscreenenter"",""1"",""3192""
","
","
","""event"",""trial"",""time""
""fullscreenenter"",""1"",""3192""
","
","","","","","","94.70000000006985","images/tree3.png","","","learning","-5","0","0","0","tree","plants","1","0","","bad","[-5]"
"html-keyboard-response","148","549934","0.0-9.0-2.0-0.38","6293","1","10","Female","approach_avoid_spark_v1","""event"",""trial"",""time""
""fullscreenenter"",""1"",""3192""
","
","
","""event"",""trial"",""time""
""fullscreenenter"",""1"",""3192""
","
","","","","","","null","<div style=""font-size:60px;"">+</div>","null","","fixation","","","","","","","","","","",""
"aa-learning-trial","149","552941","0.0-9.0-2.0-1.38","6293","1","10","Female","approach_avoid_spark_v1","""event"",""trial"",""time""
""fullscreenenter"",""1"",""3192""
","
","
","""event"",""trial"",""time""
""fullscreenenter"",""1"",""3192""
","
","","","","","","292.70000000006985","images/flower3.png","","","learning","2","0","0","0","flower","plants","1","0","","neutral","0"
"html-keyboard-response","150","553446","0.0-9.0-2.0-0.39","6293","1","10","Female","approach_avoid_spark_v1","""event"",""trial"",""time""
""fullscreenenter"",""1"",""3192""
","
","
","""event"",""trial"",""time""
""fullscreenenter"",""1"",""3192""
","
","","","","","","null","<div style=""font-size:60px;"">+</div>","null","","fixation","","","","","","","","","","",""
"aa-learning-trial","151","556454","0.0-9.0-2.0-1.39","6293","1","10","Female","approach_avoid_spark_v1","""event"",""trial"",""time""
""fullscreenenter"",""1"",""3192""
","
","
","""event"",""trial"",""time""
""fullscreenenter"",""1"",""3192""
","
","","","","","","385.70000000006985","images/bush6.png","","","learning","6","6","1","1","bush","plants","1","0","","good","[3]"
"html-keyboard-response","152","556958","0.0-9.0-2.0-0.40","6293","1","10","Female","approach_avoid_spark_v1","""event"",""trial"",""time""
""fullscreenenter"",""1"",""3192""
","
","
","""event"",""trial"",""time""
""fullscreenenter"",""1"",""3192""
","
","","","","","","null","<div style=""font-size:60px;"">+</div>","null","","fixation","","","","","","","","","","",""
"aa-learning-trial","153","559966","0.0-9.0-2.0-1.40","6293","1","10","Female","approach_avoid_spark_v1","""event"",""trial"",""time""
""fullscreenenter"",""1"",""3192""
","
","
","""event"",""trial"",""time""
""fullscreenenter"",""1"",""3192""
","
","","","","","","357.5","images/bush4.png","","","learning","2","0","0","0","bush","plants","1","0","","good","[3]"
"html-keyboard-response","154","560470","0.0-9.0-2.0-0.41","6293","1","10","Female","approach_avoid_spark_v1","""event"",""trial"",""time""
""fullscreenenter"",""1"",""3192""
","
","
","""event"",""trial"",""time""
""fullscreenenter"",""1"",""3192""
","
","","","","","","null","<div style=""font-size:60px;"">+</div>","null","","fixation","","","","","","","","","","",""
"aa-learning-trial","155","563478","0.0-9.0-2.0-1.41","6293","1","10","Female","approach_avoid_spark_v1","""event"",""trial"",""time""
""fullscreenenter"",""1"",""3192""
","
","
","""event"",""trial"",""time""
""fullscreenenter"",""1"",""3192""
","
","","","","","","782.3000000000466","images/bush1.png","","","learning","4","0","0","0","bush","plants","1","0","","good","[3]"
"html-keyboard-response","156","563982","0.0-9.0-2.0-0.42","6293","1","10","Female","approach_avoid_spark_v1","""event"",""trial"",""time""
""fullscreenenter"",""1"",""3192""
","
","
","""event"",""trial"",""time""
""fullscreenenter"",""1"",""3192""
","
","","","","","","null","<div style=""font-size:60px;"">+</div>","null","","fixation","","","","","","","","","","",""
"aa-learning-trial","157","566993","0.0-9.0-2.0-1.42","6293","1","10","Female","approach_avoid_spark_v1","""event"",""trial"",""time""
""fullscreenenter"",""1"",""3192""
","
","
","""event"",""trial"",""time""
""fullscreenenter"",""1"",""3192""
","
","","","","","","673.4000000000233","images/tree1.png","","","learning","-5","0","0","0","tree","plants","1","0","","bad","[-5]"
"html-keyboard-response","158","567506","0.0-9.0-2.0-0.43","6293","1","10","Female","approach_avoid_spark_v1","""event"",""trial"",""time""
""fullscreenenter"",""1"",""3192""
","
","
","""event"",""trial"",""time""
""fullscreenenter"",""1"",""3192""
","
","","","","","","null","<div style=""font-size:60px;"">+</div>","null","","fixation","","","","","","","","","","",""
"aa-learning-trial","159","570513","0.0-9.0-2.0-1.43","6293","1","10","Female","approach_avoid_spark_v1","""event"",""trial"",""time""
""fullscreenenter"",""1"",""3192""
","
","
","""event"",""trial"",""time""
""fullscreenenter"",""1"",""3192""
","
","","","","","","823.3000000000466","images/flower5.png","","","learning","-1","-1","1","1","flower","plants","1","0","","neutral","0"
"html-keyboard-response","160","571022","0.0-9.0-2.0-0.44","6293","1","10","Female","approach_avoid_spark_v1","""event"",""trial"",""time""
""fullscreenenter"",""1"",""3192""
","
","
","""event"",""trial"",""time""
""fullscreenenter"",""1"",""3192""
","
","","","","","","null","<div style=""font-size:60px;"">+</div>","null","","fixation","","","","","","","","","","",""
"aa-learning-trial","161","574025","0.0-9.0-2.0-1.44","6293","1","10","Female","approach_avoid_spark_v1","""event"",""trial"",""time""
""fullscreenenter"",""1"",""3192""
","
","
","""event"",""trial"",""time""
""fullscreenenter"",""1"",""3192""
","
","","","","","","916.7000000000698","images/bush2.png","","","learning","4","4","1","1","bush","plants","1","0","","good","[3]"
"html-keyboard-response","162","574537","0.0-9.0-2.0-0.45","6293","1","10","Female","approach_avoid_spark_v1","""event"",""trial"",""time""
""fullscreenenter"",""1"",""3192""
","
","
","""event"",""trial"",""time""
""fullscreenenter"",""1"",""3192""
","
","","","","","","null","<div style=""font-size:60px;"">+</div>","null","","fixation","","","","","","","","","","",""
"aa-learning-trial","163","577543","0.0-9.0-2.0-1.45","6293","1","10","Female","approach_avoid_spark_v1","""event"",""trial"",""time""
""fullscreenenter"",""1"",""3192""
","
","
","""event"",""trial"",""time""
""fullscreenenter"",""1"",""3192""
","
","","","","","","533.5","images/tree8.png","","","learning","-5","0","0","0","tree","plants","1","0","","bad","[-5]"
"html-keyboard-response","164","578048","0.0-9.0-2.0-0.46","6293","1","10","Female","approach_avoid_spark_v1","""event"",""trial"",""time""
""fullscreenenter"",""1"",""3192""
","
","
","""event"",""trial"",""time""
""fullscreenenter"",""1"",""3192""
","
","","","","","","null","<div style=""font-size:60px;"">+</div>","null","","fixation","","","","","","","","","","",""
"aa-learning-trial","165","581055","0.0-9.0-2.0-1.46","6293","1","10","Female","approach_avoid_spark_v1","""event"",""trial"",""time""
""fullscreenenter"",""1"",""3192""
","
","
","""event"",""trial"",""time""
""fullscreenenter"",""1"",""3192""
","
","","","","","","913.1999999999534","images/flower1.png","","","learning","1","1","1","1","flower","plants","1","0","","neutral","0"
"html-keyboard-response","166","581560","0.0-9.0-2.0-0.47","6293","1","10","Female","approach_avoid_spark_v1","""event"",""trial"",""time""
""fullscreenenter"",""1"",""3192""
","
","
","""event"",""trial"",""time""
""fullscreenenter"",""1"",""3192""
","
","","","","","","null","<div style=""font-size:60px;"">+</div>","null","","fixation","","","","","","","","","","",""
"aa-learning-trial","167","584567","0.0-9.0-2.0-1.47","6293","1","10","Female","approach_avoid_spark_v1","""event"",""trial"",""time""
""fullscreenenter"",""1"",""3192""
","
","
","""event"",""trial"",""time""
""fullscreenenter"",""1"",""3192""
","
","","","","","","573.7999999999302","images/bush2.png","","","learning","3","0","0","0","bush","plants","1","0","","good","[3]"
"html-keyboard-response","168","585070","0.0-9.0-2.0-0.48","6293","1","10","Female","approach_avoid_spark_v1","""event"",""trial"",""time""
""fullscreenenter"",""1"",""3192""
","
","
","""event"",""trial"",""time""
""fullscreenenter"",""1"",""3192""
","
","","","","","","null","<div style=""font-size:60px;"">+</div>","null","","fixation","","","","","","","","","","",""
"aa-learning-trial","169","588079","0.0-9.0-2.0-1.48","6293","1","10","Female","approach_avoid_spark_v1","""event"",""trial"",""time""
""fullscreenenter"",""1"",""3192""
","
","
","""event"",""trial"",""time""
""fullscreenenter"",""1"",""3192""
","
","","","","","","737.2999999999302","images/flower5.png","","","learning","1","0","0","0","flower","plants","1","0","","neutral","0"
"html-keyboard-response","170","588584","0.0-9.0-2.0-0.49","6293","1","10","Female","approach_avoid_spark_v1","""event"",""trial"",""time""
""fullscreenenter"",""1"",""3192""
","
","
","""event"",""trial"",""time""
""fullscreenenter"",""1"",""3192""
","
","","","","","","null","<div style=""font-size:60px;"">+</div>","null","","fixation","","","","","","","","","","",""
"aa-learning-trial","171","591591","0.0-9.0-2.0-1.49","6293","1","10","Female","approach_avoid_spark_v1","""event"",""trial"",""time""
""fullscreenenter"",""1"",""3192""
","
","
","""event"",""trial"",""time""
""fullscreenenter"",""1"",""3192""
","
","","","","","","636.2999999999302","images/bush3.png","","","learning","1","0","0","0","bush","plants","1","0","","good","[3]"
"html-keyboard-response","172","592096","0.0-9.0-2.0-0.50","6293","1","10","Female","approach_avoid_spark_v1","""event"",""trial"",""time""
""fullscreenenter"",""1"",""3192""
","
","
","""event"",""trial"",""time""
""fullscreenenter"",""1"",""3192""
","
","","","","","","null","<div style=""font-size:60px;"">+</div>","null","","fixation","","","","","","","","","","",""
"aa-learning-trial","173","595101","0.0-9.0-2.0-1.50","6293","1","10","Female","approach_avoid_spark_v1","""event"",""trial"",""time""
""fullscreenenter"",""1"",""3192""
","
","
","""event"",""trial"",""time""
""fullscreenenter"",""1"",""3192""
","
","","","","","","689.0999999999767","images/tree8.png","","","learning","-3","0","0","0","tree","plants","1","0","","bad","[-5]"
"html-button-response","174","597707","0.0-9.0-3.0","6293","1","10","Female","approach_avoid_spark_v1","""event"",""trial"",""time""
""fullscreenenter"",""1"",""3192""
","
","
","""event"",""trial"",""time""
""fullscreenenter"",""1"",""3192""
","
","","","","","","2604","<p> You have completed the round! <p> In this round, you earned -25 points! </p>","0","","break","","","","","","","","","","",""
"html-button-response","175","598474","0.0-10.0","6293","1","10","Female","approach_avoid_spark_v1","""event"",""trial"",""time""
""fullscreenenter"",""1"",""3192""
","
","
","""event"",""trial"",""time""
""fullscreenenter"",""1"",""3192""
","
","","","","","","765.3999999999069","<p> Now it's time to play another round. </p>","0","","transition_screen","","","","","","","","","","",""
"preload","176","598605","0.0-11.0-0.0","6293","1","10","Female","approach_avoid_spark_v1","""event"",""trial"",""time""
""fullscreenenter"",""1"",""3192""
","
","
","""event"",""trial"",""time""
""fullscreenenter"",""1"",""3192""
","
","true","false","[]","[]","[]","","","","","","","","","","","","","","","",""
"learning-instructions","177","605291","0.0-11.0-1.0-0.0","6293","1","10","Female","approach_avoid_spark_v1","""event"",""trial"",""time""
""fullscreenenter"",""1"",""3192""
","
","
","""event"",""trial"",""time""
""fullscreenenter"",""1"",""3192""
","
","","","","","","1299.4000000000233","<p> Your goal in this round is to take your friend for rides in different vehicles. </p></div>","","0","instructions","","","","","","","","","","",""
"learning-instructions","178","616191","0.0-11.0-1.0-0.1","6293","1","10","Female","approach_avoid_spark_v1","""event"",""trial"",""time""
""fullscreenenter"",""1"",""3192""
","
","
","""event"",""trial"",""time""
""fullscreenenter"",""1"",""3192""
","
","","","","","","1146.7999999999302","<p> Your friend enjoys riding in some vehicles but not in others.  </p><p> On each turn, you will see a vehicle.   </p><p> You need to decide whether to take your friend for a ride or not.  </p>","","0","instructions","","","","","","","","","","",""
"learning-instructions","179","623259","0.0-11.0-1.0-0.2","6293","1","10","Female","approach_avoid_spark_v1","""event"",""trial"",""time""
""fullscreenenter"",""1"",""3192""
","
","
","""event"",""trial"",""time""
""fullscreenenter"",""1"",""3192""
","
","","","","","","713.6999999999534","<p> You can take your friend for a ride in the vehicle by pressing 1 and skip the ride by pressing 0. </p><br><div class=""choice-instructions-grid""> <div class=""choice-option""><img src=""images/approach.png"" class=""choice-option-img"" stage=""instructions"" position=""0"" ><div class=""choice-option-text""> Press ""1."" </div></div><div class=""choice-option""><img src=""images/avoid.png"" class=""choice-option-img"" stage=""instructions"" position=""1"" ><div class=""choice-option-text""> Press ""0."" </div></div>","","0","instructions","","","","","","","","","","",""
"learning-instructions","180","632126","0.0-11.0-1.0-0.3","6293","1","10","Female","approach_avoid_spark_v1","""event"",""trial"",""time""
""fullscreenenter"",""1"",""3192""
","
","
","""event"",""trial"",""time""
""fullscreenenter"",""1"",""3192""
","
","","","","","","270","<p> If you take them for a ride in a vehicle they like, they will be thrilled! </p><p> But if you take them for a ride in a vehicle they do not like, they will be upset. </p>","","0","instructions","","","","","","","","","","",""
"learning-instructions","181","644327","0.0-11.0-1.0-0.4","6293","1","10","Female","approach_avoid_spark_v1","""event"",""trial"",""time""
""fullscreenenter"",""1"",""3192""
","
","
","""event"",""trial"",""time""
""fullscreenenter"",""1"",""3192""
","
","","","","","","663.7999999999302","<p> You will earn points based on how you made your friend feel. </p><p> If you made him thrilled, you will WIN anywhere from 1 - 9 points, </p><p> but if you made him upset, you will LOSE anywhere from 1 - 9 points. </p>","","0","instructions","","","","","","","","","","",""
"learning-instructions","182","651394","0.0-11.0-1.0-0.5","6293","1","10","Female","approach_avoid_spark_v1","""event"",""trial"",""time""
""fullscreenenter"",""1"",""3192""
","
","
","""event"",""trial"",""time""
""fullscreenenter"",""1"",""3192""
","
","","","","","","416.9000000000233","<p> You will see how many points you won or lost in the center of the screen. </p><p> Here is what you would see if you won 5 points: </p><p style=""color:green;font-size:50px;font-weight:bolder"">5</p>","","0","instructions","","","","","","","","","","",""
"learning-instructions","183","655895","0.0-11.0-1.0-0.6","6293","1","10","Female","approach_avoid_spark_v1","""event"",""trial"",""time""
""fullscreenenter"",""1"",""3192""
","
","
","""event"",""trial"",""time""
""fullscreenenter"",""1"",""3192""
","
","","","","","","1660.8999999999069","<p> And here is what you would see if you lost 3 points: </p><p style=""color:red;font-size:50px;font-weight:bolder"">-3</p>","","0","instructions","","","","","","","","","","",""
"learning-instructions","184","671428","0.0-11.0-1.0-0.7","6293","1","10","Female","approach_avoid_spark_v1","""event"",""trial"",""time""
""fullscreenenter"",""1"",""3192""
","
","
","""event"",""trial"",""time""
""fullscreenenter"",""1"",""3192""
","
","","","","","","516.5","<p> Some vehicles will make your friend REALLY thrilled or upset. </p><p> These vehicles will make you win or lose LOTS of points. </p><p> Other vehicles will only make him feel a little thrilled or upset. </p><p> These vehicles will make you win or lose small amounts of points. </p>","","0","instructions","","","","","","","","","","",""
"learning-instructions","185","683480","0.0-11.0-1.0-0.8","6293","1","10","Female","approach_avoid_spark_v1","""event"",""trial"",""time""
""fullscreenenter"",""1"",""3192""
","
","
","""event"",""trial"",""time""
""fullscreenenter"",""1"",""3192""
","
","","","","","","441.30000000004657","<p> If you choose to skip the ride, you will not win or lose any points. </p><p>  However, in the center of the screen, you will see the number of points you WOULD HAVE won or lost if you had taken your friend for a ride. </p>","","0","instructions","","","","","","","","","","",""
"learning-instructions","186","694497","0.0-11.0-1.0-0.9","6293","1","10","Female","approach_avoid_spark_v1","""event"",""trial"",""time""
""fullscreenenter"",""1"",""3192""
","
","
","""event"",""trial"",""time""
""fullscreenenter"",""1"",""3192""
","
","","","","","","429.20000000006985","<p> Here is what you might see if you did not take your friend for a ride but he would have enjoyed it: </p><p style=""color:grey; font-size:50px; display: inline-block; border-spacing: 15px; border-width:3px; border-style:solid; border-color:red"">  &nbsp; 6 &nbsp; </p><p> Remember, in this case, you would not win or lose ANY points because you skipped the ride.  </p>","","0","instructions","","","","","","","","","","",""
"learning-instructions","187","702314","0.0-11.0-1.0-0.10","6293","1","10","Female","approach_avoid_spark_v1","""event"",""trial"",""time""
""fullscreenenter"",""1"",""3192""
","
","
","""event"",""trial"",""time""
""fullscreenenter"",""1"",""3192""
","
","","","","","","409.29999999993015","<p> Try to make the best choice for each vehicle because </p><p> at the end of the game, you will earn bonus money based on how many points you earned. </p>","","0","instructions","","","","","","","","","","",""
"learning-instructions","188","710865","0.0-11.0-1.0-0.11","6293","1","10","Female","approach_avoid_spark_v1","""event"",""trial"",""time""
""fullscreenenter"",""1"",""3192""
","
","
","""event"",""trial"",""time""
""fullscreenenter"",""1"",""3192""
","
","","","","","","363","<p> You will have 3 seconds to make each choice. Try to respond before time runs out! </p><p> You will lose 5 points each time you do not make a response. </p>","","0","instructions","","","","","","","","","","",""
"html-keyboard-response","189","711482","0.0-11.0-2.0-0.0","6293","1","10","Female","approach_avoid_spark_v1","""event"",""trial"",""time""
""fullscreenenter"",""1"",""3192""
","
","
","""event"",""trial"",""time""
""fullscreenenter"",""1"",""3192""
","
","","","","","","null","<div style=""font-size:60px;"">+</div>","null","","fixation","","","","","","","","","","",""
"aa-learning-trial","190","714495","0.0-11.0-2.0-1.0","6293","1","10","Female","approach_avoid_spark_v1","""event"",""trial"",""time""
""fullscreenenter"",""1"",""3192""
","
","
","""event"",""trial"",""time""
""fullscreenenter"",""1"",""3192""
","
","","","","","","498.20000000006985","images/plane1.png","","","learning","-7","-7","1","1","plane","vehicles","2","1","","good","[6]"
"html-keyboard-response","191","715000","0.0-11.0-2.0-0.1","6293","1","10","Female","approach_avoid_spark_v1","""event"",""trial"",""time""
""fullscreenenter"",""1"",""3192""
","
","
","""event"",""trial"",""time""
""fullscreenenter"",""1"",""3192""
","
","","","","","","null","<div style=""font-size:60px;"">+</div>","null","","fixation","","","","","","","","","","",""
"aa-learning-trial","192","718007","0.0-11.0-2.0-1.1","6293","1","10","Female","approach_avoid_spark_v1","""event"",""trial"",""time""
""fullscreenenter"",""1"",""3192""
","
","
","""event"",""trial"",""time""
""fullscreenenter"",""1"",""3192""
","
","","","","","","500.5","images/plane1.png","","","learning","-7","0","0","0","plane","vehicles","2","1","","good","[6]"
"html-keyboard-response","193","718512","0.0-11.0-2.0-0.2","6293","1","10","Female","approach_avoid_spark_v1","""event"",""trial"",""time""
""fullscreenenter"",""1"",""3192""
","
","
","""event"",""trial"",""time""
""fullscreenenter"",""1"",""3192""
","
","","","","","","null","<div style=""font-size:60px;"">+</div>","null","","fixation","","","","","","","","","","",""
"aa-learning-trial","194","721519","0.0-11.0-2.0-1.2","6293","1","10","Female","approach_avoid_spark_v1","""event"",""trial"",""time""
""fullscreenenter"",""1"",""3192""
","
","
","""event"",""trial"",""time""
""fullscreenenter"",""1"",""3192""
","
","","","","","","887.3000000000466","images/boat3.png","","","learning","4","4","1","1","boat","vehicles","2","1","","neutral","0"
"html-keyboard-response","195","722022","0.0-11.0-2.0-0.3","6293","1","10","Female","approach_avoid_spark_v1","""event"",""trial"",""time""
""fullscreenenter"",""1"",""3192""
","
","
","""event"",""trial"",""time""
""fullscreenenter"",""1"",""3192""
","
","","","","","","null","<div style=""font-size:60px;"">+</div>","null","","fixation","","","","","","","","","","",""
"aa-learning-trial","196","725030","0.0-11.0-2.0-1.3","6293","1","10","Female","approach_avoid_spark_v1","""event"",""trial"",""time""
""fullscreenenter"",""1"",""3192""
","
","
","""event"",""trial"",""time""
""fullscreenenter"",""1"",""3192""
","
","","","","","","774.6000000000931","images/plane7.png","","","learning","3","0","0","0","plane","vehicles","2","1","","good","[6]"
"html-keyboard-response","197","725534","0.0-11.0-2.0-0.4","6293","1","10","Female","approach_avoid_spark_v1","""event"",""trial"",""time""
""fullscreenenter"",""1"",""3192""
","
","
","""event"",""trial"",""time""
""fullscreenenter"",""1"",""3192""
","
","","","","","","null","<div style=""font-size:60px;"">+</div>","null","","fixation","","","","","","","","","","",""
"aa-learning-trial","198","728543","0.0-11.0-2.0-1.4","6293","1","10","Female","approach_avoid_spark_v1","""event"",""trial"",""time""
""fullscreenenter"",""1"",""3192""
","
","
","""event"",""trial"",""time""
""fullscreenenter"",""1"",""3192""
","
","","","","","","906","images/train5.png","","","learning","5","0","0","0","train","vehicles","2","1","","bad","[-5]"
"html-keyboard-response","199","729048","0.0-11.0-2.0-0.5","6293","1","10","Female","approach_avoid_spark_v1","""event"",""trial"",""time""
""fullscreenenter"",""1"",""3192""
","
","
","""event"",""trial"",""time""
""fullscreenenter"",""1"",""3192""
","
","","","","","","null","<div style=""font-size:60px;"">+</div>","null","","fixation","","","","","","","","","","",""
"aa-learning-trial","200","732055","0.0-11.0-2.0-1.5","6293","1","10","Female","approach_avoid_spark_v1","""event"",""trial"",""time""
""fullscreenenter"",""1"",""3192""
","
","
","""event"",""trial"",""time""
""fullscreenenter"",""1"",""3192""
","
","","","","","","660.4000000000233","images/boat3.png","","","learning","4","4","1","1","boat","vehicles","2","1","","neutral","0"
"html-keyboard-response","201","732560","0.0-11.0-2.0-0.6","6293","1","10","Female","approach_avoid_spark_v1","""event"",""trial"",""time""
""fullscreenenter"",""1"",""3192""
","
","
","""event"",""trial"",""time""
""fullscreenenter"",""1"",""3192""
","
","","","","","","null","<div style=""font-size:60px;"">+</div>","null","","fixation","","","","","","","","","","",""
"aa-learning-trial","202","735567","0.0-11.0-2.0-1.6","6293","1","10","Female","approach_avoid_spark_v1","""event"",""trial"",""time""
""fullscreenenter"",""1"",""3192""
","
","
","""event"",""trial"",""time""
""fullscreenenter"",""1"",""3192""
","
","","","","","","421.79999999993015","images/boat7.png","","","learning","9","9","1","1","boat","vehicles","2","1","","neutral","0"
"html-keyboard-response","203","736072","0.0-11.0-2.0-0.7","6293","1","10","Female","approach_avoid_spark_v1","""event"",""trial"",""time""
""fullscreenenter"",""1"",""3192""
","
","
","""event"",""trial"",""time""
""fullscreenenter"",""1"",""3192""
","
","","","","","","null","<div style=""font-size:60px;"">+</div>","null","","fixation","","","","","","","","","","",""
"aa-learning-trial","204","739078","0.0-11.0-2.0-1.7","6293","1","10","Female","approach_avoid_spark_v1","""event"",""trial"",""time""
""fullscreenenter"",""1"",""3192""
","
","
","""event"",""trial"",""time""
""fullscreenenter"",""1"",""3192""
","
","","","","","","328.9000000000233","images/train7.png","","","learning","8","8","1","1","train","vehicles","2","1","","bad","[-5]"
"html-keyboard-response","205","739582","0.0-11.0-2.0-0.8","6293","1","10","Female","approach_avoid_spark_v1","""event"",""trial"",""time""
""fullscreenenter"",""1"",""3192""
","
","
","""event"",""trial"",""time""
""fullscreenenter"",""1"",""3192""
","
","","","","","","null","<div style=""font-size:60px;"">+</div>","null","","fixation","","","","","","","","","","",""
"aa-learning-trial","206","742594","0.0-11.0-2.0-1.8","6293","1","10","Female","approach_avoid_spark_v1","""event"",""trial"",""time""
""fullscreenenter"",""1"",""3192""
","
","
","""event"",""trial"",""time""
""fullscreenenter"",""1"",""3192""
","
","","","","","","424.4000000000233","images/plane7.png","","","learning","3","0","0","0","plane","vehicles","2","1","","good","[6]"
"html-keyboard-response","207","743105","0.0-11.0-2.0-0.9","6293","1","10","Female","approach_avoid_spark_v1","""event"",""trial"",""time""
""fullscreenenter"",""1"",""3192""
","
","
","""event"",""trial"",""time""
""fullscreenenter"",""1"",""3192""
","
","","","","","","null","<div style=""font-size:60px;"">+</div>","null","","fixation","","","","","","","","","","",""
"aa-learning-trial","208","746112","0.0-11.0-2.0-1.9","6293","1","10","Female","approach_avoid_spark_v1","""event"",""trial"",""time""
""fullscreenenter"",""1"",""3192""
","
","
","""event"",""trial"",""time""
""fullscreenenter"",""1"",""3192""
","
","","","","","","604.5999999999767","images/train5.png","","","learning","5","0","0","0","train","vehicles","2","1","","bad","[-5]"
"html-keyboard-response","209","746622","0.0-11.0-2.0-0.10","6293","1","10","Female","approach_avoid_spark_v1","""event"",""trial"",""time""
""fullscreenenter"",""1"",""3192""
","
","
","""event"",""trial"",""time""
""fullscreenenter"",""1"",""3192""
","
","","","","","","null","<div style=""font-size:60px;"">+</div>","null","","fixation","","","","","","","","","","",""
"aa-learning-trial","210","749630","0.0-11.0-2.0-1.10","6293","1","10","Female","approach_avoid_spark_v1","""event"",""trial"",""time""
""fullscreenenter"",""1"",""3192""
","
","
","""event"",""trial"",""time""
""fullscreenenter"",""1"",""3192""
","
","","","","","","372","images/boat7.png","","","learning","9","9","1","1","boat","vehicles","2","1","","neutral","0"
"html-keyboard-response","211","750134","0.0-11.0-2.0-0.11","6293","1","10","Female","approach_avoid_spark_v1","""event"",""trial"",""time""
""fullscreenenter"",""1"",""3192""
","
","
","""event"",""trial"",""time""
""fullscreenenter"",""1"",""3192""
","
","","","","","","null","<div style=""font-size:60px;"">+</div>","null","","fixation","","","","","","","","","","",""
"aa-learning-trial","212","753141","0.0-11.0-2.0-1.11","6293","1","10","Female","approach_avoid_spark_v1","""event"",""trial"",""time""
""fullscreenenter"",""1"",""3192""
","
","
","""event"",""trial"",""time""
""fullscreenenter"",""1"",""3192""
","
","","","","","","564.1999999999534","images/boat5.png","","","learning","-6","0","0","0","boat","vehicles","2","1","","neutral","0"
"html-keyboard-response","213","753645","0.0-11.0-2.0-0.12","6293","1","10","Female","approach_avoid_spark_v1","""event"",""trial"",""time""
""fullscreenenter"",""1"",""3192""
","
","
","""event"",""trial"",""time""
""fullscreenenter"",""1"",""3192""
","
","","","","","","null","<div style=""font-size:60px;"">+</div>","null","","fixation","","","","","","","","","","",""
"aa-learning-trial","214","756653","0.0-11.0-2.0-1.12","6293","1","10","Female","approach_avoid_spark_v1","""event"",""trial"",""time""
""fullscreenenter"",""1"",""3192""
","
","
","""event"",""trial"",""time""
""fullscreenenter"",""1"",""3192""
","
","","","","","","824","images/train8.png","","","learning","2","0","0","0","train","vehicles","2","1","","bad","[-5]"
"html-keyboard-response","215","757158","0.0-11.0-2.0-0.13","6293","1","10","Female","approach_avoid_spark_v1","""event"",""trial"",""time""
""fullscreenenter"",""1"",""3192""
","
","
","""event"",""trial"",""time""
""fullscreenenter"",""1"",""3192""
","
","","","","","","null","<div style=""font-size:60px;"">+</div>","null","","fixation","","","","","","","","","","",""
"aa-learning-trial","216","760165","0.0-11.0-2.0-1.13","6293","1","10","Female","approach_avoid_spark_v1","""event"",""trial"",""time""
""fullscreenenter"",""1"",""3192""
","
","
","""event"",""trial"",""time""
""fullscreenenter"",""1"",""3192""
","
","","","","","","752.8000000000466","images/plane3.png","","","learning","1","0","0","0","plane","vehicles","2","1","","good","[6]"
"html-keyboard-response","217","760670","0.0-11.0-2.0-0.14","6293","1","10","Female","approach_avoid_spark_v1","""event"",""trial"",""time""
""fullscreenenter"",""1"",""3192""
","
","
","""event"",""trial"",""time""
""fullscreenenter"",""1"",""3192""
","
","","","","","","null","<div style=""font-size:60px;"">+</div>","null","","fixation","","","","","","","","","","",""
"aa-learning-trial","218","763677","0.0-11.0-2.0-1.14","6293","1","10","Female","approach_avoid_spark_v1","""event"",""trial"",""time""
""fullscreenenter"",""1"",""3192""
","
","
","""event"",""trial"",""time""
""fullscreenenter"",""1"",""3192""
","
","","","","","","439.5","images/train7.png","","","learning","8","8","1","1","train","vehicles","2","1","","bad","[-5]"
"html-keyboard-response","219","764182","0.0-11.0-2.0-0.15","6293","1","10","Female","approach_avoid_spark_v1","""event"",""trial"",""time""
""fullscreenenter"",""1"",""3192""
","
","
","""event"",""trial"",""time""
""fullscreenenter"",""1"",""3192""
","
","","","","","","null","<div style=""font-size:60px;"">+</div>","null","","fixation","","","","","","","","","","",""
"aa-learning-trial","220","767189","0.0-11.0-2.0-1.15","6293","1","10","Female","approach_avoid_spark_v1","""event"",""trial"",""time""
""fullscreenenter"",""1"",""3192""
","
","
","""event"",""trial"",""time""
""fullscreenenter"",""1"",""3192""
","
","","","","","","569.1999999999534","images/train5.png","","","learning","5","0","0","0","train","vehicles","2","1","","bad","[-5]"
"html-keyboard-response","221","767694","0.0-11.0-2.0-0.16","6293","1","10","Female","approach_avoid_spark_v1","""event"",""trial"",""time""
""fullscreenenter"",""1"",""3192""
","
","
","""event"",""trial"",""time""
""fullscreenenter"",""1"",""3192""
","
","","","","","","null","<div style=""font-size:60px;"">+</div>","null","","fixation","","","","","","","","","","",""
"aa-learning-trial","222","770701","0.0-11.0-2.0-1.16","6293","1","10","Female","approach_avoid_spark_v1","""event"",""trial"",""time""
""fullscreenenter"",""1"",""3192""
","
","
","""event"",""trial"",""time""
""fullscreenenter"",""1"",""3192""
","
","","","","","","466.30000000004657","images/plane7.png","","","learning","3","3","1","1","plane","vehicles","2","1","","good","[6]"
"html-keyboard-response","223","771206","0.0-11.0-2.0-0.17","6293","1","10","Female","approach_avoid_spark_v1","""event"",""trial"",""time""
""fullscreenenter"",""1"",""3192""
","
","
","""event"",""trial"",""time""
""fullscreenenter"",""1"",""3192""
","
","","","","","","null","<div style=""font-size:60px;"">+</div>","null","","fixation","","","","","","","","","","",""
"aa-learning-trial","224","774213","0.0-11.0-2.0-1.17","6293","1","10","Female","approach_avoid_spark_v1","""event"",""trial"",""time""
""fullscreenenter"",""1"",""3192""
","
","
","""event"",""trial"",""time""
""fullscreenenter"",""1"",""3192""
","
","","","","","","414.70000000006985","images/boat7.png","","","learning","9","0","0","0","boat","vehicles","2","1","","neutral","0"
"html-keyboard-response","225","774718","0.0-11.0-2.0-0.18","6293","1","10","Female","approach_avoid_spark_v1","""event"",""trial"",""time""
""fullscreenenter"",""1"",""3192""
","
","
","""event"",""trial"",""time""
""fullscreenenter"",""1"",""3192""
","
","","","","","","null","<div style=""font-size:60px;"">+</div>","null","","fixation","","","","","","","","","","",""
"aa-learning-trial","226","777725","0.0-11.0-2.0-1.18","6293","1","10","Female","approach_avoid_spark_v1","""event"",""trial"",""time""
""fullscreenenter"",""1"",""3192""
","
","
","""event"",""trial"",""time""
""fullscreenenter"",""1"",""3192""
","
","","","","","","424.30000000004657","images/plane1.png","","","learning","-7","-7","1","1","plane","vehicles","2","1","","good","[6]"
"html-keyboard-response","227","778230","0.0-11.0-2.0-0.19","6293","1","10","Female","approach_avoid_spark_v1","""event"",""trial"",""time""
""fullscreenenter"",""1"",""3192""
","
","
","""event"",""trial"",""time""
""fullscreenenter"",""1"",""3192""
","
","","","","","","null","<div style=""font-size:60px;"">+</div>","null","","fixation","","","","","","","","","","",""
"aa-learning-trial","228","781238","0.0-11.0-2.0-1.19","6293","1","10","Female","approach_avoid_spark_v1","""event"",""trial"",""time""
""fullscreenenter"",""1"",""3192""
","
","
","""event"",""trial"",""time""
""fullscreenenter"",""1"",""3192""
","
","","","","","","1018.6999999999534","images/train4.png","","","learning","-5","-5","1","1","train","vehicles","2","1","","bad","[-5]"
"html-keyboard-response","229","781741","0.0-11.0-2.0-0.20","6293","1","10","Female","approach_avoid_spark_v1","""event"",""trial"",""time""
""fullscreenenter"",""1"",""3192""
","
","
","""event"",""trial"",""time""
""fullscreenenter"",""1"",""3192""
","
","","","","","","null","<div style=""font-size:60px;"">+</div>","null","","fixation","","","","","","","","","","",""
"aa-learning-trial","230","784750","0.0-11.0-2.0-1.20","6293","1","10","Female","approach_avoid_spark_v1","""event"",""trial"",""time""
""fullscreenenter"",""1"",""3192""
","
","
","""event"",""trial"",""time""
""fullscreenenter"",""1"",""3192""
","
","","","","","","294.30000000004657","images/train7.png","","","learning","8","0","0","0","train","vehicles","2","1","","bad","[-5]"
"html-keyboard-response","231","785254","0.0-11.0-2.0-0.21","6293","1","10","Female","approach_avoid_spark_v1","""event"",""trial"",""time""
""fullscreenenter"",""1"",""3192""
","
","
","""event"",""trial"",""time""
""fullscreenenter"",""1"",""3192""
","
","","","","","","null","<div style=""font-size:60px;"">+</div>","null","","fixation","","","","","","","","","","",""
"aa-learning-trial","232","788262","0.0-11.0-2.0-1.21","6293","1","10","Female","approach_avoid_spark_v1","""event"",""trial"",""time""
""fullscreenenter"",""1"",""3192""
","
","
","""event"",""trial"",""time""
""fullscreenenter"",""1"",""3192""
","
","","","","","","68.30000000004657","images/boat3.png","","","learning","4","4","1","1","boat","vehicles","2","1","","neutral","0"
"html-keyboard-response","233","788766","0.0-11.0-2.0-0.22","6293","1","10","Female","approach_avoid_spark_v1","""event"",""trial"",""time""
""fullscreenenter"",""1"",""3192""
","
","
","""event"",""trial"",""time""
""fullscreenenter"",""1"",""3192""
","
","","","","","","null","<div style=""font-size:60px;"">+</div>","null","","fixation","","","","","","","","","","",""
"aa-learning-trial","234","791774","0.0-11.0-2.0-1.22","6293","1","10","Female","approach_avoid_spark_v1","""event"",""trial"",""time""
""fullscreenenter"",""1"",""3192""
","
","
","""event"",""trial"",""time""
""fullscreenenter"",""1"",""3192""
","
","","","","","","555.6999999999534","images/boat7.png","","","learning","9","9","1","1","boat","vehicles","2","1","","neutral","0"
"html-keyboard-response","235","792278","0.0-11.0-2.0-0.23","6293","1","10","Female","approach_avoid_spark_v1","""event"",""trial"",""time""
""fullscreenenter"",""1"",""3192""
","
","
","""event"",""trial"",""time""
""fullscreenenter"",""1"",""3192""
","
","","","","","","null","<div style=""font-size:60px;"">+</div>","null","","fixation","","","","","","","","","","",""
"aa-learning-trial","236","795286","0.0-11.0-2.0-1.23","6293","1","10","Female","approach_avoid_spark_v1","""event"",""trial"",""time""
""fullscreenenter"",""1"",""3192""
","
","
","""event"",""trial"",""time""
""fullscreenenter"",""1"",""3192""
","
