"trial_type","trial_index","time_elapsed","internal_node_id","subject_id","task_condition","age","gender","task_version","interactions","blur_events","focus_events","fullscreenenter_events","fullscreenexit_events","success","timeout","failed_images","failed_audio","failed_video","rt","stimulus","response","button_pressed","task_part","approach_reward","points","key_press","option_selected","stim_cat","task_block","block_condition","block_number","correct","cat_type","mean_cat_reward"
"pavlovia","0","6","0.0-0.0","7083","2","19","Male","approach_avoid_spark_v1","""event"",""trial"",""time""
""fullscreenenter"",""1"",""9930""
","
","
","""event"",""trial"",""time""
""fullscreenenter"",""1"",""9930""
","
","","","","","","","","","","","","","","","","","","","","",""
"fullscreen","1","10880","0.0-1.0","7083","2","19","Male","approach_avoid_spark_v1","""event"",""trial"",""time""
""fullscreenenter"",""1"",""9930""
","
","
","""event"",""trial"",""time""
""fullscreenenter"",""1"",""9930""
","
","true","","","","","","","","","","","","","","","","","","","",""
"preload","2","17967","0.0-2.0","7083","2","19","Male","approach_avoid_spark_v1","""event"",""trial"",""time""
""fullscreenenter"",""1"",""9930""
","
","
","""event"",""trial"",""time""
""fullscreenenter"",""1"",""9930""
","
","true","false","[]","[]","[]","","","","","","","","","","","","","","","",""
"audio-keyboard-response","3","21383","0.0-3.0","7083","2","19","Male","approach_avoid_spark_v1","""event"",""trial"",""time""
""fullscreenenter"",""1"",""9930""
","
","
","""event"",""trial"",""time""
""fullscreenenter"",""1"",""9930""
","
","","","","","","3421.333333333333","audio/beep_loop.wav"," ","","","","","","","","","","","","",""
"audio-button-response","4","24047","0.0-4.0","7083","2","19","Male","approach_avoid_spark_v1","""event"",""trial"",""time""
""fullscreenenter"",""1"",""9930""
","
","
","""event"",""trial"",""time""
""fullscreenenter"",""1"",""9930""
","
","","","","","","2659","audio/shark.wav","4","","","","","","","","","","","","",""
"audio-button-response","5","26305","0.0-5.0","7083","2","19","Male","approach_avoid_spark_v1","""event"",""trial"",""time""
""fullscreenenter"",""1"",""9930""
","
","
","""event"",""trial"",""time""
""fullscreenenter"",""1"",""9930""
","
","","","","","","1261","audio/turtle.wav","1","","","","","","","","","","","","",""
"preload","6","29838","0.0-6.0","7083","2","19","Male","approach_avoid_spark_v1","""event"",""trial"",""time""
""fullscreenenter"",""1"",""9930""
","
","
","""event"",""trial"",""time""
""fullscreenenter"",""1"",""9930""
","
","true","false","[]","[]","[]","","","","","","","","","","","","","","","",""
"html-keyboard-response","7","31630","0.0-7.0","7083","2","19","Male","approach_avoid_spark_v1","""event"",""trial"",""time""
""fullscreenenter"",""1"",""9930""
","
","
","""event"",""trial"",""time""
""fullscreenenter"",""1"",""9930""
","
","","","","","","1790.0999999940395","Welcome to the experiment. Press any key to begin and to advance the instructions.","j","","","","","","","","","","","","",""
"learning-instructions","8","39528","0.0-8.0-0.0-0.0","7083","2","19","Male","approach_avoid_spark_v1","""event"",""trial"",""time""
""fullscreenenter"",""1"",""9930""
","
","
","""event"",""trial"",""time""
""fullscreenenter"",""1"",""9930""
","
","","","","","","935.7999999970198","<p> Welcome! Today you are going to play 6 different rounds of a decision-making game. </p><p> Use the mouse to click next to continue. </p>","","0","instructions","","","","","","","","","","",""
"learning-instructions","9","43168","0.0-8.0-0.0-0.1","7083","2","19","Male","approach_avoid_spark_v1","""event"",""trial"",""time""
""fullscreenenter"",""1"",""9930""
","
","
","""event"",""trial"",""time""
""fullscreenenter"",""1"",""9930""
","
","","","","","","905","<p> You will start with a practice round to learn the rules. </p>","","0","instructions","","","","","","","","","","",""
"learning-instructions","10","47109","0.0-8.0-0.0-0.2","7083","2","19","Male","approach_avoid_spark_v1","""event"",""trial"",""time""
""fullscreenenter"",""1"",""9930""
","
","
","""event"",""trial"",""time""
""fullscreenenter"",""1"",""9930""
","
","","","","","","477.19999998807907","<p> Your goal in this round is to give out sports equipment to kids. </p></div>","","0","instructions","","","","","","","","","","",""
"learning-instructions","11","55129","0.0-8.0-0.0-0.3","7083","2","19","Male","approach_avoid_spark_v1","""event"",""trial"",""time""
""fullscreenenter"",""1"",""9930""
","
","
","""event"",""trial"",""time""
""fullscreenenter"",""1"",""9930""
","
","","","","","","467.6000000089407","<p> The kids only like some of the equipment.  </p><p> On each turn, you will see a piece of sports equipment.   </p><p> You need to decide whether to give it to the kids or not.  </p>","","0","instructions","","","","","","","","","","",""
"learning-instructions","12","60387","0.0-8.0-0.0-0.4","7083","2","19","Male","approach_avoid_spark_v1","""event"",""trial"",""time""
""fullscreenenter"",""1"",""9930""
","
","
","""event"",""trial"",""time""
""fullscreenenter"",""1"",""9930""
","
","","","","","","496.20000000298023","<p> You can give them the equipment by pressing 1 and choose not to give it to them by pressing 0. </p><br><div class=""choice-instructions-grid""> <div class=""choice-option""><img src=""images/approach.png"" class=""choice-option-img"" stage=""instructions"" position=""0"" ><div class=""choice-option-text""> Press ""1."" </div></div><div class=""choice-option""><img src=""images/avoid.png"" class=""choice-option-img"" stage=""instructions"" position=""1"" ><div class=""choice-option-text""> Press ""0."" </div></div>","","0","instructions","","","","","","","","","","",""
"learning-instructions","13","68254","0.0-8.0-0.0-0.5","7083","2","19","Male","approach_avoid_spark_v1","""event"",""trial"",""time""
""fullscreenenter"",""1"",""9930""
","
","
","""event"",""trial"",""time""
""fullscreenenter"",""1"",""9930""
","
","","","","","","472.70000000298023","<p> If you give them a piece of equipment they like, they will be happy! </p><p> But if you give them a piece of equipment they do not like, they will be sad. </p>","","0","instructions","","","","","","","","","","",""
"learning-instructions","14","79351","0.0-8.0-0.0-0.6","7083","2","19","Male","approach_avoid_spark_v1","""event"",""trial"",""time""
""fullscreenenter"",""1"",""9930""
","
","
","""event"",""trial"",""time""
""fullscreenenter"",""1"",""9930""
","
","","","","","","580.2000000029802","<p> You will earn points based on how you make kids feel. </p><p> If you make them happy, you will WIN anywhere from 1 - 9 points, </p><p> but if you make them sad, you will LOSE anywhere from 1 - 9 points. </p>","","0","instructions","","","","","","","","","","",""
"learning-instructions","15","89402","0.0-8.0-0.0-0.7","7083","2","19","Male","approach_avoid_spark_v1","""event"",""trial"",""time""
""fullscreenenter"",""1"",""9930""
","
","
","""event"",""trial"",""time""
""fullscreenenter"",""1"",""9930""
","
","","","","","","501.59999999403954","<p> You will see how many points you won or lost in the center of the screen. </p><p> Here is what you would see if you won 6 points: </p><p style=""color:green;font-size:50px;font-weight:bolder"">6</p><p style=""color:green"">The text is GREEN because you WON points.</p>","","0","instructions","","","","","","","","","","",""
"learning-instructions","16","96465","0.0-8.0-0.0-0.8","7083","2","19","Male","approach_avoid_spark_v1","""event"",""trial"",""time""
""fullscreenenter"",""1"",""9930""
","
","
","""event"",""trial"",""time""
""fullscreenenter"",""1"",""9930""
","
","","","","","","1554.5999999940395","<p> And here is what you would see if you lost 4 points: </p><p style=""color:red;font-size:50px;font-weight:bolder"">-4</p><p style=""color:red"">The text is RED because you LOST points. </p>","","0","instructions","","","","","","","","","","",""
"learning-instructions","17","111727","0.0-8.0-0.0-0.9","7083","2","19","Male","approach_avoid_spark_v1","""event"",""trial"",""time""
""fullscreenenter"",""1"",""9930""
","
","
","""event"",""trial"",""time""
""fullscreenenter"",""1"",""9930""
","
","","","","","","547","<p> Some of the equipment will make the kids VERY happy or sad. </p><p> These pieces of equipment will make you win or lose LOTS of points. </p><p> Other pieces of equipment will only make the kids a little happy or sad. </p><p> These pieces of equipment will make you win or lose small amounts of points. </p>","","0","instructions","","","","","","","","","","",""
"learning-instructions","18","122738","0.0-8.0-0.0-0.10","7083","2","19","Male","approach_avoid_spark_v1","""event"",""trial"",""time""
""fullscreenenter"",""1"",""9930""
","
","
","""event"",""trial"",""time""
""fullscreenenter"",""1"",""9930""
","
","","","","","","385.70000000298023","<p> If you choose not to give them the equipment, you will not win or lose any points. </p><p>  However, in the center of the screen, you will see the number of points you WOULD HAVE won or lost if you had given them the equipment. </p>","","0","instructions","","","","","","","","","","",""
"learning-instructions","19","145308","0.0-8.0-0.0-0.11","7083","2","19","Male","approach_avoid_spark_v1","""event"",""trial"",""time""
""fullscreenenter"",""1"",""9930""
","
","
","""event"",""trial"",""time""
""fullscreenenter"",""1"",""9930""
","
","","","","","","1046.7999999970198","<p> Here is what you might see if you did not give the equipment to the kids but it would have made them happy: </p><p style=""color:grey; font-size:50px; display: inline-block; border-spacing: 15px; border-width:3px; border-style:solid; border-color:red"">  &nbsp; 7 &nbsp; </p><p> Remember, in this case, you would not win or lose ANY points because you did not give them the equipment.  </p><p style=""color:grey"">The text is GREY because you earned ZERO points. </p><p style=""color:red"">However, choosing to give the kids the equipment would have made you win points. The box around the text is RED because you chose the worse option. </p>","","0","instructions","","","","","","","","","","",""
"learning-instructions","20","168421","0.0-8.0-0.0-0.12","7083","2","19","Male","approach_avoid_spark_v1","""event"",""trial"",""time""
""fullscreenenter"",""1"",""9930""
","
","
","""event"",""trial"",""time""
""fullscreenenter"",""1"",""9930""
","
","","","","","","2039.4000000059605","<p> Here is what you might see if you did not give the equipment to the kids but it would have made them sad: </p><p style=""color:grey;font-size:50px; display: inline-block; border-spacing: 15px; border-width:3px; border-style:solid; border-color:green"">  &nbsp; -8 &nbsp; </p><p> Remember, in this case, you would not win or lose ANY points because you did not give them the equipment.  </p><p style=""color:grey"">The text is GREY because you earned ZERO points. </p><p  style=""color:green""> Choosing to give the kids the equipment would have made you lose points. The box around the text is GREEN because you chose the better option.</p>","","0","instructions","","","","","","","","","","",""
"learning-instructions","21","180385","0.0-8.0-0.0-0.13","7083","2","19","Male","approach_avoid_spark_v1","""event"",""trial"",""time""
""fullscreenenter"",""1"",""9930""
","
","
","""event"",""trial"",""time""
""fullscreenenter"",""1"",""9930""
","
","","","","","","2153.2000000029802","<p> You will have 3 seconds to make each choice. Try to respond before time runs out! </p><p> You will lose 5 points each time you do not make a response. </p>","","0","instructions","","","","","","","","","","",""
"learning-instructions","22","188845","0.0-8.0-0.0-0.14","7083","2","19","Male","approach_avoid_spark_v1","""event"",""trial"",""time""
""fullscreenenter"",""1"",""9930""
","
","
","""event"",""trial"",""time""
""fullscreenenter"",""1"",""9930""
","
","","","","","","3053","<p> This is just a practice round, but in the real game, your bonus payment will depend on your total number of points.","","0","instructions","","","","","","","","","","",""
"learning-instructions","23","195038","0.0-8.0-0.0-0.15","7083","2","19","Male","approach_avoid_spark_v1","""event"",""trial"",""time""
""fullscreenenter"",""1"",""9930""
","
","
","""event"",""trial"",""time""
""fullscreenenter"",""1"",""9930""
","
","","","","","","435.1000000089407","<p> Remember, you can give them the equipment by pressing 1 and choose not to give it to them by pressing 0. </p><br><div class=""choice-instructions-grid""> <div class=""choice-option""><img src=""images/approach.png"" class=""choice-option-img"" stage=""instructions"" position=""0"" ><div class=""choice-option-text""> Press ""1."" </div></div><div class=""choice-option""><img src=""images/avoid.png"" class=""choice-option-img"" stage=""instructions"" position=""1"" ><div class=""choice-option-text""> Press ""0."" </div></div>","","0","instructions","","","","","","","","","","",""
"html-button-response","24","197109","0.0-8.0-1.0","7083","2","19","Male","approach_avoid_spark_v1","""event"",""trial"",""time""
""fullscreenenter"",""1"",""9930""
","
","
","""event"",""trial"",""time""
""fullscreenenter"",""1"",""9930""
","
","","","","","","1965.7999999970198","<p> Ready to practice? </p>","0","","","","","","","","","","","","",""
"html-keyboard-response","25","197740","0.0-8.0-2.0-0.0","7083","2","19","Male","approach_avoid_spark_v1","""event"",""trial"",""time""
""fullscreenenter"",""1"",""9930""
","
","
","""event"",""trial"",""time""
""fullscreenenter"",""1"",""9930""
","
","","","","","","null","<div style=""font-size:60px;"">+</div>","null","","fixation","","","","","","","","","","",""
"aa-learning-trial","26","200748","0.0-8.0-2.0-1.0","7083","2","19","Male","approach_avoid_spark_v1","""event"",""trial"",""time""
""fullscreenenter"",""1"",""9930""
","
","
","""event"",""trial"",""time""
""fullscreenenter"",""1"",""9930""
","
","","","","","","1671.5","images/racket1.png","","","learning","-9","-9","1","1","practice","practice","practice","-1","","",""
"html-keyboard-response","27","201257","0.0-8.0-2.0-0.1","7083","2","19","Male","approach_avoid_spark_v1","""event"",""trial"",""time""
""fullscreenenter"",""1"",""9930""
","
","
","""event"",""trial"",""time""
""fullscreenenter"",""1"",""9930""
","
","","","","","","null","<div style=""font-size:60px;"">+</div>","null","","fixation","","","","","","","","","","",""
"aa-learning-trial","28","204262","0.0-8.0-2.0-1.1","7083","2","19","Male","approach_avoid_spark_v1","""event"",""trial"",""time""
""fullscreenenter"",""1"",""9930""
","
","
","""event"",""trial"",""time""
""fullscreenenter"",""1"",""9930""
","
","","","","","","null","images/racket2.png","","","learning","-8","-5","","null","practice","practice","practice","-1","","",""
"html-keyboard-response","29","204768","0.0-8.0-2.0-0.2","7083","2","19","Male","approach_avoid_spark_v1","""event"",""trial"",""time""
""fullscreenenter"",""1"",""9930""
","
","
","""event"",""trial"",""time""
""fullscreenenter"",""1"",""9930""
","
","","","","","","null","<div style=""font-size:60px;"">+</div>","null","","fixation","","","","","","","","","","",""
"aa-learning-trial","30","207785","0.0-8.0-2.0-1.2","7083","2","19","Male","approach_avoid_spark_v1","""event"",""trial"",""time""
""fullscreenenter"",""1"",""9930""
","
","
","""event"",""trial"",""time""
""fullscreenenter"",""1"",""9930""
","
","","","","","","1459.4000000059605","images/ball1.png","","","learning","-1","-1","1","1","practice","practice","practice","-1","","",""
"html-keyboard-response","31","208298","0.0-8.0-2.0-0.3","7083","2","19","Male","approach_avoid_spark_v1","""event"",""trial"",""time""
""fullscreenenter"",""1"",""9930""
","
","
","""event"",""trial"",""time""
""fullscreenenter"",""1"",""9930""
","
","","","","","","null","<div style=""font-size:60px;"">+</div>","null","","fixation","","","","","","","","","","",""
"aa-learning-trial","32","211301","0.0-8.0-2.0-1.3","7083","2","19","Male","approach_avoid_spark_v1","""event"",""trial"",""time""
""fullscreenenter"",""1"",""9930""
","
","
","""event"",""trial"",""time""
""fullscreenenter"",""1"",""9930""
","
","","","","","","1766.300000011921","images/ball1.png","","","learning","9","0","0","0","practice","practice","practice","-1","","",""
"html-keyboard-response","33","211814","0.0-8.0-2.0-0.4","7083","2","19","Male","approach_avoid_spark_v1","""event"",""trial"",""time""
""fullscreenenter"",""1"",""9930""
","
","
","""event"",""trial"",""time""
""fullscreenenter"",""1"",""9930""
","
","","","","","","null","<div style=""font-size:60px;"">+</div>","null","","fixation","","","","","","","","","","",""
"aa-learning-trial","34","214817","0.0-8.0-2.0-1.4","7083","2","19","Male","approach_avoid_spark_v1","""event"",""trial"",""time""
""fullscreenenter"",""1"",""9930""
","
","
","""event"",""trial"",""time""
""fullscreenenter"",""1"",""9930""
","
","","","","","","2350.3999999910593","images/racket1.png","","","learning","-5","-5","1","1","practice","practice","practice","-1","","",""
"html-keyboard-response","35","215326","0.0-8.0-2.0-0.5","7083","2","19","Male","approach_avoid_spark_v1","""event"",""trial"",""time""
""fullscreenenter"",""1"",""9930""
","
","
","""event"",""trial"",""time""
""fullscreenenter"",""1"",""9930""
","
","","","","","","null","<div style=""font-size:60px;"">+</div>","null","","fixation","","","","","","","","","","",""
"aa-learning-trial","36","218331","0.0-8.0-2.0-1.5","7083","2","19","Male","approach_avoid_spark_v1","""event"",""trial"",""time""
""fullscreenenter"",""1"",""9930""
","
","
","""event"",""trial"",""time""
""fullscreenenter"",""1"",""9930""
","
","","","","","","2610.6000000089407","images/ball1.png","","","learning","9","9","1","1","practice","practice","practice","-1","","",""
"html-keyboard-response","37","218832","0.0-8.0-2.0-0.6","7083","2","19","Male","approach_avoid_spark_v1","""event"",""trial"",""time""
""fullscreenenter"",""1"",""9930""
","
","
","""event"",""trial"",""time""
""fullscreenenter"",""1"",""9930""
","
","","","","","","null","<div style=""font-size:60px;"">+</div>","null","","fixation","","","","","","","","","","",""
"aa-learning-trial","38","221847","0.0-8.0-2.0-1.6","7083","2","19","Male","approach_avoid_spark_v1","""event"",""trial"",""time""
""fullscreenenter"",""1"",""9930""
","
","
","""event"",""trial"",""time""
""fullscreenenter"",""1"",""9930""
","
","","","","","","2609.699999988079","images/racket4.png","","","learning","7","7","1","1","practice","practice","practice","-1","","",""
"html-keyboard-response","39","222358","0.0-8.0-2.0-0.7","7083","2","19","Male","approach_avoid_spark_v1","""event"",""trial"",""time""
""fullscreenenter"",""1"",""9930""
","
","
","""event"",""trial"",""time""
""fullscreenenter"",""1"",""9930""
","
","","","","","","null","<div style=""font-size:60px;"">+</div>","null","","fixation","","","","","","","","","","",""
"aa-learning-trial","40","225361","0.0-8.0-2.0-1.7","7083","2","19","Male","approach_avoid_spark_v1","""event"",""trial"",""time""
""fullscreenenter"",""1"",""9930""
","
","
","""event"",""trial"",""time""
""fullscreenenter"",""1"",""9930""
","
","","","","","","1788.7000000029802","images/ball4.png","","","learning","-9","-9","1","1","practice","practice","practice","-1","","",""
"html-keyboard-response","41","225862","0.0-8.0-2.0-0.8","7083","2","19","Male","approach_avoid_spark_v1","""event"",""trial"",""time""
""fullscreenenter"",""1"",""9930""
","
","
","""event"",""trial"",""time""
""fullscreenenter"",""1"",""9930""
","
","","","","","","null","<div style=""font-size:60px;"">+</div>","null","","fixation","","","","","","","","","","",""
"aa-learning-trial","42","228864","0.0-8.0-2.0-1.8","7083","2","19","Male","approach_avoid_spark_v1","""event"",""trial"",""time""
""fullscreenenter"",""1"",""9930""
","
","
","""event"",""trial"",""time""
""fullscreenenter"",""1"",""9930""
","
","","","","","","1663.300000011921","images/ball3.png","","","learning","-1","0","0","0","practice","practice","practice","-1","","",""
"html-keyboard-response","43","229366","0.0-8.0-2.0-0.9","7083","2","19","Male","approach_avoid_spark_v1","""event"",""trial"",""time""
""fullscreenenter"",""1"",""9930""
","
","
","""event"",""trial"",""time""
""fullscreenenter"",""1"",""9930""
","
","","","","","","null","<div style=""font-size:60px;"">+</div>","null","","fixation","","","","","","","","","","",""
"aa-learning-trial","44","232367","0.0-8.0-2.0-1.9","7083","2","19","Male","approach_avoid_spark_v1","""event"",""trial"",""time""
""fullscreenenter"",""1"",""9930""
","
","
","""event"",""trial"",""time""
""fullscreenenter"",""1"",""9930""
","
","","","","","","921.3999999910593","images/ball4.png","","","learning","2","2","1","1","practice","practice","practice","-1","","",""
"html-keyboard-response","45","232870","0.0-8.0-2.0-0.10","7083","2","19","Male","approach_avoid_spark_v1","""event"",""trial"",""time""
""fullscreenenter"",""1"",""9930""
","
","
","""event"",""trial"",""time""
""fullscreenenter"",""1"",""9930""
","
","","","","","","null","<div style=""font-size:60px;"">+</div>","null","","fixation","","","","","","","","","","",""
"aa-learning-trial","46","235872","0.0-8.0-2.0-1.10","7083","2","19","Male","approach_avoid_spark_v1","""event"",""trial"",""time""
""fullscreenenter"",""1"",""9930""
","
","
","""event"",""trial"",""time""
""fullscreenenter"",""1"",""9930""
","
","","","","","","1151.8999999910593","images/ball4.png","","","learning","-8","-8","1","1","practice","practice","practice","-1","","",""
"html-keyboard-response","47","236374","0.0-8.0-2.0-0.11","7083","2","19","Male","approach_avoid_spark_v1","""event"",""trial"",""time""
""fullscreenenter"",""1"",""9930""
","
","
","""event"",""trial"",""time""
""fullscreenenter"",""1"",""9930""
","
","","","","","","null","<div style=""font-size:60px;"">+</div>","null","","fixation","","","","","","","","","","",""
"aa-learning-trial","48","239376","0.0-8.0-2.0-1.11","7083","2","19","Male","approach_avoid_spark_v1","""event"",""trial"",""time""
""fullscreenenter"",""1"",""9930""
","
","
","""event"",""trial"",""time""
""fullscreenenter"",""1"",""9930""
","
","","","","","","1585.2000000029802","images/racket2.png","","","learning","-5","0","0","0","practice","practice","practice","-1","","",""
"html-button-response","49","241592","0.0-8.0-3.0","7083","2","19","Male","approach_avoid_spark_v1","""event"",""trial"",""time""
""fullscreenenter"",""1"",""9930""
","
","
","""event"",""trial"",""time""
""fullscreenenter"",""1"",""9930""
","
","","","","","","2215.1000000089407","<p> You earned -19 points in the practice round! </p>","0","","break","","","","","","","","","","",""
"learning-instructions","50","249298","0.0-8.0-4.0-0.0","7083","2","19","Male","approach_avoid_spark_v1","""event"",""trial"",""time""
""fullscreenenter"",""1"",""9930""
","
","
","""event"",""trial"",""time""
""fullscreenenter"",""1"",""9930""
","
","","","","","","1557","<p> It's almost time to start the real game. </p><p> Before you start, we're going to ask you a few questions about how the game works. </p>","","0","instructions","","","","","","","","","","",""
"preload","51","253490","0.0-8.0-5.0","7083","2","19","Male","approach_avoid_spark_v1","""event"",""trial"",""time""
""fullscreenenter"",""1"",""9930""
","
","
","""event"",""trial"",""time""
""fullscreenenter"",""1"",""9930""
","
","true","false","[]","[]","[]","","","","","","","","","","","","","","","",""
"comp-q","52","261233","0.0-8.0-6.0-0.0","7083","2","19","Male","approach_avoid_spark_v1","""event"",""trial"",""time""
""fullscreenenter"",""1"",""9930""
","
","
","""event"",""trial"",""time""
""fullscreenenter"",""1"",""9930""
","
","","","","","","2741.5","<p> <b> True or False? </b> </p><p> If you see a number in GREY, that means you earned that many points. </p>","","1","comp_question","","","","","","","","","true","",""
"comp-q","53","271289","0.0-8.0-6.0-1.0","7083","2","19","Male","approach_avoid_spark_v1","""event"",""trial"",""time""
""fullscreenenter"",""1"",""9930""
","
","
","""event"",""trial"",""time""
""fullscreenenter"",""1"",""9930""
","
","","","","","","1687.7000000029802","<p><b> That's right! </b> If you see a grey number, it means you earned ZERO points. <br> The grey numbers show the points you WOULD HAVE earned if you had made the other choice. </p>","","0","comp_answer","","","","","","","","","","",""
"comp-q","54","276609","0.0-8.0-7.0-0.0","7083","2","19","Male","approach_avoid_spark_v1","""event"",""trial"",""time""
""fullscreenenter"",""1"",""9930""
","
","
","""event"",""trial"",""time""
""fullscreenenter"",""1"",""9930""
","
","","","","","","618.3999999910593","<p> <b> True or False? </b> </p><p> You will have as much time as you want to make each choice. </p>","","1","comp_question","","","","","","","","","true","",""
"comp-q","55","282136","0.0-8.0-7.0-1.0","7083","2","19","Male","approach_avoid_spark_v1","""event"",""trial"",""time""
""fullscreenenter"",""1"",""9930""
","
","
","""event"",""trial"",""time""
""fullscreenenter"",""1"",""9930""
","
","","","","","","1485.4000000059605","<p> <b> That's right! </b> You will only have 3 seconds to make each choice. </p>","","0","comp_answer","","","","","","","","","","",""
"comp-q","56","287452","0.0-8.0-8.0-0.0","7083","2","19","Male","approach_avoid_spark_v1","""event"",""trial"",""time""
""fullscreenenter"",""1"",""9930""
","
","
","""event"",""trial"",""time""
""fullscreenenter"",""1"",""9930""
","
","","","","","","651.2000000029802","<p> <b> True or False? </b> </p><p> You should use the '1' and '0' keys to make your choices. </p>","","0","comp_question","","","","","","","","","true","",""
"comp-q","57","293267","0.0-8.0-8.0-1.0","7083","2","19","Male","approach_avoid_spark_v1","""event"",""trial"",""time""
""fullscreenenter"",""1"",""9930""
","
","
","""event"",""trial"",""time""
""fullscreenenter"",""1"",""9930""
","
","","","","","","1206.0999999940395","<p> <b> That's right! </b> You should use the '1' and '0' keys to make each choice. </p>","","0","comp_answer","","","","","","","","","","",""
"learning-instructions","58","300718","0.0-8.0-9.0-0.0","7083","2","19","Male","approach_avoid_spark_v1","""event"",""trial"",""time""
""fullscreenenter"",""1"",""9930""
","
","
","""event"",""trial"",""time""
""fullscreenenter"",""1"",""9930""
","
","","","","","","1177.3999999910593","<p> It's now time to start the real game. </p>Do your best, because the points you earn in the next rounds will influence your bonus payment. </p>","","0","instructions","","","","","","","","","","",""
"preload","59","300842","0.0-9.0-0.0","7083","2","19","Male","approach_avoid_spark_v1","""event"",""trial"",""time""
""fullscreenenter"",""1"",""9930""
","
","
","""event"",""trial"",""time""
""fullscreenenter"",""1"",""9930""
","
","true","false","[]","[]","[]","","","","","","","","","","","","","","","",""
"learning-instructions","60","306737","0.0-9.0-1.0-0.0","7083","2","19","Male","approach_avoid_spark_v1","""event"",""trial"",""time""
""fullscreenenter"",""1"",""9930""
","
","
","""event"",""trial"",""time""
""fullscreenenter"",""1"",""9930""
","
","","","","","","1576.7999999970198","<p> Your goal in this round is to take care of lots of farm animals. </p></div>","","0","instructions","","","","","","","","","","",""
"learning-instructions","61","317307","0.0-9.0-1.0-0.1","7083","2","19","Male","approach_avoid_spark_v1","""event"",""trial"",""time""
""fullscreenenter"",""1"",""9930""
","
","
","""event"",""trial"",""time""
""fullscreenenter"",""1"",""9930""
","
","","","","","","515.3999999910593","<p> Some farm animals are hungry, while other farm animals are already full.  </p><p> On each turn, you will see a farm animal.   </p><p> You need to decide whether to feed it or not.  </p>","","0","instructions","","","","","","","","","","",""
"learning-instructions","62","325818","0.0-9.0-1.0-0.2","7083","2","19","Male","approach_avoid_spark_v1","""event"",""trial"",""time""
""fullscreenenter"",""1"",""9930""
","
","
","""event"",""trial"",""time""
""fullscreenenter"",""1"",""9930""
","
","","","","","","786.0999999940395","<p> You can feed the farm animal by pressing 1 and leave the farm animal alone by pressing 0. </p><br><div class=""choice-instructions-grid""> <div class=""choice-option""><img src=""images/approach.png"" class=""choice-option-img"" stage=""instructions"" position=""0"" ><div class=""choice-option-text""> Press ""1."" </div></div><div class=""choice-option""><img src=""images/avoid.png"" class=""choice-option-img"" stage=""instructions"" position=""1"" ><div class=""choice-option-text""> Press ""0."" </div></div>","","0","instructions","","","","","","","","","","",""
"learning-instructions","63","336239","0.0-9.0-1.0-0.3","7083","2","19","Male","approach_avoid_spark_v1","""event"",""trial"",""time""
""fullscreenenter"",""1"",""9930""
","
","
","""event"",""trial"",""time""
""fullscreenenter"",""1"",""9930""
","
","","","","","","777.7000000029802","<p> If you feed a hungry farm animal, you will make it feel satisfied! </p><p> But if you feed the farm animal and it was already full, you will make it feel sick. </p>","","0","instructions","","","","","","","","","","",""
"learning-instructions","64","349128","0.0-9.0-1.0-0.4","7083","2","19","Male","approach_avoid_spark_v1","""event"",""trial"",""time""
""fullscreenenter"",""1"",""9930""
","
","
","""event"",""trial"",""time""
""fullscreenenter"",""1"",""9930""
","
","","","","","","606.4000000059605","<p> You will earn points based on how you made the farm animal feel. </p><p> If you made it satisfied, you will WIN anywhere from 1 - 9 points, </p><p> but if you made it sick, you will LOSE anywhere from 1 - 9 points. </p>","","0","instructions","","","","","","","","","","",""
"learning-instructions","65","357107","0.0-9.0-1.0-0.5","7083","2","19","Male","approach_avoid_spark_v1","""event"",""trial"",""time""
""fullscreenenter"",""1"",""9930""
","
","
","""event"",""trial"",""time""
""fullscreenenter"",""1"",""9930""
","
","","","","","","415.09999999403954","<p> You will see how many points you won or lost in the center of the screen. </p><p> Here is what you would see if you won 5 points: </p><p style=""color:green;font-size:50px;font-weight:bolder"">5</p>","","0","instructions","","","","","","","","","","",""
"learning-instructions","66","361418","0.0-9.0-1.0-0.6","7083","2","19","Male","approach_avoid_spark_v1","""event"",""trial"",""time""
""fullscreenenter"",""1"",""9930""
","
","
","""event"",""trial"",""time""
""fullscreenenter"",""1"",""9930""
","
","","","","","","676.3999999910593","<p> And here is what you would see if you lost 3 points: </p><p style=""color:red;font-size:50px;font-weight:bolder"">-3</p>","","0","instructions","","","","","","","","","","",""
"learning-instructions","67","376984","0.0-9.0-1.0-0.7","7083","2","19","Male","approach_avoid_spark_v1","""event"",""trial"",""time""
""fullscreenenter"",""1"",""9930""
","
","
","""event"",""trial"",""time""
""fullscreenenter"",""1"",""9930""
","
","","","","","","332.5","<p> Some farm animals will become very satisfied or very sick. </p><p> These farm animals will make you win or lose LOTS of points. </p><p> Other farm animals have less strong feelings. </p><p> These farm animals will make you win or lose small amounts of points. </p>","","0","instructions","","","","","","","","","","",""
"learning-instructions","68","389678","0.0-9.0-1.0-0.8","7083","2","19","Male","approach_avoid_spark_v1","""event"",""trial"",""time""
""fullscreenenter"",""1"",""9930""
","
","
","""event"",""trial"",""time""
""fullscreenenter"",""1"",""9930""
","
","","","","","","596.7000000029802","<p> If you choose to leave the farm animal alone, you will not win or lose any points. </p><p>  However, in the center of the screen, you will see the number of points you WOULD HAVE won or lost if you had fed the farm animal. </p>","","0","instructions","","","","","","","","","","",""
"learning-instructions","69","402452","0.0-9.0-1.0-0.9","7083","2","19","Male","approach_avoid_spark_v1","""event"",""trial"",""time""
""fullscreenenter"",""1"",""9930""
","
","
","""event"",""trial"",""time""
""fullscreenenter"",""1"",""9930""
","
","","","","","","890","<p> Here is what you might see if you did not feed the farm animal but the animal was hungry: </p><p style=""color:grey; font-size:50px; display: inline-block; border-spacing: 15px; border-width:3px; border-style:solid; border-color:red"">  &nbsp; 6 &nbsp; </p><p> Remember, in this case, you would not win or lose ANY points because you did not feed the farm animal.  </p>","","0","instructions","","","","","","","","","","",""
"learning-instructions","70","410993","0.0-9.0-1.0-0.10","7083","2","19","Male","approach_avoid_spark_v1","""event"",""trial"",""time""
""fullscreenenter"",""1"",""9930""
","
","
","""event"",""trial"",""time""
""fullscreenenter"",""1"",""9930""
","
","","","","","","621.1000000089407","<p> Try to make the best choice for each farm animal because </p><p> at the end of the game, you will earn bonus money based on how many points you earned. </p>","","0","instructions","","","","","","","","","","",""
"learning-instructions","71","419535","0.0-9.0-1.0-0.11","7083","2","19","Male","approach_avoid_spark_v1","""event"",""trial"",""time""
""fullscreenenter"",""1"",""9930""
","
","
","""event"",""trial"",""time""
""fullscreenenter"",""1"",""9930""
","
","","","","","","343.6000000089407","<p> You will have 3 seconds to make each choice. Try to respond before time runs out! </p><p> You will lose 5 points each time you do not make a response. </p>","","0","instructions","","","","","","","","","","",""
"html-keyboard-response","72","420152","0.0-9.0-2.0-0.0","7083","2","19","Male","approach_avoid_spark_v1","""event"",""trial"",""time""
""fullscreenenter"",""1"",""9930""
","
","
","""event"",""trial"",""time""
""fullscreenenter"",""1"",""9930""
","
","","","","","","null","<div style=""font-size:60px;"">+</div>","null","","fixation","","","","","","","","","","",""
"aa-learning-trial","73","423159","0.0-9.0-2.0-1.0","7083","2","19","Male","approach_avoid_spark_v1","""event"",""trial"",""time""
""fullscreenenter"",""1"",""9930""
","
","
","""event"",""trial"",""time""
""fullscreenenter"",""1"",""9930""
","
","","","","","","722.3000000119209","images/horse1.png","","","learning","-3","-3","1","1","horse","animals","2","0","","neutral","0"
"html-keyboard-response","74","423664","0.0-9.0-2.0-0.1","7083","2","19","Male","approach_avoid_spark_v1","""event"",""trial"",""time""
""fullscreenenter"",""1"",""9930""
","
","
","""event"",""trial"",""time""
""fullscreenenter"",""1"",""9930""
","
","","","","","","null","<div style=""font-size:60px;"">+</div>","null","","fixation","","","","","","","","","","",""
"aa-learning-trial","75","426672","0.0-9.0-2.0-1.1","7083","2","19","Male","approach_avoid_spark_v1","""event"",""trial"",""time""
""fullscreenenter"",""1"",""9930""
","
","
","""event"",""trial"",""time""
""fullscreenenter"",""1"",""9930""
","
","","","","","","854.2999999970198","images/goat3.png","","","learning","8","8","1","1","goat","animals","2","0","","good","[5]"
"html-keyboard-response","76","427184","0.0-9.0-2.0-0.2","7083","2","19","Male","approach_avoid_spark_v1","""event"",""trial"",""time""
""fullscreenenter"",""1"",""9930""
","
","
","""event"",""trial"",""time""
""fullscreenenter"",""1"",""9930""
","
","","","","","","null","<div style=""font-size:60px;"">+</div>","null","","fixation","","","","","","","","","","",""
"aa-learning-trial","77","430194","0.0-9.0-2.0-1.2","7083","2","19","Male","approach_avoid_spark_v1","""event"",""trial"",""time""
""fullscreenenter"",""1"",""9930""
","
","
","""event"",""trial"",""time""
""fullscreenenter"",""1"",""9930""
","
","","","","","","509.80000001192093","images/goat5.png","","","learning","2","0","0","0","goat","animals","2","0","","good","[5]"
"html-keyboard-response","78","430697","0.0-9.0-2.0-0.3","7083","2","19","Male","approach_avoid_spark_v1","""event"",""trial"",""time""
""fullscreenenter"",""1"",""9930""
","
","
","""event"",""trial"",""time""
""fullscreenenter"",""1"",""9930""
","
","","","","","","null","<div style=""font-size:60px;"">+</div>","null","","fixation","","","","","","","","","","",""
"aa-learning-trial","79","433710","0.0-9.0-2.0-1.3","7083","2","19","Male","approach_avoid_spark_v1","""event"",""trial"",""time""
""fullscreenenter"",""1"",""9930""
","
","
","""event"",""trial"",""time""
""fullscreenenter"",""1"",""9930""
","
","","","","","","239.70000000298023","images/cow2.png","","","learning","5","0","0","0","cow","animals","2","0","","bad","[-6]"
"html-keyboard-response","80","434225","0.0-9.0-2.0-0.4","7083","2","19","Male","approach_avoid_spark_v1","""event"",""trial"",""time""
""fullscreenenter"",""1"",""9930""
","
","
","""event"",""trial"",""time""
""fullscreenenter"",""1"",""9930""
","
","","","","","","null","<div style=""font-size:60px;"">+</div>","null","","fixation","","","","","","","","","","",""
"aa-learning-trial","81","437242","0.0-9.0-2.0-1.4","7083","2","19","Male","approach_avoid_spark_v1","""event"",""trial"",""time""
""fullscreenenter"",""1"",""9930""
","
","
","""event"",""trial"",""time""
""fullscreenenter"",""1"",""9930""
","
","","","","","","231.5","images/horse7.png","","","learning","-9","0","0","0","horse","animals","2","0","","neutral","0"
"html-keyboard-response","82","437750","0.0-9.0-2.0-0.5","7083","2","19","Male","approach_avoid_spark_v1","""event"",""trial"",""time""
""fullscreenenter"",""1"",""9930""
","
","
","""event"",""trial"",""time""
""fullscreenenter"",""1"",""9930""
","
","","","","","","null","<div style=""font-size:60px;"">+</div>","null","","fixation","","","","","","","","","","",""
"aa-learning-trial","83","440755","0.0-9.0-2.0-1.5","7083","2","19","Male","approach_avoid_spark_v1","""event"",""trial"",""time""
""fullscreenenter"",""1"",""9930""
","
","
","""event"",""trial"",""time""
""fullscreenenter"",""1"",""9930""
","
","","","","","","424.80000001192093","images/horse1.png","","","learning","-3","-3","1","1","horse","animals","2","0","","neutral","0"
"html-keyboard-response","84","441273","0.0-9.0-2.0-0.6","7083","2","19","Male","approach_avoid_spark_v1","""event"",""trial"",""time""
""fullscreenenter"",""1"",""9930""
","
","
","""event"",""trial"",""time""
""fullscreenenter"",""1"",""9930""
","
","","","","","","null","<div style=""font-size:60px;"">+</div>","null","","fixation","","","","","","","","","","",""
"aa-learning-trial","85","444281","0.0-9.0-2.0-1.6","7083","2","19","Male","approach_avoid_spark_v1","""event"",""trial"",""time""
""fullscreenenter"",""1"",""9930""
","
","
","""event"",""trial"",""time""
""fullscreenenter"",""1"",""9930""
","
","","","","","","438.70000000298023","images/cow4.png","","","learning","-8","0","0","0","cow","animals","2","0","","bad","[-6]"
"html-keyboard-response","86","444788","0.0-9.0-2.0-0.7","7083","2","19","Male","approach_avoid_spark_v1","""event"",""trial"",""time""
""fullscreenenter"",""1"",""9930""
","
","
","""event"",""trial"",""time""
""fullscreenenter"",""1"",""9930""
","
","","","","","","null","<div style=""font-size:60px;"">+</div>","null","","fixation","","","","","","","","","","",""
"aa-learning-trial","87","447803","0.0-9.0-2.0-1.7","7083","2","19","Male","approach_avoid_spark_v1","""event"",""trial"",""time""
""fullscreenenter"",""1"",""9930""
","
","
","""event"",""trial"",""time""
""fullscreenenter"",""1"",""9930""
","
","","","","","","556.6000000089407","images/horse7.png","","","learning","-9","0","0","0","horse","animals","2","0","","neutral","0"
"html-keyboard-response","88","448305","0.0-9.0-2.0-0.8","7083","2","19","Male","approach_avoid_spark_v1","""event"",""trial"",""time""
""fullscreenenter"",""1"",""9930""
","
","
","""event"",""trial"",""time""
""fullscreenenter"",""1"",""9930""
","
","","","","","","null","<div style=""font-size:60px;"">+</div>","null","","fixation","","","","","","","","","","",""
"aa-learning-trial","89","451307","0.0-9.0-2.0-1.8","7083","2","19","Male","approach_avoid_spark_v1","""event"",""trial"",""time""
""fullscreenenter"",""1"",""9930""
","
","
","""event"",""trial"",""time""
""fullscreenenter"",""1"",""9930""
","
","","","","","","317.09999999403954","images/horse6.png","","","learning","3","0","0","0","horse","animals","2","0","","neutral","0"
"html-keyboard-response","90","451808","0.0-9.0-2.0-0.9","7083","2","19","Male","approach_avoid_spark_v1","""event"",""trial"",""time""
""fullscreenenter"",""1"",""9930""
","
","
","""event"",""trial"",""time""
""fullscreenenter"",""1"",""9930""
","
","","","","","","null","<div style=""font-size:60px;"">+</div>","null","","fixation","","","","","","","","","","",""
"aa-learning-trial","91","454810","0.0-9.0-2.0-1.9","7083","2","19","Male","approach_avoid_spark_v1","""event"",""trial"",""time""
""fullscreenenter"",""1"",""9930""
","
","
","""event"",""trial"",""time""
""fullscreenenter"",""1"",""9930""
","
","","","","","","219.40000000596046","images/goat5.png","","","learning","2","0","0","0","goat","animals","2","0","","good","[5]"
"html-keyboard-response","92","455311","0.0-9.0-2.0-0.10","7083","2","19","Male","approach_avoid_spark_v1","""event"",""trial"",""time""
""fullscreenenter"",""1"",""9930""
","
","
","""event"",""trial"",""time""
""fullscreenenter"",""1"",""9930""
","
","","","","","","null","<div style=""font-size:60px;"">+</div>","null","","fixation","","","","","","","","","","",""
"aa-learning-trial","93","458314","0.0-9.0-2.0-1.10","7083","2","19","Male","approach_avoid_spark_v1","""event"",""trial"",""time""
""fullscreenenter"",""1"",""9930""
","
","
","""event"",""trial"",""time""
""fullscreenenter"",""1"",""9930""
","
","","","","","","558.6999999880791","images/goat4.png","","","learning","-6","0","0","0","goat","animals","2","0","","good","[5]"
"html-keyboard-response","94","458815","0.0-9.0-2.0-0.11","7083","2","19","Male","approach_avoid_spark_v1","""event"",""trial"",""time""
""fullscreenenter"",""1"",""9930""
","
","
","""event"",""trial"",""time""
""fullscreenenter"",""1"",""9930""
","
","","","","","","null","<div style=""font-size:60px;"">+</div>","null","","fixation","","","","","","","","","","",""
"aa-learning-trial","95","461818","0.0-9.0-2.0-1.11","7083","2","19","Male","approach_avoid_spark_v1","""event"",""trial"",""time""
""fullscreenenter"",""1"",""9930""
","
","
","""event"",""trial"",""time""
""fullscreenenter"",""1"",""9930""
","
","","","","","","1085.8999999910593","images/cow2.png","","","learning","5","0","0","0","cow","animals","2","0","","bad","[-6]"
"html-keyboard-response","96","462319","0.0-9.0-2.0-0.12","7083","2","19","Male","approach_avoid_spark_v1","""event"",""trial"",""time""
""fullscreenenter"",""1"",""9930""
","
","
","""event"",""trial"",""time""
""fullscreenenter"",""1"",""9930""
","
","","","","","","null","<div style=""font-size:60px;"">+</div>","null","","fixation","","","","","","","","","","",""
"aa-learning-trial","97","465321","0.0-9.0-2.0-1.12","7083","2","19","Male","approach_avoid_spark_v1","""event"",""trial"",""time""
""fullscreenenter"",""1"",""9930""
","
","
","""event"",""trial"",""time""
""fullscreenenter"",""1"",""9930""
","
","","","","","","656.4000000059605","images/goat4.png","","","learning","-6","0","0","0","goat","animals","2","0","","good","[5]"
"html-keyboard-response","98","465827","0.0-9.0-2.0-0.13","7083","2","19","Male","approach_avoid_spark_v1","""event"",""trial"",""time""
""fullscreenenter"",""1"",""9930""
","
","
","""event"",""trial"",""time""
""fullscreenenter"",""1"",""9930""
","
","","","","","","null","<div style=""font-size:60px;"">+</div>","null","","fixation","","","","","","","","","","",""
"aa-learning-trial","99","468830","0.0-9.0-2.0-1.13","7083","2","19","Male","approach_avoid_spark_v1","""event"",""trial"",""time""
""fullscreenenter"",""1"",""9930""
","
","
","""event"",""trial"",""time""
""fullscreenenter"",""1"",""9930""
","
","","","","","","340.1000000089407","images/cow8.png","","","learning","6","0","0","0","cow","animals","2","0","","bad","[-6]"
"html-keyboard-response","100","469341","0.0-9.0-2.0-0.14","7083","2","19","Male","approach_avoid_spark_v1","""event"",""trial"",""time""
""fullscreenenter"",""1"",""9930""
","
","
","""event"",""trial"",""time""
""fullscreenenter"",""1"",""9930""
","
","","","","","","null","<div style=""font-size:60px;"">+</div>","null","","fixation","","","","","","","","","","",""
"aa-learning-trial","101","472345","0.0-9.0-2.0-1.14","7083","2","19","Male","approach_avoid_spark_v1","""event"",""trial"",""time""
""fullscreenenter"",""1"",""9930""
","
","
","""event"",""trial"",""time""
""fullscreenenter"",""1"",""9930""
","
","","","","","","839.1000000089407","images/cow4.png","","","learning","-8","0","0","0","cow","animals","2","0","","bad","[-6]"
"html-keyboard-response","102","472846","0.0-9.0-2.0-0.15","7083","2","19","Male","approach_avoid_spark_v1","""event"",""trial"",""time""
""fullscreenenter"",""1"",""9930""
","
","
","""event"",""trial"",""time""
""fullscreenenter"",""1"",""9930""
","
","","","","","","null","<div style=""font-size:60px;"">+</div>","null","","fixation","","","","","","","","","","",""
"aa-learning-trial","103","475848","0.0-9.0-2.0-1.15","7083","2","19","Male","approach_avoid_spark_v1","""event"",""trial"",""time""
""fullscreenenter"",""1"",""9930""
","
","
","""event"",""trial"",""time""
""fullscreenenter"",""1"",""9930""
","
","","","","","","301.20000000298023","images/goat5.png","","","learning","2","2","1","1","goat","animals","2","0","","good","[5]"
"html-keyboard-response","104","476350","0.0-9.0-2.0-0.16","7083","2","19","Male","approach_avoid_spark_v1","""event"",""trial"",""time""
""fullscreenenter"",""1"",""9930""
","
","
","""event"",""trial"",""time""
""fullscreenenter"",""1"",""9930""
","
","","","","","","null","<div style=""font-size:60px;"">+</div>","null","","fixation","","","","","","","","","","",""
"aa-learning-trial","105","479361","0.0-9.0-2.0-1.16","7083","2","19","Male","approach_avoid_spark_v1","""event"",""trial"",""time""
""fullscreenenter"",""1"",""9930""
","
","
","""event"",""trial"",""time""
""fullscreenenter"",""1"",""9930""
","
","","","","","","375.80000001192093","images/cow8.png","","","learning","6","0","0","0","cow","animals","2","0","","bad","[-6]"
"html-keyboard-response","106","479869","0.0-9.0-2.0-0.17","7083","2","19","Male","approach_avoid_spark_v1","""event"",""trial"",""time""
""fullscreenenter"",""1"",""9930""
","
","
","""event"",""trial"",""time""
""fullscreenenter"",""1"",""9930""
","
","","","","","","null","<div style=""font-size:60px;"">+</div>","null","","fixation","","","","","","","","","","",""
"aa-learning-trial","107","482872","0.0-9.0-2.0-1.17","7083","2","19","Male","approach_avoid_spark_v1","""event"",""trial"",""time""
""fullscreenenter"",""1"",""9930""
","
","
","""event"",""trial"",""time""
""fullscreenenter"",""1"",""9930""
","
","","","","","","228.5","images/cow4.png","","","learning","-8","0","0","0","cow","animals","2","0","","bad","[-6]"
"html-keyboard-response","108","483374","0.0-9.0-2.0-0.18","7083","2","19","Male","approach_avoid_spark_v1","""event"",""trial"",""time""
""fullscreenenter"",""1"",""9930""
","
","
","""event"",""trial"",""time""
""fullscreenenter"",""1"",""9930""
","
","","","","","","null","<div style=""font-size:60px;"">+</div>","null","","fixation","","","","","","","","","","",""
"aa-learning-trial","109","486376","0.0-9.0-2.0-1.18","7083","2","19","Male","approach_avoid_spark_v1","""event"",""trial"",""time""
""fullscreenenter"",""1"",""9930""
","
","
","""event"",""trial"",""time""
""fullscreenenter"",""1"",""9930""
","
","","","","","","240.29999999701977","images/horse1.png","","","learning","-3","-3","1","1","horse","animals","2","0","","neutral","0"
"html-keyboard-response","110","486877","0.0-9.0-2.0-0.19","7083","2","19","Male","approach_avoid_spark_v1","""event"",""trial"",""time""
""fullscreenenter"",""1"",""9930""
","
","
","""event"",""trial"",""time""
""fullscreenenter"",""1"",""9930""
","
","","","","","","null","<div style=""font-size:60px;"">+</div>","null","","fixation","","","","","","","","","","",""
"aa-learning-trial","111","489879","0.0-9.0-2.0-1.19","7083","2","19","Male","approach_avoid_spark_v1","""event"",""trial"",""time""
""fullscreenenter"",""1"",""9930""
","
","
","""event"",""trial"",""time""
""fullscreenenter"",""1"",""9930""
","
","","","","","","312.70000000298023","images/cow4.png","","","learning","-8","0","0","0","cow","animals","2","0","","bad","[-6]"
"html-keyboard-response","112","490380","0.0-9.0-2.0-0.20","7083","2","19","Male","approach_avoid_spark_v1","""event"",""trial"",""time""
""fullscreenenter"",""1"",""9930""
","
","
","""event"",""trial"",""time""
""fullscreenenter"",""1"",""9930""
","
","","","","","","null","<div style=""font-size:60px;"">+</div>","null","","fixation","","","","","","","","","","",""
"aa-learning-trial","113","493384","0.0-9.0-2.0-1.20","7083","2","19","Male","approach_avoid_spark_v1","""event"",""trial"",""time""
""fullscreenenter"",""1"",""9930""
","
","
","""event"",""trial"",""time""
""fullscreenenter"",""1"",""9930""
","
","","","","","","261.69999998807907","images/goat4.png","","","learning","-6","0","0","0","goat","animals","2","0","","good","[5]"
"html-keyboard-response","114","493895","0.0-9.0-2.0-0.21","7083","2","19","Male","approach_avoid_spark_v1","""event"",""trial"",""time""
""fullscreenenter"",""1"",""9930""
","
","
","""event"",""trial"",""time""
""fullscreenenter"",""1"",""9930""
","
","","","","","","null","<div style=""font-size:60px;"">+</div>","null","","fixation","","","","","","","","","","",""
"aa-learning-trial","115","496897","0.0-9.0-2.0-1.21","7083","2","19","Male","approach_avoid_spark_v1","""event"",""trial"",""time""
""fullscreenenter"",""1"",""9930""
","
","
","""event"",""trial"",""time""
""fullscreenenter"",""1"",""9930""
","
","","","","","","213.29999999701977","images/horse1.png","","","learning","-3","0","0","0","horse","animals","2","0","","neutral","0"
"html-keyboard-response","116","497399","0.0-9.0-2.0-0.22","7083","2","19","Male","approach_avoid_spark_v1","""event"",""trial"",""time""
""fullscreenenter"",""1"",""9930""
","
","
","""event"",""trial"",""time""
""fullscreenenter"",""1"",""9930""
","
","","","","","","null","<div style=""font-size:60px;"">+</div>","null","","fixation","","","","","","","","","","",""
"aa-learning-trial","117","500401","0.0-9.0-2.0-1.22","7083","2","19","Male","approach_avoid_spark_v1","""event"",""trial"",""time""
""fullscreenenter"",""1"",""9930""
","
","
","""event"",""trial"",""time""
""fullscreenenter"",""1"",""9930""
","
","","","","","","240","images/cow2.png","","","learning","5","0","0","0","cow","animals","2","0","","bad","[-6]"
"html-keyboard-response","118","500903","0.0-9.0-2.0-0.23","7083","2","19","Male","approach_avoid_spark_v1","""event"",""trial"",""time""
""fullscreenenter"",""1"",""9930""
","
","
","""event"",""trial"",""time""
""fullscreenenter"",""1"",""9930""
","
","","","","","","null","<div style=""font-size:60px;"">+</div>","null","","fixation","","","","","","","","","","",""
"aa-learning-trial","119","503905","0.0-9.0-2.0-1.23","7083","2","19","Male","approach_avoid_spark_v1","""event"",""trial"",""time""
""fullscreenenter"",""1"",""9930""
","
","
","""event"",""trial"",""time""
""fullscreenenter"",""1"",""9930""
","
","","","","","","187.20000000298023","images/goat8.png","","","learning","4","0","0","0","goat","animals","2","0","","good","[5]"
"html-keyboard-response","120","504407","0.0-9.0-2.0-0.24","7083","2","19","Male","approach_avoid_spark_v1","""event"",""trial"",""time""
""fullscreenenter"",""1"",""9930""
","
","
","""event"",""trial"",""time""
""fullscreenenter"",""1"",""9930""
","
","","","","","","null","<div style=""font-size:60px;"">+</div>","null","","fixation","","","","","","","","","","",""
"aa-learning-trial","121","507410","0.0-9.0-2.0-1.24","7083","2","19","Male","approach_avoid_spark_v1","""event"",""trial"",""time""
""fullscreenenter"",""1"",""9930""
","
","
","""event"",""trial"",""time""
""fullscreenenter"",""1"",""9930""
","
","","","","","","194.70000000298023","images/cow7.png","","","learning","-4","0","0","0","cow","animals","2","0","","bad","[-6]"
"html-keyboard-response","122","507911","0.0-9.0-2.0-0.25","7083","2","19","Male","approach_avoid_spark_v1","""event"",""trial"",""time""
""fullscreenenter"",""1"",""9930""
","
","
","""event"",""trial"",""time""
""fullscreenenter"",""1"",""9930""
","
","","","","","","null","<div style=""font-size:60px;"">+</div>","null","","fixation","","","","","","","","","","",""
"aa-learning-trial","123","510913","0.0-9.0-2.0-1.25","7083","2","19","Male","approach_avoid_spark_v1","""event"",""trial"",""time""
""fullscreenenter"",""1"",""9930""
","
","
","""event"",""trial"",""time""
""fullscreenenter"",""1"",""9930""
","
","","","","","","226.20000000298023","images/horse7.png","","","learning","-9","0","0","0","horse","animals","2","0","","neutral","0"
"html-keyboard-response","124","511415","0.0-9.0-2.0-0.26","7083","2","19","Male","approach_avoid_spark_v1","""event"",""trial"",""time""
""fullscreenenter"",""1"",""9930""
","
","
","""event"",""trial"",""time""
""fullscreenenter"",""1"",""9930""
","
","","","","","","null","<div style=""font-size:60px;"">+</div>","null","","fixation","","","","","","","","","","",""
"aa-learning-trial","125","514416","0.0-9.0-2.0-1.26","7083","2","19","Male","approach_avoid_spark_v1","""event"",""trial"",""time""
""fullscreenenter"",""1"",""9930""
","
","
","""event"",""trial"",""time""
""fullscreenenter"",""1"",""9930""
","
","","","","","","104.5","images/cow4.png","","","learning","-8","0","0","0","cow","animals","2","0","","bad","[-6]"
"html-keyboard-response","126","514918","0.0-9.0-2.0-0.27","7083","2","19","Male","approach_avoid_spark_v1","""event"",""trial"",""time""
""fullscreenenter"",""1"",""9930""
","
","
","""event"",""trial"",""time""
""fullscreenenter"",""1"",""9930""
","
","","","","","","null","<div style=""font-size:60px;"">+</div>","null","","fixation","","","","","","","","","","",""
"aa-learning-trial","127","517921","0.0-9.0-2.0-1.27","7083","2","19","Male","approach_avoid_spark_v1","""event"",""trial"",""time""
""fullscreenenter"",""1"",""9930""
","
","
","""event"",""trial"",""time""
""fullscreenenter"",""1"",""9930""
","
","","","","","","373.8999999910593","images/goat5.png","","","learning","2","2","1","1","goat","animals","2","0","","good","[5]"
"html-keyboard-response","128","518422","0.0-9.0-2.0-0.28","7083","2","19","Male","approach_avoid_spark_v1","""event"",""trial"",""time""
""fullscreenenter"",""1"",""9930""
","
","
","""event"",""trial"",""time""
""fullscreenenter"",""1"",""9930""
","
","","","","","","null","<div style=""font-size:60px;"">+</div>","null","","fixation","","","","","","","","","","",""
"aa-learning-trial","129","521424","0.0-9.0-2.0-1.28","7083","2","19","Male","approach_avoid_spark_v1","""event"",""trial"",""time""
""fullscreenenter"",""1"",""9930""
","
","
","""event"",""trial"",""time""
""fullscreenenter"",""1"",""9930""
","
","","","","","","152.79999999701977","images/cow2.png","","","learning","5","0","0","0","cow","animals","2","0","","bad","[-6]"
"html-keyboard-response","130","521926","0.0-9.0-2.0-0.29","7083","2","19","Male","approach_avoid_spark_v1","""event"",""trial"",""time""
""fullscreenenter"",""1"",""9930""
","
","
","""event"",""trial"",""time""
""fullscreenenter"",""1"",""9930""
","
","","","","","","null","<div style=""font-size:60px;"">+</div>","null","","fixation","","","","","","","","","","",""
"aa-learning-trial","131","524927","0.0-9.0-2.0-1.29","7083","2","19","Male","approach_avoid_spark_v1","""event"",""trial"",""time""
""fullscreenenter"",""1"",""9930""
","
","
","""event"",""trial"",""time""
""fullscreenenter"",""1"",""9930""
","
","","","","","","227.09999999403954","images/goat5.png","","","learning","2","0","0","0","goat","animals","2","0","","good","[5]"
"html-keyboard-response","132","525429","0.0-9.0-2.0-0.30","7083","2","19","Male","approach_avoid_spark_v1","""event"",""trial"",""time""
""fullscreenenter"",""1"",""9930""
","
","
","""event"",""trial"",""time""
""fullscreenenter"",""1"",""9930""
","
","","","","","","null","<div style=""font-size:60px;"">+</div>","null","","fixation","","","","","","","","","","",""
"aa-learning-trial","133","528433","0.0-9.0-2.0-1.30","7083","2","19","Male","approach_avoid_spark_v1","""event"",""trial"",""time""
""fullscreenenter"",""1"",""9930""
","
","
","""event"",""trial"",""time""
""fullscreenenter"",""1"",""9930""
","
","","","","","","49.79999999701977","images/goat4.png","","","learning","-6","0","0","0","goat","animals","2","0","","good","[5]"
"html-keyboard-response","134","528934","0.0-9.0-2.0-0.31","7083","2","19","Male","approach_avoid_spark_v1","""event"",""trial"",""time""
""fullscreenenter"",""1"",""9930""
","
","
","""event"",""trial"",""time""
""fullscreenenter"",""1"",""9930""
","
","","","","","","null","<div style=""font-size:60px;"">+</div>","null","","fixation","","","","","","","","","","",""
"aa-learning-trial","135","531936","0.0-9.0-2.0-1.31","7083","2","19","Male","approach_avoid_spark_v1","""event"",""trial"",""time""
""fullscreenenter"",""1"",""9930""
","
","
","""event"",""trial"",""time""
""fullscreenenter"",""1"",""9930""
","
","","","","","","222.70000000298023","images/horse1.png","","","learning","-3","0","0","0","horse","animals","2","0","","neutral","0"
"html-keyboard-response","136","532437","0.0-9.0-2.0-0.32","7083","2","19","Male","approach_avoid_spark_v1","""event"",""trial"",""time""
""fullscreenenter"",""1"",""9930""
","
","
","""event"",""trial"",""time""
""fullscreenenter"",""1"",""9930""
","
","","","","","","null","<div style=""font-size:60px;"">+</div>","null","","fixation","","","","","","","","","","",""
"aa-learning-trial","137","535439","0.0-9.0-2.0-1.32","7083","2","19","Male","approach_avoid_spark_v1","""event"",""trial"",""time""
""fullscreenenter"",""1"",""9930""
","
","
","""event"",""trial"",""time""
""fullscreenenter"",""1"",""9930""
","
","","","","","","221.70000000298023","images/cow5.png","","","learning","-1","0","0","0","cow","animals","2","0","","bad","[-6]"
"html-keyboard-response","138","535941","0.0-9.0-2.0-0.33","7083","2","19","Male","approach_avoid_spark_v1","""event"",""trial"",""time""
""fullscreenenter"",""1"",""9930""
","
","
","""event"",""trial"",""time""
""fullscreenenter"",""1"",""9930""
","
","","","","","","null","<div style=""font-size:60px;"">+</div>","null","","fixation","","","","","","","","","","",""
"aa-learning-trial","139","538943","0.0-9.0-2.0-1.33","7083","2","19","Male","approach_avoid_spark_v1","""event"",""trial"",""time""
""fullscreenenter"",""1"",""9930""
","
","
","""event"",""trial"",""time""
""fullscreenenter"",""1"",""9930""
","
","","","","","","210.40000000596046","images/horse7.png","","","learning","-9","-9","1","1","horse","animals","2","0","","neutral","0"
"html-keyboard-response","140","539443","0.0-9.0-2.0-0.34","7083","2","19","Male","approach_avoid_spark_v1","""event"",""trial"",""time""
""fullscreenenter"",""1"",""9930""
","
","
","""event"",""trial"",""time""
""fullscreenenter"",""1"",""9930""
","
","","","","","","null","<div style=""font-size:60px;"">+</div>","null","","fixation","","","","","","","","","","",""
"aa-learning-trial","141","542445","0.0-9.0-2.0-1.34","7083","2","19","Male","approach_avoid_spark_v1","""event"",""trial"",""time""
""fullscreenenter"",""1"",""9930""
","
","
","""event"",""trial"",""time""
""fullscreenenter"",""1"",""9930""
","
","","","","","","194.09999999403954","images/cow2.png","","","learning","5","0","0","0","cow","animals","2","0","","bad","[-6]"
"html-keyboard-response","142","542947","0.0-9.0-2.0-0.35","7083","2","19","Male","approach_avoid_spark_v1","""event"",""trial"",""time""
""fullscreenenter"",""1"",""9930""
","
","
","""event"",""trial"",""time""
""fullscreenenter"",""1"",""9930""
","
","","","","","","null","<div style=""font-size:60px;"">+</div>","null","","fixation","","","","","","","","","","",""
"aa-learning-trial","143","545949","0.0-9.0-2.0-1.35","7083","2","19","Male","approach_avoid_spark_v1","""event"",""trial"",""time""
""fullscreenenter"",""1"",""9930""
","
","
","""event"",""trial"",""time""
""fullscreenenter"",""1"",""9930""
","
","","","","","","37.79999999701977","images/cow4.png","","","learning","-8","0","0","0","cow","animals","2","0","","bad","[-6]"
"html-keyboard-response","144","546451","0.0-9.0-2.0-0.36","7083","2","19","Male","approach_avoid_spark_v1","""event"",""trial"",""time""
""fullscreenenter"",""1"",""9930""
","
","
","""event"",""trial"",""time""
""fullscreenenter"",""1"",""9930""
","
","","","","","","null","<div style=""font-size:60px;"">+</div>","null","","fixation","","","","","","","","","","",""
"aa-learning-trial","145","549462","0.0-9.0-2.0-1.36","7083","2","19","Male","approach_avoid_spark_v1","""event"",""trial"",""time""
""fullscreenenter"",""1"",""9930""
","
","
","""event"",""trial"",""time""
""fullscreenenter"",""1"",""9930""
","
","","","","","","263.5","images/goat6.png","","","learning","-5","0","0","0","goat","animals","2","0","","good","[5]"
"html-keyboard-response","146","549978","0.0-9.0-2.0-0.37","7083","2","19","Male","approach_avoid_spark_v1","""event"",""trial"",""time""
""fullscreenenter"",""1"",""9930""
","
","
","""event"",""trial"",""time""
""fullscreenenter"",""1"",""9930""
","
","","","","","","null","<div style=""font-size:60px;"">+</div>","null","","fixation","","","","","","","","","","",""
"aa-learning-trial","147","552980","0.0-9.0-2.0-1.37","7083","2","19","Male","approach_avoid_spark_v1","""event"",""trial"",""time""
""fullscreenenter"",""1"",""9930""
","
","
","""event"",""trial"",""time""
""fullscreenenter"",""1"",""9930""
","
","","","","","","183.5","images/cow8.png","","","learning","6","0","0","0","cow","animals","2","0","","bad","[-6]"
"html-keyboard-response","148","553485","0.0-9.0-2.0-0.38","7083","2","19","Male","approach_avoid_spark_v1","""event"",""trial"",""time""
""fullscreenenter"",""1"",""9930""
","
","
","""event"",""trial"",""time""
""fullscreenenter"",""1"",""9930""
","
","","","","","","null","<div style=""font-size:60px;"">+</div>","null","","fixation","","","","","","","","","","",""
"aa-learning-trial","149","556487","0.0-9.0-2.0-1.38","7083","2","19","Male","approach_avoid_spark_v1","""event"",""trial"",""time""
""fullscreenenter"",""1"",""9930""
","
","
","""event"",""trial"",""time""
""fullscreenenter"",""1"",""9930""
","
","","","","","","189.69999998807907","images/horse4.png","","","learning","7","0","0","0","horse","animals","2","0","","neutral","0"
"html-keyboard-response","150","556989","0.0-9.0-2.0-0.39","7083","2","19","Male","approach_avoid_spark_v1","""event"",""trial"",""time""
""fullscreenenter"",""1"",""9930""
","
","
","""event"",""trial"",""time""
""fullscreenenter"",""1"",""9930""
","
","","","","","","null","<div style=""font-size:60px;"">+</div>","null","","fixation","","","","","","","","","","",""
"aa-learning-trial","151","559991","0.0-9.0-2.0-1.39","7083","2","19","Male","approach_avoid_spark_v1","""event"",""trial"",""time""
""fullscreenenter"",""1"",""9930""
","
","
","""event"",""trial"",""time""
""fullscreenenter"",""1"",""9930""
","
","","","","","","204.20000000298023","images/cow2.png","","","learning","5","0","0","0","cow","animals","2","0","","bad","[-6]"
"html-keyboard-response","152","560492","0.0-9.0-2.0-0.40","7083","2","19","Male","approach_avoid_spark_v1","""event"",""trial"",""time""
""fullscreenenter"",""1"",""9930""
","
","
","""event"",""trial"",""time""
""fullscreenenter"",""1"",""9930""
","
","","","","","","null","<div style=""font-size:60px;"">+</div>","null","","fixation","","","","","","","","","","",""
"aa-learning-trial","153","563494","0.0-9.0-2.0-1.40","7083","2","19","Male","approach_avoid_spark_v1","""event"",""trial"",""time""
""fullscreenenter"",""1"",""9930""
","
","
","""event"",""trial"",""time""
""fullscreenenter"",""1"",""9930""
","
","","","","","","206.1000000089407","images/goat3.png","","","learning","8","0","0","0","goat","animals","2","0","","good","[5]"
"html-keyboard-response","154","563996","0.0-9.0-2.0-0.41","7083","2","19","Male","approach_avoid_spark_v1","""event"",""trial"",""time""
""fullscreenenter"",""1"",""9930""
","
","
","""event"",""trial"",""time""
""fullscreenenter"",""1"",""9930""
","
","","","","","","null","<div style=""font-size:60px;"">+</div>","null","","fixation","","","","","","","","","","",""
"aa-learning-trial","155","566998","0.0-9.0-2.0-1.41","7083","2","19","Male","approach_avoid_spark_v1","""event"",""trial"",""time""
""fullscreenenter"",""1"",""9930""
","
","
","""event"",""trial"",""time""
""fullscreenenter"",""1"",""9930""
","
","","","","","","223.29999999701977","images/horse6.png","","","learning","3","0","0","0","horse","animals","2","0","","neutral","0"
"html-keyboard-response","156","567500","0.0-9.0-2.0-0.42","7083","2","19","Male","approach_avoid_spark_v1","""event"",""trial"",""time""
""fullscreenenter"",""1"",""9930""
","
","
","""event"",""trial"",""time""
""fullscreenenter"",""1"",""9930""
","
","","","","","","null","<div style=""font-size:60px;"">+</div>","null","","fixation","","","","","","","","","","",""
"aa-learning-trial","157","570503","0.0-9.0-2.0-1.42","7083","2","19","Male","approach_avoid_spark_v1","""event"",""trial"",""time""
""fullscreenenter"",""1"",""9930""
","
","
","""event"",""trial"",""time""
""fullscreenenter"",""1"",""9930""
","
","","","","","","279.1000000089407","images/horse7.png","","","learning","-9","0","0","0","horse","animals","2","0","","neutral","0"
"html-keyboard-response","158","571004","0.0-9.0-2.0-0.43","7083","2","19","Male","approach_avoid_spark_v1","""event"",""trial"",""time""
""fullscreenenter"",""1"",""9930""
","
","
","""event"",""trial"",""time""
""fullscreenenter"",""1"",""9930""
","
","","","","","","null","<div style=""font-size:60px;"">+</div>","null","","fixation","","","","","","","","","","",""
"aa-learning-trial","159","574006","0.0-9.0-2.0-1.43","7083","2","19","Male","approach_avoid_spark_v1","""event"",""trial"",""time""
""fullscreenenter"",""1"",""9930""
","
","
","""event"",""trial"",""time""
""fullscreenenter"",""1"",""9930""
","
","","","","","","291.20000000298023","images/goat3.png","","","learning","8","0","0","0","goat","animals","2","0","","good","[5]"
"html-keyboard-response","160","574508","0.0-9.0-2.0-0.44","7083","2","19","Male","approach_avoid_spark_v1","""event"",""trial"",""time""
""fullscreenenter"",""1"",""9930""
","
","
","""event"",""trial"",""time""
""fullscreenenter"",""1"",""9930""
","
","","","","","","null","<div style=""font-size:60px;"">+</div>","null","","fixation","","","","","","","","","","",""
"aa-learning-trial","161","577510","0.0-9.0-2.0-1.44","7083","2","19","Male","approach_avoid_spark_v1","""event"",""trial"",""time""
""fullscreenenter"",""1"",""9930""
","
","
","""event"",""trial"",""time""
""fullscreenenter"",""1"",""9930""
","
","","","","","","28.299999997019768","images/goat4.png","","","learning","-6","0","0","0","goat","animals","2","0","","good","[5]"
"html-keyboard-response","162","578011","0.0-9.0-2.0-0.45","7083","2","19","Male","approach_avoid_spark_v1","""event"",""trial"",""time""
""fullscreenenter"",""1"",""9930""
","
","
","""event"",""trial"",""time""
""fullscreenenter"",""1"",""9930""
","
","","","","","","null","<div style=""font-size:60px;"">+</div>","null","","fixation","","","","","","","","","","",""
"aa-learning-trial","163","581012","0.0-9.0-2.0-1.45","7083","2","19","Male","approach_avoid_spark_v1","""event"",""trial"",""time""
""fullscreenenter"",""1"",""9930""
","
","
","""event"",""trial"",""time""
""fullscreenenter"",""1"",""9930""
","
","","","","","","517.7999999970198","images/horse6.png","","","learning","3","0","0","0","horse","animals","2","0","","neutral","0"
"html-keyboard-response","164","581514","0.0-9.0-2.0-0.46","7083","2","19","Male","approach_avoid_spark_v1","""event"",""trial"",""time""
""fullscreenenter"",""1"",""9930""
","
","
","""event"",""trial"",""time""
""fullscreenenter"",""1"",""9930""
","
","","","","","","null","<div style=""font-size:60px;"">+</div>","null","","fixation","","","","","","","","","","",""
"aa-learning-trial","165","584516","0.0-9.0-2.0-1.46","7083","2","19","Male","approach_avoid_spark_v1","""event"",""trial"",""time""
""fullscreenenter"",""1"",""9930""
","
","
","""event"",""trial"",""time""
""fullscreenenter"",""1"",""9930""
","
","","","","","","215.90000000596046","images/horse7.png","","","learning","-9","0","0","0","horse","animals","2","0","","neutral","0"
"html-keyboard-response","166","585017","0.0-9.0-2.0-0.47","7083","2","19","Male","approach_avoid_spark_v1","""event"",""trial"",""time""
""fullscreenenter"",""1"",""9930""
","
","
","""event"",""trial"",""time""
""fullscreenenter"",""1"",""9930""
","
","","","","","","null","<div style=""font-size:60px;"">+</div>","null","","fixation","","","","","","","","","","",""
"aa-learning-trial","167","588020","0.0-9.0-2.0-1.47","7083","2","19","Male","approach_avoid_spark_v1","""event"",""trial"",""time""
""fullscreenenter"",""1"",""9930""
","
","
","""event"",""trial"",""time""
""fullscreenenter"",""1"",""9930""
","
","","","","","","292.8999999910593","images/goat5.png","","","learning","2","0","0","0","goat","animals","2","0","","good","[5]"
"html-keyboard-response","168","588522","0.0-9.0-2.0-0.48","7083","2","19","Male","approach_avoid_spark_v1","""event"",""trial"",""time""
""fullscreenenter"",""1"",""9930""
","
","
","""event"",""trial"",""time""
""fullscreenenter"",""1"",""9930""
","
","","","","","","null","<div style=""font-size:60px;"">+</div>","null","","fixation","","","","","","","","","","",""
"aa-learning-trial","169","591525","0.0-9.0-2.0-1.48","7083","2","19","Male","approach_avoid_spark_v1","""event"",""trial"",""time""
""fullscreenenter"",""1"",""9930""
","
","
","""event"",""trial"",""time""
""fullscreenenter"",""1"",""9930""
","
","","","","","","60.1000000089407","images/horse1.png","","","learning","-3","0","0","0","horse","animals","2","0","","neutral","0"
"html-keyboard-response","170","592026","0.0-9.0-2.0-0.49","7083","2","19","Male","approach_avoid_spark_v1","""event"",""trial"",""time""
""fullscreenenter"",""1"",""9930""
","
","
","""event"",""trial"",""time""
""fullscreenenter"",""1"",""9930""
","
","","","","","","null","<div style=""font-size:60px;"">+</div>","null","","fixation","","","","","","","","","","",""
"aa-learning-trial","171","595029","0.0-9.0-2.0-1.49","7083","2","19","Male","approach_avoid_spark_v1","""event"",""trial"",""time""
""fullscreenenter"",""1"",""9930""
","
","
","""event"",""trial"",""time""
""fullscreenenter"",""1"",""9930""
","
","","","","","","1390.5","images/goat4.png","","","learning","-6","0","0","0","goat","animals","2","0","","good","[5]"
"html-keyboard-response","172","595531","0.0-9.0-2.0-0.50","7083","2","19","Male","approach_avoid_spark_v1","""event"",""trial"",""time""
""fullscreenenter"",""1"",""9930""
","
","
","""event"",""trial"",""time""
""fullscreenenter"",""1"",""9930""
","
","","","","","","null","<div style=""font-size:60px;"">+</div>","null","","fixation","","","","","","","","","","",""
"aa-learning-trial","173","598533","0.0-9.0-2.0-1.50","7083","2","19","Male","approach_avoid_spark_v1","""event"",""trial"",""time""
""fullscreenenter"",""1"",""9930""
","
","
","""event"",""trial"",""time""
""fullscreenenter"",""1"",""9930""
","
","","","","","","1303.699999988079","images/horse2.png","","","learning","1","1","1","1","horse","animals","2","0","","neutral","0"
"html-button-response","174","600145","0.0-9.0-3.0","7083","2","19","Male","approach_avoid_spark_v1","""event"",""trial"",""time""
""fullscreenenter"",""1"",""9930""
","
","
","""event"",""trial"",""time""
""fullscreenenter"",""1"",""9930""
","
","","","","","","1611.1000000089407","<p> You have completed the round! <p> In this round, you earned -5 points! </p>","0","","break","","","","","","","","","","",""
"html-button-response","175","601211","0.0-10.0","7083","2","19","Male","approach_avoid_spark_v1","""event"",""trial"",""time""
""fullscreenenter"",""1"",""9930""
","
","
","""event"",""trial"",""time""
""fullscreenenter"",""1"",""9930""
","
","","","","","","1065.699999988079","<p> Now it's time to play another round. </p>","0","","transition_screen","","","","","","","","","","",""
"preload","176","601324","0.0-11.0-0.0","7083","2","19","Male","approach_avoid_spark_v1","""event"",""trial"",""time""
""fullscreenenter"",""1"",""9930""
","
","
","""event"",""trial"",""time""
""fullscreenenter"",""1"",""9930""
","
","true","false","[]","[]","[]","","","","","","","","","","","","","","","",""
"learning-instructions","177","606832","0.0-11.0-1.0-0.0","7083","2","19","Male","approach_avoid_spark_v1","""event"",""trial"",""time""
""fullscreenenter"",""1"",""9930""
","
","
","""event"",""trial"",""time""
""fullscreenenter"",""1"",""9930""
","
","","","","","","1311.7000000029802","<p> Your goal in this round is to take care of lots of animals. </p></div>","","0","instructions","","","","","","","","","","",""
"learning-instructions","178","617131","0.0-11.0-1.0-0.1","7083","2","19","Male","approach_avoid_spark_v1","""event"",""trial"",""time""
""fullscreenenter"",""1"",""9930""
","
","
","""event"",""trial"",""time""
""fullscreenenter"",""1"",""9930""
","
","","","","","","1070.2000000029802","<p> Some animals want to be pet, while other animals want to be left alone.  </p><p> On each turn, you will see an animal.   </p><p> You need to decide whether to pet it or not.  </p>","","0","instructions","","","","","","","","","","",""
"learning-instructions","179","623668","0.0-11.0-1.0-0.2","7083","2","19","Male","approach_avoid_spark_v1","""event"",""trial"",""time""
""fullscreenenter"",""1"",""9930""
","
","
","""event"",""trial"",""time""
""fullscreenenter"",""1"",""9930""
","
","","","","","","1078.7000000029802","<p> You can pet the animal by pressing 1 and leave the animal alone by pressing 0. </p><br><div class=""choice-instructions-grid""> <div class=""choice-option""><img src=""images/approach.png"" class=""choice-option-img"" stage=""instructions"" position=""0"" ><div class=""choice-option-text""> Press ""1."" </div></div><div class=""choice-option""><img src=""images/avoid.png"" class=""choice-option-img"" stage=""instructions"" position=""1"" ><div class=""choice-option-text""> Press ""0."" </div></div>","","0","instructions","","","","","","","","","","",""
"learning-instructions","180","633051","0.0-11.0-1.0-0.3","7083","2","19","Male","approach_avoid_spark_v1","""event"",""trial"",""time""
""fullscreenenter"",""1"",""9930""
","
","
","""event"",""trial"",""time""
""fullscreenenter"",""1"",""9930""
","
","","","","","","451.5","<p> If you pet an animal that wants to be pet, you will make it feel happy! </p><p> But if you pet an animal that wants to be left alone, you will make it feel angry. </p>","","0","instructions","","","","","","","","","","",""
"learning-instructions","181","646221","0.0-11.0-1.0-0.4","7083","2","19","Male","approach_avoid_spark_v1","""event"",""trial"",""time""
""fullscreenenter"",""1"",""9930""
","
","
","""event"",""trial"",""time""
""fullscreenenter"",""1"",""9930""
","
","","","","","","511.79999999701977","<p> You will earn points based on how you made the animal feel. </p><p> If you made it feel happy, you will WIN anywhere from 1 - 9 points, </p><p> but if you made it feel angry, you will LOSE anywhere from 1 - 9 points. </p>","","0","instructions","","","","","","","","","","",""
"learning-instructions","182","653592","0.0-11.0-1.0-0.5","7083","2","19","Male","approach_avoid_spark_v1","""event"",""trial"",""time""
""fullscreenenter"",""1"",""9930""
","
","
","""event"",""trial"",""time""
""fullscreenenter"",""1"",""9930""
","
","","","","","","722.6000000089407","<p> You will see how many points you won or lost in the center of the screen. </p><p> Here is what you would see if you won 5 points: </p><p style=""color:green;font-size:50px;font-weight:bolder"">5</p>","","0","instructions","","","","","","","","","","",""
"learning-instructions","183","656838","0.0-11.0-1.0-0.6","7083","2","19","Male","approach_avoid_spark_v1","""event"",""trial"",""time""
""fullscreenenter"",""1"",""9930""
","
","
","""event"",""trial"",""time""
""fullscreenenter"",""1"",""9930""
","
","","","","","","388","<p> And here is what you would see if you lost 3 points: </p><p style=""color:red;font-size:50px;font-weight:bolder"">-3</p>","","0","instructions","","","","","","","","","","",""
"learning-instructions","184","671936","0.0-11.0-1.0-0.7","7083","2","19","Male","approach_avoid_spark_v1","""event"",""trial"",""time""
""fullscreenenter"",""1"",""9930""
","
","
","""event"",""trial"",""time""
""fullscreenenter"",""1"",""9930""
","
","","","","","","956.7999999970198","<p> Some animals will become very happy or very angry. </p><p> These animals will make you win or lose LOTS of points. </p><p> Other animals have less strong feelings. </p><p> These animals will make you win or lose small amounts of points. </p>","","0","instructions","","","","","","","","","","",""
"learning-instructions","185","684569","0.0-11.0-1.0-0.8","7083","2","19","Male","approach_avoid_spark_v1","""event"",""trial"",""time""
""fullscreenenter"",""1"",""9930""
","
","
","""event"",""trial"",""time""
""fullscreenenter"",""1"",""9930""
","
","","","","","","1048.3999999910593","<p> If you choose to leave the animal alone, you will not win or lose any points. </p><p>  However, in the center of the screen, you will see the number of points you WOULD HAVE won or lost if you had pet the animal. </p>","","0","instructions","","","","","","","","","","",""
"learning-instructions","186","701981","0.0-11.0-1.0-0.9","7083","2","19","Male","approach_avoid_spark_v1","""event"",""trial"",""time""
""fullscreenenter"",""1"",""9930""
","
","
","""event"",""trial"",""time""
""fullscreenenter"",""1"",""9930""
","
","","","","","","400.20000000298023","<p> Here is what you might see if you did not pet the animal but the animal wanted to be pet: </p><p style=""color:grey; font-size:50px; display: inline-block; border-spacing: 15px; border-width:3px; border-style:solid; border-color:red"">  &nbsp; 6 &nbsp; </p><p> Remember, in this case, you would not win or lose ANY points because you did not pet the animal.  </p>","","0","instructions","","","","","","","","","","",""
"learning-instructions","187","709710","0.0-11.0-1.0-0.10","7083","2","19","Male","approach_avoid_spark_v1","""event"",""trial"",""time""
""fullscreenenter"",""1"",""9930""
","
","
","""event"",""trial"",""time""
""fullscreenenter"",""1"",""9930""
","
","","","","","","419.79999999701977","<p> Try to make the best choice for each animal because </p><p> at the end of the game, you will earn bonus money based on how many points you earned. </p>","","0","instructions","","","","","","","","","","",""
"learning-instructions","188","718381","0.0-11.0-1.0-0.11","7083","2","19","Male","approach_avoid_spark_v1","""event"",""trial"",""time""
""fullscreenenter"",""1"",""9930""
","
","
","""event"",""trial"",""time""
""fullscreenenter"",""1"",""9930""
","
","","","","","","470.29999999701977","<p> You will have 3 seconds to make each choice. Try to respond before time runs out! </p><p> You will lose 5 points each time you do not make a response. </p>","","0","instructions","","","","","","","","","","",""
"html-keyboard-response","189","719002","0.0-11.0-2.0-0.0","7083","2","19","Male","approach_avoid_spark_v1","""event"",""trial"",""time""
""fullscreenenter"",""1"",""9930""
","
","
","""event"",""trial"",""time""
""fullscreenenter"",""1"",""9930""
","
","","","","","","null","<div style=""font-size:60px;"">+</div>","null","","fixation","","","","","","","","","","",""
"aa-learning-trial","190","722008","0.0-11.0-2.0-1.0","7083","2","19","Male","approach_avoid_spark_v1","""event"",""trial"",""time""
""fullscreenenter"",""1"",""9930""
","
","
","""event"",""trial"",""time""
""fullscreenenter"",""1"",""9930""
","
","","","","","","1296.2999999970198","images/dog4.png","","","learning","-2","-2","1","1","dog","pets","1","1","","neutral","0"
"html-keyboard-response","191","722517","0.0-11.0-2.0-0.1","7083","2","19","Male","approach_avoid_spark_v1","""event"",""trial"",""time""
""fullscreenenter"",""1"",""9930""
","
","
","""event"",""trial"",""time""
""fullscreenenter"",""1"",""9930""
","
","","","","","","null","<div style=""font-size:60px;"">+</div>","null","","fixation","","","","","","","","","","",""
"aa-learning-trial","192","725529","0.0-11.0-2.0-1.1","7083","2","19","Male","approach_avoid_spark_v1","""event"",""trial"",""time""
""fullscreenenter"",""1"",""9930""
","
","
","""event"",""trial"",""time""
""fullscreenenter"",""1"",""9930""
","
","","","","","","689.2000000029802","images/cat7.png","","","learning","-3","0","0","0","cat","pets","1","1","","bad","[-6]"
"html-keyboard-response","193","726032","0.0-11.0-2.0-0.2","7083","2","19","Male","approach_avoid_spark_v1","""event"",""trial"",""time""
""fullscreenenter"",""1"",""9930""
","
","
","""event"",""trial"",""time""
""fullscreenenter"",""1"",""9930""
","
","","","","","","null","<div style=""font-size:60px;"">+</div>","null","","fixation","","","","","","","","","","",""
"aa-learning-trial","194","729040","0.0-11.0-2.0-1.2","7083","2","19","Male","approach_avoid_spark_v1","""event"",""trial"",""time""
""fullscreenenter"",""1"",""9930""
","
","
","""event"",""trial"",""time""
""fullscreenenter"",""1"",""9930""
","
","","","","","","336.5","images/rodent2.png","","","learning","2","2","1","1","rodent","pets","1","1","","good","[4]"
"html-keyboard-response","195","729547","0.0-11.0-2.0-0.3","7083","2","19","Male","approach_avoid_spark_v1","""event"",""trial"",""time""
""fullscreenenter"",""1"",""9930""
","
","
","""event"",""trial"",""time""
""fullscreenenter"",""1"",""9930""
","
","","","","","","null","<div style=""font-size:60px;"">+</div>","null","","fixation","","","","","","","","","","",""
"aa-learning-trial","196","732551","0.0-11.0-2.0-1.3","7083","2","19","Male","approach_avoid_spark_v1","""event"",""trial"",""time""
""fullscreenenter"",""1"",""9930""
","
","
","""event"",""trial"",""time""
""fullscreenenter"",""1"",""9930""
","
","","","","","","606.2000000029802","images/rodent1.png","","","learning","4","0","0","0","rodent","pets","1","1","","good","[4]"
"html-keyboard-response","197","733063","0.0-11.0-2.0-0.4","7083","2","19","Male","approach_avoid_spark_v1","""event"",""trial"",""time""
""fullscreenenter"",""1"",""9930""
","
","
","""event"",""trial"",""time""
""fullscreenenter"",""1"",""9930""
","
","","","","","","null","<div style=""font-size:60px;"">+</div>","null","","fixation","","","","","","","","","","",""
"aa-learning-trial","198","736079","0.0-11.0-2.0-1.4","7083","2","19","Male","approach_avoid_spark_v1","""event"",""trial"",""time""
""fullscreenenter"",""1"",""9930""
","
","
","""event"",""trial"",""time""
""fullscreenenter"",""1"",""9930""
","
","","","","","","952.1000000089407","images/rodent2.png","","","learning","5","0","0","0","rodent","pets","1","1","","good","[4]"
"html-keyboard-response","199","736592","0.0-11.0-2.0-0.5","7083","2","19","Male","approach_avoid_spark_v1","""event"",""trial"",""time""
""fullscreenenter"",""1"",""9930""
","
","
","""event"",""trial"",""time""
""fullscreenenter"",""1"",""9930""
","
","","","","","","null","<div style=""font-size:60px;"">+</div>","null","","fixation","","","","","","","","","","",""
"aa-learning-trial","200","739599","0.0-11.0-2.0-1.5","7083","2","19","Male","approach_avoid_spark_v1","""event"",""trial"",""time""
""fullscreenenter"",""1"",""9930""
","
","
","""event"",""trial"",""time""
""fullscreenenter"",""1"",""9930""
","
","","","","","","813.8999999910593","images/cat4.png","","","learning","-6","0","0","0","cat","pets","1","1","","bad","[-6]"
"html-keyboard-response","201","740111","0.0-11.0-2.0-0.6","7083","2","19","Male","approach_avoid_spark_v1","""event"",""trial"",""time""
""fullscreenenter"",""1"",""9930""
","
","
","""event"",""trial"",""time""
""fullscreenenter"",""1"",""9930""
","
","","","","","","null","<div style=""font-size:60px;"">+</div>","null","","fixation","","","","","","","","","","",""
"aa-learning-trial","202","743127","0.0-11.0-2.0-1.6","7083","2","19","Male","approach_avoid_spark_v1","""event"",""trial"",""time""
""fullscreenenter"",""1"",""9930""
","
","
","""event"",""trial"",""time""
""fullscreenenter"",""1"",""9930""
","
","","","","","","1286.0999999940395","images/rodent8.png","","","learning","5","0","0","0","rodent","pets","1","1","","good","[4]"
"html-keyboard-response","203","743638","0.0-11.0-2.0-0.7","7083","2","19","Male","approach_avoid_spark_v1","""event"",""trial"",""time""
""fullscreenenter"",""1"",""9930""
","
","
","""event"",""trial"",""time""
""fullscreenenter"",""1"",""9930""
","
","","","","","","null","<div style=""font-size:60px;"">+</div>","null","","fixation","","","","","","","","","","",""
"aa-learning-trial","204","746651","0.0-11.0-2.0-1.7","7083","2","19","Male","approach_avoid_spark_v1","""event"",""trial"",""time""
""fullscreenenter"",""1"",""9930""
","
","
","""event"",""trial"",""time""
""fullscreenenter"",""1"",""9930""
","
","","","","","","801.7000000029802","images/dog7.png","","","learning","-1","0","0","0","dog","pets","1","1","","neutral","0"
"html-keyboard-response","205","747169","0.0-11.0-2.0-0.8","7083","2","19","Male","approach_avoid_spark_v1","""event"",""trial"",""time""
""fullscreenenter"",""1"",""9930""
","
","
","""event"",""trial"",""time""
""fullscreenenter"",""1"",""9930""
","
","","","","","","null","<div style=""font-size:60px;"">+</div>","null","","fixation","","","","","","","","","","",""
"aa-learning-trial","206","750171","0.0-11.0-2.0-1.8","7083","2","19","Male","approach_avoid_spark_v1","""event"",""trial"",""time""
""fullscreenenter"",""1"",""9930""
","
","
","""event"",""trial"",""time""
""fullscreenenter"",""1"",""9930""
","
","","","","","","632.9000000059605","images/cat3.png","","","learning","-6","0","0","0","cat","pets","1","1","","bad","[-6]"
"html-keyboard-response","207","750672","0.0-11.0-2.0-0.9","7083","2","19","Male","approach_avoid_spark_v1","""event"",""trial"",""time""
""fullscreenenter"",""1"",""9930""
","
","
","""event"",""trial"",""time""
""fullscreenenter"",""1"",""9930""
","
","","","","","","null","<div style=""font-size:60px;"">+</div>","null","","fixation","","","","","","","","","","",""
"aa-learning-trial","208","753674","0.0-11.0-2.0-1.9","7083","2","19","Male","approach_avoid_spark_v1","""event"",""trial"",""time""
""fullscreenenter"",""1"",""9930""
","
","
","""event"",""trial"",""time""
""fullscreenenter"",""1"",""9930""
","
","","","","","","656.2000000029802","images/cat7.png","","","learning","-6","0","0","0","cat","pets","1","1","","bad","[-6]"
"html-keyboard-response","209","754176","0.0-11.0-2.0-0.10","7083","2","19","Male","approach_avoid_spark_v1","""event"",""trial"",""time""
""fullscreenenter"",""1"",""9930""
","
","
","""event"",""trial"",""time""
""fullscreenenter"",""1"",""9930""
","
","","","","","","null","<div style=""font-size:60px;"">+</div>","null","","fixation","","","","","","","","","","",""
"aa-learning-trial","210","757177","0.0-11.0-2.0-1.10","7083","2","19","Male","approach_avoid_spark_v1","""event"",""trial"",""time""
""fullscreenenter"",""1"",""9930""
","
","
","""event"",""trial"",""time""
""fullscreenenter"",""1"",""9930""
","
","","","","","","540.1000000089407","images/cat3.png","","","learning","-8","0","0","0","cat","pets","1","1","","bad","[-6]"
"html-keyboard-response","211","757679","0.0-11.0-2.0-0.11","7083","2","19","Male","approach_avoid_spark_v1","""event"",""trial"",""time""
""fullscreenenter"",""1"",""9930""
","
","
","""event"",""trial"",""time""
""fullscreenenter"",""1"",""9930""
","
","","","","","","null","<div style=""font-size:60px;"">+</div>","null","","fixation","","","","","","","","","","",""
"aa-learning-trial","212","760683","0.0-11.0-2.0-1.11","7083","2","19","Male","approach_avoid_spark_v1","""event"",""trial"",""time""
""fullscreenenter"",""1"",""9930""
","
","
","""event"",""trial"",""time""
""fullscreenenter"",""1"",""9930""
","
","","","","","","624.2999999970198","images/dog7.png","","","learning","-2","0","0","0","dog","pets","1","1","","neutral","0"
"html-keyboard-response","213","761184","0.0-11.0-2.0-0.12","7083","2","19","Male","approach_avoid_spark_v1","""event"",""trial"",""time""
""fullscreenenter"",""1"",""9930""
","
","
","""event"",""trial"",""time""
""fullscreenenter"",""1"",""9930""
","
","","","","","","null","<div style=""font-size:60px;"">+</div>","null","","fixation","","","","","","","","","","",""
"aa-learning-trial","214","764186","0.0-11.0-2.0-1.12","7083","2","19","Male","approach_avoid_spark_v1","""event"",""trial"",""time""
""fullscreenenter"",""1"",""9930""
","
","
","""event"",""trial"",""time""
""fullscreenenter"",""1"",""9930""
","
","","","","","","1048.2999999970198","images/dog1.png","","","learning","-1","0","0","0","dog","pets","1","1","","neutral","0"
"html-keyboard-response","215","764687","0.0-11.0-2.0-0.13","7083","2","19","Male","approach_avoid_spark_v1","""event"",""trial"",""time""
""fullscreenenter"",""1"",""9930""
","
","
","""event"",""trial"",""time""
""fullscreenenter"",""1"",""9930""
","
","","","","","","null","<div style=""font-size:60px;"">+</div>","null","","fixation","","","","","","","","","","",""
"aa-learning-trial","216","767690","0.0-11.0-2.0-1.13","7083","2","19","Male","approach_avoid_spark_v1","""event"",""trial"",""time""
""fullscreenenter"",""1"",""9930""
","
","
","""event"",""trial"",""time""
""fullscreenenter"",""1"",""9930""
","
","","","","","","998.0999999940395","images/rodent1.png","","","learning","2","2","1","1","rodent","pets","1","1","","good","[4]"
"html-keyboard-response","217","768192","0.0-11.0-2.0-0.14","7083","2","19","Male","approach_avoid_spark_v1","""event"",""trial"",""time""
""fullscreenenter"",""1"",""9930""
","
","
","""event"",""trial"",""time""
""fullscreenenter"",""1"",""9930""
","
","","","","","","null","<div style=""font-size:60px;"">+</div>","null","","fixation","","","","","","","","","","",""
"aa-learning-trial","218","771194","0.0-11.0-2.0-1.14","7083","2","19","Male","approach_avoid_spark_v1","""event"",""trial"",""time""
""fullscreenenter"",""1"",""9930""
","
","
","""event"",""trial"",""time""
""fullscreenenter"",""1"",""9930""
","
","","","","","","491.40000000596046","images/dog1.png","","","learning","3","0","0","0","dog","pets","1","1","","neutral","0"
"html-keyboard-response","219","771695","0.0-11.0-2.0-0.15","7083","2","19","Male","approach_avoid_spark_v1","""event"",""trial"",""time""
""fullscreenenter"",""1"",""9930""
","
","
","""event"",""trial"",""time""
""fullscreenenter"",""1"",""9930""
","
","","","","","","null","<div style=""font-size:60px;"">+</div>","null","","fixation","","","","","","","","","","",""
"aa-learning-trial","220","774698","0.0-11.0-2.0-1.15","7083","2","19","Male","approach_avoid_spark_v1","""event"",""trial"",""time""
""fullscreenenter"",""1"",""9930""
","
","
","""event"",""trial"",""time""
""fullscreenenter"",""1"",""9930""
","
","","","","","","1286.2000000029802","images/rodent2.png","","","learning","3","0","0","0","rodent","pets","1","1","","good","[4]"
"html-keyboard-response","221","775199","0.0-11.0-2.0-0.16","7083","2","19","Male","approach_avoid_spark_v1","""event"",""trial"",""time""
""fullscreenenter"",""1"",""9930""
","
","
","""event"",""trial"",""time""
""fullscreenenter"",""1"",""9930""
","
","","","","","","null","<div style=""font-size:60px;"">+</div>","null","","fixation","","","","","","","","","","",""
"aa-learning-trial","222","778201","0.0-11.0-2.0-1.16","7083","2","19","Male","approach_avoid_spark_v1","""event"",""trial"",""time""
""fullscreenenter"",""1"",""9930""
","
","
","""event"",""trial"",""time""
""fullscreenenter"",""1"",""9930""
","
","","","","","","584","images/dog6.png","","","learning","-1","0","0","0","dog","pets","1","1","","neutral","0"
"html-keyboard-response","223","778702","0.0-11.0-2.0-0.17","7083","2","19","Male","approach_avoid_spark_v1","""event"",""trial"",""time""
""fullscreenenter"",""1"",""9930""
","
","
","""event"",""trial"",""time""
""fullscreenenter"",""1"",""9930""
","
","","","","","","null","<div style=""font-size:60px;"">+</div>","null","","fixation","","","","","","","","","","",""
"aa-learning-trial","224","781704","0.0-11.0-2.0-1.17","7083","2","19","Male","approach_avoid_spark_v1","""event"",""trial"",""time""
""fullscreenenter"",""1"",""9930""
","
","
","""event"",""trial"",""time""
""fullscreenenter"",""1"",""9930""
","
","","","","","","459.5","images/cat7.png","","","learning","-10","0","0","0","cat","pets","1","1","","bad","[-6]"
"html-keyboard-response","225","782205","0.0-11.0-2.0-0.18","7083","2","19","Male","approach_avoid_spark_v1","""event"",""trial"",""time""
""fullscreenenter"",""1"",""9930""
","
","
","""event"",""trial"",""time""
""fullscreenenter"",""1"",""9930""
","
","","","","","","null","<div style=""font-size:60px;"">+</div>","null","","fixation","","","","","","","","","","",""
"aa-learning-trial","226","785207","0.0-11.0-2.0-1.18","7083","2","19","Male","approach_avoid_spark_v1","""event"",""trial"",""time""
""fullscreenenter"",""1"",""9930""
","
","
","""event"",""trial"",""time""
""fullscreenenter"",""1"",""9930""
","
","","","","","","622.5","images/cat7.png","","","learning","-6","0","0","0","cat","pets","1","1","","bad","[-6]"
"html-keyboard-response","227","785708","0.0-11.0-2.0-0.19","7083","2","19","Male","approach_avoid_spark_v1","""event"",""trial"",""time""
""fullscreenenter"",""1"",""9930""
","
","
","""event"",""trial"",""time""
""fullscreenenter"",""1"",""9930""
","
","","","","","","null","<div style=""font-size:60px;"">+</div>","null","","fixation","","","","","","","","","","",""
"aa-learning-trial","228","788710","0.0-11.0-2.0-1.19","7083","2","19","Male","approach_avoid_spark_v1","""event"",""trial"",""time""
""fullscreenenter"",""1"",""9930""
","
","
","""event"",""trial"",""time""
""fullscreenenter"",""1"",""9930""
","
","","","","","","855.5","images/rodent1.png","","","learning","5","5","1","1","rodent","pets","1","1","","good","[4]"
"html-keyboard-response","229","789212","0.0-11.0-2.0-0.20","7083","2","19","Male","approach_avoid_spark_v1","""event"",""trial"",""time""
""fullscreenenter"",""1"",""9930""
","
","
","""event"",""trial"",""time""
""fullscreenenter"",""1"",""9930""
","
","","","","","","null","<div style=""font-size:60px;"">+</div>","null","","fixation","","","","","","","","","","",""
"aa-learning-trial","230","792214","0.0-11.0-2.0-1.20","7083","2","19","Male","approach_avoid_spark_v1","""event"",""trial"",""time""
""fullscreenenter"",""1"",""9930""
","
","
","""event"",""trial"",""time""
""fullscreenenter"",""1"",""9930""
","
","","","","","","543.9000000059605","images/cat6.png","","","learning","-7","0","0","0","cat","pets","1","1","","bad","[-6]"
"html-keyboard-response","231","792714","0.0-11.0-2.0-0.21","7083","2","19","Male","approach_avoid_spark_v1","""event"",""trial"",""time""
""fullscreenenter"",""1"",""9930""
","
","
","""event"",""trial"",""time""
""fullscreenenter"",""1"",""9930""
","
","","","","","","null","<div style=""font-size:60px;"">+</div>","null","","fixation","","","","","","","","","","",""
"aa-learning-trial","232","795716","0.0-11.0-2.0-1.21","7083","2","19","Male","approach_avoid_spark_v1","""event"",""trial"",""time""
""fullscreenenter"",""1"",""9930""
","
","
","""event"",""trial"",""time""
""fullscreenenter"",""1"",""9930""
","
","","","","","","302.79999999701977","images/cat3.png","","","learning","-7","0","0","0","cat","pets","1","1","","bad","[-6]"
"html-keyboard-response","233","796217","0.0-11.0-2.0-0.22","7083","2","19","Male","approach_avoid_spark_v1","""event"",""trial"",""time""
""fullscreenenter"",""1"",""9930""
","
","
","""event"",""trial"",""time""
""fullscreenenter"",""1"",""9930""
","
","","","","","","null","<div style=""font-size:60px;"">+</div>","null","","fixation","","","","","","","","","","",""
"aa-learning-trial","234","799219","0.0-11.0-2.0-1.22","7083","2","19","Male","approach_avoid_spark_v1","""event"",""trial"",""time""
""fullscreenenter"",""1"",""9930""
","
","
","""event"",""trial"",""time""
""fullscreenenter"",""1"",""9930""
","
","","","","","","494","images/dog7.png","","","learning","2","0","0","0","dog","pets","1","1","","neutral","0"
"html-keyboard-response","235","799720","0.0-11.0-2.0-0.23","7083","2","19","Male","approach_avoid_spark_v1","""event"",""trial"",""time""
""fullscreenenter"",""1"",""9930""
","
","
","""event"",""trial"",""time""
""fullscreenenter"",""1"",""9930""
","
","","","","","","null","<div style=""font-size:60px;"">+</div>","null","","fixation","","","","","","","","","","",""
"aa-learning-trial","236","802722","0.0-11.0-2.0-1.23","7083","2","19","Male","approach_avoid_spark_v1","""event"",""trial"",""time""
""fullscreenenter"",""1"",""9930""
","
","
","""event"",""trial"",""time""
""fullscreenenter"",""1"",""9930""
","
","","","","","","935.0999999940395","images/cat4.png","","","learning","-8","0","0","0","cat","pets","1","1","","bad","[-6]"
"html-keyboard-response","237","803223","0.0-11.0-2.0-0.24","7083","2","19","Male","approach_avoid_spark_v1","""event"",""trial"",""time""
""fullscreenenter"",""1"",""9930""
","
","
","""event"",""trial"",""time""
""fullscreenenter"",""1"",""9930""
","
","","","","","","null","<div style=""font-size:60px;"">+</div>","null","","fixation","","","","","","","","","","",""
