"trial_type","trial_index","time_elapsed","internal_node_id","subject_id","task_condition","age","gender","task_version","interactions","blur_events","focus_events","fullscreenenter_events","fullscreenexit_events","success","timeout","failed_images","failed_audio","failed_video","rt","stimulus","response","button_pressed","task_part","approach_reward","points","key_press","option_selected","stim_cat","task_block","block_condition","block_number","correct","cat_type","mean_cat_reward"
"pavlovia","0","6","0.0-0.0","4077","1","23","Female","approach_avoid_spark_v1","""event"",""trial"",""time""
""fullscreenenter"",""1"",""2416""
","
","
","""event"",""trial"",""time""
""fullscreenenter"",""1"",""2416""
","
","","","","","","","","","","","","","","","","","","","","",""
"fullscreen","1","3369","0.0-1.0","4077","1","23","Female","approach_avoid_spark_v1","""event"",""trial"",""time""
""fullscreenenter"",""1"",""2416""
","
","
","""event"",""trial"",""time""
""fullscreenenter"",""1"",""2416""
","
","true","","","","","","","","","","","","","","","","","","","",""
"preload","2","17844","0.0-2.0","4077","1","23","Female","approach_avoid_spark_v1","""event"",""trial"",""time""
""fullscreenenter"",""1"",""2416""
","
","
","""event"",""trial"",""time""
""fullscreenenter"",""1"",""2416""
","
","true","false","[]","[]","[]","","","","","","","","","","","","","","","",""
"audio-keyboard-response","3","20332","0.0-3.0","4077","1","23","Female","approach_avoid_spark_v1","""event"",""trial"",""time""
""fullscreenenter"",""1"",""2416""
","
","
","""event"",""trial"",""time""
""fullscreenenter"",""1"",""2416""
","
","","","","","","0","audio/beep_loop.wav"," ","","","","","","","","","","","","",""
"audio-button-response","4","22940","0.0-4.0","4077","1","23","Female","approach_avoid_spark_v1","""event"",""trial"",""time""
""fullscreenenter"",""1"",""2416""
","
","
","""event"",""trial"",""time""
""fullscreenenter"",""1"",""2416""
","
","","","","","","2226","audio/shark.wav","4","","","","","","","","","","","","",""
"audio-button-response","5","25560","0.0-5.0","4077","1","23","Female","approach_avoid_spark_v1","""event"",""trial"",""time""
""fullscreenenter"",""1"",""2416""
","
","
","""event"",""trial"",""time""
""fullscreenenter"",""1"",""2416""
","
","","","","","","1620","audio/turtle.wav","1","","","","","","","","","","","","",""
"preload","6","30699","0.0-6.0","4077","1","23","Female","approach_avoid_spark_v1","""event"",""trial"",""time""
""fullscreenenter"",""1"",""2416""
","
","
","""event"",""trial"",""time""
""fullscreenenter"",""1"",""2416""
","
","true","false","[]","[]","[]","","","","","","","","","","","","","","","",""
"html-keyboard-response","7","33249","0.0-7.0","4077","1","23","Female","approach_avoid_spark_v1","""event"",""trial"",""time""
""fullscreenenter"",""1"",""2416""
","
","
","""event"",""trial"",""time""
""fullscreenenter"",""1"",""2416""
","
","","","","","","2548","Welcome to the experiment. Press any key to begin and to advance the instructions."," ","","","","","","","","","","","","",""
"learning-instructions","8","44230","0.0-8.0-0.0-0.0","4077","1","23","Female","approach_avoid_spark_v1","""event"",""trial"",""time""
""fullscreenenter"",""1"",""2416""
","
","
","""event"",""trial"",""time""
""fullscreenenter"",""1"",""2416""
","
","","","","","","4026.0000000000073","<p> Welcome! Today you are going to play 6 different rounds of a decision-making game. </p><p> Use the mouse to click next to continue. </p>","","0","instructions","","","","","","","","","","",""
"learning-instructions","9","49034","0.0-8.0-0.0-0.1","4077","1","23","Female","approach_avoid_spark_v1","""event"",""trial"",""time""
""fullscreenenter"",""1"",""2416""
","
","
","""event"",""trial"",""time""
""fullscreenenter"",""1"",""2416""
","
","","","","","","2079","<p> You will start with a practice round to learn the rules. </p>","","0","instructions","","","","","","","","","","",""
"learning-instructions","10","53235","0.0-8.0-0.0-0.2","4077","1","23","Female","approach_avoid_spark_v1","""event"",""trial"",""time""
""fullscreenenter"",""1"",""2416""
","
","
","""event"",""trial"",""time""
""fullscreenenter"",""1"",""2416""
","
","","","","","","756","<p> Your goal in this round is to give out sports equipment to kids. </p></div>","","0","instructions","","","","","","","","","","",""
"learning-instructions","11","61682","0.0-8.0-0.0-0.3","4077","1","23","Female","approach_avoid_spark_v1","""event"",""trial"",""time""
""fullscreenenter"",""1"",""2416""
","
","
","""event"",""trial"",""time""
""fullscreenenter"",""1"",""2416""
","
","","","","","","905","<p> The kids only like some of the equipment.  </p><p> On each turn, you will see a piece of sports equipment.   </p><p> You need to decide whether to give it to the kids or not.  </p>","","0","instructions","","","","","","","","","","",""
"learning-instructions","12","67432","0.0-8.0-0.0-0.4","4077","1","23","Female","approach_avoid_spark_v1","""event"",""trial"",""time""
""fullscreenenter"",""1"",""2416""
","
","
","""event"",""trial"",""time""
""fullscreenenter"",""1"",""2416""
","
","","","","","","1005","<p> You can give them the equipment by pressing 1 and choose not to give it to them by pressing 0. </p><br><div class=""choice-instructions-grid""> <div class=""choice-option""><img src=""images/approach.png"" class=""choice-option-img"" stage=""instructions"" position=""0"" ><div class=""choice-option-text""> Press ""1."" </div></div><div class=""choice-option""><img src=""images/avoid.png"" class=""choice-option-img"" stage=""instructions"" position=""1"" ><div class=""choice-option-text""> Press ""0."" </div></div>","","0","instructions","","","","","","","","","","",""
"learning-instructions","13","75253","0.0-8.0-0.0-0.5","4077","1","23","Female","approach_avoid_spark_v1","""event"",""trial"",""time""
""fullscreenenter"",""1"",""2416""
","
","
","""event"",""trial"",""time""
""fullscreenenter"",""1"",""2416""
","
","","","","","","441","<p> If you give them a piece of equipment they like, they will be happy! </p><p> But if you give them a piece of equipment they do not like, they will be sad. </p>","","0","instructions","","","","","","","","","","",""
"learning-instructions","14","86443","0.0-8.0-0.0-0.6","4077","1","23","Female","approach_avoid_spark_v1","""event"",""trial"",""time""
""fullscreenenter"",""1"",""2416""
","
","
","""event"",""trial"",""time""
""fullscreenenter"",""1"",""2416""
","
","","","","","","686.0000000000146","<p> You will earn points based on how you make kids feel. </p><p> If you make them happy, you will WIN anywhere from 1 - 9 points, </p><p> but if you make them sad, you will LOSE anywhere from 1 - 9 points. </p>","","0","instructions","","","","","","","","","","",""
"learning-instructions","15","96816","0.0-8.0-0.0-0.7","4077","1","23","Female","approach_avoid_spark_v1","""event"",""trial"",""time""
""fullscreenenter"",""1"",""2416""
","
","
","""event"",""trial"",""time""
""fullscreenenter"",""1"",""2416""
","
","","","","","","821.0000000000146","<p> You will see how many points you won or lost in the center of the screen. </p><p> Here is what you would see if you won 6 points: </p><p style=""color:green;font-size:50px;font-weight:bolder"">6</p><p style=""color:green"">The text is GREEN because you WON points.</p>","","0","instructions","","","","","","","","","","",""
"learning-instructions","16","102957","0.0-8.0-0.0-0.8","4077","1","23","Female","approach_avoid_spark_v1","""event"",""trial"",""time""
""fullscreenenter"",""1"",""2416""
","
","
","""event"",""trial"",""time""
""fullscreenenter"",""1"",""2416""
","
","","","","","","640","<p> And here is what you would see if you lost 4 points: </p><p style=""color:red;font-size:50px;font-weight:bolder"">-4</p><p style=""color:red"">The text is RED because you LOST points. </p>","","0","instructions","","","","","","","","","","",""
"learning-instructions","17","118886","0.0-8.0-0.0-0.9","4077","1","23","Female","approach_avoid_spark_v1","""event"",""trial"",""time""
""fullscreenenter"",""1"",""2416""
","
","
","""event"",""trial"",""time""
""fullscreenenter"",""1"",""2416""
","
","","","","","","1224","<p> Some of the equipment will make the kids VERY happy or sad. </p><p> These pieces of equipment will make you win or lose LOTS of points. </p><p> Other pieces of equipment will only make the kids a little happy or sad. </p><p> These pieces of equipment will make you win or lose small amounts of points. </p>","","0","instructions","","","","","","","","","","",""
"learning-instructions","18","131794","0.0-8.0-0.0-0.10","4077","1","23","Female","approach_avoid_spark_v1","""event"",""trial"",""time""
""fullscreenenter"",""1"",""2416""
","
","
","""event"",""trial"",""time""
""fullscreenenter"",""1"",""2416""
","
","","","","","","2288.9999999999854","<p> If you choose not to give them the equipment, you will not win or lose any points. </p><p>  However, in the center of the screen, you will see the number of points you WOULD HAVE won or lost if you had given them the equipment. </p>","","0","instructions","","","","","","","","","","",""
"learning-instructions","19","154453","0.0-8.0-0.0-0.11","4077","1","23","Female","approach_avoid_spark_v1","""event"",""trial"",""time""
""fullscreenenter"",""1"",""2416""
","
","
","""event"",""trial"",""time""
""fullscreenenter"",""1"",""2416""
","
","","","","","","1138.000000000029","<p> Here is what you might see if you did not give the equipment to the kids but it would have made them happy: </p><p style=""color:grey; font-size:50px; display: inline-block; border-spacing: 15px; border-width:3px; border-style:solid; border-color:red"">  &nbsp; 7 &nbsp; </p><p> Remember, in this case, you would not win or lose ANY points because you did not give them the equipment.  </p><p style=""color:grey"">The text is GREY because you earned ZERO points. </p><p style=""color:red"">However, choosing to give the kids the equipment would have made you win points. The box around the text is RED because you chose the worse option. </p>","","0","instructions","","","","","","","","","","",""
"learning-instructions","20","176413","0.0-8.0-0.0-0.12","4077","1","23","Female","approach_avoid_spark_v1","""event"",""trial"",""time""
""fullscreenenter"",""1"",""2416""
","
","
","""event"",""trial"",""time""
""fullscreenenter"",""1"",""2416""
","
","","","","","","892","<p> Here is what you might see if you did not give the equipment to the kids but it would have made them sad: </p><p style=""color:grey;font-size:50px; display: inline-block; border-spacing: 15px; border-width:3px; border-style:solid; border-color:green"">  &nbsp; -8 &nbsp; </p><p> Remember, in this case, you would not win or lose ANY points because you did not give them the equipment.  </p><p style=""color:grey"">The text is GREY because you earned ZERO points. </p><p  style=""color:green""> Choosing to give the kids the equipment would have made you lose points. The box around the text is GREEN because you chose the better option.</p>","","0","instructions","","","","","","","","","","",""
"learning-instructions","21","186524","0.0-8.0-0.0-0.13","4077","1","23","Female","approach_avoid_spark_v1","""event"",""trial"",""time""
""fullscreenenter"",""1"",""2416""
","
","
","""event"",""trial"",""time""
""fullscreenenter"",""1"",""2416""
","
","","","","","","1252","<p> You will have 3 seconds to make each choice. Try to respond before time runs out! </p><p> You will lose 5 points each time you do not make a response. </p>","","0","instructions","","","","","","","","","","",""
"learning-instructions","22","193001","0.0-8.0-0.0-0.14","4077","1","23","Female","approach_avoid_spark_v1","""event"",""trial"",""time""
""fullscreenenter"",""1"",""2416""
","
","
","""event"",""trial"",""time""
""fullscreenenter"",""1"",""2416""
","
","","","","","","1070.999999999971","<p> This is just a practice round, but in the real game, your bonus payment will depend on your total number of points.","","0","instructions","","","","","","","","","","",""
"learning-instructions","23","199525","0.0-8.0-0.0-0.15","4077","1","23","Female","approach_avoid_spark_v1","""event"",""trial"",""time""
""fullscreenenter"",""1"",""2416""
","
","
","""event"",""trial"",""time""
""fullscreenenter"",""1"",""2416""
","
","","","","","","768.0000000000291","<p> Remember, you can give them the equipment by pressing 1 and choose not to give it to them by pressing 0. </p><br><div class=""choice-instructions-grid""> <div class=""choice-option""><img src=""images/approach.png"" class=""choice-option-img"" stage=""instructions"" position=""0"" ><div class=""choice-option-text""> Press ""1."" </div></div><div class=""choice-option""><img src=""images/avoid.png"" class=""choice-option-img"" stage=""instructions"" position=""1"" ><div class=""choice-option-text""> Press ""0."" </div></div>","","0","instructions","","","","","","","","","","",""
"html-button-response","24","202106","0.0-8.0-1.0","4077","1","23","Female","approach_avoid_spark_v1","""event"",""trial"",""time""
""fullscreenenter"",""1"",""2416""
","
","
","""event"",""trial"",""time""
""fullscreenenter"",""1"",""2416""
","
","","","","","","2478","<p> Ready to practice? </p>","0","","","","","","","","","","","","",""
"html-keyboard-response","25","202707","0.0-8.0-2.0-0.0","4077","1","23","Female","approach_avoid_spark_v1","""event"",""trial"",""time""
""fullscreenenter"",""1"",""2416""
","
","
","""event"",""trial"",""time""
""fullscreenenter"",""1"",""2416""
","
","","","","","","null","<div style=""font-size:60px;"">+</div>","null","","fixation","","","","","","","","","","",""
"aa-learning-trial","26","205709","0.0-8.0-2.0-1.0","4077","1","23","Female","approach_avoid_spark_v1","""event"",""trial"",""time""
""fullscreenenter"",""1"",""2416""
","
","
","""event"",""trial"",""time""
""fullscreenenter"",""1"",""2416""
","
","","","","","","2560","images/ball3.png","","","learning","1","1","1","1","practice","practice","practice","-1","","",""
"html-keyboard-response","27","206211","0.0-8.0-2.0-0.1","4077","1","23","Female","approach_avoid_spark_v1","""event"",""trial"",""time""
""fullscreenenter"",""1"",""2416""
","
","
","""event"",""trial"",""time""
""fullscreenenter"",""1"",""2416""
","
","","","","","","null","<div style=""font-size:60px;"">+</div>","null","","fixation","","","","","","","","","","",""
"aa-learning-trial","28","209212","0.0-8.0-2.0-1.1","4077","1","23","Female","approach_avoid_spark_v1","""event"",""trial"",""time""
""fullscreenenter"",""1"",""2416""
","
","
","""event"",""trial"",""time""
""fullscreenenter"",""1"",""2416""
","
","","","","","","2238","images/racket2.png","","","learning","6","6","1","1","practice","practice","practice","-1","","",""
"html-keyboard-response","29","209714","0.0-8.0-2.0-0.2","4077","1","23","Female","approach_avoid_spark_v1","""event"",""trial"",""time""
""fullscreenenter"",""1"",""2416""
","
","
","""event"",""trial"",""time""
""fullscreenenter"",""1"",""2416""
","
","","","","","","null","<div style=""font-size:60px;"">+</div>","null","","fixation","","","","","","","","","","",""
"aa-learning-trial","30","212715","0.0-8.0-2.0-1.2","4077","1","23","Female","approach_avoid_spark_v1","""event"",""trial"",""time""
""fullscreenenter"",""1"",""2416""
","
","
","""event"",""trial"",""time""
""fullscreenenter"",""1"",""2416""
","
","","","","","","1970","images/racket4.png","","","learning","-3","0","0","0","practice","practice","practice","-1","","",""
"html-keyboard-response","31","213217","0.0-8.0-2.0-0.3","4077","1","23","Female","approach_avoid_spark_v1","""event"",""trial"",""time""
""fullscreenenter"",""1"",""2416""
","
","
","""event"",""trial"",""time""
""fullscreenenter"",""1"",""2416""
","
","","","","","","null","<div style=""font-size:60px;"">+</div>","null","","fixation","","","","","","","","","","",""
"aa-learning-trial","32","216219","0.0-8.0-2.0-1.3","4077","1","23","Female","approach_avoid_spark_v1","""event"",""trial"",""time""
""fullscreenenter"",""1"",""2416""
","
","
","""event"",""trial"",""time""
""fullscreenenter"",""1"",""2416""
","
","","","","","","937","images/racket4.png","","","learning","3","3","1","1","practice","practice","practice","-1","","",""
"html-keyboard-response","33","216720","0.0-8.0-2.0-0.4","4077","1","23","Female","approach_avoid_spark_v1","""event"",""trial"",""time""
""fullscreenenter"",""1"",""2416""
","
","
","""event"",""trial"",""time""
""fullscreenenter"",""1"",""2416""
","
","","","","","","null","<div style=""font-size:60px;"">+</div>","null","","fixation","","","","","","","","","","",""
"aa-learning-trial","34","219722","0.0-8.0-2.0-1.4","4077","1","23","Female","approach_avoid_spark_v1","""event"",""trial"",""time""
""fullscreenenter"",""1"",""2416""
","
","
","""event"",""trial"",""time""
""fullscreenenter"",""1"",""2416""
","
","","","","","","969","images/racket3.png","","","learning","-6","-6","1","1","practice","practice","practice","-1","","",""
"html-keyboard-response","35","220224","0.0-8.0-2.0-0.5","4077","1","23","Female","approach_avoid_spark_v1","""event"",""trial"",""time""
""fullscreenenter"",""1"",""2416""
","
","
","""event"",""trial"",""time""
""fullscreenenter"",""1"",""2416""
","
","","","","","","null","<div style=""font-size:60px;"">+</div>","null","","fixation","","","","","","","","","","",""
"aa-learning-trial","36","223226","0.0-8.0-2.0-1.5","4077","1","23","Female","approach_avoid_spark_v1","""event"",""trial"",""time""
""fullscreenenter"",""1"",""2416""
","
","
","""event"",""trial"",""time""
""fullscreenenter"",""1"",""2416""
","
","","","","","","817","images/racket4.png","","","learning","4","4","1","1","practice","practice","practice","-1","","",""
"html-keyboard-response","37","223727","0.0-8.0-2.0-0.6","4077","1","23","Female","approach_avoid_spark_v1","""event"",""trial"",""time""
""fullscreenenter"",""1"",""2416""
","
","
","""event"",""trial"",""time""
""fullscreenenter"",""1"",""2416""
","
","","","","","","null","<div style=""font-size:60px;"">+</div>","null","","fixation","","","","","","","","","","",""
"aa-learning-trial","38","226729","0.0-8.0-2.0-1.6","4077","1","23","Female","approach_avoid_spark_v1","""event"",""trial"",""time""
""fullscreenenter"",""1"",""2416""
","
","
","""event"",""trial"",""time""
""fullscreenenter"",""1"",""2416""
","
","","","","","","770","images/ball2.png","","","learning","7","7","1","1","practice","practice","practice","-1","","",""
"html-keyboard-response","39","227231","0.0-8.0-2.0-0.7","4077","1","23","Female","approach_avoid_spark_v1","""event"",""trial"",""time""
""fullscreenenter"",""1"",""2416""
","
","
","""event"",""trial"",""time""
""fullscreenenter"",""1"",""2416""
","
","","","","","","null","<div style=""font-size:60px;"">+</div>","null","","fixation","","","","","","","","","","",""
"aa-learning-trial","40","230232","0.0-8.0-2.0-1.7","4077","1","23","Female","approach_avoid_spark_v1","""event"",""trial"",""time""
""fullscreenenter"",""1"",""2416""
","
","
","""event"",""trial"",""time""
""fullscreenenter"",""1"",""2416""
","
","","","","","","533","images/ball4.png","","","learning","5","5","1","1","practice","practice","practice","-1","","",""
"html-keyboard-response","41","230734","0.0-8.0-2.0-0.8","4077","1","23","Female","approach_avoid_spark_v1","""event"",""trial"",""time""
""fullscreenenter"",""1"",""2416""
","
","
","""event"",""trial"",""time""
""fullscreenenter"",""1"",""2416""
","
","","","","","","null","<div style=""font-size:60px;"">+</div>","null","","fixation","","","","","","","","","","",""
"aa-learning-trial","42","233736","0.0-8.0-2.0-1.8","4077","1","23","Female","approach_avoid_spark_v1","""event"",""trial"",""time""
""fullscreenenter"",""1"",""2416""
","
","
","""event"",""trial"",""time""
""fullscreenenter"",""1"",""2416""
","
","","","","","","745.9999999999709","images/ball1.png","","","learning","-1","-1","1","1","practice","practice","practice","-1","","",""
"html-keyboard-response","43","234237","0.0-8.0-2.0-0.9","4077","1","23","Female","approach_avoid_spark_v1","""event"",""trial"",""time""
""fullscreenenter"",""1"",""2416""
","
","
","""event"",""trial"",""time""
""fullscreenenter"",""1"",""2416""
","
","","","","","","null","<div style=""font-size:60px;"">+</div>","null","","fixation","","","","","","","","","","",""
"aa-learning-trial","44","237239","0.0-8.0-2.0-1.9","4077","1","23","Female","approach_avoid_spark_v1","""event"",""trial"",""time""
""fullscreenenter"",""1"",""2416""
","
","
","""event"",""trial"",""time""
""fullscreenenter"",""1"",""2416""
","
","","","","","","1095","images/racket1.png","","","learning","-1","-1","1","1","practice","practice","practice","-1","","",""
"html-keyboard-response","45","237741","0.0-8.0-2.0-0.10","4077","1","23","Female","approach_avoid_spark_v1","""event"",""trial"",""time""
""fullscreenenter"",""1"",""2416""
","
","
","""event"",""trial"",""time""
""fullscreenenter"",""1"",""2416""
","
","","","","","","null","<div style=""font-size:60px;"">+</div>","null","","fixation","","","","","","","","","","",""
"aa-learning-trial","46","240743","0.0-8.0-2.0-1.10","4077","1","23","Female","approach_avoid_spark_v1","""event"",""trial"",""time""
""fullscreenenter"",""1"",""2416""
","
","
","""event"",""trial"",""time""
""fullscreenenter"",""1"",""2416""
","
","","","","","","779.9999999999709","images/racket3.png","","","learning","9","0","0","0","practice","practice","practice","-1","","",""
"html-keyboard-response","47","241244","0.0-8.0-2.0-0.11","4077","1","23","Female","approach_avoid_spark_v1","""event"",""trial"",""time""
""fullscreenenter"",""1"",""2416""
","
","
","""event"",""trial"",""time""
""fullscreenenter"",""1"",""2416""
","
","","","","","","null","<div style=""font-size:60px;"">+</div>","null","","fixation","","","","","","","","","","",""
"aa-learning-trial","48","244246","0.0-8.0-2.0-1.11","4077","1","23","Female","approach_avoid_spark_v1","""event"",""trial"",""time""
""fullscreenenter"",""1"",""2416""
","
","
","""event"",""trial"",""time""
""fullscreenenter"",""1"",""2416""
","
","","","","","","1198.000000000029","images/racket1.png","","","learning","8","0","0","0","practice","practice","practice","-1","","",""
"html-button-response","49","246057","0.0-8.0-3.0","4077","1","23","Female","approach_avoid_spark_v1","""event"",""trial"",""time""
""fullscreenenter"",""1"",""2416""
","
","
","""event"",""trial"",""time""
""fullscreenenter"",""1"",""2416""
","
","","","","","","1809","<p> You earned 18 points in the practice round! </p>","0","","break","","","","","","","","","","",""
"learning-instructions","50","254897","0.0-8.0-4.0-0.0","4077","1","23","Female","approach_avoid_spark_v1","""event"",""trial"",""time""
""fullscreenenter"",""1"",""2416""
","
","
","""event"",""trial"",""time""
""fullscreenenter"",""1"",""2416""
","
","","","","","","2883","<p> It's almost time to start the real game. </p><p> Before you start, we're going to ask you a few questions about how the game works. </p>","","0","instructions","","","","","","","","","","",""
"preload","51","256803","0.0-8.0-5.0","4077","1","23","Female","approach_avoid_spark_v1","""event"",""trial"",""time""
""fullscreenenter"",""1"",""2416""
","
","
","""event"",""trial"",""time""
""fullscreenenter"",""1"",""2416""
","
","true","false","[]","[]","[]","","","","","","","","","","","","","","","",""
"comp-q","52","262835","0.0-8.0-6.0-0.0","4077","1","23","Female","approach_avoid_spark_v1","""event"",""trial"",""time""
""fullscreenenter"",""1"",""2416""
","
","
","""event"",""trial"",""time""
""fullscreenenter"",""1"",""2416""
","
","","","","","","1040","<p> <b> True or False? </b> </p><p> If you see a number in GREY, that means you earned that many points. </p>","","1","comp_question","","","","","","","","","true","",""
"comp-q","53","272785","0.0-8.0-6.0-1.0","4077","1","23","Female","approach_avoid_spark_v1","""event"",""trial"",""time""
""fullscreenenter"",""1"",""2416""
","
","
","""event"",""trial"",""time""
""fullscreenenter"",""1"",""2416""
","
","","","","","","1593.9999999999418","<p><b> That's right! </b> If you see a grey number, it means you earned ZERO points. <br> The grey numbers show the points you WOULD HAVE earned if you had made the other choice. </p>","","0","comp_answer","","","","","","","","","","",""
"comp-q","54","277970","0.0-8.0-7.0-0.0","4077","1","23","Female","approach_avoid_spark_v1","""event"",""trial"",""time""
""fullscreenenter"",""1"",""2416""
","
","
","""event"",""trial"",""time""
""fullscreenenter"",""1"",""2416""
","
","","","","","","497","<p> <b> True or False? </b> </p><p> You will have as much time as you want to make each choice. </p>","","1","comp_question","","","","","","","","","true","",""
"comp-q","55","283139","0.0-8.0-7.0-1.0","4077","1","23","Female","approach_avoid_spark_v1","""event"",""trial"",""time""
""fullscreenenter"",""1"",""2416""
","
","
","""event"",""trial"",""time""
""fullscreenenter"",""1"",""2416""
","
","","","","","","1133.0000000000582","<p> <b> That's right! </b> You will only have 3 seconds to make each choice. </p>","","0","comp_answer","","","","","","","","","","",""
"comp-q","56","288324","0.0-8.0-8.0-0.0","4077","1","23","Female","approach_avoid_spark_v1","""event"",""trial"",""time""
""fullscreenenter"",""1"",""2416""
","
","
","""event"",""trial"",""time""
""fullscreenenter"",""1"",""2416""
","
","","","","","","533","<p> <b> True or False? </b> </p><p> You should use the '1' and '0' keys to make your choices. </p>","","0","comp_question","","","","","","","","","true","",""
"comp-q","57","293677","0.0-8.0-8.0-1.0","4077","1","23","Female","approach_avoid_spark_v1","""event"",""trial"",""time""
""fullscreenenter"",""1"",""2416""
","
","
","""event"",""trial"",""time""
""fullscreenenter"",""1"",""2416""
","
","","","","","","750","<p> <b> That's right! </b> You should use the '1' and '0' keys to make each choice. </p>","","0","comp_answer","","","","","","","","","","",""
"learning-instructions","58","301524","0.0-8.0-9.0-0.0","4077","1","23","Female","approach_avoid_spark_v1","""event"",""trial"",""time""
""fullscreenenter"",""1"",""2416""
","
","
","""event"",""trial"",""time""
""fullscreenenter"",""1"",""2416""
","
","","","","","","1580","<p> It's now time to start the real game. </p>Do your best, because the points you earn in the next rounds will influence your bonus payment. </p>","","0","instructions","","","","","","","","","","",""
"preload","59","301633","0.0-9.0-0.0","4077","1","23","Female","approach_avoid_spark_v1","""event"",""trial"",""time""
""fullscreenenter"",""1"",""2416""
","
","
","""event"",""trial"",""time""
""fullscreenenter"",""1"",""2416""
","
","true","false","[]","[]","[]","","","","","","","","","","","","","","","",""
"learning-instructions","60","306071","0.0-9.0-1.0-0.0","4077","1","23","Female","approach_avoid_spark_v1","""event"",""trial"",""time""
""fullscreenenter"",""1"",""2416""
","
","
","""event"",""trial"",""time""
""fullscreenenter"",""1"",""2416""
","
","","","","","","1364","<p> Your goal in this round is to eat tasty fruit. </p></div>","","0","instructions","","","","","","","","","","",""
"learning-instructions","61","316702","0.0-9.0-1.0-0.1","4077","1","23","Female","approach_avoid_spark_v1","""event"",""trial"",""time""
""fullscreenenter"",""1"",""2416""
","
","
","""event"",""trial"",""time""
""fullscreenenter"",""1"",""2416""
","
","","","","","","1269","<p> Some of the fruits you will see are tasty. Others are rotten on the inside.  </p><p> On each turn, you will see a fruit.   </p><p> You need to decide whether to eat it or not.  </p>","","0","instructions","","","","","","","","","","",""
"learning-instructions","62","321918","0.0-9.0-1.0-0.2","4077","1","23","Female","approach_avoid_spark_v1","""event"",""trial"",""time""
""fullscreenenter"",""1"",""2416""
","
","
","""event"",""trial"",""time""
""fullscreenenter"",""1"",""2416""
","
","","","","","","553","<p> You can eat the fruit by pressing 1 and choose not to eat it by pressing 0. </p><br><div class=""choice-instructions-grid""> <div class=""choice-option""><img src=""images/approach.png"" class=""choice-option-img"" stage=""instructions"" position=""0"" ><div class=""choice-option-text""> Press ""1."" </div></div><div class=""choice-option""><img src=""images/avoid.png"" class=""choice-option-img"" stage=""instructions"" position=""1"" ><div class=""choice-option-text""> Press ""0."" </div></div>","","0","instructions","","","","","","","","","","",""
"learning-instructions","63","329450","0.0-9.0-1.0-0.3","4077","1","23","Female","approach_avoid_spark_v1","""event"",""trial"",""time""
""fullscreenenter"",""1"",""2416""
","
","
","""event"",""trial"",""time""
""fullscreenenter"",""1"",""2416""
","
","","","","","","422","<p> If you eat the fruit and it was tasty, you will win points! </p><p> But if you eat the fruit and it was rotten, you will lose points. </p>","","0","instructions","","","","","","","","","","",""
"learning-instructions","64","340934","0.0-9.0-1.0-0.4","4077","1","23","Female","approach_avoid_spark_v1","""event"",""trial"",""time""
""fullscreenenter"",""1"",""2416""
","
","
","""event"",""trial"",""time""
""fullscreenenter"",""1"",""2416""
","
","","","","","","449","<p> You will earn points based on how tasty or rotten the fruit was. </p><p> If it was tasty, you will WIN anywhere from 1 - 9 points, </p><p> but if it was rotten, you will LOSE anywhere from 1 - 9 points. </p>","","0","instructions","","","","","","","","","","",""
"learning-instructions","65","348779","0.0-9.0-1.0-0.5","4077","1","23","Female","approach_avoid_spark_v1","""event"",""trial"",""time""
""fullscreenenter"",""1"",""2416""
","
","
","""event"",""trial"",""time""
""fullscreenenter"",""1"",""2416""
","
","","","","","","487","<p> You will see how many points you won or lost in the center of the screen. </p><p> Here is what you would see if you earned 5 points: </p><p style=""color:green;font-size:50px;font-weight:bolder"">5</p>","","0","instructions","","","","","","","","","","",""
"learning-instructions","66","352526","0.0-9.0-1.0-0.6","4077","1","23","Female","approach_avoid_spark_v1","""event"",""trial"",""time""
""fullscreenenter"",""1"",""2416""
","
","
","""event"",""trial"",""time""
""fullscreenenter"",""1"",""2416""
","
","","","","","","493","<p> And here is what you would see if you lost 3 points: </p><p style=""color:red;font-size:50px;font-weight:bolder"">-3</p>","","0","instructions","","","","","","","","","","",""
"learning-instructions","67","366565","0.0-9.0-1.0-0.7","4077","1","23","Female","approach_avoid_spark_v1","""event"",""trial"",""time""
""fullscreenenter"",""1"",""2416""
","
","
","""event"",""trial"",""time""
""fullscreenenter"",""1"",""2416""
","
","","","","","","486","<p> Some fruit is very tasty or very rotten. </p><p> These fruits will make you win or lose LOTS of points. </p><p> Other fruits are only kind of tasty or kind of rotten. </p><p> These fruits will make you win or lose small amounts of points. </p>","","0","instructions","","","","","","","","","","",""
"learning-instructions","68","377151","0.0-9.0-1.0-0.8","4077","1","23","Female","approach_avoid_spark_v1","""event"",""trial"",""time""
""fullscreenenter"",""1"",""2416""
","
","
","""event"",""trial"",""time""
""fullscreenenter"",""1"",""2416""
","
","","","","","","501","<p> If you choose to not eat the fruit, you will not win or lose any points. </p><p>  However, in the center of the screen, you will see the number of points you WOULD HAVE earned if you had eaten the fruit. </p>","","0","instructions","","","","","","","","","","",""
"learning-instructions","69","387555","0.0-9.0-1.0-0.9","4077","1","23","Female","approach_avoid_spark_v1","""event"",""trial"",""time""
""fullscreenenter"",""1"",""2416""
","
","
","""event"",""trial"",""time""
""fullscreenenter"",""1"",""2416""
","
","","","","","","833","<p> Here is what you might see if you did not eat the fruit but the fruit was tasty: </p><p style=""color:grey; font-size:50px; display: inline-block; border-spacing: 15px; border-width:3px; border-style:solid; border-color:red"">  &nbsp; 6 &nbsp; </p><p> Remember, in this case, you would not win or lose ANY points because you did not eat the fruit.  </p>","","0","instructions","","","","","","","","","","",""
"learning-instructions","70","395638","0.0-9.0-1.0-0.10","4077","1","23","Female","approach_avoid_spark_v1","""event"",""trial"",""time""
""fullscreenenter"",""1"",""2416""
","
","
","""event"",""trial"",""time""
""fullscreenenter"",""1"",""2416""
","
","","","","","","508.9999999999418","<p> Try to make the best choice for each fruit because </p><p> at the end of the game, you will earn bonus money based on how many points you earned. </p>","","0","instructions","","","","","","","","","","",""
"learning-instructions","71","404230","0.0-9.0-1.0-0.11","4077","1","23","Female","approach_avoid_spark_v1","""event"",""trial"",""time""
""fullscreenenter"",""1"",""2416""
","
","
","""event"",""trial"",""time""
""fullscreenenter"",""1"",""2416""
","
","","","","","","409","<p> You will have 3 seconds to make each choice. Try to respond before time runs out! </p><p> You will lose 5 points each time you do not make a response. </p>","","0","instructions","","","","","","","","","","",""
"html-keyboard-response","72","404831","0.0-9.0-2.0-0.0","4077","1","23","Female","approach_avoid_spark_v1","""event"",""trial"",""time""
""fullscreenenter"",""1"",""2416""
","
","
","""event"",""trial"",""time""
""fullscreenenter"",""1"",""2416""
","
","","","","","","null","<div style=""font-size:60px;"">+</div>","null","","fixation","","","","","","","","","","",""
"aa-learning-trial","73","407834","0.0-9.0-2.0-1.0","4077","1","23","Female","approach_avoid_spark_v1","""event"",""trial"",""time""
""fullscreenenter"",""1"",""2416""
","
","
","""event"",""trial"",""time""
""fullscreenenter"",""1"",""2416""
","
","","","","","","942","images/banana2.png","","","learning","-1","-1","1","1","banana","fruit","1","0","","neutral","0"
"html-keyboard-response","74","408334","0.0-9.0-2.0-0.1","4077","1","23","Female","approach_avoid_spark_v1","""event"",""trial"",""time""
""fullscreenenter"",""1"",""2416""
","
","
","""event"",""trial"",""time""
""fullscreenenter"",""1"",""2416""
","
","","","","","","null","<div style=""font-size:60px;"">+</div>","null","","fixation","","","","","","","","","","",""
"aa-learning-trial","75","411336","0.0-9.0-2.0-1.1","4077","1","23","Female","approach_avoid_spark_v1","""event"",""trial"",""time""
""fullscreenenter"",""1"",""2416""
","
","
","""event"",""trial"",""time""
""fullscreenenter"",""1"",""2416""
","
","","","","","","1052","images/apple3.png","","","learning","-3","-3","1","1","apple","fruit","1","0","","bad","[-3]"
"html-keyboard-response","76","411837","0.0-9.0-2.0-0.2","4077","1","23","Female","approach_avoid_spark_v1","""event"",""trial"",""time""
""fullscreenenter"",""1"",""2416""
","
","
","""event"",""trial"",""time""
""fullscreenenter"",""1"",""2416""
","
","","","","","","null","<div style=""font-size:60px;"">+</div>","null","","fixation","","","","","","","","","","",""
"aa-learning-trial","77","414839","0.0-9.0-2.0-1.2","4077","1","23","Female","approach_avoid_spark_v1","""event"",""trial"",""time""
""fullscreenenter"",""1"",""2416""
","
","
","""event"",""trial"",""time""
""fullscreenenter"",""1"",""2416""
","
","","","","","","1409","images/apple6.png","","","learning","-4","-4","1","1","apple","fruit","1","0","","bad","[-3]"
"html-keyboard-response","78","415341","0.0-9.0-2.0-0.3","4077","1","23","Female","approach_avoid_spark_v1","""event"",""trial"",""time""
""fullscreenenter"",""1"",""2416""
","
","
","""event"",""trial"",""time""
""fullscreenenter"",""1"",""2416""
","
","","","","","","null","<div style=""font-size:60px;"">+</div>","null","","fixation","","","","","","","","","","",""
"aa-learning-trial","79","418342","0.0-9.0-2.0-1.3","4077","1","23","Female","approach_avoid_spark_v1","""event"",""trial"",""time""
""fullscreenenter"",""1"",""2416""
","
","
","""event"",""trial"",""time""
""fullscreenenter"",""1"",""2416""
","
","","","","","","974.0000000000582","images/orange6.png","","","learning","6","6","1","1","orange","fruit","1","0","","good","[6]"
"html-keyboard-response","80","418844","0.0-9.0-2.0-0.4","4077","1","23","Female","approach_avoid_spark_v1","""event"",""trial"",""time""
""fullscreenenter"",""1"",""2416""
","
","
","""event"",""trial"",""time""
""fullscreenenter"",""1"",""2416""
","
","","","","","","null","<div style=""font-size:60px;"">+</div>","null","","fixation","","","","","","","","","","",""
"aa-learning-trial","81","421846","0.0-9.0-2.0-1.4","4077","1","23","Female","approach_avoid_spark_v1","""event"",""trial"",""time""
""fullscreenenter"",""1"",""2416""
","
","
","""event"",""trial"",""time""
""fullscreenenter"",""1"",""2416""
","
","","","","","","714","images/apple6.png","","","learning","-3","0","0","0","apple","fruit","1","0","","bad","[-3]"
"html-keyboard-response","82","422347","0.0-9.0-2.0-0.5","4077","1","23","Female","approach_avoid_spark_v1","""event"",""trial"",""time""
""fullscreenenter"",""1"",""2416""
","
","
","""event"",""trial"",""time""
""fullscreenenter"",""1"",""2416""
","
","","","","","","null","<div style=""font-size:60px;"">+</div>","null","","fixation","","","","","","","","","","",""
"aa-learning-trial","83","425349","0.0-9.0-2.0-1.5","4077","1","23","Female","approach_avoid_spark_v1","""event"",""trial"",""time""
""fullscreenenter"",""1"",""2416""
","
","
","""event"",""trial"",""time""
""fullscreenenter"",""1"",""2416""
","
","","","","","","1009","images/orange1.png","","","learning","7","7","1","1","orange","fruit","1","0","","good","[6]"
"html-keyboard-response","84","425851","0.0-9.0-2.0-0.6","4077","1","23","Female","approach_avoid_spark_v1","""event"",""trial"",""time""
""fullscreenenter"",""1"",""2416""
","
","
","""event"",""trial"",""time""
""fullscreenenter"",""1"",""2416""
","
","","","","","","null","<div style=""font-size:60px;"">+</div>","null","","fixation","","","","","","","","","","",""
"aa-learning-trial","85","428853","0.0-9.0-2.0-1.6","4077","1","23","Female","approach_avoid_spark_v1","""event"",""trial"",""time""
""fullscreenenter"",""1"",""2416""
","
","
","""event"",""trial"",""time""
""fullscreenenter"",""1"",""2416""
","
","","","","","","1222.9999999999418","images/banana1.png","","","learning","[-1]","-1","1","1","banana","fruit","1","0","","neutral","0"
"html-keyboard-response","86","429354","0.0-9.0-2.0-0.7","4077","1","23","Female","approach_avoid_spark_v1","""event"",""trial"",""time""
""fullscreenenter"",""1"",""2416""
","
","
","""event"",""trial"",""time""
""fullscreenenter"",""1"",""2416""
","
","","","","","","null","<div style=""font-size:60px;"">+</div>","null","","fixation","","","","","","","","","","",""
"aa-learning-trial","87","432356","0.0-9.0-2.0-1.7","4077","1","23","Female","approach_avoid_spark_v1","""event"",""trial"",""time""
""fullscreenenter"",""1"",""2416""
","
","
","""event"",""trial"",""time""
""fullscreenenter"",""1"",""2416""
","
","","","","","","904","images/banana6.png","","","learning","1","0","0","0","banana","fruit","1","0","","neutral","0"
"html-keyboard-response","88","432857","0.0-9.0-2.0-0.8","4077","1","23","Female","approach_avoid_spark_v1","""event"",""trial"",""time""
""fullscreenenter"",""1"",""2416""
","
","
","""event"",""trial"",""time""
""fullscreenenter"",""1"",""2416""
","
","","","","","","null","<div style=""font-size:60px;"">+</div>","null","","fixation","","","","","","","","","","",""
"aa-learning-trial","89","435859","0.0-9.0-2.0-1.8","4077","1","23","Female","approach_avoid_spark_v1","""event"",""trial"",""time""
""fullscreenenter"",""1"",""2416""
","
","
","""event"",""trial"",""time""
""fullscreenenter"",""1"",""2416""
","
","","","","","","1499.0000000000582","images/banana6.png","","","learning","2","2","1","1","banana","fruit","1","0","","neutral","0"
"html-keyboard-response","90","436361","0.0-9.0-2.0-0.9","4077","1","23","Female","approach_avoid_spark_v1","""event"",""trial"",""time""
""fullscreenenter"",""1"",""2416""
","
","
","""event"",""trial"",""time""
""fullscreenenter"",""1"",""2416""
","
","","","","","","null","<div style=""font-size:60px;"">+</div>","null","","fixation","","","","","","","","","","",""
"aa-learning-trial","91","439363","0.0-9.0-2.0-1.9","4077","1","23","Female","approach_avoid_spark_v1","""event"",""trial"",""time""
""fullscreenenter"",""1"",""2416""
","
","
","""event"",""trial"",""time""
""fullscreenenter"",""1"",""2416""
","
","","","","","","1086","images/orange1.png","","","learning","1","1","1","1","orange","fruit","1","0","","good","[6]"
"html-keyboard-response","92","439865","0.0-9.0-2.0-0.10","4077","1","23","Female","approach_avoid_spark_v1","""event"",""trial"",""time""
""fullscreenenter"",""1"",""2416""
","
","
","""event"",""trial"",""time""
""fullscreenenter"",""1"",""2416""
","
","","","","","","null","<div style=""font-size:60px;"">+</div>","null","","fixation","","","","","","","","","","",""
"aa-learning-trial","93","442866","0.0-9.0-2.0-1.10","4077","1","23","Female","approach_avoid_spark_v1","""event"",""trial"",""time""
""fullscreenenter"",""1"",""2416""
","
","
","""event"",""trial"",""time""
""fullscreenenter"",""1"",""2416""
","
","","","","","","902.0000000000582","images/banana2.png","","","learning","-2","0","0","0","banana","fruit","1","0","","neutral","0"
"html-keyboard-response","94","443368","0.0-9.0-2.0-0.11","4077","1","23","Female","approach_avoid_spark_v1","""event"",""trial"",""time""
""fullscreenenter"",""1"",""2416""
","
","
","""event"",""trial"",""time""
""fullscreenenter"",""1"",""2416""
","
","","","","","","null","<div style=""font-size:60px;"">+</div>","null","","fixation","","","","","","","","","","",""
"aa-learning-trial","95","446370","0.0-9.0-2.0-1.11","4077","1","23","Female","approach_avoid_spark_v1","""event"",""trial"",""time""
""fullscreenenter"",""1"",""2416""
","
","
","""event"",""trial"",""time""
""fullscreenenter"",""1"",""2416""
","
","","","","","","1178.9999999999418","images/orange2.png","","","learning","5","5","1","1","orange","fruit","1","0","","good","[6]"
"html-keyboard-response","96","446871","0.0-9.0-2.0-0.12","4077","1","23","Female","approach_avoid_spark_v1","""event"",""trial"",""time""
""fullscreenenter"",""1"",""2416""
","
","
","""event"",""trial"",""time""
""fullscreenenter"",""1"",""2416""
","
","","","","","","null","<div style=""font-size:60px;"">+</div>","null","","fixation","","","","","","","","","","",""
"aa-learning-trial","97","449873","0.0-9.0-2.0-1.12","4077","1","23","Female","approach_avoid_spark_v1","""event"",""trial"",""time""
""fullscreenenter"",""1"",""2416""
","
","
","""event"",""trial"",""time""
""fullscreenenter"",""1"",""2416""
","
","","","","","","1746","images/apple7.png","","","learning","-1","0","0","0","apple","fruit","1","0","","bad","[-3]"
"html-keyboard-response","98","450375","0.0-9.0-2.0-0.13","4077","1","23","Female","approach_avoid_spark_v1","""event"",""trial"",""time""
""fullscreenenter"",""1"",""2416""
","
","
","""event"",""trial"",""time""
""fullscreenenter"",""1"",""2416""
","
","","","","","","null","<div style=""font-size:60px;"">+</div>","null","","fixation","","","","","","","","","","",""
"aa-learning-trial","99","453376","0.0-9.0-2.0-1.13","4077","1","23","Female","approach_avoid_spark_v1","""event"",""trial"",""time""
""fullscreenenter"",""1"",""2416""
","
","
","""event"",""trial"",""time""
""fullscreenenter"",""1"",""2416""
","
","","","","","","818","images/apple7.png","","","learning","-3","-3","1","1","apple","fruit","1","0","","bad","[-3]"
"html-keyboard-response","100","453878","0.0-9.0-2.0-0.14","4077","1","23","Female","approach_avoid_spark_v1","""event"",""trial"",""time""
""fullscreenenter"",""1"",""2416""
","
","
","""event"",""trial"",""time""
""fullscreenenter"",""1"",""2416""
","
","","","","","","null","<div style=""font-size:60px;"">+</div>","null","","fixation","","","","","","","","","","",""
"aa-learning-trial","101","456880","0.0-9.0-2.0-1.14","4077","1","23","Female","approach_avoid_spark_v1","""event"",""trial"",""time""
""fullscreenenter"",""1"",""2416""
","
","
","""event"",""trial"",""time""
""fullscreenenter"",""1"",""2416""
","
","","","","","","1602","images/orange6.png","","","learning","5","5","1","1","orange","fruit","1","0","","good","[6]"
"html-keyboard-response","102","457382","0.0-9.0-2.0-0.15","4077","1","23","Female","approach_avoid_spark_v1","""event"",""trial"",""time""
""fullscreenenter"",""1"",""2416""
","
","
","""event"",""trial"",""time""
""fullscreenenter"",""1"",""2416""
","
","","","","","","null","<div style=""font-size:60px;"">+</div>","null","","fixation","","","","","","","","","","",""
"aa-learning-trial","103","460383","0.0-9.0-2.0-1.15","4077","1","23","Female","approach_avoid_spark_v1","""event"",""trial"",""time""
""fullscreenenter"",""1"",""2416""
","
","
","""event"",""trial"",""time""
""fullscreenenter"",""1"",""2416""
","
","","","","","","647","images/orange1.png","","","learning","7","7","1","1","orange","fruit","1","0","","good","[6]"
"html-keyboard-response","104","460885","0.0-9.0-2.0-0.16","4077","1","23","Female","approach_avoid_spark_v1","""event"",""trial"",""time""
""fullscreenenter"",""1"",""2416""
","
","
","""event"",""trial"",""time""
""fullscreenenter"",""1"",""2416""
","
","","","","","","null","<div style=""font-size:60px;"">+</div>","null","","fixation","","","","","","","","","","",""
"aa-learning-trial","105","463887","0.0-9.0-2.0-1.16","4077","1","23","Female","approach_avoid_spark_v1","""event"",""trial"",""time""
""fullscreenenter"",""1"",""2416""
","
","
","""event"",""trial"",""time""
""fullscreenenter"",""1"",""2416""
","
","","","","","","826","images/orange2.png","","","learning","8","8","1","1","orange","fruit","1","0","","good","[6]"
"html-keyboard-response","106","464388","0.0-9.0-2.0-0.17","4077","1","23","Female","approach_avoid_spark_v1","""event"",""trial"",""time""
""fullscreenenter"",""1"",""2416""
","
","
","""event"",""trial"",""time""
""fullscreenenter"",""1"",""2416""
","
","","","","","","null","<div style=""font-size:60px;"">+</div>","null","","fixation","","","","","","","","","","",""
"aa-learning-trial","107","467390","0.0-9.0-2.0-1.17","4077","1","23","Female","approach_avoid_spark_v1","""event"",""trial"",""time""
""fullscreenenter"",""1"",""2416""
","
","
","""event"",""trial"",""time""
""fullscreenenter"",""1"",""2416""
","
","","","","","","782","images/banana2.png","","","learning","[1]","0","0","0","banana","fruit","1","0","","neutral","0"
"html-keyboard-response","108","467892","0.0-9.0-2.0-0.18","4077","1","23","Female","approach_avoid_spark_v1","""event"",""trial"",""time""
""fullscreenenter"",""1"",""2416""
","
","
","""event"",""trial"",""time""
""fullscreenenter"",""1"",""2416""
","
","","","","","","null","<div style=""font-size:60px;"">+</div>","null","","fixation","","","","","","","","","","",""
"aa-learning-trial","109","470894","0.0-9.0-2.0-1.18","4077","1","23","Female","approach_avoid_spark_v1","""event"",""trial"",""time""
""fullscreenenter"",""1"",""2416""
","
","
","""event"",""trial"",""time""
""fullscreenenter"",""1"",""2416""
","
","","","","","","826","images/orange2.png","","","learning","8","8","1","1","orange","fruit","1","0","","good","[6]"
"html-keyboard-response","110","471394","0.0-9.0-2.0-0.19","4077","1","23","Female","approach_avoid_spark_v1","""event"",""trial"",""time""
""fullscreenenter"",""1"",""2416""
","
","
","""event"",""trial"",""time""
""fullscreenenter"",""1"",""2416""
","
","","","","","","null","<div style=""font-size:60px;"">+</div>","null","","fixation","","","","","","","","","","",""
"aa-learning-trial","111","474396","0.0-9.0-2.0-1.19","4077","1","23","Female","approach_avoid_spark_v1","""event"",""trial"",""time""
""fullscreenenter"",""1"",""2416""
","
","
","""event"",""trial"",""time""
""fullscreenenter"",""1"",""2416""
","
","","","","","","795","images/apple7.png","","","learning","-2","-2","1","1","apple","fruit","1","0","","bad","[-3]"
"html-keyboard-response","112","474898","0.0-9.0-2.0-0.20","4077","1","23","Female","approach_avoid_spark_v1","""event"",""trial"",""time""
""fullscreenenter"",""1"",""2416""
","
","
","""event"",""trial"",""time""
""fullscreenenter"",""1"",""2416""
","
","","","","","","null","<div style=""font-size:60px;"">+</div>","null","","fixation","","","","","","","","","","",""
"aa-learning-trial","113","477900","0.0-9.0-2.0-1.20","4077","1","23","Female","approach_avoid_spark_v1","""event"",""trial"",""time""
""fullscreenenter"",""1"",""2416""
","
","
","""event"",""trial"",""time""
""fullscreenenter"",""1"",""2416""
","
","","","","","","926","images/apple7.png","","","learning","-3","-3","1","1","apple","fruit","1","0","","bad","[-3]"
"html-keyboard-response","114","478402","0.0-9.0-2.0-0.21","4077","1","23","Female","approach_avoid_spark_v1","""event"",""trial"",""time""
""fullscreenenter"",""1"",""2416""
","
","
","""event"",""trial"",""time""
""fullscreenenter"",""1"",""2416""
","
","","","","","","null","<div style=""font-size:60px;"">+</div>","null","","fixation","","","","","","","","","","",""
"aa-learning-trial","115","481404","0.0-9.0-2.0-1.21","4077","1","23","Female","approach_avoid_spark_v1","""event"",""trial"",""time""
""fullscreenenter"",""1"",""2416""
","
","
","""event"",""trial"",""time""
""fullscreenenter"",""1"",""2416""
","
","","","","","","917","images/banana1.png","","","learning","1","0","0","0","banana","fruit","1","0","","neutral","0"
"html-keyboard-response","116","481905","0.0-9.0-2.0-0.22","4077","1","23","Female","approach_avoid_spark_v1","""event"",""trial"",""time""
""fullscreenenter"",""1"",""2416""
","
","
","""event"",""trial"",""time""
""fullscreenenter"",""1"",""2416""
","
","","","","","","null","<div style=""font-size:60px;"">+</div>","null","","fixation","","","","","","","","","","",""
"aa-learning-trial","117","484907","0.0-9.0-2.0-1.22","4077","1","23","Female","approach_avoid_spark_v1","""event"",""trial"",""time""
""fullscreenenter"",""1"",""2416""
","
","
","""event"",""trial"",""time""
""fullscreenenter"",""1"",""2416""
","
","","","","","","935.9999999999418","images/banana2.png","","","learning","1","0","0","0","banana","fruit","1","0","","neutral","0"
"html-keyboard-response","118","485409","0.0-9.0-2.0-0.23","4077","1","23","Female","approach_avoid_spark_v1","""event"",""trial"",""time""
""fullscreenenter"",""1"",""2416""
","
","
","""event"",""trial"",""time""
""fullscreenenter"",""1"",""2416""
","
","","","","","","null","<div style=""font-size:60px;"">+</div>","null","","fixation","","","","","","","","","","",""
"aa-learning-trial","119","488411","0.0-9.0-2.0-1.23","4077","1","23","Female","approach_avoid_spark_v1","""event"",""trial"",""time""
""fullscreenenter"",""1"",""2416""
","
","
","""event"",""trial"",""time""
""fullscreenenter"",""1"",""2416""
","
","","","","","","2119","images/banana6.png","","","learning","-2","0","0","0","banana","fruit","1","0","","neutral","0"
"html-keyboard-response","120","488912","0.0-9.0-2.0-0.24","4077","1","23","Female","approach_avoid_spark_v1","""event"",""trial"",""time""
""fullscreenenter"",""1"",""2416""
","
","
","""event"",""trial"",""time""
""fullscreenenter"",""1"",""2416""
","
","","","","","","null","<div style=""font-size:60px;"">+</div>","null","","fixation","","","","","","","","","","",""
"aa-learning-trial","121","491914","0.0-9.0-2.0-1.24","4077","1","23","Female","approach_avoid_spark_v1","""event"",""trial"",""time""
""fullscreenenter"",""1"",""2416""
","
","
","""event"",""trial"",""time""
""fullscreenenter"",""1"",""2416""
","
","","","","","","994","images/orange1.png","","","learning","7","7","1","1","orange","fruit","1","0","","good","[6]"
"html-keyboard-response","122","492416","0.0-9.0-2.0-0.25","4077","1","23","Female","approach_avoid_spark_v1","""event"",""trial"",""time""
""fullscreenenter"",""1"",""2416""
","
","
","""event"",""trial"",""time""
""fullscreenenter"",""1"",""2416""
","
","","","","","","null","<div style=""font-size:60px;"">+</div>","null","","fixation","","","","","","","","","","",""
"aa-learning-trial","123","495417","0.0-9.0-2.0-1.25","4077","1","23","Female","approach_avoid_spark_v1","""event"",""trial"",""time""
""fullscreenenter"",""1"",""2416""
","
","
","""event"",""trial"",""time""
""fullscreenenter"",""1"",""2416""
","
","","","","","","821","images/apple7.png","","","learning","-3","-3","1","1","apple","fruit","1","0","","bad","[-3]"
"html-keyboard-response","124","495919","0.0-9.0-2.0-0.26","4077","1","23","Female","approach_avoid_spark_v1","""event"",""trial"",""time""
""fullscreenenter"",""1"",""2416""
","
","
","""event"",""trial"",""time""
""fullscreenenter"",""1"",""2416""
","
","","","","","","null","<div style=""font-size:60px;"">+</div>","null","","fixation","","","","","","","","","","",""
"aa-learning-trial","125","498921","0.0-9.0-2.0-1.26","4077","1","23","Female","approach_avoid_spark_v1","""event"",""trial"",""time""
""fullscreenenter"",""1"",""2416""
","
","
","""event"",""trial"",""time""
""fullscreenenter"",""1"",""2416""
","
","","","","","","615","images/orange1.png","","","learning","5","5","1","1","orange","fruit","1","0","","good","[6]"
"html-keyboard-response","126","499423","0.0-9.0-2.0-0.27","4077","1","23","Female","approach_avoid_spark_v1","""event"",""trial"",""time""
""fullscreenenter"",""1"",""2416""
","
","
","""event"",""trial"",""time""
""fullscreenenter"",""1"",""2416""
","
","","","","","","null","<div style=""font-size:60px;"">+</div>","null","","fixation","","","","","","","","","","",""
"aa-learning-trial","127","502424","0.0-9.0-2.0-1.27","4077","1","23","Female","approach_avoid_spark_v1","""event"",""trial"",""time""
""fullscreenenter"",""1"",""2416""
","
","
","""event"",""trial"",""time""
""fullscreenenter"",""1"",""2416""
","
","","","","","","441.0000000000582","images/orange1.png","","","learning","5","5","1","1","orange","fruit","1","0","","good","[6]"
"html-keyboard-response","128","502925","0.0-9.0-2.0-0.28","4077","1","23","Female","approach_avoid_spark_v1","""event"",""trial"",""time""
""fullscreenenter"",""1"",""2416""
","
","
","""event"",""trial"",""time""
""fullscreenenter"",""1"",""2416""
","
","","","","","","null","<div style=""font-size:60px;"">+</div>","null","","fixation","","","","","","","","","","",""
"aa-learning-trial","129","505928","0.0-9.0-2.0-1.28","4077","1","23","Female","approach_avoid_spark_v1","""event"",""trial"",""time""
""fullscreenenter"",""1"",""2416""
","
","
","""event"",""trial"",""time""
""fullscreenenter"",""1"",""2416""
","
","","","","","","878","images/banana8.png","","","learning","2","0","0","0","banana","fruit","1","0","","neutral","0"
"html-keyboard-response","130","506429","0.0-9.0-2.0-0.29","4077","1","23","Female","approach_avoid_spark_v1","""event"",""trial"",""time""
""fullscreenenter"",""1"",""2416""
","
","
","""event"",""trial"",""time""
""fullscreenenter"",""1"",""2416""
","
","","","","","","null","<div style=""font-size:60px;"">+</div>","null","","fixation","","","","","","","","","","",""
"aa-learning-trial","131","509431","0.0-9.0-2.0-1.29","4077","1","23","Female","approach_avoid_spark_v1","""event"",""trial"",""time""
""fullscreenenter"",""1"",""2416""
","
","
","""event"",""trial"",""time""
""fullscreenenter"",""1"",""2416""
","
","","","","","","656","images/orange6.png","","","learning","6","6","1","1","orange","fruit","1","0","","good","[6]"
"html-keyboard-response","132","509933","0.0-9.0-2.0-0.30","4077","1","23","Female","approach_avoid_spark_v1","""event"",""trial"",""time""
""fullscreenenter"",""1"",""2416""
","
","
","""event"",""trial"",""time""
""fullscreenenter"",""1"",""2416""
","
","","","","","","null","<div style=""font-size:60px;"">+</div>","null","","fixation","","","","","","","","","","",""
"aa-learning-trial","133","512934","0.0-9.0-2.0-1.30","4077","1","23","Female","approach_avoid_spark_v1","""event"",""trial"",""time""
""fullscreenenter"",""1"",""2416""
","
","
","""event"",""trial"",""time""
""fullscreenenter"",""1"",""2416""
","
","","","","","","1981","images/apple6.png","","","learning","-3","0","0","0","apple","fruit","1","0","","bad","[-3]"
"html-keyboard-response","134","513436","0.0-9.0-2.0-0.31","4077","1","23","Female","approach_avoid_spark_v1","""event"",""trial"",""time""
""fullscreenenter"",""1"",""2416""
","
","
","""event"",""trial"",""time""
""fullscreenenter"",""1"",""2416""
","
","","","","","","null","<div style=""font-size:60px;"">+</div>","null","","fixation","","","","","","","","","","",""
"aa-learning-trial","135","516438","0.0-9.0-2.0-1.31","4077","1","23","Female","approach_avoid_spark_v1","""event"",""trial"",""time""
""fullscreenenter"",""1"",""2416""
","
","
","""event"",""trial"",""time""
""fullscreenenter"",""1"",""2416""
","
","","","","","","785.9999999999418","images/banana2.png","","","learning","2","0","0","0","banana","fruit","1","0","","neutral","0"
"html-keyboard-response","136","516939","0.0-9.0-2.0-0.32","4077","1","23","Female","approach_avoid_spark_v1","""event"",""trial"",""time""
""fullscreenenter"",""1"",""2416""
","
","
","""event"",""trial"",""time""
""fullscreenenter"",""1"",""2416""
","
","","","","","","null","<div style=""font-size:60px;"">+</div>","null","","fixation","","","","","","","","","","",""
"aa-learning-trial","137","519941","0.0-9.0-2.0-1.32","4077","1","23","Female","approach_avoid_spark_v1","""event"",""trial"",""time""
""fullscreenenter"",""1"",""2416""
","
","
","""event"",""trial"",""time""
""fullscreenenter"",""1"",""2416""
","
","","","","","","941","images/apple6.png","","","learning","-6","-6","1","1","apple","fruit","1","0","","bad","[-3]"
"html-keyboard-response","138","520443","0.0-9.0-2.0-0.33","4077","1","23","Female","approach_avoid_spark_v1","""event"",""trial"",""time""
""fullscreenenter"",""1"",""2416""
","
","
","""event"",""trial"",""time""
""fullscreenenter"",""1"",""2416""
","
","","","","","","null","<div style=""font-size:60px;"">+</div>","null","","fixation","","","","","","","","","","",""
"aa-learning-trial","139","523445","0.0-9.0-2.0-1.33","4077","1","23","Female","approach_avoid_spark_v1","""event"",""trial"",""time""
""fullscreenenter"",""1"",""2416""
","
","
","""event"",""trial"",""time""
""fullscreenenter"",""1"",""2416""
","
","","","","","","1761.9999999999418","images/banana1.png","","","learning","1","1","1","1","banana","fruit","1","0","","neutral","0"
"html-keyboard-response","140","523946","0.0-9.0-2.0-0.34","4077","1","23","Female","approach_avoid_spark_v1","""event"",""trial"",""time""
""fullscreenenter"",""1"",""2416""
","
","
","""event"",""trial"",""time""
""fullscreenenter"",""1"",""2416""
","
","","","","","","null","<div style=""font-size:60px;"">+</div>","null","","fixation","","","","","","","","","","",""
"aa-learning-trial","141","526948","0.0-9.0-2.0-1.34","4077","1","23","Female","approach_avoid_spark_v1","""event"",""trial"",""time""
""fullscreenenter"",""1"",""2416""
","
","
","""event"",""trial"",""time""
""fullscreenenter"",""1"",""2416""
","
","","","","","","806","images/apple8.png","","","learning","-5","-5","1","1","apple","fruit","1","0","","bad","[-3]"
"html-keyboard-response","142","527450","0.0-9.0-2.0-0.35","4077","1","23","Female","approach_avoid_spark_v1","""event"",""trial"",""time""
""fullscreenenter"",""1"",""2416""
","
","
","""event"",""trial"",""time""
""fullscreenenter"",""1"",""2416""
","
","","","","","","null","<div style=""font-size:60px;"">+</div>","null","","fixation","","","","","","","","","","",""
"aa-learning-trial","143","530451","0.0-9.0-2.0-1.35","4077","1","23","Female","approach_avoid_spark_v1","""event"",""trial"",""time""
""fullscreenenter"",""1"",""2416""
","
","
","""event"",""trial"",""time""
""fullscreenenter"",""1"",""2416""
","
","","","","","","924","images/banana6.png","","","learning","[1]","0","0","0","banana","fruit","1","0","","neutral","0"
"html-keyboard-response","144","530953","0.0-9.0-2.0-0.36","4077","1","23","Female","approach_avoid_spark_v1","""event"",""trial"",""time""
""fullscreenenter"",""1"",""2416""
","
","
","""event"",""trial"",""time""
""fullscreenenter"",""1"",""2416""
","
","","","","","","null","<div style=""font-size:60px;"">+</div>","null","","fixation","","","","","","","","","","",""
"aa-learning-trial","145","533955","0.0-9.0-2.0-1.36","4077","1","23","Female","approach_avoid_spark_v1","""event"",""trial"",""time""
""fullscreenenter"",""1"",""2416""
","
","
","""event"",""trial"",""time""
""fullscreenenter"",""1"",""2416""
","
","","","","","","758","images/banana4.png","","","learning","1","0","0","0","banana","fruit","1","0","","neutral","0"
"html-keyboard-response","146","534456","0.0-9.0-2.0-0.37","4077","1","23","Female","approach_avoid_spark_v1","""event"",""trial"",""time""
""fullscreenenter"",""1"",""2416""
","
","
","""event"",""trial"",""time""
""fullscreenenter"",""1"",""2416""
","
","","","","","","null","<div style=""font-size:60px;"">+</div>","null","","fixation","","","","","","","","","","",""
"aa-learning-trial","147","537458","0.0-9.0-2.0-1.37","4077","1","23","Female","approach_avoid_spark_v1","""event"",""trial"",""time""
""fullscreenenter"",""1"",""2416""
","
","
","""event"",""trial"",""time""
""fullscreenenter"",""1"",""2416""
","
","","","","","","1013","images/apple3.png","","","learning","-3","0","0","0","apple","fruit","1","0","","bad","[-3]"
"html-keyboard-response","148","537960","0.0-9.0-2.0-0.38","4077","1","23","Female","approach_avoid_spark_v1","""event"",""trial"",""time""
""fullscreenenter"",""1"",""2416""
","
","
","""event"",""trial"",""time""
""fullscreenenter"",""1"",""2416""
","
","","","","","","null","<div style=""font-size:60px;"">+</div>","null","","fixation","","","","","","","","","","",""
"aa-learning-trial","149","540961","0.0-9.0-2.0-1.38","4077","1","23","Female","approach_avoid_spark_v1","""event"",""trial"",""time""
""fullscreenenter"",""1"",""2416""
","
","
","""event"",""trial"",""time""
""fullscreenenter"",""1"",""2416""
","
","","","","","","1447","images/banana2.png","","","learning","2","0","0","0","banana","fruit","1","0","","neutral","0"
"html-keyboard-response","150","541463","0.0-9.0-2.0-0.39","4077","1","23","Female","approach_avoid_spark_v1","""event"",""trial"",""time""
""fullscreenenter"",""1"",""2416""
","
","
","""event"",""trial"",""time""
""fullscreenenter"",""1"",""2416""
","
","","","","","","null","<div style=""font-size:60px;"">+</div>","null","","fixation","","","","","","","","","","",""
"aa-learning-trial","151","544465","0.0-9.0-2.0-1.39","4077","1","23","Female","approach_avoid_spark_v1","""event"",""trial"",""time""
""fullscreenenter"",""1"",""2416""
","
","
","""event"",""trial"",""time""
""fullscreenenter"",""1"",""2416""
","
","","","","","","716","images/orange4.png","","","learning","4","4","1","1","orange","fruit","1","0","","good","[6]"
"html-keyboard-response","152","544967","0.0-9.0-2.0-0.40","4077","1","23","Female","approach_avoid_spark_v1","""event"",""trial"",""time""
""fullscreenenter"",""1"",""2416""
","
","
","""event"",""trial"",""time""
""fullscreenenter"",""1"",""2416""
","
","","","","","","null","<div style=""font-size:60px;"">+</div>","null","","fixation","","","","","","","","","","",""
"aa-learning-trial","153","547968","0.0-9.0-2.0-1.40","4077","1","23","Female","approach_avoid_spark_v1","""event"",""trial"",""time""
""fullscreenenter"",""1"",""2416""
","
","
","""event"",""trial"",""time""
""fullscreenenter"",""1"",""2416""
","
","","","","","","801","images/apple2.png","","","learning","-6","-6","1","1","apple","fruit","1","0","","bad","[-3]"
"html-keyboard-response","154","548470","0.0-9.0-2.0-0.41","4077","1","23","Female","approach_avoid_spark_v1","""event"",""trial"",""time""
""fullscreenenter"",""1"",""2416""
","
","
","""event"",""trial"",""time""
""fullscreenenter"",""1"",""2416""
","
","","","","","","null","<div style=""font-size:60px;"">+</div>","null","","fixation","","","","","","","","","","",""
"aa-learning-trial","155","551471","0.0-9.0-2.0-1.41","4077","1","23","Female","approach_avoid_spark_v1","""event"",""trial"",""time""
""fullscreenenter"",""1"",""2416""
","
","
","""event"",""trial"",""time""
""fullscreenenter"",""1"",""2416""
","
","","","","","","950","images/banana6.png","","","learning","2","0","0","0","banana","fruit","1","0","","neutral","0"
"html-keyboard-response","156","551973","0.0-9.0-2.0-0.42","4077","1","23","Female","approach_avoid_spark_v1","""event"",""trial"",""time""
""fullscreenenter"",""1"",""2416""
","
","
","""event"",""trial"",""time""
""fullscreenenter"",""1"",""2416""
","
","","","","","","null","<div style=""font-size:60px;"">+</div>","null","","fixation","","","","","","","","","","",""
"aa-learning-trial","157","554975","0.0-9.0-2.0-1.42","4077","1","23","Female","approach_avoid_spark_v1","""event"",""trial"",""time""
""fullscreenenter"",""1"",""2416""
","
","
","""event"",""trial"",""time""
""fullscreenenter"",""1"",""2416""
","
","","","","","","819","images/banana6.png","","","learning","2","2","1","1","banana","fruit","1","0","","neutral","0"
"html-keyboard-response","158","555477","0.0-9.0-2.0-0.43","4077","1","23","Female","approach_avoid_spark_v1","""event"",""trial"",""time""
""fullscreenenter"",""1"",""2416""
","
","
","""event"",""trial"",""time""
""fullscreenenter"",""1"",""2416""
","
","","","","","","null","<div style=""font-size:60px;"">+</div>","null","","fixation","","","","","","","","","","",""
"aa-learning-trial","159","558479","0.0-9.0-2.0-1.43","4077","1","23","Female","approach_avoid_spark_v1","""event"",""trial"",""time""
""fullscreenenter"",""1"",""2416""
","
","
","""event"",""trial"",""time""
""fullscreenenter"",""1"",""2416""
","
","","","","","","529","images/orange6.png","","","learning","5","5","1","1","orange","fruit","1","0","","good","[6]"
"html-keyboard-response","160","558980","0.0-9.0-2.0-0.44","4077","1","23","Female","approach_avoid_spark_v1","""event"",""trial"",""time""
""fullscreenenter"",""1"",""2416""
","
","
","""event"",""trial"",""time""
""fullscreenenter"",""1"",""2416""
","
","","","","","","null","<div style=""font-size:60px;"">+</div>","null","","fixation","","","","","","","","","","",""
"aa-learning-trial","161","561982","0.0-9.0-2.0-1.44","4077","1","23","Female","approach_avoid_spark_v1","""event"",""trial"",""time""
""fullscreenenter"",""1"",""2416""
","
","
","""event"",""trial"",""time""
""fullscreenenter"",""1"",""2416""
","
","","","","","","772","images/apple6.png","","","learning","-2","-2","1","1","apple","fruit","1","0","","bad","[-3]"
"html-keyboard-response","162","562484","0.0-9.0-2.0-0.45","4077","1","23","Female","approach_avoid_spark_v1","""event"",""trial"",""time""
""fullscreenenter"",""1"",""2416""
","
","
","""event"",""trial"",""time""
""fullscreenenter"",""1"",""2416""
","
","","","","","","null","<div style=""font-size:60px;"">+</div>","null","","fixation","","","","","","","","","","",""
"aa-learning-trial","163","565485","0.0-9.0-2.0-1.45","4077","1","23","Female","approach_avoid_spark_v1","""event"",""trial"",""time""
""fullscreenenter"",""1"",""2416""
","
","
","""event"",""trial"",""time""
""fullscreenenter"",""1"",""2416""
","
","","","","","","803","images/apple6.png","","","learning","-6","0","0","0","apple","fruit","1","0","","bad","[-3]"
"html-keyboard-response","164","565987","0.0-9.0-2.0-0.46","4077","1","23","Female","approach_avoid_spark_v1","""event"",""trial"",""time""
""fullscreenenter"",""1"",""2416""
","
","
","""event"",""trial"",""time""
""fullscreenenter"",""1"",""2416""
","
","","","","","","null","<div style=""font-size:60px;"">+</div>","null","","fixation","","","","","","","","","","",""
"aa-learning-trial","165","568989","0.0-9.0-2.0-1.46","4077","1","23","Female","approach_avoid_spark_v1","""event"",""trial"",""time""
""fullscreenenter"",""1"",""2416""
","
","
","""event"",""trial"",""time""
""fullscreenenter"",""1"",""2416""
","
","","","","","","799","images/orange3.png","","","learning","9","9","1","1","orange","fruit","1","0","","good","[6]"
"html-keyboard-response","166","569491","0.0-9.0-2.0-0.47","4077","1","23","Female","approach_avoid_spark_v1","""event"",""trial"",""time""
""fullscreenenter"",""1"",""2416""
","
","
","""event"",""trial"",""time""
""fullscreenenter"",""1"",""2416""
","
","","","","","","null","<div style=""font-size:60px;"">+</div>","null","","fixation","","","","","","","","","","",""
"aa-learning-trial","167","572492","0.0-9.0-2.0-1.47","4077","1","23","Female","approach_avoid_spark_v1","""event"",""trial"",""time""
""fullscreenenter"",""1"",""2416""
","
","
","""event"",""trial"",""time""
""fullscreenenter"",""1"",""2416""
","
","","","","","","959","images/apple3.png","","","learning","-2","0","0","0","apple","fruit","1","0","","bad","[-3]"
"html-keyboard-response","168","572994","0.0-9.0-2.0-0.48","4077","1","23","Female","approach_avoid_spark_v1","""event"",""trial"",""time""
""fullscreenenter"",""1"",""2416""
","
","
","""event"",""trial"",""time""
""fullscreenenter"",""1"",""2416""
","
","","","","","","null","<div style=""font-size:60px;"">+</div>","null","","fixation","","","","","","","","","","",""
"aa-learning-trial","169","575996","0.0-9.0-2.0-1.48","4077","1","23","Female","approach_avoid_spark_v1","""event"",""trial"",""time""
""fullscreenenter"",""1"",""2416""
","
","
","""event"",""trial"",""time""
""fullscreenenter"",""1"",""2416""
","
","","","","","","624","images/orange6.png","","","learning","5","5","1","1","orange","fruit","1","0","","good","[6]"
"html-keyboard-response","170","576497","0.0-9.0-2.0-0.49","4077","1","23","Female","approach_avoid_spark_v1","""event"",""trial"",""time""
""fullscreenenter"",""1"",""2416""
","
","
","""event"",""trial"",""time""
""fullscreenenter"",""1"",""2416""
","
","","","","","","null","<div style=""font-size:60px;"">+</div>","null","","fixation","","","","","","","","","","",""
"aa-learning-trial","171","579499","0.0-9.0-2.0-1.49","4077","1","23","Female","approach_avoid_spark_v1","""event"",""trial"",""time""
""fullscreenenter"",""1"",""2416""
","
","
","""event"",""trial"",""time""
""fullscreenenter"",""1"",""2416""
","
","","","","","","1013","images/apple7.png","","","learning","2","0","0","0","apple","fruit","1","0","","bad","[-3]"
"html-keyboard-response","172","580001","0.0-9.0-2.0-0.50","4077","1","23","Female","approach_avoid_spark_v1","""event"",""trial"",""time""
""fullscreenenter"",""1"",""2416""
","
","
","""event"",""trial"",""time""
""fullscreenenter"",""1"",""2416""
","
","","","","","","null","<div style=""font-size:60px;"">+</div>","null","","fixation","","","","","","","","","","",""
"aa-learning-trial","173","583003","0.0-9.0-2.0-1.50","4077","1","23","Female","approach_avoid_spark_v1","""event"",""trial"",""time""
""fullscreenenter"",""1"",""2416""
","
","
","""event"",""trial"",""time""
""fullscreenenter"",""1"",""2416""
","
","","","","","","627","images/orange6.png","","","learning","4","4","1","1","orange","fruit","1","0","","good","[6]"
"html-button-response","174","585355","0.0-9.0-3.0","4077","1","23","Female","approach_avoid_spark_v1","""event"",""trial"",""time""
""fullscreenenter"",""1"",""2416""
","
","
","""event"",""trial"",""time""
""fullscreenenter"",""1"",""2416""
","
","","","","","","2351","<p> You have completed the round! <p> In this round, you earned 63 points! </p>","0","","break","","","","","","","","","","",""
"html-button-response","175","586405","0.0-10.0","4077","1","23","Female","approach_avoid_spark_v1","""event"",""trial"",""time""
""fullscreenenter"",""1"",""2416""
","
","
","""event"",""trial"",""time""
""fullscreenenter"",""1"",""2416""
","
","","","","","","1049","<p> Now it's time to play another round. </p>","0","","transition_screen","","","","","","","","","","",""
"preload","176","586514","0.0-11.0-0.0","4077","1","23","Female","approach_avoid_spark_v1","""event"",""trial"",""time""
""fullscreenenter"",""1"",""2416""
","
","
","""event"",""trial"",""time""
""fullscreenenter"",""1"",""2416""
","
","true","false","[]","[]","[]","","","","","","","","","","","","","","","",""
"learning-instructions","177","592232","0.0-11.0-1.0-0.0","4077","1","23","Female","approach_avoid_spark_v1","""event"",""trial"",""time""
""fullscreenenter"",""1"",""2416""
","
","
","""event"",""trial"",""time""
""fullscreenenter"",""1"",""2416""
","
","","","","","","1836","<p> Your goal in this round is to take care of lots of animals. </p></div>","","0","instructions","","","","","","","","","","",""
"learning-instructions","178","603256","0.0-11.0-1.0-0.1","4077","1","23","Female","approach_avoid_spark_v1","""event"",""trial"",""time""
""fullscreenenter"",""1"",""2416""
","
","
","""event"",""trial"",""time""
""fullscreenenter"",""1"",""2416""
","
","","","","","","1201","<p> Some animals want to be pet, while other animals want to be left alone.  </p><p> On each turn, you will see an animal.   </p><p> You need to decide whether to pet it or not.  </p>","","0","instructions","","","","","","","","","","",""
"learning-instructions","179","608952","0.0-11.0-1.0-0.2","4077","1","23","Female","approach_avoid_spark_v1","""event"",""trial"",""time""
""fullscreenenter"",""1"",""2416""
","
","
","""event"",""trial"",""time""
""fullscreenenter"",""1"",""2416""
","
","","","","","","378","<p> You can pet the animal by pressing 1 and leave the animal alone by pressing 0. </p><br><div class=""choice-instructions-grid""> <div class=""choice-option""><img src=""images/approach.png"" class=""choice-option-img"" stage=""instructions"" position=""0"" ><div class=""choice-option-text""> Press ""1."" </div></div><div class=""choice-option""><img src=""images/avoid.png"" class=""choice-option-img"" stage=""instructions"" position=""1"" ><div class=""choice-option-text""> Press ""0."" </div></div>","","0","instructions","","","","","","","","","","",""
"learning-instructions","180","618234","0.0-11.0-1.0-0.3","4077","1","23","Female","approach_avoid_spark_v1","""event"",""trial"",""time""
""fullscreenenter"",""1"",""2416""
","
","
","""event"",""trial"",""time""
""fullscreenenter"",""1"",""2416""
","
","","","","","","508","<p> If you pet an animal that wants to be pet, you will make it feel happy! </p><p> But if you pet an animal that wants to be left alone, you will make it feel angry. </p>","","0","instructions","","","","","","","","","","",""
"learning-instructions","181","631447","0.0-11.0-1.0-0.4","4077","1","23","Female","approach_avoid_spark_v1","""event"",""trial"",""time""
""fullscreenenter"",""1"",""2416""
","
","
","""event"",""trial"",""time""
""fullscreenenter"",""1"",""2416""
","
","","","","","","649","<p> You will earn points based on how you made the animal feel. </p><p> If you made it feel happy, you will WIN anywhere from 1 - 9 points, </p><p> but if you made it feel angry, you will LOSE anywhere from 1 - 9 points. </p>","","0","instructions","","","","","","","","","","",""
"learning-instructions","182","638582","0.0-11.0-1.0-0.5","4077","1","23","Female","approach_avoid_spark_v1","""event"",""trial"",""time""
""fullscreenenter"",""1"",""2416""
","
","
","""event"",""trial"",""time""
""fullscreenenter"",""1"",""2416""
","
","","","","","","486","<p> You will see how many points you won or lost in the center of the screen. </p><p> Here is what you would see if you won 5 points: </p><p style=""color:green;font-size:50px;font-weight:bolder"">5</p>","","0","instructions","","","","","","","","","","",""
"learning-instructions","183","641891","0.0-11.0-1.0-0.6","4077","1","23","Female","approach_avoid_spark_v1","""event"",""trial"",""time""
""fullscreenenter"",""1"",""2416""
","
","
","""event"",""trial"",""time""
""fullscreenenter"",""1"",""2416""
","
","","","","","","479.9999999998836","<p> And here is what you would see if you lost 3 points: </p><p style=""color:red;font-size:50px;font-weight:bolder"">-3</p>","","0","instructions","","","","","","","","","","",""
"learning-instructions","184","657620","0.0-11.0-1.0-0.7","4077","1","23","Female","approach_avoid_spark_v1","""event"",""trial"",""time""
""fullscreenenter"",""1"",""2416""
","
","
","""event"",""trial"",""time""
""fullscreenenter"",""1"",""2416""
","
","","","","","","1188","<p> Some animals will become very happy or very angry. </p><p> These animals will make you win or lose LOTS of points. </p><p> Other animals have less strong feelings. </p><p> These animals will make you win or lose small amounts of points. </p>","","0","instructions","","","","","","","","","","",""
"learning-instructions","185","671409","0.0-11.0-1.0-0.8","4077","1","23","Female","approach_avoid_spark_v1","""event"",""trial"",""time""
""fullscreenenter"",""1"",""2416""
","
","
","""event"",""trial"",""time""
""fullscreenenter"",""1"",""2416""
","
","","","","","","2501","<p> If you choose to leave the animal alone, you will not win or lose any points. </p><p>  However, in the center of the screen, you will see the number of points you WOULD HAVE won or lost if you had pet the animal. </p>","","0","instructions","","","","","","","","","","",""
"learning-instructions","186","684368","0.0-11.0-1.0-0.9","4077","1","23","Female","approach_avoid_spark_v1","""event"",""trial"",""time""
""fullscreenenter"",""1"",""2416""
","
","
","""event"",""trial"",""time""
""fullscreenenter"",""1"",""2416""
","
","","","","","","1320","<p> Here is what you might see if you did not pet the animal but the animal wanted to be pet: </p><p style=""color:grey; font-size:50px; display: inline-block; border-spacing: 15px; border-width:3px; border-style:solid; border-color:red"">  &nbsp; 6 &nbsp; </p><p> Remember, in this case, you would not win or lose ANY points because you did not pet the animal.  </p>","","0","instructions","","","","","","","","","","",""
"learning-instructions","187","691942","0.0-11.0-1.0-0.10","4077","1","23","Female","approach_avoid_spark_v1","""event"",""trial"",""time""
""fullscreenenter"",""1"",""2416""
","
","
","""event"",""trial"",""time""
""fullscreenenter"",""1"",""2416""
","
","","","","","","581","<p> Try to make the best choice for each animal because </p><p> at the end of the game, you will earn bonus money based on how many points you earned. </p>","","0","instructions","","","","","","","","","","",""
"learning-instructions","188","700789","0.0-11.0-1.0-0.11","4077","1","23","Female","approach_avoid_spark_v1","""event"",""trial"",""time""
""fullscreenenter"",""1"",""2416""
","
","
","""event"",""trial"",""time""
""fullscreenenter"",""1"",""2416""
","
","","","","","","664","<p> You will have 3 seconds to make each choice. Try to respond before time runs out! </p><p> You will lose 5 points each time you do not make a response. </p>","","0","instructions","","","","","","","","","","",""
"html-keyboard-response","189","701392","0.0-11.0-2.0-0.0","4077","1","23","Female","approach_avoid_spark_v1","""event"",""trial"",""time""
""fullscreenenter"",""1"",""2416""
","
","
","""event"",""trial"",""time""
""fullscreenenter"",""1"",""2416""
","
","","","","","","null","<div style=""font-size:60px;"">+</div>","null","","fixation","","","","","","","","","","",""
"aa-learning-trial","190","704394","0.0-11.0-2.0-1.0","4077","1","23","Female","approach_avoid_spark_v1","""event"",""trial"",""time""
""fullscreenenter"",""1"",""2416""
","
","
","""event"",""trial"",""time""
""fullscreenenter"",""1"",""2416""
","
","","","","","","1677","images/dog3.png","","","learning","2","2","1","1","dog","pets","2","1","","good","[6]"
"html-keyboard-response","191","704896","0.0-11.0-2.0-0.1","4077","1","23","Female","approach_avoid_spark_v1","""event"",""trial"",""time""
""fullscreenenter"",""1"",""2416""
","
","
","""event"",""trial"",""time""
""fullscreenenter"",""1"",""2416""
","
","","","","","","null","<div style=""font-size:60px;"">+</div>","null","","fixation","","","","","","","","","","",""
"aa-learning-trial","192","707897","0.0-11.0-2.0-1.1","4077","1","23","Female","approach_avoid_spark_v1","""event"",""trial"",""time""
""fullscreenenter"",""1"",""2416""
","
","
","""event"",""trial"",""time""
""fullscreenenter"",""1"",""2416""
","
","","","","","","916","images/rodent3.png","","","learning","-1","0","0","0","rodent","pets","2","1","","bad","[-3]"
"html-keyboard-response","193","708399","0.0-11.0-2.0-0.2","4077","1","23","Female","approach_avoid_spark_v1","""event"",""trial"",""time""
""fullscreenenter"",""1"",""2416""
","
","
","""event"",""trial"",""time""
""fullscreenenter"",""1"",""2416""
","
","","","","","","null","<div style=""font-size:60px;"">+</div>","null","","fixation","","","","","","","","","","",""
"aa-learning-trial","194","711401","0.0-11.0-2.0-1.2","4077","1","23","Female","approach_avoid_spark_v1","""event"",""trial"",""time""
""fullscreenenter"",""1"",""2416""
","
","
","""event"",""trial"",""time""
""fullscreenenter"",""1"",""2416""
","
","","","","","","590.0000000001164","images/rabbit5.png","","","learning","-2","-2","1","1","rabbit","pets","2","1","","neutral","0"
"html-keyboard-response","195","711902","0.0-11.0-2.0-0.3","4077","1","23","Female","approach_avoid_spark_v1","""event"",""trial"",""time""
""fullscreenenter"",""1"",""2416""
","
","
","""event"",""trial"",""time""
""fullscreenenter"",""1"",""2416""
","
","","","","","","null","<div style=""font-size:60px;"">+</div>","null","","fixation","","","","","","","","","","",""
"aa-learning-trial","196","714904","0.0-11.0-2.0-1.3","4077","1","23","Female","approach_avoid_spark_v1","""event"",""trial"",""time""
""fullscreenenter"",""1"",""2416""
","
","
","""event"",""trial"",""time""
""fullscreenenter"",""1"",""2416""
","
","","","","","","621","images/dog7.png","","","learning","3","3","1","1","dog","pets","2","1","","good","[6]"
"html-keyboard-response","197","715406","0.0-11.0-2.0-0.4","4077","1","23","Female","approach_avoid_spark_v1","""event"",""trial"",""time""
""fullscreenenter"",""1"",""2416""
","
","
","""event"",""trial"",""time""
""fullscreenenter"",""1"",""2416""
","
","","","","","","null","<div style=""font-size:60px;"">+</div>","null","","fixation","","","","","","","","","","",""
"aa-learning-trial","198","718408","0.0-11.0-2.0-1.4","4077","1","23","Female","approach_avoid_spark_v1","""event"",""trial"",""time""
""fullscreenenter"",""1"",""2416""
","
","
","""event"",""trial"",""time""
""fullscreenenter"",""1"",""2416""
","
","","","","","","496","images/dog3.png","","","learning","2","2","1","1","dog","pets","2","1","","good","[6]"
"html-keyboard-response","199","718909","0.0-11.0-2.0-0.5","4077","1","23","Female","approach_avoid_spark_v1","""event"",""trial"",""time""
""fullscreenenter"",""1"",""2416""
","
","
","""event"",""trial"",""time""
""fullscreenenter"",""1"",""2416""
","
","","","","","","null","<div style=""font-size:60px;"">+</div>","null","","fixation","","","","","","","","","","",""
"aa-learning-trial","200","721911","0.0-11.0-2.0-1.5","4077","1","23","Female","approach_avoid_spark_v1","""event"",""trial"",""time""
""fullscreenenter"",""1"",""2416""
","
","
","""event"",""trial"",""time""
""fullscreenenter"",""1"",""2416""
","
","","","","","","853","images/rabbit4.png","","","learning","-4","-4","1","1","rabbit","pets","2","1","","neutral","0"
"html-keyboard-response","201","722413","0.0-11.0-2.0-0.6","4077","1","23","Female","approach_avoid_spark_v1","""event"",""trial"",""time""
""fullscreenenter"",""1"",""2416""
","
","
","""event"",""trial"",""time""
""fullscreenenter"",""1"",""2416""
","
","","","","","","null","<div style=""font-size:60px;"">+</div>","null","","fixation","","","","","","","","","","",""
"aa-learning-trial","202","725414","0.0-11.0-2.0-1.6","4077","1","23","Female","approach_avoid_spark_v1","""event"",""trial"",""time""
""fullscreenenter"",""1"",""2416""
","
","
","""event"",""trial"",""time""
""fullscreenenter"",""1"",""2416""
","
","","","","","","507.9999999998836","images/dog7.png","","","learning","3","3","1","1","dog","pets","2","1","","good","[6]"
"html-keyboard-response","203","725916","0.0-11.0-2.0-0.7","4077","1","23","Female","approach_avoid_spark_v1","""event"",""trial"",""time""
""fullscreenenter"",""1"",""2416""
","
","
","""event"",""trial"",""time""
""fullscreenenter"",""1"",""2416""
","
","","","","","","null","<div style=""font-size:60px;"">+</div>","null","","fixation","","","","","","","","","","",""
"aa-learning-trial","204","728918","0.0-11.0-2.0-1.7","4077","1","23","Female","approach_avoid_spark_v1","""event"",""trial"",""time""
""fullscreenenter"",""1"",""2416""
","
","
","""event"",""trial"",""time""
""fullscreenenter"",""1"",""2416""
","
","","","","","","520","images/rabbit5.png","","","learning","-2","0","0","0","rabbit","pets","2","1","","neutral","0"
"html-keyboard-response","205","729419","0.0-11.0-2.0-0.8","4077","1","23","Female","approach_avoid_spark_v1","""event"",""trial"",""time""
""fullscreenenter"",""1"",""2416""
","
","
","""event"",""trial"",""time""
""fullscreenenter"",""1"",""2416""
","
","","","","","","null","<div style=""font-size:60px;"">+</div>","null","","fixation","","","","","","","","","","",""
"aa-learning-trial","206","732421","0.0-11.0-2.0-1.8","4077","1","23","Female","approach_avoid_spark_v1","""event"",""trial"",""time""
""fullscreenenter"",""1"",""2416""
","
","
","""event"",""trial"",""time""
""fullscreenenter"",""1"",""2416""
","
","","","","","","775","images/rabbit3.png","","","learning","4","0","0","0","rabbit","pets","2","1","","neutral","0"
"html-keyboard-response","207","732923","0.0-11.0-2.0-0.9","4077","1","23","Female","approach_avoid_spark_v1","""event"",""trial"",""time""
""fullscreenenter"",""1"",""2416""
","
","
","""event"",""trial"",""time""
""fullscreenenter"",""1"",""2416""
","
","","","","","","null","<div style=""font-size:60px;"">+</div>","null","","fixation","","","","","","","","","","",""
"aa-learning-trial","208","735925","0.0-11.0-2.0-1.9","4077","1","23","Female","approach_avoid_spark_v1","""event"",""trial"",""time""
""fullscreenenter"",""1"",""2416""
","
","
","""event"",""trial"",""time""
""fullscreenenter"",""1"",""2416""
","
","","","","","","974","images/rodent6.png","","","learning","-5","0","0","0","rodent","pets","2","1","","bad","[-3]"
"html-keyboard-response","209","736426","0.0-11.0-2.0-0.10","4077","1","23","Female","approach_avoid_spark_v1","""event"",""trial"",""time""
""fullscreenenter"",""1"",""2416""
","
","
","""event"",""trial"",""time""
""fullscreenenter"",""1"",""2416""
","
","","","","","","null","<div style=""font-size:60px;"">+</div>","null","","fixation","","","","","","","","","","",""
"aa-learning-trial","210","739428","0.0-11.0-2.0-1.10","4077","1","23","Female","approach_avoid_spark_v1","""event"",""trial"",""time""
""fullscreenenter"",""1"",""2416""
","
","
","""event"",""trial"",""time""
""fullscreenenter"",""1"",""2416""
","
","","","","","","611","images/rodent8.png","","","learning","-6","-6","1","1","rodent","pets","2","1","","bad","[-3]"
"html-keyboard-response","211","739930","0.0-11.0-2.0-0.11","4077","1","23","Female","approach_avoid_spark_v1","""event"",""trial"",""time""
""fullscreenenter"",""1"",""2416""
","
","
","""event"",""trial"",""time""
""fullscreenenter"",""1"",""2416""
","
","","","","","","null","<div style=""font-size:60px;"">+</div>","null","","fixation","","","","","","","","","","",""
"aa-learning-trial","212","742932","0.0-11.0-2.0-1.11","4077","1","23","Female","approach_avoid_spark_v1","""event"",""trial"",""time""
""fullscreenenter"",""1"",""2416""
","
","
","""event"",""trial"",""time""
""fullscreenenter"",""1"",""2416""
","
","","","","","","794","images/rodent8.png","","","learning","-6","0","0","0","rodent","pets","2","1","","bad","[-3]"
"html-keyboard-response","213","743433","0.0-11.0-2.0-0.12","4077","1","23","Female","approach_avoid_spark_v1","""event"",""trial"",""time""
""fullscreenenter"",""1"",""2416""
","
","
","""event"",""trial"",""time""
""fullscreenenter"",""1"",""2416""
","
","","","","","","null","<div style=""font-size:60px;"">+</div>","null","","fixation","","","","","","","","","","",""
"aa-learning-trial","214","746435","0.0-11.0-2.0-1.12","4077","1","23","Female","approach_avoid_spark_v1","""event"",""trial"",""time""
""fullscreenenter"",""1"",""2416""
","
","
","""event"",""trial"",""time""
""fullscreenenter"",""1"",""2416""
","
","","","","","","1060","images/rodent6.png","","","learning","-5","-5","1","1","rodent","pets","2","1","","bad","[-3]"
"html-keyboard-response","215","746936","0.0-11.0-2.0-0.13","4077","1","23","Female","approach_avoid_spark_v1","""event"",""trial"",""time""
""fullscreenenter"",""1"",""2416""
","
","
","""event"",""trial"",""time""
""fullscreenenter"",""1"",""2416""
","
","","","","","","null","<div style=""font-size:60px;"">+</div>","null","","fixation","","","","","","","","","","",""
"aa-learning-trial","216","749938","0.0-11.0-2.0-1.13","4077","1","23","Female","approach_avoid_spark_v1","""event"",""trial"",""time""
""fullscreenenter"",""1"",""2416""
","
","
","""event"",""trial"",""time""
""fullscreenenter"",""1"",""2416""
","
","","","","","","784","images/dog5.png","","","learning","-8","-8","1","1","dog","pets","2","1","","good","[6]"
"html-keyboard-response","217","750440","0.0-11.0-2.0-0.14","4077","1","23","Female","approach_avoid_spark_v1","""event"",""trial"",""time""
""fullscreenenter"",""1"",""2416""
","
","
","""event"",""trial"",""time""
""fullscreenenter"",""1"",""2416""
","
","","","","","","null","<div style=""font-size:60px;"">+</div>","null","","fixation","","","","","","","","","","",""
"aa-learning-trial","218","753442","0.0-11.0-2.0-1.14","4077","1","23","Female","approach_avoid_spark_v1","""event"",""trial"",""time""
""fullscreenenter"",""1"",""2416""
","
","
","""event"",""trial"",""time""
""fullscreenenter"",""1"",""2416""
","
","","","","","","1533","images/rabbit4.png","","","learning","-4","0","0","0","rabbit","pets","2","1","","neutral","0"
"html-keyboard-response","219","753943","0.0-11.0-2.0-0.15","4077","1","23","Female","approach_avoid_spark_v1","""event"",""trial"",""time""
""fullscreenenter"",""1"",""2416""
","
","
","""event"",""trial"",""time""
""fullscreenenter"",""1"",""2416""
","
","","","","","","null","<div style=""font-size:60px;"">+</div>","null","","fixation","","","","","","","","","","",""
"aa-learning-trial","220","756945","0.0-11.0-2.0-1.15","4077","1","23","Female","approach_avoid_spark_v1","""event"",""trial"",""time""
""fullscreenenter"",""1"",""2416""
","
","
","""event"",""trial"",""time""
""fullscreenenter"",""1"",""2416""
","
","","","","","","1004.0000000001164","images/rabbit4.png","","","learning","-4","0","0","0","rabbit","pets","2","1","","neutral","0"
"html-keyboard-response","221","757447","0.0-11.0-2.0-0.16","4077","1","23","Female","approach_avoid_spark_v1","""event"",""trial"",""time""
""fullscreenenter"",""1"",""2416""
","
","
","""event"",""trial"",""time""
""fullscreenenter"",""1"",""2416""
","
","","","","","","null","<div style=""font-size:60px;"">+</div>","null","","fixation","","","","","","","","","","",""
"aa-learning-trial","222","760449","0.0-11.0-2.0-1.16","4077","1","23","Female","approach_avoid_spark_v1","""event"",""trial"",""time""
""fullscreenenter"",""1"",""2416""
","
","
","""event"",""trial"",""time""
""fullscreenenter"",""1"",""2416""
","
","","","","","","1505","images/rabbit3.png","","","learning","4","0","0","0","rabbit","pets","2","1","","neutral","0"
"html-keyboard-response","223","760950","0.0-11.0-2.0-0.17","4077","1","23","Female","approach_avoid_spark_v1","""event"",""trial"",""time""
""fullscreenenter"",""1"",""2416""
","
","
","""event"",""trial"",""time""
""fullscreenenter"",""1"",""2416""
","
","","","","","","null","<div style=""font-size:60px;"">+</div>","null","","fixation","","","","","","","","","","",""
"aa-learning-trial","224","763952","0.0-11.0-2.0-1.17","4077","1","23","Female","approach_avoid_spark_v1","""event"",""trial"",""time""
""fullscreenenter"",""1"",""2416""
","
","
","""event"",""trial"",""time""
""fullscreenenter"",""1"",""2416""
","
","","","","","","665.0000000001164","images/rabbit1.png","","","learning","-9","-9","1","1","rabbit","pets","2","1","","neutral","0"
"html-keyboard-response","225","764454","0.0-11.0-2.0-0.18","4077","1","23","Female","approach_avoid_spark_v1","""event"",""trial"",""time""
""fullscreenenter"",""1"",""2416""
","
","
","""event"",""trial"",""time""
""fullscreenenter"",""1"",""2416""
","
","","","","","","null","<div style=""font-size:60px;"">+</div>","null","","fixation","","","","","","","","","","",""
"aa-learning-trial","226","767455","0.0-11.0-2.0-1.18","4077","1","23","Female","approach_avoid_spark_v1","""event"",""trial"",""time""
""fullscreenenter"",""1"",""2416""
","
","
","""event"",""trial"",""time""
""fullscreenenter"",""1"",""2416""
","
","","","","","","1027","images/rodent4.png","","","learning","9","9","1","1","rodent","pets","2","1","","bad","[-3]"
"html-keyboard-response","227","767957","0.0-11.0-2.0-0.19","4077","1","23","Female","approach_avoid_spark_v1","""event"",""trial"",""time""
""fullscreenenter"",""1"",""2416""
","
","
","""event"",""trial"",""time""
""fullscreenenter"",""1"",""2416""
","
","","","","","","null","<div style=""font-size:60px;"">+</div>","null","","fixation","","","","","","","","","","",""
"aa-learning-trial","228","770959","0.0-11.0-2.0-1.19","4077","1","23","Female","approach_avoid_spark_v1","""event"",""trial"",""time""
""fullscreenenter"",""1"",""2416""
","
","
","""event"",""trial"",""time""
""fullscreenenter"",""1"",""2416""
","
","","","","","","913","images/rodent8.png","","","learning","-6","0","0","0","rodent","pets","2","1","","bad","[-3]"
"html-keyboard-response","229","771460","0.0-11.0-2.0-0.20","4077","1","23","Female","approach_avoid_spark_v1","""event"",""trial"",""time""
""fullscreenenter"",""1"",""2416""
","
","
","""event"",""trial"",""time""
""fullscreenenter"",""1"",""2416""
","
","","","","","","null","<div style=""font-size:60px;"">+</div>","null","","fixation","","","","","","","","","","",""
"aa-learning-trial","230","774462","0.0-11.0-2.0-1.20","4077","1","23","Female","approach_avoid_spark_v1","""event"",""trial"",""time""
""fullscreenenter"",""1"",""2416""
","
","
","""event"",""trial"",""time""
""fullscreenenter"",""1"",""2416""
","
","","","","","","1005","images/dog3.png","","","learning","2","2","1","1","dog","pets","2","1","","good","[6]"
"html-keyboard-response","231","774963","0.0-11.0-2.0-0.21","4077","1","23","Female","approach_avoid_spark_v1","""event"",""trial"",""time""
""fullscreenenter"",""1"",""2416""
","
","
","""event"",""trial"",""time""
""fullscreenenter"",""1"",""2416""
","
","","","","","","null","<div style=""font-size:60px;"">+</div>","null","","fixation","","","","","","","","","","",""
"aa-learning-trial","232","777966","0.0-11.0-2.0-1.21","4077","1","23","Female","approach_avoid_spark_v1","""event"",""trial"",""time""
""fullscreenenter"",""1"",""2416""
","
","
","""event"",""trial"",""time""
""fullscreenenter"",""1"",""2416""
","
","","","","","","498","images/dog3.png","","","learning","2","2","1","1","dog","pets","2","1","","good","[6]"
"html-keyboard-response","233","778467","0.0-11.0-2.0-0.22","4077","1","23","Female","approach_avoid_spark_v1","""event"",""trial"",""time""
""fullscreenenter"",""1"",""2416""
","
","
","""event"",""trial"",""time""
""fullscreenenter"",""1"",""2416""
","
","","","","","","null","<div style=""font-size:60px;"">+</div>","null","","fixation","","","","","","","","","","",""
"aa-learning-trial","234","781469","0.0-11.0-2.0-1.22","4077","1","23","Female","approach_avoid_spark_v1","""event"",""trial"",""time""
""fullscreenenter"",""1"",""2416""
","
","
","""event"",""trial"",""time""
""fullscreenenter"",""1"",""2416""
","
","","","","","","1002.9999999998836","images/rodent3.png","","","learning","-1","-1","1","1","rodent","pets","2","1","","bad","[-3]"
"html-keyboard-response","235","781971","0.0-11.0-2.0-0.23","4077","1","23","Female","approach_avoid_spark_v1","""event"",""trial"",""time""
""fullscreenenter"",""1"",""2416""
","
","
","""event"",""trial"",""time""
""fullscreenenter"",""1"",""2416""
","
","","","","","","null","<div style=""font-size:60px;"">+</div>","null","","fixation","","","","","","","","","","",""
"aa-learning-trial","236","784972","0.0-11.0-2.0-1.23","4077","1","23","Female","approach_avoid_spark_v1","""event"",""trial"",""time""
""fullscreenenter"",""1"",""2416""
","
","
","""event"",""trial"",""time""
""fullscreenenter"",""1"",""2416""
","
","","","","","","962","images/rodent6.png","","","learning","-5","-5","1","1","rodent","pets","2","1","","bad","[-3]"
"html-keyboard-response","237","785475","0.0-11.0-2.0-0.24","4077","1","23","Female","approach_avoid_spark_v1","""event"",""trial"",""time""
""fullscreenenter"",""1"",""2416""
","
","
","""event"",""trial"",""time""
""fullscreenenter"",""1"",""2416""
","
","","","","","","null","<div style=""font-size:60px;"">+</div>","null","","fixation","","","","","","","","","","",""
"aa-learning-trial","238","788476","0.0-11.0-2.0-1.24","4077","1","23","Female","approach_avoid_spark_v1","""event"",""trial"",""time""
""fullscreenenter"",""1"",""2416""
","
","
","""event"",""trial"",""time""
""fullscreenenter"",""1"",""2416""
","
","","","","","","1010","images/rabbit4.png","","","learning","-4","0","0","0","rabbit","pets","2","1","","neutral","0"
"html-keyboard-response","239","788976","0.0-11.0-2.0-0.25","4077","1","23","Female","approach_avoid_spark_v1","""event"",""trial"",""time""
""fullscreenenter"",""1"",""2416""
","
","
","""event"",""trial"",""time""
""fullscreenenter"",""1"",""2416""
","
","","","","","","null","<div style=""font-size:60px;"">+</div>","null","","fixation","","","","","","","","","","",""
"aa-learning-trial","240","791979","0.0-11.0-2.0-1.25","4077","1","23","Female","approach_avoid_spark_v1","""event"",""trial"",""time""
