"trial_type","trial_index","time_elapsed","internal_node_id","subject_id","task_condition","age","gender","task_version","interactions","blur_events","focus_events","fullscreenenter_events","fullscreenexit_events","success","timeout","failed_images","failed_audio","failed_video","rt","stimulus","response","button_pressed","task_part","approach_reward","points","key_press","option_selected","stim_cat","task_block","block_condition","block_number","correct","cat_type","mean_cat_reward"
"pavlovia","0","5","0.0-0.0","5813","2","13","Female","approach_avoid_spark_v1","""event"",""trial"",""time""
""fullscreenenter"",""1"",""12343""
","
","
","""event"",""trial"",""time""
""fullscreenenter"",""1"",""12343""
","
","","","","","","","","","","","","","","","","","","","","",""
"fullscreen","1","13328","0.0-1.0","5813","2","13","Female","approach_avoid_spark_v1","""event"",""trial"",""time""
""fullscreenenter"",""1"",""12343""
","
","
","""event"",""trial"",""time""
""fullscreenenter"",""1"",""12343""
","
","true","","","","","","","","","","","","","","","","","","","",""
"preload","2","27001","0.0-2.0","5813","2","13","Female","approach_avoid_spark_v1","""event"",""trial"",""time""
""fullscreenenter"",""1"",""12343""
","
","
","""event"",""trial"",""time""
""fullscreenenter"",""1"",""12343""
","
","true","false","[]","[]","[]","","","","","","","","","","","","","","","",""
"audio-keyboard-response","3","31689","0.0-3.0","5813","2","13","Female","approach_avoid_spark_v1","""event"",""trial"",""time""
""fullscreenenter"",""1"",""12343""
","
","
","""event"",""trial"",""time""
""fullscreenenter"",""1"",""12343""
","
","","","","","","4690.666666666667","audio/beep_loop.wav"," ","","","","","","","","","","","","",""
"audio-button-response","4","35066","0.0-4.0","5813","2","13","Female","approach_avoid_spark_v1","""event"",""trial"",""time""
""fullscreenenter"",""1"",""12343""
","
","
","""event"",""trial"",""time""
""fullscreenenter"",""1"",""12343""
","
","","","","","","3368","audio/shark.wav","0","","","","","","","","","","","","",""
"audio-button-response","5","37507","0.0-5.0","5813","2","13","Female","approach_avoid_spark_v1","""event"",""trial"",""time""
""fullscreenenter"",""1"",""12343""
","
","
","""event"",""trial"",""time""
""fullscreenenter"",""1"",""12343""
","
","","","","","","1429","audio/turtle.wav","1","","","","","","","","","","","","",""
"preload","6","46580","0.0-6.0","5813","2","13","Female","approach_avoid_spark_v1","""event"",""trial"",""time""
""fullscreenenter"",""1"",""12343""
","
","
","""event"",""trial"",""time""
""fullscreenenter"",""1"",""12343""
","
","true","false","[]","[]","[]","","","","","","","","","","","","","","","",""
"html-keyboard-response","7","70447","0.0-7.0","5813","2","13","Female","approach_avoid_spark_v1","""event"",""trial"",""time""
""fullscreenenter"",""1"",""12343""
","
","
","""event"",""trial"",""time""
""fullscreenenter"",""1"",""12343""
","
","","","","","","23863.699999809265","Welcome to the experiment. Press any key to begin and to advance the instructions."," ","","","","","","","","","","","","",""
"learning-instructions","8","79328","0.0-8.0-0.0-0.0","5813","2","13","Female","approach_avoid_spark_v1","""event"",""trial"",""time""
""fullscreenenter"",""1"",""12343""
","
","
","""event"",""trial"",""time""
""fullscreenenter"",""1"",""12343""
","
","","","","","","1926.8999996185303","<p> Welcome! Today you are going to play 6 different rounds of a decision-making game. </p><p> Use the mouse to click next to continue. </p>","","0","instructions","","","","","","","","","","",""
"learning-instructions","9","83776","0.0-8.0-0.0-0.1","5813","2","13","Female","approach_avoid_spark_v1","""event"",""trial"",""time""
""fullscreenenter"",""1"",""12343""
","
","
","""event"",""trial"",""time""
""fullscreenenter"",""1"",""12343""
","
","","","","","","1715.6999998092651","<p> You will start with a practice round to learn the rules. </p>","","0","instructions","","","","","","","","","","",""
"learning-instructions","10","89214","0.0-8.0-0.0-0.2","5813","2","13","Female","approach_avoid_spark_v1","""event"",""trial"",""time""
""fullscreenenter"",""1"",""12343""
","
","
","""event"",""trial"",""time""
""fullscreenenter"",""1"",""12343""
","
","","","","","","1983.9000000953674","<p> Your goal in this round is to give out sports equipment to kids. </p></div>","","0","instructions","","","","","","","","","","",""
"learning-instructions","11","97606","0.0-8.0-0.0-0.3","5813","2","13","Female","approach_avoid_spark_v1","""event"",""trial"",""time""
""fullscreenenter"",""1"",""12343""
","
","
","""event"",""trial"",""time""
""fullscreenenter"",""1"",""12343""
","
","","","","","","826","<p> The kids only like some of the equipment.  </p><p> On each turn, you will see a piece of sports equipment.   </p><p> You need to decide whether to give it to the kids or not.  </p>","","0","instructions","","","","","","","","","","",""
"learning-instructions","12","103524","0.0-8.0-0.0-0.4","5813","2","13","Female","approach_avoid_spark_v1","""event"",""trial"",""time""
""fullscreenenter"",""1"",""12343""
","
","
","""event"",""trial"",""time""
""fullscreenenter"",""1"",""12343""
","
","","","","","","1162.2999997138977","<p> You can give them the equipment by pressing 1 and choose not to give it to them by pressing 0. </p><br><div class=""choice-instructions-grid""> <div class=""choice-option""><img src=""images/approach.png"" class=""choice-option-img"" stage=""instructions"" position=""0"" ><div class=""choice-option-text""> Press ""1."" </div></div><div class=""choice-option""><img src=""images/avoid.png"" class=""choice-option-img"" stage=""instructions"" position=""1"" ><div class=""choice-option-text""> Press ""0."" </div></div>","","0","instructions","","","","","","","","","","",""
"learning-instructions","13","112001","0.0-8.0-0.0-0.5","5813","2","13","Female","approach_avoid_spark_v1","""event"",""trial"",""time""
""fullscreenenter"",""1"",""12343""
","
","
","""event"",""trial"",""time""
""fullscreenenter"",""1"",""12343""
","
","","","","","","1079.8000001907349","<p> If you give them a piece of equipment they like, they will be happy! </p><p> But if you give them a piece of equipment they do not like, they will be sad. </p>","","0","instructions","","","","","","","","","","",""
"learning-instructions","14","125925","0.0-8.0-0.0-0.6","5813","2","13","Female","approach_avoid_spark_v1","""event"",""trial"",""time""
""fullscreenenter"",""1"",""12343""
","
","
","""event"",""trial"",""time""
""fullscreenenter"",""1"",""12343""
","
","","","","","","3404","<p> You will earn points based on how you make kids feel. </p><p> If you make them happy, you will WIN anywhere from 1 - 9 points, </p><p> but if you make them sad, you will LOSE anywhere from 1 - 9 points. </p>","","0","instructions","","","","","","","","","","",""
"learning-instructions","15","138612","0.0-8.0-0.0-0.7","5813","2","13","Female","approach_avoid_spark_v1","""event"",""trial"",""time""
""fullscreenenter"",""1"",""12343""
","
","
","""event"",""trial"",""time""
""fullscreenenter"",""1"",""12343""
","
","","","","","","3121.9000000953674","<p> You will see how many points you won or lost in the center of the screen. </p><p> Here is what you would see if you won 6 points: </p><p style=""color:green;font-size:50px;font-weight:bolder"">6</p><p style=""color:green"">The text is GREEN because you WON points.</p>","","0","instructions","","","","","","","","","","",""
"learning-instructions","16","161937","0.0-8.0-0.0-0.8","5813","2","13","Female","approach_avoid_spark_v1","""event"",""trial"",""time""
""fullscreenenter"",""1"",""12343""
","
","
","""event"",""trial"",""time""
""fullscreenenter"",""1"",""12343""
","
","","","","","","17816.799999713898","<p> And here is what you would see if you lost 4 points: </p><p style=""color:red;font-size:50px;font-weight:bolder"">-4</p><p style=""color:red"">The text is RED because you LOST points. </p>","","0","instructions","","","","","","","","","","",""
"learning-instructions","17","178295","0.0-8.0-0.0-0.9","5813","2","13","Female","approach_avoid_spark_v1","""event"",""trial"",""time""
""fullscreenenter"",""1"",""12343""
","
","
","""event"",""trial"",""time""
""fullscreenenter"",""1"",""12343""
","
","","","","","","1634.8000001907349","<p> Some of the equipment will make the kids VERY happy or sad. </p><p> These pieces of equipment will make you win or lose LOTS of points. </p><p> Other pieces of equipment will only make the kids a little happy or sad. </p><p> These pieces of equipment will make you win or lose small amounts of points. </p>","","0","instructions","","","","","","","","","","",""
"learning-instructions","18","190049","0.0-8.0-0.0-0.10","5813","2","13","Female","approach_avoid_spark_v1","""event"",""trial"",""time""
""fullscreenenter"",""1"",""12343""
","
","
","""event"",""trial"",""time""
""fullscreenenter"",""1"",""12343""
","
","","","","","","1128.7000002861023","<p> If you choose not to give them the equipment, you will not win or lose any points. </p><p>  However, in the center of the screen, you will see the number of points you WOULD HAVE won or lost if you had given them the equipment. </p>","","0","instructions","","","","","","","","","","",""
"learning-instructions","19","213871","0.0-8.0-0.0-0.11","5813","2","13","Female","approach_avoid_spark_v1","""event"",""trial"",""time""
""fullscreenenter"",""1"",""12343""
","
","
","""event"",""trial"",""time""
""fullscreenenter"",""1"",""12343""
","
","","","","","","2270.5","<p> Here is what you might see if you did not give the equipment to the kids but it would have made them happy: </p><p style=""color:grey; font-size:50px; display: inline-block; border-spacing: 15px; border-width:3px; border-style:solid; border-color:red"">  &nbsp; 7 &nbsp; </p><p> Remember, in this case, you would not win or lose ANY points because you did not give them the equipment.  </p><p style=""color:grey"">The text is GREY because you earned ZERO points. </p><p style=""color:red"">However, choosing to give the kids the equipment would have made you win points. The box around the text is RED because you chose the worse option. </p>","","0","instructions","","","","","","","","","","",""
"learning-instructions","20","236179","0.0-8.0-0.0-0.12","5813","2","13","Female","approach_avoid_spark_v1","""event"",""trial"",""time""
""fullscreenenter"",""1"",""12343""
","
","
","""event"",""trial"",""time""
""fullscreenenter"",""1"",""12343""
","
","","","","","","1238.8999996185303","<p> Here is what you might see if you did not give the equipment to the kids but it would have made them sad: </p><p style=""color:grey;font-size:50px; display: inline-block; border-spacing: 15px; border-width:3px; border-style:solid; border-color:green"">  &nbsp; -8 &nbsp; </p><p> Remember, in this case, you would not win or lose ANY points because you did not give them the equipment.  </p><p style=""color:grey"">The text is GREY because you earned ZERO points. </p><p  style=""color:green""> Choosing to give the kids the equipment would have made you lose points. The box around the text is GREEN because you chose the better option.</p>","","0","instructions","","","","","","","","","","",""
"learning-instructions","21","250784","0.0-8.0-0.0-0.13","5813","2","13","Female","approach_avoid_spark_v1","""event"",""trial"",""time""
""fullscreenenter"",""1"",""12343""
","
","
","""event"",""trial"",""time""
""fullscreenenter"",""1"",""12343""
","
","","","","","","3443.7000002861023","<p> You will have 3 seconds to make each choice. Try to respond before time runs out! </p><p> You will lose 5 points each time you do not make a response. </p>","","0","instructions","","","","","","","","","","",""
"learning-instructions","22","257659","0.0-8.0-0.0-0.14","5813","2","13","Female","approach_avoid_spark_v1","""event"",""trial"",""time""
""fullscreenenter"",""1"",""12343""
","
","
","""event"",""trial"",""time""
""fullscreenenter"",""1"",""12343""
","
","","","","","","1459.6999998092651","<p> This is just a practice round, but in the real game, your bonus payment will depend on your total number of points.","","0","instructions","","","","","","","","","","",""
"learning-instructions","23","264820","0.0-8.0-0.0-0.15","5813","2","13","Female","approach_avoid_spark_v1","""event"",""trial"",""time""
""fullscreenenter"",""1"",""12343""
","
","
","""event"",""trial"",""time""
""fullscreenenter"",""1"",""12343""
","
","","","","","","1399.9000000953674","<p> Remember, you can give them the equipment by pressing 1 and choose not to give it to them by pressing 0. </p><br><div class=""choice-instructions-grid""> <div class=""choice-option""><img src=""images/approach.png"" class=""choice-option-img"" stage=""instructions"" position=""0"" ><div class=""choice-option-text""> Press ""1."" </div></div><div class=""choice-option""><img src=""images/avoid.png"" class=""choice-option-img"" stage=""instructions"" position=""1"" ><div class=""choice-option-text""> Press ""0."" </div></div>","","0","instructions","","","","","","","","","","",""
"html-button-response","24","267223","0.0-8.0-1.0","5813","2","13","Female","approach_avoid_spark_v1","""event"",""trial"",""time""
""fullscreenenter"",""1"",""12343""
","
","
","""event"",""trial"",""time""
""fullscreenenter"",""1"",""12343""
","
","","","","","","2292.5","<p> Ready to practice? </p>","0","","","","","","","","","","","","",""
"html-keyboard-response","25","267848","0.0-8.0-2.0-0.0","5813","2","13","Female","approach_avoid_spark_v1","""event"",""trial"",""time""
""fullscreenenter"",""1"",""12343""
","
","
","""event"",""trial"",""time""
""fullscreenenter"",""1"",""12343""
","
","","","","","","null","<div style=""font-size:60px;"">+</div>","null","","fixation","","","","","","","","","","",""
"aa-learning-trial","26","270861","0.0-8.0-2.0-1.0","5813","2","13","Female","approach_avoid_spark_v1","""event"",""trial"",""time""
""fullscreenenter"",""1"",""12343""
","
","
","""event"",""trial"",""time""
""fullscreenenter"",""1"",""12343""
","
","","","","","","2211.7999997138977","images/ball4.png","","","learning","-5","-5","1","1","practice","practice","practice","-1","","",""
"html-keyboard-response","27","271378","0.0-8.0-2.0-0.1","5813","2","13","Female","approach_avoid_spark_v1","""event"",""trial"",""time""
""fullscreenenter"",""1"",""12343""
","
","
","""event"",""trial"",""time""
""fullscreenenter"",""1"",""12343""
","
","","","","","","null","<div style=""font-size:60px;"">+</div>","null","","fixation","","","","","","","","","","",""
"aa-learning-trial","28","274398","0.0-8.0-2.0-1.1","5813","2","13","Female","approach_avoid_spark_v1","""event"",""trial"",""time""
""fullscreenenter"",""1"",""12343""
","
","
","""event"",""trial"",""time""
""fullscreenenter"",""1"",""12343""
","
","","","","","","2287.199999809265","images/racket1.png","","","learning","-2","0","0","0","practice","practice","practice","-1","","",""
"html-keyboard-response","29","274918","0.0-8.0-2.0-0.2","5813","2","13","Female","approach_avoid_spark_v1","""event"",""trial"",""time""
""fullscreenenter"",""1"",""12343""
","
","
","""event"",""trial"",""time""
""fullscreenenter"",""1"",""12343""
","
","","","","","","null","<div style=""font-size:60px;"">+</div>","null","","fixation","","","","","","","","","","",""
"aa-learning-trial","30","277929","0.0-8.0-2.0-1.2","5813","2","13","Female","approach_avoid_spark_v1","""event"",""trial"",""time""
""fullscreenenter"",""1"",""12343""
","
","
","""event"",""trial"",""time""
""fullscreenenter"",""1"",""12343""
","
","","","","","","1378.1000003814697","images/racket3.png","","","learning","-1","-1","1","1","practice","practice","practice","-1","","",""
"html-keyboard-response","31","278439","0.0-8.0-2.0-0.3","5813","2","13","Female","approach_avoid_spark_v1","""event"",""trial"",""time""
""fullscreenenter"",""1"",""12343""
","
","
","""event"",""trial"",""time""
""fullscreenenter"",""1"",""12343""
","
","","","","","","null","<div style=""font-size:60px;"">+</div>","null","","fixation","","","","","","","","","","",""
"aa-learning-trial","32","281448","0.0-8.0-2.0-1.3","5813","2","13","Female","approach_avoid_spark_v1","""event"",""trial"",""time""
""fullscreenenter"",""1"",""12343""
","
","
","""event"",""trial"",""time""
""fullscreenenter"",""1"",""12343""
","
","","","","","","1169","images/ball3.png","","","learning","2","2","1","1","practice","practice","practice","-1","","",""
"html-keyboard-response","33","281968","0.0-8.0-2.0-0.4","5813","2","13","Female","approach_avoid_spark_v1","""event"",""trial"",""time""
""fullscreenenter"",""1"",""12343""
","
","
","""event"",""trial"",""time""
""fullscreenenter"",""1"",""12343""
","
","","","","","","null","<div style=""font-size:60px;"">+</div>","null","","fixation","","","","","","","","","","",""
"aa-learning-trial","34","284988","0.0-8.0-2.0-1.4","5813","2","13","Female","approach_avoid_spark_v1","""event"",""trial"",""time""
""fullscreenenter"",""1"",""12343""
","
","
","""event"",""trial"",""time""
""fullscreenenter"",""1"",""12343""
","
","","","","","","842.5999999046326","images/ball1.png","","","learning","1","1","1","1","practice","practice","practice","-1","","",""
"html-keyboard-response","35","285508","0.0-8.0-2.0-0.5","5813","2","13","Female","approach_avoid_spark_v1","""event"",""trial"",""time""
""fullscreenenter"",""1"",""12343""
","
","
","""event"",""trial"",""time""
""fullscreenenter"",""1"",""12343""
","
","","","","","","null","<div style=""font-size:60px;"">+</div>","null","","fixation","","","","","","","","","","",""
"aa-learning-trial","36","288528","0.0-8.0-2.0-1.5","5813","2","13","Female","approach_avoid_spark_v1","""event"",""trial"",""time""
""fullscreenenter"",""1"",""12343""
","
","
","""event"",""trial"",""time""
""fullscreenenter"",""1"",""12343""
","
","","","","","","1213.2000002861023","images/racket4.png","","","learning","-5","0","0","0","practice","practice","practice","-1","","",""
"html-keyboard-response","37","289047","0.0-8.0-2.0-0.6","5813","2","13","Female","approach_avoid_spark_v1","""event"",""trial"",""time""
""fullscreenenter"",""1"",""12343""
","
","
","""event"",""trial"",""time""
""fullscreenenter"",""1"",""12343""
","
","","","","","","null","<div style=""font-size:60px;"">+</div>","null","","fixation","","","","","","","","","","",""
"aa-learning-trial","38","292057","0.0-8.0-2.0-1.6","5813","2","13","Female","approach_avoid_spark_v1","""event"",""trial"",""time""
""fullscreenenter"",""1"",""12343""
","
","
","""event"",""trial"",""time""
""fullscreenenter"",""1"",""12343""
","
","","","","","","1449","images/racket1.png","","","learning","8","8","1","1","practice","practice","practice","-1","","",""
"html-keyboard-response","39","292578","0.0-8.0-2.0-0.7","5813","2","13","Female","approach_avoid_spark_v1","""event"",""trial"",""time""
""fullscreenenter"",""1"",""12343""
","
","
","""event"",""trial"",""time""
""fullscreenenter"",""1"",""12343""
","
","","","","","","null","<div style=""font-size:60px;"">+</div>","null","","fixation","","","","","","","","","","",""
"aa-learning-trial","40","295592","0.0-8.0-2.0-1.7","5813","2","13","Female","approach_avoid_spark_v1","""event"",""trial"",""time""
""fullscreenenter"",""1"",""12343""
","
","
","""event"",""trial"",""time""
""fullscreenenter"",""1"",""12343""
","
","","","","","","852.7000002861023","images/ball2.png","","","learning","1","1","1","1","practice","practice","practice","-1","","",""
"html-keyboard-response","41","296108","0.0-8.0-2.0-0.8","5813","2","13","Female","approach_avoid_spark_v1","""event"",""trial"",""time""
""fullscreenenter"",""1"",""12343""
","
","
","""event"",""trial"",""time""
""fullscreenenter"",""1"",""12343""
","
","","","","","","null","<div style=""font-size:60px;"">+</div>","null","","fixation","","","","","","","","","","",""
"aa-learning-trial","42","299121","0.0-8.0-2.0-1.8","5813","2","13","Female","approach_avoid_spark_v1","""event"",""trial"",""time""
""fullscreenenter"",""1"",""12343""
","
","
","""event"",""trial"",""time""
""fullscreenenter"",""1"",""12343""
","
","","","","","","768.9000000953674","images/ball1.png","","","learning","-7","-7","1","1","practice","practice","practice","-1","","",""
"html-keyboard-response","43","299637","0.0-8.0-2.0-0.9","5813","2","13","Female","approach_avoid_spark_v1","""event"",""trial"",""time""
""fullscreenenter"",""1"",""12343""
","
","
","""event"",""trial"",""time""
""fullscreenenter"",""1"",""12343""
","
","","","","","","null","<div style=""font-size:60px;"">+</div>","null","","fixation","","","","","","","","","","",""
"aa-learning-trial","44","302659","0.0-8.0-2.0-1.9","5813","2","13","Female","approach_avoid_spark_v1","""event"",""trial"",""time""
""fullscreenenter"",""1"",""12343""
","
","
","""event"",""trial"",""time""
""fullscreenenter"",""1"",""12343""
","
","","","","","","589.4000000953674","images/racket3.png","","","learning","-6","0","0","0","practice","practice","practice","-1","","",""
"html-keyboard-response","45","303169","0.0-8.0-2.0-0.10","5813","2","13","Female","approach_avoid_spark_v1","""event"",""trial"",""time""
""fullscreenenter"",""1"",""12343""
","
","
","""event"",""trial"",""time""
""fullscreenenter"",""1"",""12343""
","
","","","","","","null","<div style=""font-size:60px;"">+</div>","null","","fixation","","","","","","","","","","",""
"aa-learning-trial","46","306186","0.0-8.0-2.0-1.10","5813","2","13","Female","approach_avoid_spark_v1","""event"",""trial"",""time""
""fullscreenenter"",""1"",""12343""
","
","
","""event"",""trial"",""time""
""fullscreenenter"",""1"",""12343""
","
","","","","","","555","images/ball4.png","","","learning","6","6","1","1","practice","practice","practice","-1","","",""
"html-keyboard-response","47","306708","0.0-8.0-2.0-0.11","5813","2","13","Female","approach_avoid_spark_v1","""event"",""trial"",""time""
""fullscreenenter"",""1"",""12343""
","
","
","""event"",""trial"",""time""
""fullscreenenter"",""1"",""12343""
","
","","","","","","null","<div style=""font-size:60px;"">+</div>","null","","fixation","","","","","","","","","","",""
"aa-learning-trial","48","309722","0.0-8.0-2.0-1.11","5813","2","13","Female","approach_avoid_spark_v1","""event"",""trial"",""time""
""fullscreenenter"",""1"",""12343""
","
","
","""event"",""trial"",""time""
""fullscreenenter"",""1"",""12343""
","
","","","","","","1022.3000001907349","images/racket4.png","","","learning","-4","0","0","0","practice","practice","practice","-1","","",""
"html-button-response","49","311038","0.0-8.0-3.0","5813","2","13","Female","approach_avoid_spark_v1","""event"",""trial"",""time""
""fullscreenenter"",""1"",""12343""
","
","
","""event"",""trial"",""time""
""fullscreenenter"",""1"",""12343""
","
","","","","","","1313.4000000953674","<p> You earned 5 points in the practice round! </p>","0","","break","","","","","","","","","","",""
"learning-instructions","50","320232","0.0-8.0-4.0-0.0","5813","2","13","Female","approach_avoid_spark_v1","""event"",""trial"",""time""
""fullscreenenter"",""1"",""12343""
","
","
","""event"",""trial"",""time""
""fullscreenenter"",""1"",""12343""
","
","","","","","","2510.800000190735","<p> It's almost time to start the real game. </p><p> Before you start, we're going to ask you a few questions about how the game works. </p>","","0","instructions","","","","","","","","","","",""
"preload","51","328034","0.0-8.0-5.0","5813","2","13","Female","approach_avoid_spark_v1","""event"",""trial"",""time""
""fullscreenenter"",""1"",""12343""
","
","
","""event"",""trial"",""time""
""fullscreenenter"",""1"",""12343""
","
","true","false","[]","[]","[]","","","","","","","","","","","","","","","",""
"comp-q","52","335561","0.0-8.0-6.0-0.0","5813","2","13","Female","approach_avoid_spark_v1","""event"",""trial"",""time""
""fullscreenenter"",""1"",""12343""
","
","
","""event"",""trial"",""time""
""fullscreenenter"",""1"",""12343""
","
","","","","","","2529.9000000953674","<p> <b> True or False? </b> </p><p> If you see a number in GREY, that means you earned that many points. </p>","","1","comp_question","","","","","","","","","true","",""
"comp-q","53","347829","0.0-8.0-6.0-1.0","5813","2","13","Female","approach_avoid_spark_v1","""event"",""trial"",""time""
""fullscreenenter"",""1"",""12343""
","
","
","""event"",""trial"",""time""
""fullscreenenter"",""1"",""12343""
","
","","","","","","3898.2999997138977","<p><b> That's right! </b> If you see a grey number, it means you earned ZERO points. <br> The grey numbers show the points you WOULD HAVE earned if you had made the other choice. </p>","","0","comp_answer","","","","","","","","","","",""
"comp-q","54","355738","0.0-8.0-7.0-0.0","5813","2","13","Female","approach_avoid_spark_v1","""event"",""trial"",""time""
""fullscreenenter"",""1"",""12343""
","
","
","""event"",""trial"",""time""
""fullscreenenter"",""1"",""12343""
","
","","","","","","3206.2999997138977","<p> <b> True or False? </b> </p><p> You will have as much time as you want to make each choice. </p>","","1","comp_question","","","","","","","","","true","",""
"comp-q","55","361433","0.0-8.0-7.0-1.0","5813","2","13","Female","approach_avoid_spark_v1","""event"",""trial"",""time""
""fullscreenenter"",""1"",""12343""
","
","
","""event"",""trial"",""time""
""fullscreenenter"",""1"",""12343""
","
","","","","","","1631.6999998092651","<p> <b> That's right! </b> You will only have 3 seconds to make each choice. </p>","","0","comp_answer","","","","","","","","","","",""
"comp-q","56","366879","0.0-8.0-8.0-0.0","5813","2","13","Female","approach_avoid_spark_v1","""event"",""trial"",""time""
""fullscreenenter"",""1"",""12343""
","
","
","""event"",""trial"",""time""
""fullscreenenter"",""1"",""12343""
","
","","","","","","757.2999997138977","<p> <b> True or False? </b> </p><p> You should use the '1' and '0' keys to make your choices. </p>","","0","comp_question","","","","","","","","","true","",""
"comp-q","57","374257","0.0-8.0-8.0-1.0","5813","2","13","Female","approach_avoid_spark_v1","""event"",""trial"",""time""
""fullscreenenter"",""1"",""12343""
","
","
","""event"",""trial"",""time""
""fullscreenenter"",""1"",""12343""
","
","","","","","","2755.5","<p> <b> That's right! </b> You should use the '1' and '0' keys to make each choice. </p>","","0","comp_answer","","","","","","","","","","",""
"learning-instructions","58","385832","0.0-8.0-9.0-0.0","5813","2","13","Female","approach_avoid_spark_v1","""event"",""trial"",""time""
""fullscreenenter"",""1"",""12343""
","
","
","""event"",""trial"",""time""
""fullscreenenter"",""1"",""12343""
","
","","","","","","5290.800000190735","<p> It's now time to start the real game. </p>Do your best, because the points you earn in the next rounds will influence your bonus payment. </p>","","0","instructions","","","","","","","","","","",""
"preload","59","385989","0.0-9.0-0.0","5813","2","13","Female","approach_avoid_spark_v1","""event"",""trial"",""time""
""fullscreenenter"",""1"",""12343""
","
","
","""event"",""trial"",""time""
""fullscreenenter"",""1"",""12343""
","
","true","false","[]","[]","[]","","","","","","","","","","","","","","","",""
"learning-instructions","60","390339","0.0-9.0-1.0-0.0","5813","2","13","Female","approach_avoid_spark_v1","""event"",""trial"",""time""
""fullscreenenter"",""1"",""12343""
","
","
","""event"",""trial"",""time""
""fullscreenenter"",""1"",""12343""
","
","","","","","","897.7999997138977","<p> Your goal in this round is to eat tasty fruit. </p></div>","","0","instructions","","","","","","","","","","",""
"learning-instructions","61","401556","0.0-9.0-1.0-0.1","5813","2","13","Female","approach_avoid_spark_v1","""event"",""trial"",""time""
""fullscreenenter"",""1"",""12343""
","
","
","""event"",""trial"",""time""
""fullscreenenter"",""1"",""12343""
","
","","","","","","935.6999998092651","<p> Some of the fruits you will see are tasty. Others are rotten on the inside.  </p><p> On each turn, you will see a fruit.   </p><p> You need to decide whether to eat it or not.  </p>","","0","instructions","","","","","","","","","","",""
"learning-instructions","62","408246","0.0-9.0-1.0-0.2","5813","2","13","Female","approach_avoid_spark_v1","""event"",""trial"",""time""
""fullscreenenter"",""1"",""12343""
","
","
","""event"",""trial"",""time""
""fullscreenenter"",""1"",""12343""
","
","","","","","","1504.1999998092651","<p> You can eat the fruit by pressing 1 and choose not to eat it by pressing 0. </p><br><div class=""choice-instructions-grid""> <div class=""choice-option""><img src=""images/approach.png"" class=""choice-option-img"" stage=""instructions"" position=""0"" ><div class=""choice-option-text""> Press ""1."" </div></div><div class=""choice-option""><img src=""images/avoid.png"" class=""choice-option-img"" stage=""instructions"" position=""1"" ><div class=""choice-option-text""> Press ""0."" </div></div>","","0","instructions","","","","","","","","","","",""
"learning-instructions","63","417386","0.0-9.0-1.0-0.3","5813","2","13","Female","approach_avoid_spark_v1","""event"",""trial"",""time""
""fullscreenenter"",""1"",""12343""
","
","
","""event"",""trial"",""time""
""fullscreenenter"",""1"",""12343""
","
","","","","","","1445.5999999046326","<p> If you eat the fruit and it was tasty, you will win points! </p><p> But if you eat the fruit and it was rotten, you will lose points. </p>","","0","instructions","","","","","","","","","","",""
"learning-instructions","64","430799","0.0-9.0-1.0-0.4","5813","2","13","Female","approach_avoid_spark_v1","""event"",""trial"",""time""
""fullscreenenter"",""1"",""12343""
","
","
","""event"",""trial"",""time""
""fullscreenenter"",""1"",""12343""
","
","","","","","","1178.2999997138977","<p> You will earn points based on how tasty or rotten the fruit was. </p><p> If it was tasty, you will WIN anywhere from 1 - 9 points, </p><p> but if it was rotten, you will LOSE anywhere from 1 - 9 points. </p>","","0","instructions","","","","","","","","","","",""
"learning-instructions","65","439638","0.0-9.0-1.0-0.5","5813","2","13","Female","approach_avoid_spark_v1","""event"",""trial"",""time""
""fullscreenenter"",""1"",""12343""
","
","
","""event"",""trial"",""time""
""fullscreenenter"",""1"",""12343""
","
","","","","","","767.5","<p> You will see how many points you won or lost in the center of the screen. </p><p> Here is what you would see if you earned 5 points: </p><p style=""color:green;font-size:50px;font-weight:bolder"">5</p>","","0","instructions","","","","","","","","","","",""
"learning-instructions","66","447632","0.0-9.0-1.0-0.6","5813","2","13","Female","approach_avoid_spark_v1","""event"",""trial"",""time""
""fullscreenenter"",""1"",""12343""
","
","
","""event"",""trial"",""time""
""fullscreenenter"",""1"",""12343""
","
","","","","","","4191.099999904633","<p> And here is what you would see if you lost 3 points: </p><p style=""color:red;font-size:50px;font-weight:bolder"">-3</p>","","0","instructions","","","","","","","","","","",""
"learning-instructions","67","466520","0.0-9.0-1.0-0.7","5813","2","13","Female","approach_avoid_spark_v1","""event"",""trial"",""time""
""fullscreenenter"",""1"",""12343""
","
","
","""event"",""trial"",""time""
""fullscreenenter"",""1"",""12343""
","
","","","","","","4568.400000095367","<p> Some fruit is very tasty or very rotten. </p><p> These fruits will make you win or lose LOTS of points. </p><p> Other fruits are only kind of tasty or kind of rotten. </p><p> These fruits will make you win or lose small amounts of points. </p>","","0","instructions","","","","","","","","","","",""
"learning-instructions","68","478596","0.0-9.0-1.0-0.8","5813","2","13","Female","approach_avoid_spark_v1","""event"",""trial"",""time""
""fullscreenenter"",""1"",""12343""
","
","
","""event"",""trial"",""time""
""fullscreenenter"",""1"",""12343""
","
","","","","","","1253.6000003814697","<p> If you choose to not eat the fruit, you will not win or lose any points. </p><p>  However, in the center of the screen, you will see the number of points you WOULD HAVE earned if you had eaten the fruit. </p>","","0","instructions","","","","","","","","","","",""
"learning-instructions","69","491066","0.0-9.0-1.0-0.9","5813","2","13","Female","approach_avoid_spark_v1","""event"",""trial"",""time""
""fullscreenenter"",""1"",""12343""
","
","
","""event"",""trial"",""time""
""fullscreenenter"",""1"",""12343""
","
","","","","","","1615","<p> Here is what you might see if you did not eat the fruit but the fruit was tasty: </p><p style=""color:grey; font-size:50px; display: inline-block; border-spacing: 15px; border-width:3px; border-style:solid; border-color:red"">  &nbsp; 6 &nbsp; </p><p> Remember, in this case, you would not win or lose ANY points because you did not eat the fruit.  </p>","","0","instructions","","","","","","","","","","",""
"learning-instructions","70","501573","0.0-9.0-1.0-0.10","5813","2","13","Female","approach_avoid_spark_v1","""event"",""trial"",""time""
""fullscreenenter"",""1"",""12343""
","
","
","""event"",""trial"",""time""
""fullscreenenter"",""1"",""12343""
","
","","","","","","2181.5","<p> Try to make the best choice for each fruit because </p><p> at the end of the game, you will earn bonus money based on how many points you earned. </p>","","0","instructions","","","","","","","","","","",""
"learning-instructions","71","511603","0.0-9.0-1.0-0.11","5813","2","13","Female","approach_avoid_spark_v1","""event"",""trial"",""time""
""fullscreenenter"",""1"",""12343""
","
","
","""event"",""trial"",""time""
""fullscreenenter"",""1"",""12343""
","
","","","","","","1831.5999999046326","<p> You will have 3 seconds to make each choice. Try to respond before time runs out! </p><p> You will lose 5 points each time you do not make a response. </p>","","0","instructions","","","","","","","","","","",""
"html-keyboard-response","72","512242","0.0-9.0-2.0-0.0","5813","2","13","Female","approach_avoid_spark_v1","""event"",""trial"",""time""
""fullscreenenter"",""1"",""12343""
","
","
","""event"",""trial"",""time""
""fullscreenenter"",""1"",""12343""
","
","","","","","","null","<div style=""font-size:60px;"">+</div>","null","","fixation","","","","","","","","","","",""
"aa-learning-trial","73","515260","0.0-9.0-2.0-1.0","5813","2","13","Female","approach_avoid_spark_v1","""event"",""trial"",""time""
""fullscreenenter"",""1"",""12343""
","
","
","""event"",""trial"",""time""
""fullscreenenter"",""1"",""12343""
","
","","","","","","1562.8000001907349","images/apple6.png","","","learning","6","6","1","1","apple","fruit","2","0","","neutral","0"
"html-keyboard-response","74","515769","0.0-9.0-2.0-0.1","5813","2","13","Female","approach_avoid_spark_v1","""event"",""trial"",""time""
""fullscreenenter"",""1"",""12343""
","
","
","""event"",""trial"",""time""
""fullscreenenter"",""1"",""12343""
","
","","","","","","null","<div style=""font-size:60px;"">+</div>","null","","fixation","","","","","","","","","","",""
"aa-learning-trial","75","518789","0.0-9.0-2.0-1.1","5813","2","13","Female","approach_avoid_spark_v1","""event"",""trial"",""time""
""fullscreenenter"",""1"",""12343""
","
","
","""event"",""trial"",""time""
""fullscreenenter"",""1"",""12343""
","
","","","","","","1443.5999999046326","images/straw4.png","","","learning","-4","-4","1","1","straw","fruit","2","0","","bad","[-6]"
"html-keyboard-response","76","519299","0.0-9.0-2.0-0.2","5813","2","13","Female","approach_avoid_spark_v1","""event"",""trial"",""time""
""fullscreenenter"",""1"",""12343""
","
","
","""event"",""trial"",""time""
""fullscreenenter"",""1"",""12343""
","
","","","","","","null","<div style=""font-size:60px;"">+</div>","null","","fixation","","","","","","","","","","",""
"aa-learning-trial","77","522319","0.0-9.0-2.0-1.2","5813","2","13","Female","approach_avoid_spark_v1","""event"",""trial"",""time""
""fullscreenenter"",""1"",""12343""
","
","
","""event"",""trial"",""time""
""fullscreenenter"",""1"",""12343""
","
","","","","","","1180.9000000953674","images/apple5.png","","","learning","3","3","1","1","apple","fruit","2","0","","neutral","0"
"html-keyboard-response","78","522829","0.0-9.0-2.0-0.3","5813","2","13","Female","approach_avoid_spark_v1","""event"",""trial"",""time""
""fullscreenenter"",""1"",""12343""
","
","
","""event"",""trial"",""time""
""fullscreenenter"",""1"",""12343""
","
","","","","","","null","<div style=""font-size:60px;"">+</div>","null","","fixation","","","","","","","","","","",""
"aa-learning-trial","79","525839","0.0-9.0-2.0-1.3","5813","2","13","Female","approach_avoid_spark_v1","""event"",""trial"",""time""
""fullscreenenter"",""1"",""12343""
","
","
","""event"",""trial"",""time""
""fullscreenenter"",""1"",""12343""
","
","","","","","","1216.5999999046326","images/banana3.png","","","learning","5","5","1","1","banana","fruit","2","0","","good","[4]"
"html-keyboard-response","80","526348","0.0-9.0-2.0-0.4","5813","2","13","Female","approach_avoid_spark_v1","""event"",""trial"",""time""
""fullscreenenter"",""1"",""12343""
","
","
","""event"",""trial"",""time""
""fullscreenenter"",""1"",""12343""
","
","","","","","","null","<div style=""font-size:60px;"">+</div>","null","","fixation","","","","","","","","","","",""
"aa-learning-trial","81","529369","0.0-9.0-2.0-1.4","5813","2","13","Female","approach_avoid_spark_v1","""event"",""trial"",""time""
""fullscreenenter"",""1"",""12343""
","
","
","""event"",""trial"",""time""
""fullscreenenter"",""1"",""12343""
","
","","","","","","1344","images/banana4.png","","","learning","-1","0","0","0","banana","fruit","2","0","","good","[4]"
"html-keyboard-response","82","529879","0.0-9.0-2.0-0.5","5813","2","13","Female","approach_avoid_spark_v1","""event"",""trial"",""time""
""fullscreenenter"",""1"",""12343""
","
","
","""event"",""trial"",""time""
""fullscreenenter"",""1"",""12343""
","
","","","","","","null","<div style=""font-size:60px;"">+</div>","null","","fixation","","","","","","","","","","",""
"aa-learning-trial","83","532889","0.0-9.0-2.0-1.5","5813","2","13","Female","approach_avoid_spark_v1","""event"",""trial"",""time""
""fullscreenenter"",""1"",""12343""
","
","
","""event"",""trial"",""time""
""fullscreenenter"",""1"",""12343""
","
","","","","","","936.5","images/apple2.png","","","learning","-7","-7","1","1","apple","fruit","2","0","","neutral","0"
"html-keyboard-response","84","533403","0.0-9.0-2.0-0.6","5813","2","13","Female","approach_avoid_spark_v1","""event"",""trial"",""time""
""fullscreenenter"",""1"",""12343""
","
","
","""event"",""trial"",""time""
""fullscreenenter"",""1"",""12343""
","
","","","","","","null","<div style=""font-size:60px;"">+</div>","null","","fixation","","","","","","","","","","",""
"aa-learning-trial","85","536419","0.0-9.0-2.0-1.6","5813","2","13","Female","approach_avoid_spark_v1","""event"",""trial"",""time""
""fullscreenenter"",""1"",""12343""
","
","
","""event"",""trial"",""time""
""fullscreenenter"",""1"",""12343""
","
","","","","","","943.6999998092651","images/straw8.png","","","learning","7","7","1","1","straw","fruit","2","0","","bad","[-6]"
"html-keyboard-response","86","536928","0.0-9.0-2.0-0.7","5813","2","13","Female","approach_avoid_spark_v1","""event"",""trial"",""time""
""fullscreenenter"",""1"",""12343""
","
","
","""event"",""trial"",""time""
""fullscreenenter"",""1"",""12343""
","
","","","","","","null","<div style=""font-size:60px;"">+</div>","null","","fixation","","","","","","","","","","",""
"aa-learning-trial","87","539948","0.0-9.0-2.0-1.7","5813","2","13","Female","approach_avoid_spark_v1","""event"",""trial"",""time""
""fullscreenenter"",""1"",""12343""
","
","
","""event"",""trial"",""time""
""fullscreenenter"",""1"",""12343""
","
","","","","","","1111.7999997138977","images/straw5.png","","","learning","1","0","0","0","straw","fruit","2","0","","bad","[-6]"
"html-keyboard-response","88","540458","0.0-9.0-2.0-0.8","5813","2","13","Female","approach_avoid_spark_v1","""event"",""trial"",""time""
""fullscreenenter"",""1"",""12343""
","
","
","""event"",""trial"",""time""
""fullscreenenter"",""1"",""12343""
","
","","","","","","null","<div style=""font-size:60px;"">+</div>","null","","fixation","","","","","","","","","","",""
"aa-learning-trial","89","543470","0.0-9.0-2.0-1.8","5813","2","13","Female","approach_avoid_spark_v1","""event"",""trial"",""time""
""fullscreenenter"",""1"",""12343""
","
","
","""event"",""trial"",""time""
""fullscreenenter"",""1"",""12343""
","
","","","","","","1066.5","images/apple2.png","","","learning","-7","-7","1","1","apple","fruit","2","0","","neutral","0"
"html-keyboard-response","90","543985","0.0-9.0-2.0-0.9","5813","2","13","Female","approach_avoid_spark_v1","""event"",""trial"",""time""
""fullscreenenter"",""1"",""12343""
","
","
","""event"",""trial"",""time""
""fullscreenenter"",""1"",""12343""
","
","","","","","","null","<div style=""font-size:60px;"">+</div>","null","","fixation","","","","","","","","","","",""
"aa-learning-trial","91","547002","0.0-9.0-2.0-1.9","5813","2","13","Female","approach_avoid_spark_v1","""event"",""trial"",""time""
""fullscreenenter"",""1"",""12343""
","
","
","""event"",""trial"",""time""
""fullscreenenter"",""1"",""12343""
","
","","","","","","1416.5999999046326","images/banana4.png","","","learning","-1","-1","1","1","banana","fruit","2","0","","good","[4]"
"html-keyboard-response","92","547519","0.0-9.0-2.0-0.10","5813","2","13","Female","approach_avoid_spark_v1","""event"",""trial"",""time""
""fullscreenenter"",""1"",""12343""
","
","
","""event"",""trial"",""time""
""fullscreenenter"",""1"",""12343""
","
","","","","","","null","<div style=""font-size:60px;"">+</div>","null","","fixation","","","","","","","","","","",""
"aa-learning-trial","93","550537","0.0-9.0-2.0-1.10","5813","2","13","Female","approach_avoid_spark_v1","""event"",""trial"",""time""
""fullscreenenter"",""1"",""12343""
","
","
","""event"",""trial"",""time""
""fullscreenenter"",""1"",""12343""
","
","","","","","","1237.5","images/apple6.png","","","learning","6","0","0","0","apple","fruit","2","0","","neutral","0"
"html-keyboard-response","94","551053","0.0-9.0-2.0-0.11","5813","2","13","Female","approach_avoid_spark_v1","""event"",""trial"",""time""
""fullscreenenter"",""1"",""12343""
","
","
","""event"",""trial"",""time""
""fullscreenenter"",""1"",""12343""
","
","","","","","","null","<div style=""font-size:60px;"">+</div>","null","","fixation","","","","","","","","","","",""
"aa-learning-trial","95","554061","0.0-9.0-2.0-1.11","5813","2","13","Female","approach_avoid_spark_v1","""event"",""trial"",""time""
""fullscreenenter"",""1"",""12343""
","
","
","""event"",""trial"",""time""
""fullscreenenter"",""1"",""12343""
","
","","","","","","1048.2999997138977","images/banana3.png","","","learning","5","5","1","1","banana","fruit","2","0","","good","[4]"
"html-keyboard-response","96","554570","0.0-9.0-2.0-0.12","5813","2","13","Female","approach_avoid_spark_v1","""event"",""trial"",""time""
""fullscreenenter"",""1"",""12343""
","
","
","""event"",""trial"",""time""
""fullscreenenter"",""1"",""12343""
","
","","","","","","null","<div style=""font-size:60px;"">+</div>","null","","fixation","","","","","","","","","","",""
"aa-learning-trial","97","557597","0.0-9.0-2.0-1.12","5813","2","13","Female","approach_avoid_spark_v1","""event"",""trial"",""time""
""fullscreenenter"",""1"",""12343""
","
","
","""event"",""trial"",""time""
""fullscreenenter"",""1"",""12343""
","
","","","","","","1106.9000000953674","images/banana6.png","","","learning","-3","0","0","0","banana","fruit","2","0","","good","[4]"
"html-keyboard-response","98","558104","0.0-9.0-2.0-0.13","5813","2","13","Female","approach_avoid_spark_v1","""event"",""trial"",""time""
""fullscreenenter"",""1"",""12343""
","
","
","""event"",""trial"",""time""
""fullscreenenter"",""1"",""12343""
","
","","","","","","null","<div style=""font-size:60px;"">+</div>","null","","fixation","","","","","","","","","","",""
"aa-learning-trial","99","561114","0.0-9.0-2.0-1.13","5813","2","13","Female","approach_avoid_spark_v1","""event"",""trial"",""time""
""fullscreenenter"",""1"",""12343""
","
","
","""event"",""trial"",""time""
""fullscreenenter"",""1"",""12343""
","
","","","","","","803.4000000953674","images/straw5.png","","","learning","1","1","1","1","straw","fruit","2","0","","bad","[-6]"
"html-keyboard-response","100","561627","0.0-9.0-2.0-0.14","5813","2","13","Female","approach_avoid_spark_v1","""event"",""trial"",""time""
""fullscreenenter"",""1"",""12343""
","
","
","""event"",""trial"",""time""
""fullscreenenter"",""1"",""12343""
","
","","","","","","null","<div style=""font-size:60px;"">+</div>","null","","fixation","","","","","","","","","","",""
"aa-learning-trial","101","564645","0.0-9.0-2.0-1.14","5813","2","13","Female","approach_avoid_spark_v1","""event"",""trial"",""time""
""fullscreenenter"",""1"",""12343""
","
","
","""event"",""trial"",""time""
""fullscreenenter"",""1"",""12343""
","
","","","","","","1210.6000003814697","images/straw8.png","","","learning","7","7","1","1","straw","fruit","2","0","","bad","[-6]"
"html-keyboard-response","102","565153","0.0-9.0-2.0-0.15","5813","2","13","Female","approach_avoid_spark_v1","""event"",""trial"",""time""
""fullscreenenter"",""1"",""12343""
","
","
","""event"",""trial"",""time""
""fullscreenenter"",""1"",""12343""
","
","","","","","","null","<div style=""font-size:60px;"">+</div>","null","","fixation","","","","","","","","","","",""
"aa-learning-trial","103","568168","0.0-9.0-2.0-1.15","5813","2","13","Female","approach_avoid_spark_v1","""event"",""trial"",""time""
""fullscreenenter"",""1"",""12343""
","
","
","""event"",""trial"",""time""
""fullscreenenter"",""1"",""12343""
","
","","","","","","1052.6999998092651","images/straw8.png","","","learning","7","0","0","0","straw","fruit","2","0","","bad","[-6]"
"html-keyboard-response","104","568686","0.0-9.0-2.0-0.16","5813","2","13","Female","approach_avoid_spark_v1","""event"",""trial"",""time""
""fullscreenenter"",""1"",""12343""
","
","
","""event"",""trial"",""time""
""fullscreenenter"",""1"",""12343""
","
","","","","","","null","<div style=""font-size:60px;"">+</div>","null","","fixation","","","","","","","","","","",""
"aa-learning-trial","105","571696","0.0-9.0-2.0-1.16","5813","2","13","Female","approach_avoid_spark_v1","""event"",""trial"",""time""
""fullscreenenter"",""1"",""12343""
","
","
","""event"",""trial"",""time""
""fullscreenenter"",""1"",""12343""
","
","","","","","","997.5","images/straw8.png","","","learning","7","7","1","1","straw","fruit","2","0","","bad","[-6]"
"html-keyboard-response","106","572211","0.0-9.0-2.0-0.17","5813","2","13","Female","approach_avoid_spark_v1","""event"",""trial"",""time""
""fullscreenenter"",""1"",""12343""
","
","
","""event"",""trial"",""time""
""fullscreenenter"",""1"",""12343""
","
","","","","","","null","<div style=""font-size:60px;"">+</div>","null","","fixation","","","","","","","","","","",""
"aa-learning-trial","107","575232","0.0-9.0-2.0-1.17","5813","2","13","Female","approach_avoid_spark_v1","""event"",""trial"",""time""
""fullscreenenter"",""1"",""12343""
","
","
","""event"",""trial"",""time""
""fullscreenenter"",""1"",""12343""
","
","","","","","","1094.4000000953674","images/straw5.png","","","learning","1","0","0","0","straw","fruit","2","0","","bad","[-6]"
"html-keyboard-response","108","575747","0.0-9.0-2.0-0.18","5813","2","13","Female","approach_avoid_spark_v1","""event"",""trial"",""time""
""fullscreenenter"",""1"",""12343""
","
","
","""event"",""trial"",""time""
""fullscreenenter"",""1"",""12343""
","
","","","","","","null","<div style=""font-size:60px;"">+</div>","null","","fixation","","","","","","","","","","",""
"aa-learning-trial","109","578756","0.0-9.0-2.0-1.18","5813","2","13","Female","approach_avoid_spark_v1","""event"",""trial"",""time""
""fullscreenenter"",""1"",""12343""
","
","
","""event"",""trial"",""time""
""fullscreenenter"",""1"",""12343""
","
","","","","","","927.3999996185303","images/straw8.png","","","learning","7","7","1","1","straw","fruit","2","0","","bad","[-6]"
"html-keyboard-response","110","579269","0.0-9.0-2.0-0.19","5813","2","13","Female","approach_avoid_spark_v1","""event"",""trial"",""time""
""fullscreenenter"",""1"",""12343""
","
","
","""event"",""trial"",""time""
""fullscreenenter"",""1"",""12343""
","
","","","","","","null","<div style=""font-size:60px;"">+</div>","null","","fixation","","","","","","","","","","",""
"aa-learning-trial","111","582281","0.0-9.0-2.0-1.19","5813","2","13","Female","approach_avoid_spark_v1","""event"",""trial"",""time""
""fullscreenenter"",""1"",""12343""
","
","
","""event"",""trial"",""time""
""fullscreenenter"",""1"",""12343""
","
","","","","","","1077.2000002861023","images/apple6.png","","","learning","6","6","1","1","apple","fruit","2","0","","neutral","0"
"html-keyboard-response","112","582790","0.0-9.0-2.0-0.20","5813","2","13","Female","approach_avoid_spark_v1","""event"",""trial"",""time""
""fullscreenenter"",""1"",""12343""
","
","
","""event"",""trial"",""time""
""fullscreenenter"",""1"",""12343""
","
","","","","","","null","<div style=""font-size:60px;"">+</div>","null","","fixation","","","","","","","","","","",""
"aa-learning-trial","113","585804","0.0-9.0-2.0-1.20","5813","2","13","Female","approach_avoid_spark_v1","""event"",""trial"",""time""
""fullscreenenter"",""1"",""12343""
","
","
","""event"",""trial"",""time""
""fullscreenenter"",""1"",""12343""
","
","","","","","","901","images/banana3.png","","","learning","5","0","0","0","banana","fruit","2","0","","good","[4]"
"html-keyboard-response","114","586314","0.0-9.0-2.0-0.21","5813","2","13","Female","approach_avoid_spark_v1","""event"",""trial"",""time""
""fullscreenenter"",""1"",""12343""
","
","
","""event"",""trial"",""time""
""fullscreenenter"",""1"",""12343""
","
","","","","","","null","<div style=""font-size:60px;"">+</div>","null","","fixation","","","","","","","","","","",""
"aa-learning-trial","115","589333","0.0-9.0-2.0-1.21","5813","2","13","Female","approach_avoid_spark_v1","""event"",""trial"",""time""
""fullscreenenter"",""1"",""12343""
","
","
","""event"",""trial"",""time""
""fullscreenenter"",""1"",""12343""
","
","","","","","","899.9000000953674","images/banana3.png","","","learning","5","5","1","1","banana","fruit","2","0","","good","[4]"
"html-keyboard-response","116","589840","0.0-9.0-2.0-0.22","5813","2","13","Female","approach_avoid_spark_v1","""event"",""trial"",""time""
""fullscreenenter"",""1"",""12343""
","
","
","""event"",""trial"",""time""
""fullscreenenter"",""1"",""12343""
","
","","","","","","null","<div style=""font-size:60px;"">+</div>","null","","fixation","","","","","","","","","","",""
"aa-learning-trial","117","592862","0.0-9.0-2.0-1.22","5813","2","13","Female","approach_avoid_spark_v1","""event"",""trial"",""time""
""fullscreenenter"",""1"",""12343""
","
","
","""event"",""trial"",""time""
""fullscreenenter"",""1"",""12343""
","
","","","","","","1226.5","images/banana4.png","","","learning","-1","-1","1","1","banana","fruit","2","0","","good","[4]"
"html-keyboard-response","118","593363","0.0-9.0-2.0-0.23","5813","2","13","Female","approach_avoid_spark_v1","""event"",""trial"",""time""
""fullscreenenter"",""1"",""12343""
","
","
","""event"",""trial"",""time""
""fullscreenenter"",""1"",""12343""
","
","","","","","","null","<div style=""font-size:60px;"">+</div>","null","","fixation","","","","","","","","","","",""
"aa-learning-trial","119","596380","0.0-9.0-2.0-1.23","5813","2","13","Female","approach_avoid_spark_v1","""event"",""trial"",""time""
""fullscreenenter"",""1"",""12343""
","
","
","""event"",""trial"",""time""
""fullscreenenter"",""1"",""12343""
","
","","","","","","831.0999999046326","images/straw4.png","","","learning","-4","0","0","0","straw","fruit","2","0","","bad","[-6]"
"html-keyboard-response","120","596892","0.0-9.0-2.0-0.24","5813","2","13","Female","approach_avoid_spark_v1","""event"",""trial"",""time""
""fullscreenenter"",""1"",""12343""
","
","
","""event"",""trial"",""time""
""fullscreenenter"",""1"",""12343""
","
","","","","","","null","<div style=""font-size:60px;"">+</div>","null","","fixation","","","","","","","","","","",""
"aa-learning-trial","121","599907","0.0-9.0-2.0-1.24","5813","2","13","Female","approach_avoid_spark_v1","""event"",""trial"",""time""
""fullscreenenter"",""1"",""12343""
","
","
","""event"",""trial"",""time""
""fullscreenenter"",""1"",""12343""
","
","","","","","","1315.9000000953674","images/apple6.png","","","learning","6","6","1","1","apple","fruit","2","0","","neutral","0"
"html-keyboard-response","122","600418","0.0-9.0-2.0-0.25","5813","2","13","Female","approach_avoid_spark_v1","""event"",""trial"",""time""
""fullscreenenter"",""1"",""12343""
","
","
","""event"",""trial"",""time""
""fullscreenenter"",""1"",""12343""
","
","","","","","","null","<div style=""font-size:60px;"">+</div>","null","","fixation","","","","","","","","","","",""
"aa-learning-trial","123","603437","0.0-9.0-2.0-1.25","5813","2","13","Female","approach_avoid_spark_v1","""event"",""trial"",""time""
""fullscreenenter"",""1"",""12343""
","
","
","""event"",""trial"",""time""
""fullscreenenter"",""1"",""12343""
","
","","","","","","1421.0999999046326","images/apple1.png","","","learning","-5","-5","1","1","apple","fruit","2","0","","neutral","0"
"html-keyboard-response","124","603941","0.0-9.0-2.0-0.26","5813","2","13","Female","approach_avoid_spark_v1","""event"",""trial"",""time""
""fullscreenenter"",""1"",""12343""
","
","
","""event"",""trial"",""time""
""fullscreenenter"",""1"",""12343""
","
","","","","","","null","<div style=""font-size:60px;"">+</div>","null","","fixation","","","","","","","","","","",""
"aa-learning-trial","125","606955","0.0-9.0-2.0-1.26","5813","2","13","Female","approach_avoid_spark_v1","""event"",""trial"",""time""
""fullscreenenter"",""1"",""12343""
","
","
","""event"",""trial"",""time""
""fullscreenenter"",""1"",""12343""
","
","","","","","","915.2000002861023","images/apple2.png","","","learning","-7","0","0","0","apple","fruit","2","0","","neutral","0"
"html-keyboard-response","126","607460","0.0-9.0-2.0-0.27","5813","2","13","Female","approach_avoid_spark_v1","""event"",""trial"",""time""
""fullscreenenter"",""1"",""12343""
","
","
","""event"",""trial"",""time""
""fullscreenenter"",""1"",""12343""
","
","","","","","","null","<div style=""font-size:60px;"">+</div>","null","","fixation","","","","","","","","","","",""
"aa-learning-trial","127","610473","0.0-9.0-2.0-1.27","5813","2","13","Female","approach_avoid_spark_v1","""event"",""trial"",""time""
""fullscreenenter"",""1"",""12343""
","
","
","""event"",""trial"",""time""
""fullscreenenter"",""1"",""12343""
","
","","","","","","861.6999998092651","images/straw1.png","","","learning","4","4","1","1","straw","fruit","2","0","","bad","[-6]"
"html-keyboard-response","128","610983","0.0-9.0-2.0-0.28","5813","2","13","Female","approach_avoid_spark_v1","""event"",""trial"",""time""
""fullscreenenter"",""1"",""12343""
","
","
","""event"",""trial"",""time""
""fullscreenenter"",""1"",""12343""
","
","","","","","","null","<div style=""font-size:60px;"">+</div>","null","","fixation","","","","","","","","","","",""
"aa-learning-trial","129","613995","0.0-9.0-2.0-1.28","5813","2","13","Female","approach_avoid_spark_v1","""event"",""trial"",""time""
""fullscreenenter"",""1"",""12343""
","
","
","""event"",""trial"",""time""
""fullscreenenter"",""1"",""12343""
","
","","","","","","848.0999999046326","images/banana3.png","","","learning","5","5","1","1","banana","fruit","2","0","","good","[4]"
"html-keyboard-response","130","614508","0.0-9.0-2.0-0.29","5813","2","13","Female","approach_avoid_spark_v1","""event"",""trial"",""time""
""fullscreenenter"",""1"",""12343""
","
","
","""event"",""trial"",""time""
""fullscreenenter"",""1"",""12343""
","
","","","","","","null","<div style=""font-size:60px;"">+</div>","null","","fixation","","","","","","","","","","",""
"aa-learning-trial","131","617524","0.0-9.0-2.0-1.29","5813","2","13","Female","approach_avoid_spark_v1","""event"",""trial"",""time""
""fullscreenenter"",""1"",""12343""
","
","
","""event"",""trial"",""time""
""fullscreenenter"",""1"",""12343""
","
","","","","","","1076.3000001907349","images/straw5.png","","","learning","1","0","0","0","straw","fruit","2","0","","bad","[-6]"
"html-keyboard-response","132","618036","0.0-9.0-2.0-0.30","5813","2","13","Female","approach_avoid_spark_v1","""event"",""trial"",""time""
""fullscreenenter"",""1"",""12343""
","
","
","""event"",""trial"",""time""
""fullscreenenter"",""1"",""12343""
","
","","","","","","null","<div style=""font-size:60px;"">+</div>","null","","fixation","","","","","","","","","","",""
"aa-learning-trial","133","621052","0.0-9.0-2.0-1.30","5813","2","13","Female","approach_avoid_spark_v1","""event"",""trial"",""time""
""fullscreenenter"",""1"",""12343""
","
","
","""event"",""trial"",""time""
""fullscreenenter"",""1"",""12343""
","
","","","","","","null","images/straw5.png","","","learning","1","-5","","null","straw","fruit","2","0","","bad","[-6]"
"html-keyboard-response","134","621558","0.0-9.0-2.0-0.31","5813","2","13","Female","approach_avoid_spark_v1","""event"",""trial"",""time""
""fullscreenenter"",""1"",""12343""
","
","
","""event"",""trial"",""time""
""fullscreenenter"",""1"",""12343""
","
","","","","","","null","<div style=""font-size:60px;"">+</div>","null","","fixation","","","","","","","","","","",""
"aa-learning-trial","135","624571","0.0-9.0-2.0-1.31","5813","2","13","Female","approach_avoid_spark_v1","""event"",""trial"",""time""
""fullscreenenter"",""1"",""12343""
","
","
","""event"",""trial"",""time""
""fullscreenenter"",""1"",""12343""
","
","","","","","","1648.7999997138977","images/apple2.png","","","learning","-7","-7","1","1","apple","fruit","2","0","","neutral","0"
"html-keyboard-response","136","625080","0.0-9.0-2.0-0.32","5813","2","13","Female","approach_avoid_spark_v1","""event"",""trial"",""time""
""fullscreenenter"",""1"",""12343""
","
","
","""event"",""trial"",""time""
""fullscreenenter"",""1"",""12343""
","
","","","","","","null","<div style=""font-size:60px;"">+</div>","null","","fixation","","","","","","","","","","",""
"aa-learning-trial","137","628108","0.0-9.0-2.0-1.32","5813","2","13","Female","approach_avoid_spark_v1","""event"",""trial"",""time""
""fullscreenenter"",""1"",""12343""
","
","
","""event"",""trial"",""time""
""fullscreenenter"",""1"",""12343""
","
","","","","","","656.0999999046326","images/banana4.png","","","learning","-1","0","0","0","banana","fruit","2","0","","good","[4]"
"html-keyboard-response","138","628620","0.0-9.0-2.0-0.33","5813","2","13","Female","approach_avoid_spark_v1","""event"",""trial"",""time""
""fullscreenenter"",""1"",""12343""
","
","
","""event"",""trial"",""time""
""fullscreenenter"",""1"",""12343""
","
","","","","","","null","<div style=""font-size:60px;"">+</div>","null","","fixation","","","","","","","","","","",""
"aa-learning-trial","139","631635","0.0-9.0-2.0-1.33","5813","2","13","Female","approach_avoid_spark_v1","""event"",""trial"",""time""
""fullscreenenter"",""1"",""12343""
","
","
","""event"",""trial"",""time""
""fullscreenenter"",""1"",""12343""
","
","","","","","","908.5999999046326","images/straw6.png","","","learning","-8","0","0","0","straw","fruit","2","0","","bad","[-6]"
"html-keyboard-response","140","632142","0.0-9.0-2.0-0.34","5813","2","13","Female","approach_avoid_spark_v1","""event"",""trial"",""time""
""fullscreenenter"",""1"",""12343""
","
","
","""event"",""trial"",""time""
""fullscreenenter"",""1"",""12343""
","
","","","","","","null","<div style=""font-size:60px;"">+</div>","null","","fixation","","","","","","","","","","",""
"aa-learning-trial","141","635153","0.0-9.0-2.0-1.34","5813","2","13","Female","approach_avoid_spark_v1","""event"",""trial"",""time""
""fullscreenenter"",""1"",""12343""
","
","
","""event"",""trial"",""time""
""fullscreenenter"",""1"",""12343""
","
","","","","","","1443.4000000953674","images/apple5.png","","","learning","3","3","1","1","apple","fruit","2","0","","neutral","0"
"html-keyboard-response","142","635661","0.0-9.0-2.0-0.35","5813","2","13","Female","approach_avoid_spark_v1","""event"",""trial"",""time""
""fullscreenenter"",""1"",""12343""
","
","
","""event"",""trial"",""time""
""fullscreenenter"",""1"",""12343""
","
","","","","","","null","<div style=""font-size:60px;"">+</div>","null","","fixation","","","","","","","","","","",""
"aa-learning-trial","143","638669","0.0-9.0-2.0-1.35","5813","2","13","Female","approach_avoid_spark_v1","""event"",""trial"",""time""
""fullscreenenter"",""1"",""12343""
","
","
","""event"",""trial"",""time""
""fullscreenenter"",""1"",""12343""
","
","","","","","","1256.9000000953674","images/apple4.png","","","learning","2","2","1","1","apple","fruit","2","0","","neutral","0"
"html-keyboard-response","144","639187","0.0-9.0-2.0-0.36","5813","2","13","Female","approach_avoid_spark_v1","""event"",""trial"",""time""
""fullscreenenter"",""1"",""12343""
","
","
","""event"",""trial"",""time""
""fullscreenenter"",""1"",""12343""
","
","","","","","","null","<div style=""font-size:60px;"">+</div>","null","","fixation","","","","","","","","","","",""
"aa-learning-trial","145","642204","0.0-9.0-2.0-1.36","5813","2","13","Female","approach_avoid_spark_v1","""event"",""trial"",""time""
""fullscreenenter"",""1"",""12343""
","
","
","""event"",""trial"",""time""
""fullscreenenter"",""1"",""12343""
","
","","","","","","1498.3999996185303","images/banana4.png","","","learning","-1","0","0","0","banana","fruit","2","0","","good","[4]"
"html-keyboard-response","146","642715","0.0-9.0-2.0-0.37","5813","2","13","Female","approach_avoid_spark_v1","""event"",""trial"",""time""
""fullscreenenter"",""1"",""12343""
","
","
","""event"",""trial"",""time""
""fullscreenenter"",""1"",""12343""
","
","","","","","","null","<div style=""font-size:60px;"">+</div>","null","","fixation","","","","","","","","","","",""
"aa-learning-trial","147","645729","0.0-9.0-2.0-1.37","5813","2","13","Female","approach_avoid_spark_v1","""event"",""trial"",""time""
""fullscreenenter"",""1"",""12343""
","
","
","""event"",""trial"",""time""
""fullscreenenter"",""1"",""12343""
","
","","","","","","886.8000001907349","images/banana7.png","","","learning","-6","-6","1","1","banana","fruit","2","0","","good","[4]"
"html-keyboard-response","148","646253","0.0-9.0-2.0-0.38","5813","2","13","Female","approach_avoid_spark_v1","""event"",""trial"",""time""
""fullscreenenter"",""1"",""12343""
","
","
","""event"",""trial"",""time""
""fullscreenenter"",""1"",""12343""
","
","","","","","","null","<div style=""font-size:60px;"">+</div>","null","","fixation","","","","","","","","","","",""
"aa-learning-trial","149","649263","0.0-9.0-2.0-1.38","5813","2","13","Female","approach_avoid_spark_v1","""event"",""trial"",""time""
""fullscreenenter"",""1"",""12343""
","
","
","""event"",""trial"",""time""
""fullscreenenter"",""1"",""12343""
","
","","","","","","961","images/banana6.png","","","learning","-3","0","0","0","banana","fruit","2","0","","good","[4]"
"html-keyboard-response","150","649779","0.0-9.0-2.0-0.39","5813","2","13","Female","approach_avoid_spark_v1","""event"",""trial"",""time""
""fullscreenenter"",""1"",""12343""
","
","
","""event"",""trial"",""time""
""fullscreenenter"",""1"",""12343""
","
","","","","","","null","<div style=""font-size:60px;"">+</div>","null","","fixation","","","","","","","","","","",""
"aa-learning-trial","151","652796","0.0-9.0-2.0-1.39","5813","2","13","Female","approach_avoid_spark_v1","""event"",""trial"",""time""
""fullscreenenter"",""1"",""12343""
","
","
","""event"",""trial"",""time""
""fullscreenenter"",""1"",""12343""
","
","","","","","","797.5","images/banana3.png","","","learning","5","5","1","1","banana","fruit","2","0","","good","[4]"
"html-keyboard-response","152","653304","0.0-9.0-2.0-0.40","5813","2","13","Female","approach_avoid_spark_v1","""event"",""trial"",""time""
""fullscreenenter"",""1"",""12343""
","
","
","""event"",""trial"",""time""
""fullscreenenter"",""1"",""12343""
","
","","","","","","null","<div style=""font-size:60px;"">+</div>","null","","fixation","","","","","","","","","","",""
"aa-learning-trial","153","656326","0.0-9.0-2.0-1.40","5813","2","13","Female","approach_avoid_spark_v1","""event"",""trial"",""time""
""fullscreenenter"",""1"",""12343""
","
","
","""event"",""trial"",""time""
""fullscreenenter"",""1"",""12343""
","
","","","","","","1285.1999998092651","images/banana8.png","","","learning","8","0","0","0","banana","fruit","2","0","","good","[4]"
"html-keyboard-response","154","656837","0.0-9.0-2.0-0.41","5813","2","13","Female","approach_avoid_spark_v1","""event"",""trial"",""time""
""fullscreenenter"",""1"",""12343""
","
","
","""event"",""trial"",""time""
""fullscreenenter"",""1"",""12343""
","
","","","","","","null","<div style=""font-size:60px;"">+</div>","null","","fixation","","","","","","","","","","",""
"aa-learning-trial","155","659858","0.0-9.0-2.0-1.41","5813","2","13","Female","approach_avoid_spark_v1","""event"",""trial"",""time""
""fullscreenenter"",""1"",""12343""
","
","
","""event"",""trial"",""time""
""fullscreenenter"",""1"",""12343""
","
","","","","","","705.4000000953674","images/apple5.png","","","learning","3","3","1","1","apple","fruit","2","0","","neutral","0"
"html-keyboard-response","156","660366","0.0-9.0-2.0-0.42","5813","2","13","Female","approach_avoid_spark_v1","""event"",""trial"",""time""
""fullscreenenter"",""1"",""12343""
","
","
","""event"",""trial"",""time""
""fullscreenenter"",""1"",""12343""
","
","","","","","","null","<div style=""font-size:60px;"">+</div>","null","","fixation","","","","","","","","","","",""
"aa-learning-trial","157","663378","0.0-9.0-2.0-1.42","5813","2","13","Female","approach_avoid_spark_v1","""event"",""trial"",""time""
""fullscreenenter"",""1"",""12343""
","
","
","""event"",""trial"",""time""
""fullscreenenter"",""1"",""12343""
","
","","","","","","1102.3999996185303","images/apple2.png","","","learning","-7","0","0","0","apple","fruit","2","0","","neutral","0"
"html-keyboard-response","158","663888","0.0-9.0-2.0-0.43","5813","2","13","Female","approach_avoid_spark_v1","""event"",""trial"",""time""
""fullscreenenter"",""1"",""12343""
","
","
","""event"",""trial"",""time""
""fullscreenenter"",""1"",""12343""
","
","","","","","","null","<div style=""font-size:60px;"">+</div>","null","","fixation","","","","","","","","","","",""
"aa-learning-trial","159","666901","0.0-9.0-2.0-1.43","5813","2","13","Female","approach_avoid_spark_v1","""event"",""trial"",""time""
""fullscreenenter"",""1"",""12343""
","
","
","""event"",""trial"",""time""
""fullscreenenter"",""1"",""12343""
","
","","","","","","null","images/apple2.png","","","learning","-7","-5","","null","apple","fruit","2","0","","neutral","0"
"html-keyboard-response","160","667412","0.0-9.0-2.0-0.44","5813","2","13","Female","approach_avoid_spark_v1","""event"",""trial"",""time""
""fullscreenenter"",""1"",""12343""
","
","
","""event"",""trial"",""time""
""fullscreenenter"",""1"",""12343""
","
","","","","","","null","<div style=""font-size:60px;"">+</div>","null","","fixation","","","","","","","","","","",""
"aa-learning-trial","161","670428","0.0-9.0-2.0-1.44","5813","2","13","Female","approach_avoid_spark_v1","""event"",""trial"",""time""
""fullscreenenter"",""1"",""12343""
","
","
","""event"",""trial"",""time""
""fullscreenenter"",""1"",""12343""
","
","","","","","","788.0999999046326","images/banana4.png","","","learning","-1","-1","1","1","banana","fruit","2","0","","good","[4]"
"html-keyboard-response","162","670941","0.0-9.0-2.0-0.45","5813","2","13","Female","approach_avoid_spark_v1","""event"",""trial"",""time""
""fullscreenenter"",""1"",""12343""
","
","
","""event"",""trial"",""time""
""fullscreenenter"",""1"",""12343""
","
","","","","","","null","<div style=""font-size:60px;"">+</div>","null","","fixation","","","","","","","","","","",""
"aa-learning-trial","163","673954","0.0-9.0-2.0-1.45","5813","2","13","Female","approach_avoid_spark_v1","""event"",""trial"",""time""
""fullscreenenter"",""1"",""12343""
","
","
","""event"",""trial"",""time""
""fullscreenenter"",""1"",""12343""
","
","","","","","","896.7999997138977","images/straw8.png","","","learning","7","0","0","0","straw","fruit","2","0","","bad","[-6]"
"html-keyboard-response","164","674466","0.0-9.0-2.0-0.46","5813","2","13","Female","approach_avoid_spark_v1","""event"",""trial"",""time""
""fullscreenenter"",""1"",""12343""
","
","
","""event"",""trial"",""time""
""fullscreenenter"",""1"",""12343""
","
","","","","","","null","<div style=""font-size:60px;"">+</div>","null","","fixation","","","","","","","","","","",""
"aa-learning-trial","165","677479","0.0-9.0-2.0-1.46","5813","2","13","Female","approach_avoid_spark_v1","""event"",""trial"",""time""
""fullscreenenter"",""1"",""12343""
","
","
","""event"",""trial"",""time""
""fullscreenenter"",""1"",""12343""
","
","","","","","","1442","images/apple6.png","","","learning","6","6","1","1","apple","fruit","2","0","","neutral","0"
"html-keyboard-response","166","678004","0.0-9.0-2.0-0.47","5813","2","13","Female","approach_avoid_spark_v1","""event"",""trial"",""time""
""fullscreenenter"",""1"",""12343""
","
","
","""event"",""trial"",""time""
""fullscreenenter"",""1"",""12343""
","
","","","","","","null","<div style=""font-size:60px;"">+</div>","null","","fixation","","","","","","","","","","",""
"aa-learning-trial","167","681020","0.0-9.0-2.0-1.47","5813","2","13","Female","approach_avoid_spark_v1","""event"",""trial"",""time""
""fullscreenenter"",""1"",""12343""
","
","
","""event"",""trial"",""time""
""fullscreenenter"",""1"",""12343""
","
","","","","","","1838.5999999046326","images/banana6.png","","","learning","-3","0","0","0","banana","fruit","2","0","","good","[4]"
"html-keyboard-response","168","681531","0.0-9.0-2.0-0.48","5813","2","13","Female","approach_avoid_spark_v1","""event"",""trial"",""time""
""fullscreenenter"",""1"",""12343""
","
","
","""event"",""trial"",""time""
""fullscreenenter"",""1"",""12343""
","
","","","","","","null","<div style=""font-size:60px;"">+</div>","null","","fixation","","","","","","","","","","",""
"aa-learning-trial","169","684553","0.0-9.0-2.0-1.48","5813","2","13","Female","approach_avoid_spark_v1","""event"",""trial"",""time""
""fullscreenenter"",""1"",""12343""
","
","
","""event"",""trial"",""time""
""fullscreenenter"",""1"",""12343""
","
","","","","","","559.3000001907349","images/straw5.png","","","learning","1","1","1","1","straw","fruit","2","0","","bad","[-6]"
"html-keyboard-response","170","685062","0.0-9.0-2.0-0.49","5813","2","13","Female","approach_avoid_spark_v1","""event"",""trial"",""time""
""fullscreenenter"",""1"",""12343""
","
","
","""event"",""trial"",""time""
""fullscreenenter"",""1"",""12343""
","
","","","","","","null","<div style=""font-size:60px;"">+</div>","null","","fixation","","","","","","","","","","",""
"aa-learning-trial","171","688072","0.0-9.0-2.0-1.49","5813","2","13","Female","approach_avoid_spark_v1","""event"",""trial"",""time""
""fullscreenenter"",""1"",""12343""
","
","
","""event"",""trial"",""time""
""fullscreenenter"",""1"",""12343""
","
","","","","","","996.1000003814697","images/apple6.png","","","learning","6","0","0","0","apple","fruit","2","0","","neutral","0"
"html-keyboard-response","172","688593","0.0-9.0-2.0-0.50","5813","2","13","Female","approach_avoid_spark_v1","""event"",""trial"",""time""
""fullscreenenter"",""1"",""12343""
","
","
","""event"",""trial"",""time""
""fullscreenenter"",""1"",""12343""
","
","","","","","","null","<div style=""font-size:60px;"">+</div>","null","","fixation","","","","","","","","","","",""
"aa-learning-trial","173","691603","0.0-9.0-2.0-1.50","5813","2","13","Female","approach_avoid_spark_v1","""event"",""trial"",""time""
""fullscreenenter"",""1"",""12343""
","
","
","""event"",""trial"",""time""
""fullscreenenter"",""1"",""12343""
","
","","","","","","1079.4000000953674","images/straw4.png","","","learning","-4","-4","1","1","straw","fruit","2","0","","bad","[-6]"
"html-button-response","174","694403","0.0-9.0-3.0","5813","2","13","Female","approach_avoid_spark_v1","""event"",""trial"",""time""
""fullscreenenter"",""1"",""12343""
","
","
","""event"",""trial"",""time""
""fullscreenenter"",""1"",""12343""
","
","","","","","","2798.5999999046326","<p> You have completed the round! <p> In this round, you earned 41 points! </p>","0","","break","","","","","","","","","","",""
"html-button-response","175","696371","0.0-10.0","5813","2","13","Female","approach_avoid_spark_v1","""event"",""trial"",""time""
""fullscreenenter"",""1"",""12343""
","
","
","""event"",""trial"",""time""
""fullscreenenter"",""1"",""12343""
","
","","","","","","1967.1999998092651","<p> Now it's time to play another round. </p>","0","","transition_screen","","","","","","","","","","",""
"preload","176","696496","0.0-11.0-0.0","5813","2","13","Female","approach_avoid_spark_v1","""event"",""trial"",""time""
""fullscreenenter"",""1"",""12343""
","
","
","""event"",""trial"",""time""
""fullscreenenter"",""1"",""12343""
","
","true","false","[]","[]","[]","","","","","","","","","","","","","","","",""
"learning-instructions","177","705252","0.0-11.0-1.0-0.0","5813","2","13","Female","approach_avoid_spark_v1","""event"",""trial"",""time""
""fullscreenenter"",""1"",""12343""
","
","
","""event"",""trial"",""time""
""fullscreenenter"",""1"",""12343""
","
","","","","","","3102","<p> Your goal in this round is to take care of lots of animals. </p></div>","","0","instructions","","","","","","","","","","",""
"learning-instructions","178","718832","0.0-11.0-1.0-0.1","5813","2","13","Female","approach_avoid_spark_v1","""event"",""trial"",""time""
""fullscreenenter"",""1"",""12343""
","
","
","""event"",""trial"",""time""
""fullscreenenter"",""1"",""12343""
","
","","","","","","2301.5","<p> Some animals want to be pet, while other animals want to be left alone.  </p><p> On each turn, you will see an animal.   </p><p> You need to decide whether to pet it or not.  </p>","","0","instructions","","","","","","","","","","",""
"learning-instructions","179","726323","0.0-11.0-1.0-0.2","5813","2","13","Female","approach_avoid_spark_v1","""event"",""trial"",""time""
""fullscreenenter"",""1"",""12343""
","
","
","""event"",""trial"",""time""
""fullscreenenter"",""1"",""12343""
","
","","","","","","1592.6000003814697","<p> You can pet the animal by pressing 1 and leave the animal alone by pressing 0. </p><br><div class=""choice-instructions-grid""> <div class=""choice-option""><img src=""images/approach.png"" class=""choice-option-img"" stage=""instructions"" position=""0"" ><div class=""choice-option-text""> Press ""1."" </div></div><div class=""choice-option""><img src=""images/avoid.png"" class=""choice-option-img"" stage=""instructions"" position=""1"" ><div class=""choice-option-text""> Press ""0."" </div></div>","","0","instructions","","","","","","","","","","",""
"learning-instructions","180","736990","0.0-11.0-1.0-0.3","5813","2","13","Female","approach_avoid_spark_v1","""event"",""trial"",""time""
""fullscreenenter"",""1"",""12343""
","
","
","""event"",""trial"",""time""
""fullscreenenter"",""1"",""12343""
","
","","","","","","1170.9000000953674","<p> If you pet an animal that wants to be pet, you will make it feel happy! </p><p> But if you pet an animal that wants to be left alone, you will make it feel angry. </p>","","0","instructions","","","","","","","","","","",""
"learning-instructions","181","751237","0.0-11.0-1.0-0.4","5813","2","13","Female","approach_avoid_spark_v1","""event"",""trial"",""time""
""fullscreenenter"",""1"",""12343""
","
","
","""event"",""trial"",""time""
""fullscreenenter"",""1"",""12343""
","
","","","","","","1387.5","<p> You will earn points based on how you made the animal feel. </p><p> If you made it feel happy, you will WIN anywhere from 1 - 9 points, </p><p> but if you made it feel angry, you will LOSE anywhere from 1 - 9 points. </p>","","0","instructions","","","","","","","","","","",""
"learning-instructions","182","758525","0.0-11.0-1.0-0.5","5813","2","13","Female","approach_avoid_spark_v1","""event"",""trial"",""time""
""fullscreenenter"",""1"",""12343""
","
","
","""event"",""trial"",""time""
""fullscreenenter"",""1"",""12343""
","
","","","","","","614.8000001907349","<p> You will see how many points you won or lost in the center of the screen. </p><p> Here is what you would see if you won 5 points: </p><p style=""color:green;font-size:50px;font-weight:bolder"">5</p>","","0","instructions","","","","","","","","","","",""
"learning-instructions","183","762104","0.0-11.0-1.0-0.6","5813","2","13","Female","approach_avoid_spark_v1","""event"",""trial"",""time""
""fullscreenenter"",""1"",""12343""
","
","
","""event"",""trial"",""time""
""fullscreenenter"",""1"",""12343""
","
","","","","","","734.4000000953674","<p> And here is what you would see if you lost 3 points: </p><p style=""color:red;font-size:50px;font-weight:bolder"">-3</p>","","0","instructions","","","","","","","","","","",""
"learning-instructions","184","777681","0.0-11.0-1.0-0.7","5813","2","13","Female","approach_avoid_spark_v1","""event"",""trial"",""time""
""fullscreenenter"",""1"",""12343""
","
","
","""event"",""trial"",""time""
""fullscreenenter"",""1"",""12343""
","
","","","","","","1090","<p> Some animals will become very happy or very angry. </p><p> These animals will make you win or lose LOTS of points. </p><p> Other animals have less strong feelings. </p><p> These animals will make you win or lose small amounts of points. </p>","","0","instructions","","","","","","","","","","",""
"learning-instructions","185","791569","0.0-11.0-1.0-0.8","5813","2","13","Female","approach_avoid_spark_v1","""event"",""trial"",""time""
""fullscreenenter"",""1"",""12343""
","
","
","""event"",""trial"",""time""
""fullscreenenter"",""1"",""12343""
","
","","","","","","1739.1999998092651","<p> If you choose to leave the animal alone, you will not win or lose any points. </p><p>  However, in the center of the screen, you will see the number of points you WOULD HAVE won or lost if you had pet the animal. </p>","","0","instructions","","","","","","","","","","",""
"learning-instructions","186","805100","0.0-11.0-1.0-0.9","5813","2","13","Female","approach_avoid_spark_v1","""event"",""trial"",""time""
""fullscreenenter"",""1"",""12343""
","
","
","""event"",""trial"",""time""
""fullscreenenter"",""1"",""12343""
","
","","","","","","1366.5999999046326","<p> Here is what you might see if you did not pet the animal but the animal wanted to be pet: </p><p style=""color:grey; font-size:50px; display: inline-block; border-spacing: 15px; border-width:3px; border-style:solid; border-color:red"">  &nbsp; 6 &nbsp; </p><p> Remember, in this case, you would not win or lose ANY points because you did not pet the animal.  </p>","","0","instructions","","","","","","","","","","",""
"learning-instructions","187","814807","0.0-11.0-1.0-0.10","5813","2","13","Female","approach_avoid_spark_v1","""event"",""trial"",""time""
""fullscreenenter"",""1"",""12343""
","
","
","""event"",""trial"",""time""
""fullscreenenter"",""1"",""12343""
","
","","","","","","1597.8000001907349","<p> Try to make the best choice for each animal because </p><p> at the end of the game, you will earn bonus money based on how many points you earned. </p>","","0","instructions","","","","","","","","","","",""
"learning-instructions","188","824158","0.0-11.0-1.0-0.11","5813","2","13","Female","approach_avoid_spark_v1","""event"",""trial"",""time""
""fullscreenenter"",""1"",""12343""
","
","
","""event"",""trial"",""time""
""fullscreenenter"",""1"",""12343""
","
","","","","","","1147.2000002861023","<p> You will have 3 seconds to make each choice. Try to respond before time runs out! </p><p> You will lose 5 points each time you do not make a response. </p>","","0","instructions","","","","","","","","","","",""
"html-keyboard-response","189","824778","0.0-11.0-2.0-0.0","5813","2","13","Female","approach_avoid_spark_v1","""event"",""trial"",""time""
""fullscreenenter"",""1"",""12343""
","
","
","""event"",""trial"",""time""
""fullscreenenter"",""1"",""12343""
","
","","","","","","null","<div style=""font-size:60px;"">+</div>","null","","fixation","","","","","","","","","","",""
"aa-learning-trial","190","827798","0.0-11.0-2.0-1.0","5813","2","13","Female","approach_avoid_spark_v1","""event"",""trial"",""time""
""fullscreenenter"",""1"",""12343""
","
","
","""event"",""trial"",""time""
""fullscreenenter"",""1"",""12343""
","
","","","","","","1118.9000000953674","images/dog2.png","","","learning","-6","-6","1","1","dog","pets","1","1","","bad","[-5]"
"html-keyboard-response","191","828308","0.0-11.0-2.0-0.1","5813","2","13","Female","approach_avoid_spark_v1","""event"",""trial"",""time""
""fullscreenenter"",""1"",""12343""
","
","
","""event"",""trial"",""time""
""fullscreenenter"",""1"",""12343""
","
","","","","","","null","<div style=""font-size:60px;"">+</div>","null","","fixation","","","","","","","","","","",""
"aa-learning-trial","192","831318","0.0-11.0-2.0-1.1","5813","2","13","Female","approach_avoid_spark_v1","""event"",""trial"",""time""
""fullscreenenter"",""1"",""12343""
","
","
","""event"",""trial"",""time""
""fullscreenenter"",""1"",""12343""
","
","","","","","","829.5","images/rabbit1.png","","","learning","1","1","1","1","rabbit","pets","1","1","","neutral","0"
"html-keyboard-response","193","831838","0.0-11.0-2.0-0.2","5813","2","13","Female","approach_avoid_spark_v1","""event"",""trial"",""time""
""fullscreenenter"",""1"",""12343""
","
","
","""event"",""trial"",""time""
""fullscreenenter"",""1"",""12343""
","
","","","","","","null","<div style=""font-size:60px;"">+</div>","null","","fixation","","","","","","","","","","",""
"aa-learning-trial","194","834849","0.0-11.0-2.0-1.2","5813","2","13","Female","approach_avoid_spark_v1","""event"",""trial"",""time""
""fullscreenenter"",""1"",""12343""
","
","
","""event"",""trial"",""time""
""fullscreenenter"",""1"",""12343""
","
","","","","","","899.4000000953674","images/rabbit4.png","","","learning","-1","0","0","0","rabbit","pets","1","1","","neutral","0"
"html-keyboard-response","195","835368","0.0-11.0-2.0-0.3","5813","2","13","Female","approach_avoid_spark_v1","""event"",""trial"",""time""
""fullscreenenter"",""1"",""12343""
","
","
","""event"",""trial"",""time""
""fullscreenenter"",""1"",""12343""
","
","","","","","","null","<div style=""font-size:60px;"">+</div>","null","","fixation","","","","","","","","","","",""
"aa-learning-trial","196","838379","0.0-11.0-2.0-1.3","5813","2","13","Female","approach_avoid_spark_v1","""event"",""trial"",""time""
""fullscreenenter"",""1"",""12343""
","
","
","""event"",""trial"",""time""
""fullscreenenter"",""1"",""12343""
","
","","","","","","674","images/cat2.png","","","learning","4","4","1","1","cat","pets","1","1","","good","[5]"
"html-keyboard-response","197","838898","0.0-11.0-2.0-0.4","5813","2","13","Female","approach_avoid_spark_v1","""event"",""trial"",""time""
""fullscreenenter"",""1"",""12343""
","
","
","""event"",""trial"",""time""
""fullscreenenter"",""1"",""12343""
","
","","","","","","null","<div style=""font-size:60px;"">+</div>","null","","fixation","","","","","","","","","","",""
"aa-learning-trial","198","841918","0.0-11.0-2.0-1.4","5813","2","13","Female","approach_avoid_spark_v1","""event"",""trial"",""time""
""fullscreenenter"",""1"",""12343""
","
","
","""event"",""trial"",""time""
""fullscreenenter"",""1"",""12343""
","
","","","","","","1217.1999998092651","images/dog5.png","","","learning","-5","-5","1","1","dog","pets","1","1","","bad","[-5]"
"html-keyboard-response","199","842438","0.0-11.0-2.0-0.5","5813","2","13","Female","approach_avoid_spark_v1","""event"",""trial"",""time""
""fullscreenenter"",""1"",""12343""
","
","
","""event"",""trial"",""time""
""fullscreenenter"",""1"",""12343""
","
","","","","","","null","<div style=""font-size:60px;"">+</div>","null","","fixation","","","","","","","","","","",""
"aa-learning-trial","200","845449","0.0-11.0-2.0-1.5","5813","2","13","Female","approach_avoid_spark_v1","""event"",""trial"",""time""
""fullscreenenter"",""1"",""12343""
","
","
","""event"",""trial"",""time""
""fullscreenenter"",""1"",""12343""
","
","","","","","","914.9000000953674","images/dog1.png","","","learning","-5","0","0","0","dog","pets","1","1","","bad","[-5]"
"html-keyboard-response","201","845968","0.0-11.0-2.0-0.6","5813","2","13","Female","approach_avoid_spark_v1","""event"",""trial"",""time""
""fullscreenenter"",""1"",""12343""
","
","
","""event"",""trial"",""time""
""fullscreenenter"",""1"",""12343""
","
","","","","","","null","<div style=""font-size:60px;"">+</div>","null","","fixation","","","","","","","","","","",""
"aa-learning-trial","202","848988","0.0-11.0-2.0-1.6","5813","2","13","Female","approach_avoid_spark_v1","""event"",""trial"",""time""
""fullscreenenter"",""1"",""12343""
","
","
","""event"",""trial"",""time""
""fullscreenenter"",""1"",""12343""
","
","","","","","","602.6999998092651","images/cat8.png","","","learning","5","5","1","1","cat","pets","1","1","","good","[5]"
"html-keyboard-response","203","849508","0.0-11.0-2.0-0.7","5813","2","13","Female","approach_avoid_spark_v1","""event"",""trial"",""time""
""fullscreenenter"",""1"",""12343""
","
","
","""event"",""trial"",""time""
""fullscreenenter"",""1"",""12343""
","
","","","","","","null","<div style=""font-size:60px;"">+</div>","null","","fixation","","","","","","","","","","",""
"aa-learning-trial","204","852519","0.0-11.0-2.0-1.7","5813","2","13","Female","approach_avoid_spark_v1","""event"",""trial"",""time""
""fullscreenenter"",""1"",""12343""
","
","
","""event"",""trial"",""time""
""fullscreenenter"",""1"",""12343""
","
","","","","","","740.7999997138977","images/rabbit3.png","","","learning","[-1]","-1","1","1","rabbit","pets","1","1","","neutral","0"
"html-keyboard-response","205","853038","0.0-11.0-2.0-0.8","5813","2","13","Female","approach_avoid_spark_v1","""event"",""trial"",""time""
""fullscreenenter"",""1"",""12343""
","
","
","""event"",""trial"",""time""
""fullscreenenter"",""1"",""12343""
","
","","","","","","null","<div style=""font-size:60px;"">+</div>","null","","fixation","","","","","","","","","","",""
"aa-learning-trial","206","856052","0.0-11.0-2.0-1.8","5813","2","13","Female","approach_avoid_spark_v1","""event"",""trial"",""time""
""fullscreenenter"",""1"",""12343""
","
","
","""event"",""trial"",""time""
""fullscreenenter"",""1"",""12343""
","
","","","","","","1255.5","images/rabbit1.png","","","learning","1","1","1","1","rabbit","pets","1","1","","neutral","0"
"html-keyboard-response","207","856554","0.0-11.0-2.0-0.9","5813","2","13","Female","approach_avoid_spark_v1","""event"",""trial"",""time""
""fullscreenenter"",""1"",""12343""
","
","
","""event"",""trial"",""time""
""fullscreenenter"",""1"",""12343""
","
","","","","","","null","<div style=""font-size:60px;"">+</div>","null","","fixation","","","","","","","","","","",""
"aa-learning-trial","208","859573","0.0-11.0-2.0-1.9","5813","2","13","Female","approach_avoid_spark_v1","""event"",""trial"",""time""
""fullscreenenter"",""1"",""12343""
","
","
","""event"",""trial"",""time""
""fullscreenenter"",""1"",""12343""
","
","","","","","","771.5","images/rabbit3.png","","","learning","2","2","1","1","rabbit","pets","1","1","","neutral","0"
"html-keyboard-response","209","860086","0.0-11.0-2.0-0.10","5813","2","13","Female","approach_avoid_spark_v1","""event"",""trial"",""time""
""fullscreenenter"",""1"",""12343""
","
","
","""event"",""trial"",""time""
""fullscreenenter"",""1"",""12343""
","
","","","","","","null","<div style=""font-size:60px;"">+</div>","null","","fixation","","","","","","","","","","",""
"aa-learning-trial","210","863096","0.0-11.0-2.0-1.10","5813","2","13","Female","approach_avoid_spark_v1","""event"",""trial"",""time""
""fullscreenenter"",""1"",""12343""
","
","
","""event"",""trial"",""time""
""fullscreenenter"",""1"",""12343""
","
","","","","","","732.8000001907349","images/dog1.png","","","learning","-4","-4","1","1","dog","pets","1","1","","bad","[-5]"
"html-keyboard-response","211","863614","0.0-11.0-2.0-0.11","5813","2","13","Female","approach_avoid_spark_v1","""event"",""trial"",""time""
""fullscreenenter"",""1"",""12343""
","
","
","""event"",""trial"",""time""
""fullscreenenter"",""1"",""12343""
","
","","","","","","null","<div style=""font-size:60px;"">+</div>","null","","fixation","","","","","","","","","","",""
"aa-learning-trial","212","866623","0.0-11.0-2.0-1.11","5813","2","13","Female","approach_avoid_spark_v1","""event"",""trial"",""time""
""fullscreenenter"",""1"",""12343""
","
","
","""event"",""trial"",""time""
""fullscreenenter"",""1"",""12343""
","
","","","","","","1279.3000001907349","images/cat2.png","","","learning","5","5","1","1","cat","pets","1","1","","good","[5]"
"html-keyboard-response","213","867141","0.0-11.0-2.0-0.12","5813","2","13","Female","approach_avoid_spark_v1","""event"",""trial"",""time""
""fullscreenenter"",""1"",""12343""
","
","
","""event"",""trial"",""time""
""fullscreenenter"",""1"",""12343""
","
","","","","","","null","<div style=""font-size:60px;"">+</div>","null","","fixation","","","","","","","","","","",""
"aa-learning-trial","214","870149","0.0-11.0-2.0-1.12","5813","2","13","Female","approach_avoid_spark_v1","""event"",""trial"",""time""
""fullscreenenter"",""1"",""12343""
","
","
","""event"",""trial"",""time""
""fullscreenenter"",""1"",""12343""
","
","","","","","","2115.2000002861023","images/cat4.png","","","learning","2","2","1","1","cat","pets","1","1","","good","[5]"
"html-keyboard-response","215","870664","0.0-11.0-2.0-0.13","5813","2","13","Female","approach_avoid_spark_v1","""event"",""trial"",""time""
""fullscreenenter"",""1"",""12343""
","
","
","""event"",""trial"",""time""
""fullscreenenter"",""1"",""12343""
","
","","","","","","null","<div style=""font-size:60px;"">+</div>","null","","fixation","","","","","","","","","","",""
"aa-learning-trial","216","873674","0.0-11.0-2.0-1.13","5813","2","13","Female","approach_avoid_spark_v1","""event"",""trial"",""time""
""fullscreenenter"",""1"",""12343""
","
","
","""event"",""trial"",""time""
""fullscreenenter"",""1"",""12343""
","
","","","","","","1499.3000001907349","images/cat8.png","","","learning","3","3","1","1","cat","pets","1","1","","good","[5]"
"html-keyboard-response","217","874188","0.0-11.0-2.0-0.14","5813","2","13","Female","approach_avoid_spark_v1","""event"",""trial"",""time""
""fullscreenenter"",""1"",""12343""
","
","
","""event"",""trial"",""time""
""fullscreenenter"",""1"",""12343""
","
","","","","","","null","<div style=""font-size:60px;"">+</div>","null","","fixation","","","","","","","","","","",""
"aa-learning-trial","218","877199","0.0-11.0-2.0-1.14","5813","2","13","Female","approach_avoid_spark_v1","""event"",""trial"",""time""
""fullscreenenter"",""1"",""12343""
","
","
","""event"",""trial"",""time""
""fullscreenenter"",""1"",""12343""
","
","","","","","","588","images/dog5.png","","","learning","-4","-4","1","1","dog","pets","1","1","","bad","[-5]"
"html-keyboard-response","219","877710","0.0-11.0-2.0-0.15","5813","2","13","Female","approach_avoid_spark_v1","""event"",""trial"",""time""
""fullscreenenter"",""1"",""12343""
","
","
","""event"",""trial"",""time""
""fullscreenenter"",""1"",""12343""
","
","","","","","","null","<div style=""font-size:60px;"">+</div>","null","","fixation","","","","","","","","","","",""
"aa-learning-trial","220","880724","0.0-11.0-2.0-1.15","5813","2","13","Female","approach_avoid_spark_v1","""event"",""trial"",""time""
""fullscreenenter"",""1"",""12343""
","
","
","""event"",""trial"",""time""
""fullscreenenter"",""1"",""12343""
","
","","","","","","1257.2999997138977","images/rabbit4.png","","","learning","[1]","0","0","0","rabbit","pets","1","1","","neutral","0"
"html-keyboard-response","221","881240","0.0-11.0-2.0-0.16","5813","2","13","Female","approach_avoid_spark_v1","""event"",""trial"",""time""
""fullscreenenter"",""1"",""12343""
","
","
","""event"",""trial"",""time""
""fullscreenenter"",""1"",""12343""
","
","","","","","","null","<div style=""font-size:60px;"">+</div>","null","","fixation","","","","","","","","","","",""
"aa-learning-trial","222","884254","0.0-11.0-2.0-1.16","5813","2","13","Female","approach_avoid_spark_v1","""event"",""trial"",""time""
""fullscreenenter"",""1"",""12343""
","
","
","""event"",""trial"",""time""
""fullscreenenter"",""1"",""12343""
","
","","","","","","1064.3000001907349","images/dog1.png","","","learning","-4","0","0","0","dog","pets","1","1","","bad","[-5]"
"html-keyboard-response","223","884772","0.0-11.0-2.0-0.17","5813","2","13","Female","approach_avoid_spark_v1","""event"",""trial"",""time""
""fullscreenenter"",""1"",""12343""
","
","
","""event"",""trial"",""time""
""fullscreenenter"",""1"",""12343""
","
","","","","","","null","<div style=""font-size:60px;"">+</div>","null","","fixation","","","","","","","","","","",""
"aa-learning-trial","224","887788","0.0-11.0-2.0-1.17","5813","2","13","Female","approach_avoid_spark_v1","""event"",""trial"",""time""
""fullscreenenter"",""1"",""12343""
","
","
","""event"",""trial"",""time""
""fullscreenenter"",""1"",""12343""
","
","","","","","","962.6000003814697","images/rabbit3.png","","","learning","1","1","1","1","rabbit","pets","1","1","","neutral","0"
"html-keyboard-response","225","888296","0.0-11.0-2.0-0.18","5813","2","13","Female","approach_avoid_spark_v1","""event"",""trial"",""time""
""fullscreenenter"",""1"",""12343""
","
","
","""event"",""trial"",""time""
""fullscreenenter"",""1"",""12343""
","
","","","","","","null","<div style=""font-size:60px;"">+</div>","null","","fixation","","","","","","","","","","",""
"aa-learning-trial","226","891303","0.0-11.0-2.0-1.18","5813","2","13","Female","approach_avoid_spark_v1","""event"",""trial"",""time""
""fullscreenenter"",""1"",""12343""
","
","
","""event"",""trial"",""time""
""fullscreenenter"",""1"",""12343""
","
","","","","","","774","images/dog5.png","","","learning","-4","0","0","0","dog","pets","1","1","","bad","[-5]"
"html-keyboard-response","227","891818","0.0-11.0-2.0-0.19","5813","2","13","Female","approach_avoid_spark_v1","""event"",""trial"",""time""
""fullscreenenter"",""1"",""12343""
","
","
","""event"",""trial"",""time""
""fullscreenenter"",""1"",""12343""
","
","","","","","","null","<div style=""font-size:60px;"">+</div>","null","","fixation","","","","","","","","","","",""
"aa-learning-trial","228","894831","0.0-11.0-2.0-1.19","5813","2","13","Female","approach_avoid_spark_v1","""event"",""trial"",""time""
""fullscreenenter"",""1"",""12343""
","
","
","""event"",""trial"",""time""
""fullscreenenter"",""1"",""12343""
","
","","","","","","504.5","images/dog5.png","","","learning","-7","-7","1","1","dog","pets","1","1","","bad","[-5]"
"html-keyboard-response","229","895347","0.0-11.0-2.0-0.20","5813","2","13","Female","approach_avoid_spark_v1","""event"",""trial"",""time""
""fullscreenenter"",""1"",""12343""
","
","
","""event"",""trial"",""time""
""fullscreenenter"",""1"",""12343""
","
","","","","","","null","<div style=""font-size:60px;"">+</div>","null","","fixation","","","","","","","","","","",""
"aa-learning-trial","230","898363","0.0-11.0-2.0-1.20","5813","2","13","Female","approach_avoid_spark_v1","""event"",""trial"",""time""
""fullscreenenter"",""1"",""12343""
","
","
","""event"",""trial"",""time""
""fullscreenenter"",""1"",""12343""
","
","","","","","","729","images/rabbit1.png","","","learning","4","0","0","0","rabbit","pets","1","1","","neutral","0"
"html-keyboard-response","231","898871","0.0-11.0-2.0-0.21","5813","2","13","Female","approach_avoid_spark_v1","""event"",""trial"",""time""
""fullscreenenter"",""1"",""12343""
","
","
","""event"",""trial"",""time""
""fullscreenenter"",""1"",""12343""
","
","","","","","","null","<div style=""font-size:60px;"">+</div>","null","","fixation","","","","","","","","","","",""
"aa-learning-trial","232","901876","0.0-11.0-2.0-1.21","5813","2","13","Female","approach_avoid_spark_v1","""event"",""trial"",""time""
""fullscreenenter"",""1"",""12343""
","
","
","""event"",""trial"",""time""
""fullscreenenter"",""1"",""12343""
","
","","","","","","1493.5","images/cat2.png","","","learning","6","6","1","1","cat","pets","1","1","","good","[5]"
"html-keyboard-response","233","902386","0.0-11.0-2.0-0.22","5813","2","13","Female","approach_avoid_spark_v1","""event"",""trial"",""time""
""fullscreenenter"",""1"",""12343""
","
","
","""event"",""trial"",""time""
""fullscreenenter"",""1"",""12343""
","
","","","","","","null","<div style=""font-size:60px;"">+</div>","null","","fixation","","","","","","","","","","",""
"aa-learning-trial","234","905397","0.0-11.0-2.0-1.22","5813","2","13","Female","approach_avoid_spark_v1","""event"",""trial"",""time""
""fullscreenenter"",""1"",""12343""
","
","
","""event"",""trial"",""time""
""fullscreenenter"",""1"",""12343""
","
","","","","","","583","images/rabbit3.png","","","learning","3","3","1","1","rabbit","pets","1","1","","neutral","0"
"html-keyboard-response","235","905907","0.0-11.0-2.0-0.23","5813","2","13","Female","approach_avoid_spark_v1","""event"",""trial"",""time""
""fullscreenenter"",""1"",""12343""
","
","
","""event"",""trial"",""time""
""fullscreenenter"",""1"",""12343""
","
","","","","","","null","<div style=""font-size:60px;"">+</div>","null","","fixation","","","","","","","","","","",""
"aa-learning-trial","236","908921","0.0-11.0-2.0-1.23","5813","2","13","Female","approach_avoid_spark_v1","""event"",""trial"",""time""
