"trial_type","trial_index","time_elapsed","internal_node_id","subject_id","task_condition","age","gender","task_version","interactions","blur_events","focus_events","fullscreenenter_events","fullscreenexit_events","success","timeout","failed_images","failed_audio","failed_video","rt","stimulus","response","button_pressed","task_part","approach_reward","points","key_press","option_selected","stim_cat","task_block","block_condition","block_number","correct","cat_type","mean_cat_reward"
"pavlovia","0","1","0.0-0.0","7056","1","19","Male","approach_avoid_spark_v1","""event"",""trial"",""time""
""fullscreenenter"",""1"",""1538""
","
","
","""event"",""trial"",""time""
""fullscreenenter"",""1"",""1538""
","
","","","","","","","","","","","","","","","","","","","","",""
"fullscreen","1","2540","0.0-1.0","7056","1","19","Male","approach_avoid_spark_v1","""event"",""trial"",""time""
""fullscreenenter"",""1"",""1538""
","
","
","""event"",""trial"",""time""
""fullscreenenter"",""1"",""1538""
","
","true","","","","","","","","","","","","","","","","","","","",""
"preload","2","4447","0.0-2.0","7056","1","19","Male","approach_avoid_spark_v1","""event"",""trial"",""time""
""fullscreenenter"",""1"",""1538""
","
","
","""event"",""trial"",""time""
""fullscreenenter"",""1"",""1538""
","
","true","false","[]","[]","[]","","","","","","","","","","","","","","","",""
"audio-keyboard-response","3","7607","0.0-3.0","7056","1","19","Male","approach_avoid_spark_v1","""event"",""trial"",""time""
""fullscreenenter"",""1"",""1538""
","
","
","""event"",""trial"",""time""
""fullscreenenter"",""1"",""1538""
","
","","","","","","3159.9999999999995","audio/beep_loop.wav"," ","","","","","","","","","","","","",""
"audio-button-response","4","9085","0.0-4.0","7056","1","19","Male","approach_avoid_spark_v1","""event"",""trial"",""time""
""fullscreenenter"",""1"",""1538""
","
","
","""event"",""trial"",""time""
""fullscreenenter"",""1"",""1538""
","
","","","","","","1480","audio/shark.wav","4","","","","","","","","","","","","",""
"audio-button-response","5","11167","0.0-5.0","7056","1","19","Male","approach_avoid_spark_v1","""event"",""trial"",""time""
""fullscreenenter"",""1"",""1538""
","
","
","""event"",""trial"",""time""
""fullscreenenter"",""1"",""1538""
","
","","","","","","1069","audio/turtle.wav","1","","","","","","","","","","","","",""
"preload","6","41001","0.0-6.0","7056","1","19","Male","approach_avoid_spark_v1","""event"",""trial"",""time""
""fullscreenenter"",""1"",""1538""
","
","
","""event"",""trial"",""time""
""fullscreenenter"",""1"",""1538""
","
","true","false","[]","[]","[]","","","","","","","","","","","","","","","",""
"html-keyboard-response","7","43478","0.0-7.0","7056","1","19","Male","approach_avoid_spark_v1","""event"",""trial"",""time""
""fullscreenenter"",""1"",""1538""
","
","
","""event"",""trial"",""time""
""fullscreenenter"",""1"",""1538""
","
","","","","","","2476.899999856949","Welcome to the experiment. Press any key to begin and to advance the instructions."," ","","","","","","","","","","","","",""
"learning-instructions","8","51353","0.0-8.0-0.0-0.0","7056","1","19","Male","approach_avoid_spark_v1","""event"",""trial"",""time""
""fullscreenenter"",""1"",""1538""
","
","
","""event"",""trial"",""time""
""fullscreenenter"",""1"",""1538""
","
","","","","","","925","<p> Welcome! Today you are going to play 6 different rounds of a decision-making game. </p><p> Use the mouse to click next to continue. </p>","","0","instructions","","","","","","","","","","",""
"learning-instructions","9","54965","0.0-8.0-0.0-0.1","7056","1","19","Male","approach_avoid_spark_v1","""event"",""trial"",""time""
""fullscreenenter"",""1"",""1538""
","
","
","""event"",""trial"",""time""
""fullscreenenter"",""1"",""1538""
","
","","","","","","887.5","<p> You will start with a practice round to learn the rules. </p>","","0","instructions","","","","","","","","","","",""
"learning-instructions","10","58825","0.0-8.0-0.0-0.2","7056","1","19","Male","approach_avoid_spark_v1","""event"",""trial"",""time""
""fullscreenenter"",""1"",""1538""
","
","
","""event"",""trial"",""time""
""fullscreenenter"",""1"",""1538""
","
","","","","","","417.90000009536743","<p> Your goal in this round is to give out sports equipment to kids. </p></div>","","0","instructions","","","","","","","","","","",""
"learning-instructions","11","66746","0.0-8.0-0.0-0.3","7056","1","19","Male","approach_avoid_spark_v1","""event"",""trial"",""time""
""fullscreenenter"",""1"",""1538""
","
","
","""event"",""trial"",""time""
""fullscreenenter"",""1"",""1538""
","
","","","","","","358.5","<p> The kids only like some of the equipment.  </p><p> On each turn, you will see a piece of sports equipment.   </p><p> You need to decide whether to give it to the kids or not.  </p>","","0","instructions","","","","","","","","","","",""
"learning-instructions","12","72438","0.0-8.0-0.0-0.4","7056","1","19","Male","approach_avoid_spark_v1","""event"",""trial"",""time""
""fullscreenenter"",""1"",""1538""
","
","
","""event"",""trial"",""time""
""fullscreenenter"",""1"",""1538""
","
","","","","","","940.2000000476837","<p> You can give them the equipment by pressing 1 and choose not to give it to them by pressing 0. </p><br><div class=""choice-instructions-grid""> <div class=""choice-option""><img src=""images/approach.png"" class=""choice-option-img"" stage=""instructions"" position=""0"" ><div class=""choice-option-text""> Press ""1."" </div></div><div class=""choice-option""><img src=""images/avoid.png"" class=""choice-option-img"" stage=""instructions"" position=""1"" ><div class=""choice-option-text""> Press ""0."" </div></div>","","0","instructions","","","","","","","","","","",""
"learning-instructions","13","80292","0.0-8.0-0.0-0.5","7056","1","19","Male","approach_avoid_spark_v1","""event"",""trial"",""time""
""fullscreenenter"",""1"",""1538""
","
","
","""event"",""trial"",""time""
""fullscreenenter"",""1"",""1538""
","
","","","","","","474.90000009536743","<p> If you give them a piece of equipment they like, they will be happy! </p><p> But if you give them a piece of equipment they do not like, they will be sad. </p>","","0","instructions","","","","","","","","","","",""
"learning-instructions","14","91474","0.0-8.0-0.0-0.6","7056","1","19","Male","approach_avoid_spark_v1","""event"",""trial"",""time""
""fullscreenenter"",""1"",""1538""
","
","
","""event"",""trial"",""time""
""fullscreenenter"",""1"",""1538""
","
","","","","","","666.2999999523163","<p> You will earn points based on how you make kids feel. </p><p> If you make them happy, you will WIN anywhere from 1 - 9 points, </p><p> but if you make them sad, you will LOSE anywhere from 1 - 9 points. </p>","","0","instructions","","","","","","","","","","",""
"learning-instructions","15","101435","0.0-8.0-0.0-0.7","7056","1","19","Male","approach_avoid_spark_v1","""event"",""trial"",""time""
""fullscreenenter"",""1"",""1538""
","
","
","""event"",""trial"",""time""
""fullscreenenter"",""1"",""1538""
","
","","","","","","398.2000000476837","<p> You will see how many points you won or lost in the center of the screen. </p><p> Here is what you would see if you won 6 points: </p><p style=""color:green;font-size:50px;font-weight:bolder"">6</p><p style=""color:green"">The text is GREEN because you WON points.</p>","","0","instructions","","","","","","","","","","",""
"learning-instructions","16","107841","0.0-8.0-0.0-0.8","7056","1","19","Male","approach_avoid_spark_v1","""event"",""trial"",""time""
""fullscreenenter"",""1"",""1538""
","
","
","""event"",""trial"",""time""
""fullscreenenter"",""1"",""1538""
","
","","","","","","903.5","<p> And here is what you would see if you lost 4 points: </p><p style=""color:red;font-size:50px;font-weight:bolder"">-4</p><p style=""color:red"">The text is RED because you LOST points. </p>","","0","instructions","","","","","","","","","","",""
"learning-instructions","17","123017","0.0-8.0-0.0-0.9","7056","1","19","Male","approach_avoid_spark_v1","""event"",""trial"",""time""
""fullscreenenter"",""1"",""1538""
","
","
","""event"",""trial"",""time""
""fullscreenenter"",""1"",""1538""
","
","","","","","","469.90000009536743","<p> Some of the equipment will make the kids VERY happy or sad. </p><p> These pieces of equipment will make you win or lose LOTS of points. </p><p> Other pieces of equipment will only make the kids a little happy or sad. </p><p> These pieces of equipment will make you win or lose small amounts of points. </p>","","0","instructions","","","","","","","","","","",""
"learning-instructions","18","134351","0.0-8.0-0.0-0.10","7056","1","19","Male","approach_avoid_spark_v1","""event"",""trial"",""time""
""fullscreenenter"",""1"",""1538""
","
","
","""event"",""trial"",""time""
""fullscreenenter"",""1"",""1538""
","
","","","","","","703.2999999523163","<p> If you choose not to give them the equipment, you will not win or lose any points. </p><p>  However, in the center of the screen, you will see the number of points you WOULD HAVE won or lost if you had given them the equipment. </p>","","0","instructions","","","","","","","","","","",""
"learning-instructions","19","156298","0.0-8.0-0.0-0.11","7056","1","19","Male","approach_avoid_spark_v1","""event"",""trial"",""time""
""fullscreenenter"",""1"",""1538""
","
","
","""event"",""trial"",""time""
""fullscreenenter"",""1"",""1538""
","
","","","","","","431.10000014305115","<p> Here is what you might see if you did not give the equipment to the kids but it would have made them happy: </p><p style=""color:grey; font-size:50px; display: inline-block; border-spacing: 15px; border-width:3px; border-style:solid; border-color:red"">  &nbsp; 7 &nbsp; </p><p> Remember, in this case, you would not win or lose ANY points because you did not give them the equipment.  </p><p style=""color:grey"">The text is GREY because you earned ZERO points. </p><p style=""color:red"">However, choosing to give the kids the equipment would have made you win points. The box around the text is RED because you chose the worse option. </p>","","0","instructions","","","","","","","","","","",""
"learning-instructions","20","178214","0.0-8.0-0.0-0.12","7056","1","19","Male","approach_avoid_spark_v1","""event"",""trial"",""time""
""fullscreenenter"",""1"",""1538""
","
","
","""event"",""trial"",""time""
""fullscreenenter"",""1"",""1538""
","
","","","","","","836.5","<p> Here is what you might see if you did not give the equipment to the kids but it would have made them sad: </p><p style=""color:grey;font-size:50px; display: inline-block; border-spacing: 15px; border-width:3px; border-style:solid; border-color:green"">  &nbsp; -8 &nbsp; </p><p> Remember, in this case, you would not win or lose ANY points because you did not give them the equipment.  </p><p style=""color:grey"">The text is GREY because you earned ZERO points. </p><p  style=""color:green""> Choosing to give the kids the equipment would have made you lose points. The box around the text is GREEN because you chose the better option.</p>","","0","instructions","","","","","","","","","","",""
"learning-instructions","21","190084","0.0-8.0-0.0-0.13","7056","1","19","Male","approach_avoid_spark_v1","""event"",""trial"",""time""
""fullscreenenter"",""1"",""1538""
","
","
","""event"",""trial"",""time""
""fullscreenenter"",""1"",""1538""
","
","","","","","","1736.7999999523163","<p> You will have 3 seconds to make each choice. Try to respond before time runs out! </p><p> You will lose 5 points each time you do not make a response. </p>","","0","instructions","","","","","","","","","","",""
"learning-instructions","22","197303","0.0-8.0-0.0-0.14","7056","1","19","Male","approach_avoid_spark_v1","""event"",""trial"",""time""
""fullscreenenter"",""1"",""1538""
","
","
","""event"",""trial"",""time""
""fullscreenenter"",""1"",""1538""
","
","","","","","","1805.3999998569489","<p> This is just a practice round, but in the real game, your bonus payment will depend on your total number of points.","","0","instructions","","","","","","","","","","",""
"learning-instructions","23","203726","0.0-8.0-0.0-0.15","7056","1","19","Male","approach_avoid_spark_v1","""event"",""trial"",""time""
""fullscreenenter"",""1"",""1538""
","
","
","""event"",""trial"",""time""
""fullscreenenter"",""1"",""1538""
","
","","","","","","658.5","<p> Remember, you can give them the equipment by pressing 1 and choose not to give it to them by pressing 0. </p><br><div class=""choice-instructions-grid""> <div class=""choice-option""><img src=""images/approach.png"" class=""choice-option-img"" stage=""instructions"" position=""0"" ><div class=""choice-option-text""> Press ""1."" </div></div><div class=""choice-option""><img src=""images/avoid.png"" class=""choice-option-img"" stage=""instructions"" position=""1"" ><div class=""choice-option-text""> Press ""0."" </div></div>","","0","instructions","","","","","","","","","","",""
"html-button-response","24","204891","0.0-8.0-1.0","7056","1","19","Male","approach_avoid_spark_v1","""event"",""trial"",""time""
""fullscreenenter"",""1"",""1538""
","
","
","""event"",""trial"",""time""
""fullscreenenter"",""1"",""1538""
","
","","","","","","1051.6000001430511","<p> Ready to practice? </p>","0","","","","","","","","","","","","",""
"html-keyboard-response","25","205502","0.0-8.0-2.0-0.0","7056","1","19","Male","approach_avoid_spark_v1","""event"",""trial"",""time""
""fullscreenenter"",""1"",""1538""
","
","
","""event"",""trial"",""time""
""fullscreenenter"",""1"",""1538""
","
","","","","","","null","<div style=""font-size:60px;"">+</div>","null","","fixation","","","","","","","","","","",""
"aa-learning-trial","26","208504","0.0-8.0-2.0-1.0","7056","1","19","Male","approach_avoid_spark_v1","""event"",""trial"",""time""
""fullscreenenter"",""1"",""1538""
","
","
","""event"",""trial"",""time""
""fullscreenenter"",""1"",""1538""
","
","","","","","","1515.7000000476837","images/ball1.png","","","learning","8","8","1","1","practice","practice","practice","-1","","",""
"html-keyboard-response","27","209007","0.0-8.0-2.0-0.1","7056","1","19","Male","approach_avoid_spark_v1","""event"",""trial"",""time""
""fullscreenenter"",""1"",""1538""
","
","
","""event"",""trial"",""time""
""fullscreenenter"",""1"",""1538""
","
","","","","","","null","<div style=""font-size:60px;"">+</div>","null","","fixation","","","","","","","","","","",""
"aa-learning-trial","28","212015","0.0-8.0-2.0-1.1","7056","1","19","Male","approach_avoid_spark_v1","""event"",""trial"",""time""
""fullscreenenter"",""1"",""1538""
","
","
","""event"",""trial"",""time""
""fullscreenenter"",""1"",""1538""
","
","","","","","","678.2999999523163","images/ball2.png","","","learning","4","4","1","1","practice","practice","practice","-1","","",""
"html-keyboard-response","29","212527","0.0-8.0-2.0-0.2","7056","1","19","Male","approach_avoid_spark_v1","""event"",""trial"",""time""
""fullscreenenter"",""1"",""1538""
","
","
","""event"",""trial"",""time""
""fullscreenenter"",""1"",""1538""
","
","","","","","","null","<div style=""font-size:60px;"">+</div>","null","","fixation","","","","","","","","","","",""
"aa-learning-trial","30","215535","0.0-8.0-2.0-1.2","7056","1","19","Male","approach_avoid_spark_v1","""event"",""trial"",""time""
""fullscreenenter"",""1"",""1538""
","
","
","""event"",""trial"",""time""
""fullscreenenter"",""1"",""1538""
","
","","","","","","1181.0999999046326","images/racket1.png","","","learning","1","0","0","0","practice","practice","practice","-1","","",""
"html-keyboard-response","31","216045","0.0-8.0-2.0-0.3","7056","1","19","Male","approach_avoid_spark_v1","""event"",""trial"",""time""
""fullscreenenter"",""1"",""1538""
","
","
","""event"",""trial"",""time""
""fullscreenenter"",""1"",""1538""
","
","","","","","","null","<div style=""font-size:60px;"">+</div>","null","","fixation","","","","","","","","","","",""
"aa-learning-trial","32","219049","0.0-8.0-2.0-1.3","7056","1","19","Male","approach_avoid_spark_v1","""event"",""trial"",""time""
""fullscreenenter"",""1"",""1538""
","
","
","""event"",""trial"",""time""
""fullscreenenter"",""1"",""1538""
","
","","","","","","1109.7000000476837","images/racket1.png","","","learning","2","2","1","1","practice","practice","practice","-1","","",""
"html-keyboard-response","33","219558","0.0-8.0-2.0-0.4","7056","1","19","Male","approach_avoid_spark_v1","""event"",""trial"",""time""
""fullscreenenter"",""1"",""1538""
","
","
","""event"",""trial"",""time""
""fullscreenenter"",""1"",""1538""
","
","","","","","","null","<div style=""font-size:60px;"">+</div>","null","","fixation","","","","","","","","","","",""
"aa-learning-trial","34","222559","0.0-8.0-2.0-1.4","7056","1","19","Male","approach_avoid_spark_v1","""event"",""trial"",""time""
""fullscreenenter"",""1"",""1538""
","
","
","""event"",""trial"",""time""
""fullscreenenter"",""1"",""1538""
","
","","","","","","1353.7000000476837","images/ball1.png","","","learning","3","3","1","1","practice","practice","practice","-1","","",""
"html-keyboard-response","35","223061","0.0-8.0-2.0-0.5","7056","1","19","Male","approach_avoid_spark_v1","""event"",""trial"",""time""
""fullscreenenter"",""1"",""1538""
","
","
","""event"",""trial"",""time""
""fullscreenenter"",""1"",""1538""
","
","","","","","","null","<div style=""font-size:60px;"">+</div>","null","","fixation","","","","","","","","","","",""
"aa-learning-trial","36","226064","0.0-8.0-2.0-1.5","7056","1","19","Male","approach_avoid_spark_v1","""event"",""trial"",""time""
""fullscreenenter"",""1"",""1538""
","
","
","""event"",""trial"",""time""
""fullscreenenter"",""1"",""1538""
","
","","","","","","606.1000001430511","images/racket1.png","","","learning","8","8","1","1","practice","practice","practice","-1","","",""
"html-keyboard-response","37","226570","0.0-8.0-2.0-0.6","7056","1","19","Male","approach_avoid_spark_v1","""event"",""trial"",""time""
""fullscreenenter"",""1"",""1538""
","
","
","""event"",""trial"",""time""
""fullscreenenter"",""1"",""1538""
","
","","","","","","null","<div style=""font-size:60px;"">+</div>","null","","fixation","","","","","","","","","","",""
"aa-learning-trial","38","229583","0.0-8.0-2.0-1.6","7056","1","19","Male","approach_avoid_spark_v1","""event"",""trial"",""time""
""fullscreenenter"",""1"",""1538""
","
","
","""event"",""trial"",""time""
""fullscreenenter"",""1"",""1538""
","
","","","","","","1055.6000001430511","images/racket1.png","","","learning","-1","-1","1","1","practice","practice","practice","-1","","",""
"html-keyboard-response","39","230094","0.0-8.0-2.0-0.7","7056","1","19","Male","approach_avoid_spark_v1","""event"",""trial"",""time""
""fullscreenenter"",""1"",""1538""
","
","
","""event"",""trial"",""time""
""fullscreenenter"",""1"",""1538""
","
","","","","","","null","<div style=""font-size:60px;"">+</div>","null","","fixation","","","","","","","","","","",""
"aa-learning-trial","40","233095","0.0-8.0-2.0-1.7","7056","1","19","Male","approach_avoid_spark_v1","""event"",""trial"",""time""
""fullscreenenter"",""1"",""1538""
","
","
","""event"",""trial"",""time""
""fullscreenenter"",""1"",""1538""
","
","","","","","","2340","images/racket2.png","","","learning","3","3","1","1","practice","practice","practice","-1","","",""
"html-keyboard-response","41","233596","0.0-8.0-2.0-0.8","7056","1","19","Male","approach_avoid_spark_v1","""event"",""trial"",""time""
""fullscreenenter"",""1"",""1538""
","
","
","""event"",""trial"",""time""
""fullscreenenter"",""1"",""1538""
","
","","","","","","null","<div style=""font-size:60px;"">+</div>","null","","fixation","","","","","","","","","","",""
"aa-learning-trial","42","236598","0.0-8.0-2.0-1.8","7056","1","19","Male","approach_avoid_spark_v1","""event"",""trial"",""time""
""fullscreenenter"",""1"",""1538""
","
","
","""event"",""trial"",""time""
""fullscreenenter"",""1"",""1538""
","
","","","","","","1031.6999998092651","images/racket4.png","","","learning","6","6","1","1","practice","practice","practice","-1","","",""
"html-keyboard-response","43","237099","0.0-8.0-2.0-0.9","7056","1","19","Male","approach_avoid_spark_v1","""event"",""trial"",""time""
""fullscreenenter"",""1"",""1538""
","
","
","""event"",""trial"",""time""
""fullscreenenter"",""1"",""1538""
","
","","","","","","null","<div style=""font-size:60px;"">+</div>","null","","fixation","","","","","","","","","","",""
"aa-learning-trial","44","240101","0.0-8.0-2.0-1.9","7056","1","19","Male","approach_avoid_spark_v1","""event"",""trial"",""time""
""fullscreenenter"",""1"",""1538""
","
","
","""event"",""trial"",""time""
""fullscreenenter"",""1"",""1538""
","
","","","","","","800","images/ball3.png","","","learning","4","4","1","1","practice","practice","practice","-1","","",""
"html-keyboard-response","45","240603","0.0-8.0-2.0-0.10","7056","1","19","Male","approach_avoid_spark_v1","""event"",""trial"",""time""
""fullscreenenter"",""1"",""1538""
","
","
","""event"",""trial"",""time""
""fullscreenenter"",""1"",""1538""
","
","","","","","","null","<div style=""font-size:60px;"">+</div>","null","","fixation","","","","","","","","","","",""
"aa-learning-trial","46","243605","0.0-8.0-2.0-1.10","7056","1","19","Male","approach_avoid_spark_v1","""event"",""trial"",""time""
""fullscreenenter"",""1"",""1538""
","
","
","""event"",""trial"",""time""
""fullscreenenter"",""1"",""1538""
","
","","","","","","552.5","images/ball1.png","","","learning","9","9","1","1","practice","practice","practice","-1","","",""
"html-keyboard-response","47","244107","0.0-8.0-2.0-0.11","7056","1","19","Male","approach_avoid_spark_v1","""event"",""trial"",""time""
""fullscreenenter"",""1"",""1538""
","
","
","""event"",""trial"",""time""
""fullscreenenter"",""1"",""1538""
","
","","","","","","null","<div style=""font-size:60px;"">+</div>","null","","fixation","","","","","","","","","","",""
"aa-learning-trial","48","247109","0.0-8.0-2.0-1.11","7056","1","19","Male","approach_avoid_spark_v1","""event"",""trial"",""time""
""fullscreenenter"",""1"",""1538""
","
","
","""event"",""trial"",""time""
""fullscreenenter"",""1"",""1538""
","
","","","","","","645.3999998569489","images/ball2.png","","","learning","5","5","1","1","practice","practice","practice","-1","","",""
"html-button-response","49","248908","0.0-8.0-3.0","7056","1","19","Male","approach_avoid_spark_v1","""event"",""trial"",""time""
""fullscreenenter"",""1"",""1538""
","
","
","""event"",""trial"",""time""
""fullscreenenter"",""1"",""1538""
","
","","","","","","1798.1000001430511","<p> You earned 51 points in the practice round! </p>","0","","break","","","","","","","","","","",""
"learning-instructions","50","256846","0.0-8.0-4.0-0.0","7056","1","19","Male","approach_avoid_spark_v1","""event"",""trial"",""time""
""fullscreenenter"",""1"",""1538""
","
","
","""event"",""trial"",""time""
""fullscreenenter"",""1"",""1538""
","
","","","","","","1707.0999999046326","<p> It's almost time to start the real game. </p><p> Before you start, we're going to ask you a few questions about how the game works. </p>","","0","instructions","","","","","","","","","","",""
"preload","51","266617","0.0-8.0-5.0","7056","1","19","Male","approach_avoid_spark_v1","""event"",""trial"",""time""
""fullscreenenter"",""1"",""1538""
","
","
","""event"",""trial"",""time""
""fullscreenenter"",""1"",""1538""
","
","true","false","[]","[]","[]","","","","","","","","","","","","","","","",""
"comp-q","52","272509","0.0-8.0-6.0-0.0","7056","1","19","Male","approach_avoid_spark_v1","""event"",""trial"",""time""
""fullscreenenter"",""1"",""1538""
","
","
","""event"",""trial"",""time""
""fullscreenenter"",""1"",""1538""
","
","","","","","","900.7000000476837","<p> <b> True or False? </b> </p><p> If you see a number in GREY, that means you earned that many points. </p>","","1","comp_question","","","","","","","","","true","",""
"comp-q","53","285072","0.0-8.0-6.0-1.0","7056","1","19","Male","approach_avoid_spark_v1","""event"",""trial"",""time""
""fullscreenenter"",""1"",""1538""
","
","
","""event"",""trial"",""time""
""fullscreenenter"",""1"",""1538""
","
","","","","","","4193.299999952316","<p><b> That's right! </b> If you see a grey number, it means you earned ZERO points. <br> The grey numbers show the points you WOULD HAVE earned if you had made the other choice. </p>","","0","comp_answer","","","","","","","","","","",""
"comp-q","54","290163","0.0-8.0-7.0-0.0","7056","1","19","Male","approach_avoid_spark_v1","""event"",""trial"",""time""
""fullscreenenter"",""1"",""1538""
","
","
","""event"",""trial"",""time""
""fullscreenenter"",""1"",""1538""
","
","","","","","","394.30000019073486","<p> <b> True or False? </b> </p><p> You will have as much time as you want to make each choice. </p>","","1","comp_question","","","","","","","","","true","",""
"comp-q","55","294846","0.0-8.0-7.0-1.0","7056","1","19","Male","approach_avoid_spark_v1","""event"",""trial"",""time""
""fullscreenenter"",""1"",""1538""
","
","
","""event"",""trial"",""time""
""fullscreenenter"",""1"",""1538""
","
","","","","","","647.4000000953674","<p> <b> That's right! </b> You will only have 3 seconds to make each choice. </p>","","0","comp_answer","","","","","","","","","","",""
"comp-q","56","299933","0.0-8.0-8.0-0.0","7056","1","19","Male","approach_avoid_spark_v1","""event"",""trial"",""time""
""fullscreenenter"",""1"",""1538""
","
","
","""event"",""trial"",""time""
""fullscreenenter"",""1"",""1538""
","
","","","","","","434.5","<p> <b> True or False? </b> </p><p> You should use the '1' and '0' keys to make your choices. </p>","","0","comp_question","","","","","","","","","true","",""
"comp-q","57","305203","0.0-8.0-8.0-1.0","7056","1","19","Male","approach_avoid_spark_v1","""event"",""trial"",""time""
""fullscreenenter"",""1"",""1538""
","
","
","""event"",""trial"",""time""
""fullscreenenter"",""1"",""1538""
","
","","","","","","654.4000000953674","<p> <b> That's right! </b> You should use the '1' and '0' keys to make each choice. </p>","","0","comp_answer","","","","","","","","","","",""
"learning-instructions","58","312139","0.0-8.0-9.0-0.0","7056","1","19","Male","approach_avoid_spark_v1","""event"",""trial"",""time""
""fullscreenenter"",""1"",""1538""
","
","
","""event"",""trial"",""time""
""fullscreenenter"",""1"",""1538""
","
","","","","","","660.7000000476837","<p> It's now time to start the real game. </p>Do your best, because the points you earn in the next rounds will influence your bonus payment. </p>","","0","instructions","","","","","","","","","","",""
"preload","59","312256","0.0-9.0-0.0","7056","1","19","Male","approach_avoid_spark_v1","""event"",""trial"",""time""
""fullscreenenter"",""1"",""1538""
","
","
","""event"",""trial"",""time""
""fullscreenenter"",""1"",""1538""
","
","true","false","[]","[]","[]","","","","","","","","","","","","","","","",""
"learning-instructions","60","318763","0.0-9.0-1.0-0.0","7056","1","19","Male","approach_avoid_spark_v1","""event"",""trial"",""time""
""fullscreenenter"",""1"",""1538""
","
","
","""event"",""trial"",""time""
""fullscreenenter"",""1"",""1538""
","
","","","","","","944.6000001430511","<p> Your goal in this round is to sell different plants to a picky customer. </p></div>","","0","instructions","","","","","","","","","","",""
"learning-instructions","61","330131","0.0-9.0-1.0-0.1","7056","1","19","Male","approach_avoid_spark_v1","""event"",""trial"",""time""
""fullscreenenter"",""1"",""1538""
","
","
","""event"",""trial"",""time""
""fullscreenenter"",""1"",""1538""
","
","","","","","","1022.2999999523163","<p> The customer likes some plants and dislikes others.  </p><p> On each turn, you will see a plant.   </p><p> You need to decide whether to offer it to the customer or not.  </p>","","0","instructions","","","","","","","","","","",""
"learning-instructions","62","336946","0.0-9.0-1.0-0.2","7056","1","19","Male","approach_avoid_spark_v1","""event"",""trial"",""time""
""fullscreenenter"",""1"",""1538""
","
","
","""event"",""trial"",""time""
""fullscreenenter"",""1"",""1538""
","
","","","","","","677.4000000953674","<p> You can offer the plant by pressing 1 and decide to not offer it by pressing 0. </p><br><div class=""choice-instructions-grid""> <div class=""choice-option""><img src=""images/approach.png"" class=""choice-option-img"" stage=""instructions"" position=""0"" ><div class=""choice-option-text""> Press ""1."" </div></div><div class=""choice-option""><img src=""images/avoid.png"" class=""choice-option-img"" stage=""instructions"" position=""1"" ><div class=""choice-option-text""> Press ""0."" </div></div>","","0","instructions","","","","","","","","","","",""
"learning-instructions","63","347706","0.0-9.0-1.0-0.3","7056","1","19","Male","approach_avoid_spark_v1","""event"",""trial"",""time""
""fullscreenenter"",""1"",""1538""
","
","
","""event"",""trial"",""time""
""fullscreenenter"",""1"",""1538""
","
","","","","","","697.7999999523163","<p> If you offer a plant to the customer that she likes, she will be very pleased! </p><p> But if you offer a plant that she does NOT like, she will be annoyed. </p>","","0","instructions","","","","","","","","","","",""
"learning-instructions","64","363269","0.0-9.0-1.0-0.4","7056","1","19","Male","approach_avoid_spark_v1","""event"",""trial"",""time""
""fullscreenenter"",""1"",""1538""
","
","
","""event"",""trial"",""time""
""fullscreenenter"",""1"",""1538""
","
","","","","","","1490.3999998569489","<p> You will earn points based on how you made the customer feel. </p><p> If you made her pleased, you will WIN anywhere from 1 - 9 points, </p><p> but if you made her annoyed, you will LOSE anywhere from 1 - 9 points. </p>","","0","instructions","","","","","","","","","","",""
"learning-instructions","65","371831","0.0-9.0-1.0-0.5","7056","1","19","Male","approach_avoid_spark_v1","""event"",""trial"",""time""
""fullscreenenter"",""1"",""1538""
","
","
","""event"",""trial"",""time""
""fullscreenenter"",""1"",""1538""
","
","","","","","","332.2999999523163","<p> You will see how many points you won or lost in the center of the screen. </p><p> Here is what you would see if you won 5 points: </p><p style=""color:green;font-size:50px;font-weight:bolder"">5</p>","","0","instructions","","","","","","","","","","",""
"learning-instructions","66","375844","0.0-9.0-1.0-0.6","7056","1","19","Male","approach_avoid_spark_v1","""event"",""trial"",""time""
""fullscreenenter"",""1"",""1538""
","
","
","""event"",""trial"",""time""
""fullscreenenter"",""1"",""1538""
","
","","","","","","316.09999990463257","<p> And here is what you would see if you lost 3 points: </p><p style=""color:red;font-size:50px;font-weight:bolder"">-3</p>","","0","instructions","","","","","","","","","","",""
"learning-instructions","67","393563","0.0-9.0-1.0-0.7","7056","1","19","Male","approach_avoid_spark_v1","""event"",""trial"",""time""
""fullscreenenter"",""1"",""1538""
","
","
","""event"",""trial"",""time""
""fullscreenenter"",""1"",""1538""
","
","","","","","","1095.3000001907349","<p> Some plants will make the customer VERY pleased or annoyed. </p><p> These plants will make you win or lose LOTS of points. </p><p> The customer will have less strong feelings about other plants. </p><p> These plants will make you win or lose small amounts of points. </p>","","0","instructions","","","","","","","","","","",""
"learning-instructions","68","408736","0.0-9.0-1.0-0.8","7056","1","19","Male","approach_avoid_spark_v1","""event"",""trial"",""time""
""fullscreenenter"",""1"",""1538""
","
","
","""event"",""trial"",""time""
""fullscreenenter"",""1"",""1538""
","
","","","","","","937.9000000953674","<p> If you choose to not offer the plant to the customer, you will not win or lose any points. </p><p>  However, in the center of the screen, you will see the number of points you WOULD HAVE won or lost if you had offered the plant. </p>","","0","instructions","","","","","","","","","","",""
"learning-instructions","69","422034","0.0-9.0-1.0-0.9","7056","1","19","Male","approach_avoid_spark_v1","""event"",""trial"",""time""
""fullscreenenter"",""1"",""1538""
","
","
","""event"",""trial"",""time""
""fullscreenenter"",""1"",""1538""
","
","","","","","","405.40000009536743","<p> Here is what you might see if you did not offer the plant but the customer would have liked it: </p><p style=""color:grey; font-size:50px; display: inline-block; border-spacing: 15px; border-width:3px; border-style:solid; border-color:red"">  &nbsp; 6 &nbsp; </p><p> Remember, in this case, you would not win or lose ANY points because you did not offer the plant.  </p>","","0","instructions","","","","","","","","","","",""
"learning-instructions","70","430903","0.0-9.0-1.0-0.10","7056","1","19","Male","approach_avoid_spark_v1","""event"",""trial"",""time""
""fullscreenenter"",""1"",""1538""
","
","
","""event"",""trial"",""time""
""fullscreenenter"",""1"",""1538""
","
","","","","","","414.2000000476837","<p> Try to make the best choice for each plant because </p><p> at the end of the game, you will earn bonus money based on how many points you earned. </p>","","0","instructions","","","","","","","","","","",""
"learning-instructions","71","439637","0.0-9.0-1.0-0.11","7056","1","19","Male","approach_avoid_spark_v1","""event"",""trial"",""time""
""fullscreenenter"",""1"",""1538""
","
","
","""event"",""trial"",""time""
""fullscreenenter"",""1"",""1538""
","
","","","","","","548.6999998092651","<p> You will have 3 seconds to make each choice. Try to respond before time runs out! </p><p> You will lose 5 points each time you do not make a response. </p>","","0","instructions","","","","","","","","","","",""
"html-keyboard-response","72","440248","0.0-9.0-2.0-0.0","7056","1","19","Male","approach_avoid_spark_v1","""event"",""trial"",""time""
""fullscreenenter"",""1"",""1538""
","
","
","""event"",""trial"",""time""
""fullscreenenter"",""1"",""1538""
","
","","","","","","null","<div style=""font-size:60px;"">+</div>","null","","fixation","","","","","","","","","","",""
"aa-learning-trial","73","443252","0.0-9.0-2.0-1.0","7056","1","19","Male","approach_avoid_spark_v1","""event"",""trial"",""time""
""fullscreenenter"",""1"",""1538""
","
","
","""event"",""trial"",""time""
""fullscreenenter"",""1"",""1538""
","
","","","","","","1089.2000000476837","images/bush6.png","","","learning","-1","0","0","0","bush","plants","1","0","","bad","[-6]"
"html-keyboard-response","74","443766","0.0-9.0-2.0-0.1","7056","1","19","Male","approach_avoid_spark_v1","""event"",""trial"",""time""
""fullscreenenter"",""1"",""1538""
","
","
","""event"",""trial"",""time""
""fullscreenenter"",""1"",""1538""
","
","","","","","","null","<div style=""font-size:60px;"">+</div>","null","","fixation","","","","","","","","","","",""
"aa-learning-trial","75","446775","0.0-9.0-2.0-1.1","7056","1","19","Male","approach_avoid_spark_v1","""event"",""trial"",""time""
""fullscreenenter"",""1"",""1538""
","
","
","""event"",""trial"",""time""
""fullscreenenter"",""1"",""1538""
","
","","","","","","918.2999999523163","images/tree8.png","","","learning","6","0","0","0","tree","plants","1","0","","good","[5]"
"html-keyboard-response","76","447288","0.0-9.0-2.0-0.2","7056","1","19","Male","approach_avoid_spark_v1","""event"",""trial"",""time""
""fullscreenenter"",""1"",""1538""
","
","
","""event"",""trial"",""time""
""fullscreenenter"",""1"",""1538""
","
","","","","","","null","<div style=""font-size:60px;"">+</div>","null","","fixation","","","","","","","","","","",""
"aa-learning-trial","77","450300","0.0-9.0-2.0-1.2","7056","1","19","Male","approach_avoid_spark_v1","""event"",""trial"",""time""
""fullscreenenter"",""1"",""1538""
","
","
","""event"",""trial"",""time""
""fullscreenenter"",""1"",""1538""
","
","","","","","","1284.2000000476837","images/tree1.png","","","learning","7","7","1","1","tree","plants","1","0","","good","[5]"
"html-keyboard-response","78","450811","0.0-9.0-2.0-0.3","7056","1","19","Male","approach_avoid_spark_v1","""event"",""trial"",""time""
""fullscreenenter"",""1"",""1538""
","
","
","""event"",""trial"",""time""
""fullscreenenter"",""1"",""1538""
","
","","","","","","null","<div style=""font-size:60px;"">+</div>","null","","fixation","","","","","","","","","","",""
"aa-learning-trial","79","453817","0.0-9.0-2.0-1.3","7056","1","19","Male","approach_avoid_spark_v1","""event"",""trial"",""time""
""fullscreenenter"",""1"",""1538""
","
","
","""event"",""trial"",""time""
""fullscreenenter"",""1"",""1538""
","
","","","","","","1077.9000000953674","images/cactus8.png","","","learning","[-1]","0","0","0","cactus","plants","1","0","","neutral","0"
"html-keyboard-response","80","454328","0.0-9.0-2.0-0.4","7056","1","19","Male","approach_avoid_spark_v1","""event"",""trial"",""time""
""fullscreenenter"",""1"",""1538""
","
","
","""event"",""trial"",""time""
""fullscreenenter"",""1"",""1538""
","
","","","","","","null","<div style=""font-size:60px;"">+</div>","null","","fixation","","","","","","","","","","",""
"aa-learning-trial","81","457337","0.0-9.0-2.0-1.4","7056","1","19","Male","approach_avoid_spark_v1","""event"",""trial"",""time""
""fullscreenenter"",""1"",""1538""
","
","
","""event"",""trial"",""time""
""fullscreenenter"",""1"",""1538""
","
","","","","","","1437.2000000476837","images/bush1.png","","","learning","-5","0","0","0","bush","plants","1","0","","bad","[-6]"
"html-keyboard-response","82","457848","0.0-9.0-2.0-0.5","7056","1","19","Male","approach_avoid_spark_v1","""event"",""trial"",""time""
""fullscreenenter"",""1"",""1538""
","
","
","""event"",""trial"",""time""
""fullscreenenter"",""1"",""1538""
","
","","","","","","null","<div style=""font-size:60px;"">+</div>","null","","fixation","","","","","","","","","","",""
"aa-learning-trial","83","460859","0.0-9.0-2.0-1.5","7056","1","19","Male","approach_avoid_spark_v1","""event"",""trial"",""time""
""fullscreenenter"",""1"",""1538""
","
","
","""event"",""trial"",""time""
""fullscreenenter"",""1"",""1538""
","
","","","","","","938.5999999046326","images/bush2.png","","","learning","-5","0","0","0","bush","plants","1","0","","bad","[-6]"
"html-keyboard-response","84","461368","0.0-9.0-2.0-0.6","7056","1","19","Male","approach_avoid_spark_v1","""event"",""trial"",""time""
""fullscreenenter"",""1"",""1538""
","
","
","""event"",""trial"",""time""
""fullscreenenter"",""1"",""1538""
","
","","","","","","null","<div style=""font-size:60px;"">+</div>","null","","fixation","","","","","","","","","","",""
"aa-learning-trial","85","464371","0.0-9.0-2.0-1.6","7056","1","19","Male","approach_avoid_spark_v1","""event"",""trial"",""time""
""fullscreenenter"",""1"",""1538""
","
","
","""event"",""trial"",""time""
""fullscreenenter"",""1"",""1538""
","
","","","","","","1392.8000001907349","images/cactus4.png","","","learning","[-1]","0","0","0","cactus","plants","1","0","","neutral","0"
"html-keyboard-response","86","464884","0.0-9.0-2.0-0.7","7056","1","19","Male","approach_avoid_spark_v1","""event"",""trial"",""time""
""fullscreenenter"",""1"",""1538""
","
","
","""event"",""trial"",""time""
""fullscreenenter"",""1"",""1538""
","
","","","","","","null","<div style=""font-size:60px;"">+</div>","null","","fixation","","","","","","","","","","",""
"aa-learning-trial","87","467887","0.0-9.0-2.0-1.7","7056","1","19","Male","approach_avoid_spark_v1","""event"",""trial"",""time""
""fullscreenenter"",""1"",""1538""
","
","
","""event"",""trial"",""time""
""fullscreenenter"",""1"",""1538""
","
","","","","","","800.7000000476837","images/tree4.png","","","learning","6","6","1","1","tree","plants","1","0","","good","[5]"
"html-keyboard-response","88","468394","0.0-9.0-2.0-0.8","7056","1","19","Male","approach_avoid_spark_v1","""event"",""trial"",""time""
""fullscreenenter"",""1"",""1538""
","
","
","""event"",""trial"",""time""
""fullscreenenter"",""1"",""1538""
","
","","","","","","null","<div style=""font-size:60px;"">+</div>","null","","fixation","","","","","","","","","","",""
"aa-learning-trial","89","471397","0.0-9.0-2.0-1.8","7056","1","19","Male","approach_avoid_spark_v1","""event"",""trial"",""time""
""fullscreenenter"",""1"",""1538""
","
","
","""event"",""trial"",""time""
""fullscreenenter"",""1"",""1538""
","
","","","","","","1064.3999998569489","images/bush6.png","","","learning","-5","0","0","0","bush","plants","1","0","","bad","[-6]"
"html-keyboard-response","90","471905","0.0-9.0-2.0-0.9","7056","1","19","Male","approach_avoid_spark_v1","""event"",""trial"",""time""
""fullscreenenter"",""1"",""1538""
","
","
","""event"",""trial"",""time""
""fullscreenenter"",""1"",""1538""
","
","","","","","","null","<div style=""font-size:60px;"">+</div>","null","","fixation","","","","","","","","","","",""
"aa-learning-trial","91","474907","0.0-9.0-2.0-1.9","7056","1","19","Male","approach_avoid_spark_v1","""event"",""trial"",""time""
""fullscreenenter"",""1"",""1538""
","
","
","""event"",""trial"",""time""
""fullscreenenter"",""1"",""1538""
","
","","","","","","739.2000000476837","images/bush1.png","","","learning","-6","0","0","0","bush","plants","1","0","","bad","[-6]"
"html-keyboard-response","92","475408","0.0-9.0-2.0-0.10","7056","1","19","Male","approach_avoid_spark_v1","""event"",""trial"",""time""
""fullscreenenter"",""1"",""1538""
","
","
","""event"",""trial"",""time""
""fullscreenenter"",""1"",""1538""
","
","","","","","","null","<div style=""font-size:60px;"">+</div>","null","","fixation","","","","","","","","","","",""
"aa-learning-trial","93","478410","0.0-9.0-2.0-1.10","7056","1","19","Male","approach_avoid_spark_v1","""event"",""trial"",""time""
""fullscreenenter"",""1"",""1538""
","
","
","""event"",""trial"",""time""
""fullscreenenter"",""1"",""1538""
","
","","","","","","796.7000000476837","images/cactus8.png","","","learning","-1","0","0","0","cactus","plants","1","0","","neutral","0"
"html-keyboard-response","94","478912","0.0-9.0-2.0-0.11","7056","1","19","Male","approach_avoid_spark_v1","""event"",""trial"",""time""
""fullscreenenter"",""1"",""1538""
","
","
","""event"",""trial"",""time""
""fullscreenenter"",""1"",""1538""
","
","","","","","","null","<div style=""font-size:60px;"">+</div>","null","","fixation","","","","","","","","","","",""
"aa-learning-trial","95","481914","0.0-9.0-2.0-1.11","7056","1","19","Male","approach_avoid_spark_v1","""event"",""trial"",""time""
""fullscreenenter"",""1"",""1538""
","
","
","""event"",""trial"",""time""
""fullscreenenter"",""1"",""1538""
","
","","","","","","660.0999999046326","images/tree8.png","","","learning","4","4","1","1","tree","plants","1","0","","good","[5]"
"html-keyboard-response","96","482414","0.0-9.0-2.0-0.12","7056","1","19","Male","approach_avoid_spark_v1","""event"",""trial"",""time""
""fullscreenenter"",""1"",""1538""
","
","
","""event"",""trial"",""time""
""fullscreenenter"",""1"",""1538""
","
","","","","","","null","<div style=""font-size:60px;"">+</div>","null","","fixation","","","","","","","","","","",""
"aa-learning-trial","97","485416","0.0-9.0-2.0-1.12","7056","1","19","Male","approach_avoid_spark_v1","""event"",""trial"",""time""
""fullscreenenter"",""1"",""1538""
","
","
","""event"",""trial"",""time""
""fullscreenenter"",""1"",""1538""
","
","","","","","","528.2000000476837","images/tree4.png","","","learning","4","4","1","1","tree","plants","1","0","","good","[5]"
"html-keyboard-response","98","485917","0.0-9.0-2.0-0.13","7056","1","19","Male","approach_avoid_spark_v1","""event"",""trial"",""time""
""fullscreenenter"",""1"",""1538""
","
","
","""event"",""trial"",""time""
""fullscreenenter"",""1"",""1538""
","
","","","","","","null","<div style=""font-size:60px;"">+</div>","null","","fixation","","","","","","","","","","",""
"aa-learning-trial","99","488919","0.0-9.0-2.0-1.13","7056","1","19","Male","approach_avoid_spark_v1","""event"",""trial"",""time""
""fullscreenenter"",""1"",""1538""
","
","
","""event"",""trial"",""time""
""fullscreenenter"",""1"",""1538""
","
","","","","","","758.3999998569489","images/cactus1.png","","","learning","[1]","0","0","0","cactus","plants","1","0","","neutral","0"
"html-keyboard-response","100","489420","0.0-9.0-2.0-0.14","7056","1","19","Male","approach_avoid_spark_v1","""event"",""trial"",""time""
""fullscreenenter"",""1"",""1538""
","
","
","""event"",""trial"",""time""
""fullscreenenter"",""1"",""1538""
","
","","","","","","null","<div style=""font-size:60px;"">+</div>","null","","fixation","","","","","","","","","","",""
"aa-learning-trial","101","492423","0.0-9.0-2.0-1.14","7056","1","19","Male","approach_avoid_spark_v1","""event"",""trial"",""time""
""fullscreenenter"",""1"",""1538""
","
","
","""event"",""trial"",""time""
""fullscreenenter"",""1"",""1538""
","
","","","","","","776.2999999523163","images/cactus1.png","","","learning","2","2","1","1","cactus","plants","1","0","","neutral","0"
"html-keyboard-response","102","492925","0.0-9.0-2.0-0.15","7056","1","19","Male","approach_avoid_spark_v1","""event"",""trial"",""time""
""fullscreenenter"",""1"",""1538""
","
","
","""event"",""trial"",""time""
""fullscreenenter"",""1"",""1538""
","
","","","","","","null","<div style=""font-size:60px;"">+</div>","null","","fixation","","","","","","","","","","",""
"aa-learning-trial","103","495927","0.0-9.0-2.0-1.15","7056","1","19","Male","approach_avoid_spark_v1","""event"",""trial"",""time""
""fullscreenenter"",""1"",""1538""
","
","
","""event"",""trial"",""time""
""fullscreenenter"",""1"",""1538""
","
","","","","","","543.6999998092651","images/cactus1.png","","","learning","-1","-1","1","1","cactus","plants","1","0","","neutral","0"
"html-keyboard-response","104","496428","0.0-9.0-2.0-0.16","7056","1","19","Male","approach_avoid_spark_v1","""event"",""trial"",""time""
""fullscreenenter"",""1"",""1538""
","
","
","""event"",""trial"",""time""
""fullscreenenter"",""1"",""1538""
","
","","","","","","null","<div style=""font-size:60px;"">+</div>","null","","fixation","","","","","","","","","","",""
"aa-learning-trial","105","499431","0.0-9.0-2.0-1.16","7056","1","19","Male","approach_avoid_spark_v1","""event"",""trial"",""time""
""fullscreenenter"",""1"",""1538""
","
","
","""event"",""trial"",""time""
""fullscreenenter"",""1"",""1538""
","
","","","","","","1182.8999998569489","images/cactus4.png","","","learning","1","0","0","0","cactus","plants","1","0","","neutral","0"
"html-keyboard-response","106","499931","0.0-9.0-2.0-0.17","7056","1","19","Male","approach_avoid_spark_v1","""event"",""trial"",""time""
""fullscreenenter"",""1"",""1538""
","
","
","""event"",""trial"",""time""
""fullscreenenter"",""1"",""1538""
","
","","","","","","null","<div style=""font-size:60px;"">+</div>","null","","fixation","","","","","","","","","","",""
"aa-learning-trial","107","502933","0.0-9.0-2.0-1.17","7056","1","19","Male","approach_avoid_spark_v1","""event"",""trial"",""time""
""fullscreenenter"",""1"",""1538""
","
","
","""event"",""trial"",""time""
""fullscreenenter"",""1"",""1538""
","
","","","","","","965.5","images/tree5.png","","","learning","5","5","1","1","tree","plants","1","0","","good","[5]"
"html-keyboard-response","108","503434","0.0-9.0-2.0-0.18","7056","1","19","Male","approach_avoid_spark_v1","""event"",""trial"",""time""
""fullscreenenter"",""1"",""1538""
","
","
","""event"",""trial"",""time""
""fullscreenenter"",""1"",""1538""
","
","","","","","","null","<div style=""font-size:60px;"">+</div>","null","","fixation","","","","","","","","","","",""
"aa-learning-trial","109","506437","0.0-9.0-2.0-1.18","7056","1","19","Male","approach_avoid_spark_v1","""event"",""trial"",""time""
""fullscreenenter"",""1"",""1538""
","
","
","""event"",""trial"",""time""
""fullscreenenter"",""1"",""1538""
","
","","","","","","850.0999999046326","images/cactus8.png","","","learning","2","0","0","0","cactus","plants","1","0","","neutral","0"
"html-keyboard-response","110","506945","0.0-9.0-2.0-0.19","7056","1","19","Male","approach_avoid_spark_v1","""event"",""trial"",""time""
""fullscreenenter"",""1"",""1538""
","
","
","""event"",""trial"",""time""
""fullscreenenter"",""1"",""1538""
","
","","","","","","null","<div style=""font-size:60px;"">+</div>","null","","fixation","","","","","","","","","","",""
"aa-learning-trial","111","509947","0.0-9.0-2.0-1.19","7056","1","19","Male","approach_avoid_spark_v1","""event"",""trial"",""time""
""fullscreenenter"",""1"",""1538""
","
","
","""event"",""trial"",""time""
""fullscreenenter"",""1"",""1538""
","
","","","","","","760.9000000953674","images/bush6.png","","","learning","-2","0","0","0","bush","plants","1","0","","bad","[-6]"
"html-keyboard-response","112","510448","0.0-9.0-2.0-0.20","7056","1","19","Male","approach_avoid_spark_v1","""event"",""trial"",""time""
""fullscreenenter"",""1"",""1538""
","
","
","""event"",""trial"",""time""
""fullscreenenter"",""1"",""1538""
","
","","","","","","null","<div style=""font-size:60px;"">+</div>","null","","fixation","","","","","","","","","","",""
"aa-learning-trial","113","513450","0.0-9.0-2.0-1.20","7056","1","19","Male","approach_avoid_spark_v1","""event"",""trial"",""time""
""fullscreenenter"",""1"",""1538""
","
","
","""event"",""trial"",""time""
""fullscreenenter"",""1"",""1538""
","
","","","","","","991.6999998092651","images/cactus4.png","","","learning","[-1]","-1","1","1","cactus","plants","1","0","","neutral","0"
"html-keyboard-response","114","513951","0.0-9.0-2.0-0.21","7056","1","19","Male","approach_avoid_spark_v1","""event"",""trial"",""time""
""fullscreenenter"",""1"",""1538""
","
","
","""event"",""trial"",""time""
""fullscreenenter"",""1"",""1538""
","
","","","","","","null","<div style=""font-size:60px;"">+</div>","null","","fixation","","","","","","","","","","",""
"aa-learning-trial","115","516952","0.0-9.0-2.0-1.21","7056","1","19","Male","approach_avoid_spark_v1","""event"",""trial"",""time""
""fullscreenenter"",""1"",""1538""
","
","
","""event"",""trial"",""time""
""fullscreenenter"",""1"",""1538""
","
","","","","","","812.9000000953674","images/bush2.png","","","learning","-4","0","0","0","bush","plants","1","0","","bad","[-6]"
"html-keyboard-response","116","517454","0.0-9.0-2.0-0.22","7056","1","19","Male","approach_avoid_spark_v1","""event"",""trial"",""time""
""fullscreenenter"",""1"",""1538""
","
","
","""event"",""trial"",""time""
""fullscreenenter"",""1"",""1538""
","
","","","","","","null","<div style=""font-size:60px;"">+</div>","null","","fixation","","","","","","","","","","",""
"aa-learning-trial","117","520455","0.0-9.0-2.0-1.22","7056","1","19","Male","approach_avoid_spark_v1","""event"",""trial"",""time""
""fullscreenenter"",""1"",""1538""
","
","
","""event"",""trial"",""time""
""fullscreenenter"",""1"",""1538""
","
","","","","","","628.5","images/tree4.png","","","learning","8","8","1","1","tree","plants","1","0","","good","[5]"
"html-keyboard-response","118","520956","0.0-9.0-2.0-0.23","7056","1","19","Male","approach_avoid_spark_v1","""event"",""trial"",""time""
""fullscreenenter"",""1"",""1538""
","
","
","""event"",""trial"",""time""
""fullscreenenter"",""1"",""1538""
","
","","","","","","null","<div style=""font-size:60px;"">+</div>","null","","fixation","","","","","","","","","","",""
"aa-learning-trial","119","523957","0.0-9.0-2.0-1.23","7056","1","19","Male","approach_avoid_spark_v1","""event"",""trial"",""time""
""fullscreenenter"",""1"",""1538""
","
","
","""event"",""trial"",""time""
""fullscreenenter"",""1"",""1538""
","
","","","","","","1029.0999999046326","images/cactus8.png","","","learning","[-1]","0","0","0","cactus","plants","1","0","","neutral","0"
"html-keyboard-response","120","524462","0.0-9.0-2.0-0.24","7056","1","19","Male","approach_avoid_spark_v1","""event"",""trial"",""time""
""fullscreenenter"",""1"",""1538""
","
","
","""event"",""trial"",""time""
""fullscreenenter"",""1"",""1538""
","
","","","","","","null","<div style=""font-size:60px;"">+</div>","null","","fixation","","","","","","","","","","",""
"aa-learning-trial","121","527464","0.0-9.0-2.0-1.24","7056","1","19","Male","approach_avoid_spark_v1","""event"",""trial"",""time""
""fullscreenenter"",""1"",""1538""
","
","
","""event"",""trial"",""time""
""fullscreenenter"",""1"",""1538""
","
","","","","","","702.7000000476837","images/cactus8.png","","","learning","[1]","0","0","0","cactus","plants","1","0","","neutral","0"
"html-keyboard-response","122","527964","0.0-9.0-2.0-0.25","7056","1","19","Male","approach_avoid_spark_v1","""event"",""trial"",""time""
""fullscreenenter"",""1"",""1538""
","
","
","""event"",""trial"",""time""
""fullscreenenter"",""1"",""1538""
","
","","","","","","null","<div style=""font-size:60px;"">+</div>","null","","fixation","","","","","","","","","","",""
"aa-learning-trial","123","530966","0.0-9.0-2.0-1.25","7056","1","19","Male","approach_avoid_spark_v1","""event"",""trial"",""time""
""fullscreenenter"",""1"",""1538""
","
","
","""event"",""trial"",""time""
""fullscreenenter"",""1"",""1538""
","
","","","","","","701.5999999046326","images/bush6.png","","","learning","-7","0","0","0","bush","plants","1","0","","bad","[-6]"
"html-keyboard-response","124","531467","0.0-9.0-2.0-0.26","7056","1","19","Male","approach_avoid_spark_v1","""event"",""trial"",""time""
""fullscreenenter"",""1"",""1538""
","
","
","""event"",""trial"",""time""
""fullscreenenter"",""1"",""1538""
","
","","","","","","null","<div style=""font-size:60px;"">+</div>","null","","fixation","","","","","","","","","","",""
"aa-learning-trial","125","534469","0.0-9.0-2.0-1.26","7056","1","19","Male","approach_avoid_spark_v1","""event"",""trial"",""time""
""fullscreenenter"",""1"",""1538""
","
","
","""event"",""trial"",""time""
""fullscreenenter"",""1"",""1538""
","
","","","","","","580.1000001430511","images/bush2.png","","","learning","-3","0","0","0","bush","plants","1","0","","bad","[-6]"
"html-keyboard-response","126","534970","0.0-9.0-2.0-0.27","7056","1","19","Male","approach_avoid_spark_v1","""event"",""trial"",""time""
""fullscreenenter"",""1"",""1538""
","
","
","""event"",""trial"",""time""
""fullscreenenter"",""1"",""1538""
","
","","","","","","null","<div style=""font-size:60px;"">+</div>","null","","fixation","","","","","","","","","","",""
"aa-learning-trial","127","537972","0.0-9.0-2.0-1.27","7056","1","19","Male","approach_avoid_spark_v1","""event"",""trial"",""time""
""fullscreenenter"",""1"",""1538""
","
","
","""event"",""trial"",""time""
""fullscreenenter"",""1"",""1538""
","
","","","","","","915.7000000476837","images/bush1.png","","","learning","-7","0","0","0","bush","plants","1","0","","bad","[-6]"
"html-keyboard-response","128","538473","0.0-9.0-2.0-0.28","7056","1","19","Male","approach_avoid_spark_v1","""event"",""trial"",""time""
""fullscreenenter"",""1"",""1538""
","
","
","""event"",""trial"",""time""
""fullscreenenter"",""1"",""1538""
","
","","","","","","null","<div style=""font-size:60px;"">+</div>","null","","fixation","","","","","","","","","","",""
"aa-learning-trial","129","541474","0.0-9.0-2.0-1.28","7056","1","19","Male","approach_avoid_spark_v1","""event"",""trial"",""time""
""fullscreenenter"",""1"",""1538""
","
","
","""event"",""trial"",""time""
""fullscreenenter"",""1"",""1538""
","
","","","","","","848.7000000476837","images/bush5.png","","","learning","-4","0","0","0","bush","plants","1","0","","bad","[-6]"
"html-keyboard-response","130","541976","0.0-9.0-2.0-0.29","7056","1","19","Male","approach_avoid_spark_v1","""event"",""trial"",""time""
""fullscreenenter"",""1"",""1538""
","
","
","""event"",""trial"",""time""
""fullscreenenter"",""1"",""1538""
","
","","","","","","null","<div style=""font-size:60px;"">+</div>","null","","fixation","","","","","","","","","","",""
"aa-learning-trial","131","544977","0.0-9.0-2.0-1.29","7056","1","19","Male","approach_avoid_spark_v1","""event"",""trial"",""time""
""fullscreenenter"",""1"",""1538""
","
","
","""event"",""trial"",""time""
""fullscreenenter"",""1"",""1538""
","
","","","","","","2101.5","images/cactus1.png","","","learning","2","2","1","1","cactus","plants","1","0","","neutral","0"
"html-keyboard-response","132","545479","0.0-9.0-2.0-0.30","7056","1","19","Male","approach_avoid_spark_v1","""event"",""trial"",""time""
""fullscreenenter"",""1"",""1538""
","
","
","""event"",""trial"",""time""
""fullscreenenter"",""1"",""1538""
","
","","","","","","null","<div style=""font-size:60px;"">+</div>","null","","fixation","","","","","","","","","","",""
"aa-learning-trial","133","548480","0.0-9.0-2.0-1.30","7056","1","19","Male","approach_avoid_spark_v1","""event"",""trial"",""time""
""fullscreenenter"",""1"",""1538""
","
","
","""event"",""trial"",""time""
""fullscreenenter"",""1"",""1538""
","
","","","","","","1040.9000000953674","images/tree1.png","","","learning","5","5","1","1","tree","plants","1","0","","good","[5]"
"html-keyboard-response","134","548982","0.0-9.0-2.0-0.31","7056","1","19","Male","approach_avoid_spark_v1","""event"",""trial"",""time""
""fullscreenenter"",""1"",""1538""
","
","
","""event"",""trial"",""time""
""fullscreenenter"",""1"",""1538""
","
","","","","","","null","<div style=""font-size:60px;"">+</div>","null","","fixation","","","","","","","","","","",""
"aa-learning-trial","135","551983","0.0-9.0-2.0-1.31","7056","1","19","Male","approach_avoid_spark_v1","""event"",""trial"",""time""
""fullscreenenter"",""1"",""1538""
","
","
","""event"",""trial"",""time""
""fullscreenenter"",""1"",""1538""
","
","","","","","","1196.0999999046326","images/cactus3.png","","","learning","-1","-1","1","1","cactus","plants","1","0","","neutral","0"
"html-keyboard-response","136","552486","0.0-9.0-2.0-0.32","7056","1","19","Male","approach_avoid_spark_v1","""event"",""trial"",""time""
""fullscreenenter"",""1"",""1538""
","
","
","""event"",""trial"",""time""
""fullscreenenter"",""1"",""1538""
","
","","","","","","null","<div style=""font-size:60px;"">+</div>","null","","fixation","","","","","","","","","","",""
"aa-learning-trial","137","555488","0.0-9.0-2.0-1.32","7056","1","19","Male","approach_avoid_spark_v1","""event"",""trial"",""time""
""fullscreenenter"",""1"",""1538""
","
","
","""event"",""trial"",""time""
""fullscreenenter"",""1"",""1538""
","
","","","","","","833.2000000476837","images/cactus1.png","","","learning","[1]","1","1","1","cactus","plants","1","0","","neutral","0"
"html-keyboard-response","138","555990","0.0-9.0-2.0-0.33","7056","1","19","Male","approach_avoid_spark_v1","""event"",""trial"",""time""
""fullscreenenter"",""1"",""1538""
","
","
","""event"",""trial"",""time""
""fullscreenenter"",""1"",""1538""
","
","","","","","","null","<div style=""font-size:60px;"">+</div>","null","","fixation","","","","","","","","","","",""
"aa-learning-trial","139","558991","0.0-9.0-2.0-1.33","7056","1","19","Male","approach_avoid_spark_v1","""event"",""trial"",""time""
""fullscreenenter"",""1"",""1538""
","
","
","""event"",""trial"",""time""
""fullscreenenter"",""1"",""1538""
","
","","","","","","596.2999999523163","images/cactus1.png","","","learning","-2","-2","1","1","cactus","plants","1","0","","neutral","0"
"html-keyboard-response","140","559492","0.0-9.0-2.0-0.34","7056","1","19","Male","approach_avoid_spark_v1","""event"",""trial"",""time""
""fullscreenenter"",""1"",""1538""
","
","
","""event"",""trial"",""time""
""fullscreenenter"",""1"",""1538""
","
","","","","","","null","<div style=""font-size:60px;"">+</div>","null","","fixation","","","","","","","","","","",""
"aa-learning-trial","141","562494","0.0-9.0-2.0-1.34","7056","1","19","Male","approach_avoid_spark_v1","""event"",""trial"",""time""
""fullscreenenter"",""1"",""1538""
","
","
","""event"",""trial"",""time""
""fullscreenenter"",""1"",""1538""
","
","","","","","","661.2999999523163","images/tree1.png","","","learning","5","5","1","1","tree","plants","1","0","","good","[5]"
"html-keyboard-response","142","562995","0.0-9.0-2.0-0.35","7056","1","19","Male","approach_avoid_spark_v1","""event"",""trial"",""time""
""fullscreenenter"",""1"",""1538""
","
","
","""event"",""trial"",""time""
""fullscreenenter"",""1"",""1538""
","
","","","","","","null","<div style=""font-size:60px;"">+</div>","null","","fixation","","","","","","","","","","",""
"aa-learning-trial","143","565996","0.0-9.0-2.0-1.35","7056","1","19","Male","approach_avoid_spark_v1","""event"",""trial"",""time""
""fullscreenenter"",""1"",""1538""
","
","
","""event"",""trial"",""time""
""fullscreenenter"",""1"",""1538""
","
","","","","","","673.2000000476837","images/bush6.png","","","learning","-4","0","0","0","bush","plants","1","0","","bad","[-6]"
"html-keyboard-response","144","566498","0.0-9.0-2.0-0.36","7056","1","19","Male","approach_avoid_spark_v1","""event"",""trial"",""time""
""fullscreenenter"",""1"",""1538""
","
","
","""event"",""trial"",""time""
""fullscreenenter"",""1"",""1538""
","
","","","","","","null","<div style=""font-size:60px;"">+</div>","null","","fixation","","","","","","","","","","",""
"aa-learning-trial","145","569500","0.0-9.0-2.0-1.36","7056","1","19","Male","approach_avoid_spark_v1","""event"",""trial"",""time""
""fullscreenenter"",""1"",""1538""
","
","
","""event"",""trial"",""time""
""fullscreenenter"",""1"",""1538""
","
","","","","","","576","images/tree8.png","","","learning","4","4","1","1","tree","plants","1","0","","good","[5]"
"html-keyboard-response","146","570002","0.0-9.0-2.0-0.37","7056","1","19","Male","approach_avoid_spark_v1","""event"",""trial"",""time""
""fullscreenenter"",""1"",""1538""
","
","
","""event"",""trial"",""time""
""fullscreenenter"",""1"",""1538""
","
","","","","","","null","<div style=""font-size:60px;"">+</div>","null","","fixation","","","","","","","","","","",""
"aa-learning-trial","147","573003","0.0-9.0-2.0-1.37","7056","1","19","Male","approach_avoid_spark_v1","""event"",""trial"",""time""
""fullscreenenter"",""1"",""1538""
","
","
","""event"",""trial"",""time""
""fullscreenenter"",""1"",""1538""
","
","","","","","","611.8999998569489","images/tree8.png","","","learning","6","6","1","1","tree","plants","1","0","","good","[5]"
"html-keyboard-response","148","573504","0.0-9.0-2.0-0.38","7056","1","19","Male","approach_avoid_spark_v1","""event"",""trial"",""time""
""fullscreenenter"",""1"",""1538""
","
","
","""event"",""trial"",""time""
""fullscreenenter"",""1"",""1538""
","
","","","","","","null","<div style=""font-size:60px;"">+</div>","null","","fixation","","","","","","","","","","",""
"aa-learning-trial","149","576506","0.0-9.0-2.0-1.38","7056","1","19","Male","approach_avoid_spark_v1","""event"",""trial"",""time""
""fullscreenenter"",""1"",""1538""
","
","
","""event"",""trial"",""time""
""fullscreenenter"",""1"",""1538""
","
","","","","","","656.7999999523163","images/bush4.png","","","learning","-7","0","0","0","bush","plants","1","0","","bad","[-6]"
"html-keyboard-response","150","577007","0.0-9.0-2.0-0.39","7056","1","19","Male","approach_avoid_spark_v1","""event"",""trial"",""time""
""fullscreenenter"",""1"",""1538""
","
","
","""event"",""trial"",""time""
""fullscreenenter"",""1"",""1538""
","
","","","","","","null","<div style=""font-size:60px;"">+</div>","null","","fixation","","","","","","","","","","",""
"aa-learning-trial","151","580009","0.0-9.0-2.0-1.39","7056","1","19","Male","approach_avoid_spark_v1","""event"",""trial"",""time""
""fullscreenenter"",""1"",""1538""
","
","
","""event"",""trial"",""time""
""fullscreenenter"",""1"",""1538""
","
","","","","","","795.0999999046326","images/bush1.png","","","learning","-4","0","0","0","bush","plants","1","0","","bad","[-6]"
"html-keyboard-response","152","580510","0.0-9.0-2.0-0.40","7056","1","19","Male","approach_avoid_spark_v1","""event"",""trial"",""time""
""fullscreenenter"",""1"",""1538""
","
","
","""event"",""trial"",""time""
""fullscreenenter"",""1"",""1538""
","
","","","","","","null","<div style=""font-size:60px;"">+</div>","null","","fixation","","","","","","","","","","",""
"aa-learning-trial","153","583512","0.0-9.0-2.0-1.40","7056","1","19","Male","approach_avoid_spark_v1","""event"",""trial"",""time""
""fullscreenenter"",""1"",""1538""
","
","
","""event"",""trial"",""time""
""fullscreenenter"",""1"",""1538""
","
","","","","","","691.2999999523163","images/tree4.png","","","learning","5","5","1","1","tree","plants","1","0","","good","[5]"
"html-keyboard-response","154","584013","0.0-9.0-2.0-0.41","7056","1","19","Male","approach_avoid_spark_v1","""event"",""trial"",""time""
""fullscreenenter"",""1"",""1538""
","
","
","""event"",""trial"",""time""
""fullscreenenter"",""1"",""1538""
","
","","","","","","null","<div style=""font-size:60px;"">+</div>","null","","fixation","","","","","","","","","","",""
"aa-learning-trial","155","587015","0.0-9.0-2.0-1.41","7056","1","19","Male","approach_avoid_spark_v1","""event"",""trial"",""time""
""fullscreenenter"",""1"",""1538""
","
","
","""event"",""trial"",""time""
""fullscreenenter"",""1"",""1538""
","
","","","","","","559","images/tree4.png","","","learning","6","6","1","1","tree","plants","1","0","","good","[5]"
"html-keyboard-response","156","587517","0.0-9.0-2.0-0.42","7056","1","19","Male","approach_avoid_spark_v1","""event"",""trial"",""time""
""fullscreenenter"",""1"",""1538""
","
","
","""event"",""trial"",""time""
""fullscreenenter"",""1"",""1538""
","
","","","","","","null","<div style=""font-size:60px;"">+</div>","null","","fixation","","","","","","","","","","",""
"aa-learning-trial","157","590519","0.0-9.0-2.0-1.42","7056","1","19","Male","approach_avoid_spark_v1","""event"",""trial"",""time""
""fullscreenenter"",""1"",""1538""
","
","
","""event"",""trial"",""time""
""fullscreenenter"",""1"",""1538""
","
","","","","","","744.5","images/tree6.png","","","learning","5","5","1","1","tree","plants","1","0","","good","[5]"
"html-keyboard-response","158","591029","0.0-9.0-2.0-0.43","7056","1","19","Male","approach_avoid_spark_v1","""event"",""trial"",""time""
""fullscreenenter"",""1"",""1538""
","
","
","""event"",""trial"",""time""
""fullscreenenter"",""1"",""1538""
","
","","","","","","null","<div style=""font-size:60px;"">+</div>","null","","fixation","","","","","","","","","","",""
"aa-learning-trial","159","594030","0.0-9.0-2.0-1.43","7056","1","19","Male","approach_avoid_spark_v1","""event"",""trial"",""time""
""fullscreenenter"",""1"",""1538""
","
","
","""event"",""trial"",""time""
""fullscreenenter"",""1"",""1538""
","
","","","","","","1714.2000000476837","images/cactus8.png","","","learning","5","5","1","1","cactus","plants","1","0","","neutral","0"
"html-keyboard-response","160","594531","0.0-9.0-2.0-0.44","7056","1","19","Male","approach_avoid_spark_v1","""event"",""trial"",""time""
""fullscreenenter"",""1"",""1538""
","
","
","""event"",""trial"",""time""
""fullscreenenter"",""1"",""1538""
","
","","","","","","null","<div style=""font-size:60px;"">+</div>","null","","fixation","","","","","","","","","","",""
"aa-learning-trial","161","597533","0.0-9.0-2.0-1.44","7056","1","19","Male","approach_avoid_spark_v1","""event"",""trial"",""time""
""fullscreenenter"",""1"",""1538""
","
","
","""event"",""trial"",""time""
""fullscreenenter"",""1"",""1538""
","
","","","","","","709.4000000953674","images/tree8.png","","","learning","6","6","1","1","tree","plants","1","0","","good","[5]"
"html-keyboard-response","162","598033","0.0-9.0-2.0-0.45","7056","1","19","Male","approach_avoid_spark_v1","""event"",""trial"",""time""
""fullscreenenter"",""1"",""1538""
","
","
","""event"",""trial"",""time""
""fullscreenenter"",""1"",""1538""
","
","","","","","","null","<div style=""font-size:60px;"">+</div>","null","","fixation","","","","","","","","","","",""
"aa-learning-trial","163","601035","0.0-9.0-2.0-1.45","7056","1","19","Male","approach_avoid_spark_v1","""event"",""trial"",""time""
""fullscreenenter"",""1"",""1538""
","
","
","""event"",""trial"",""time""
""fullscreenenter"",""1"",""1538""
","
","","","","","","1041.8999998569489","images/cactus7.png","","","learning","[-1]","-1","1","1","cactus","plants","1","0","","neutral","0"
"html-keyboard-response","164","601536","0.0-9.0-2.0-0.46","7056","1","19","Male","approach_avoid_spark_v1","""event"",""trial"",""time""
""fullscreenenter"",""1"",""1538""
","
","
","""event"",""trial"",""time""
""fullscreenenter"",""1"",""1538""
","
","","","","","","null","<div style=""font-size:60px;"">+</div>","null","","fixation","","","","","","","","","","",""
"aa-learning-trial","165","604538","0.0-9.0-2.0-1.46","7056","1","19","Male","approach_avoid_spark_v1","""event"",""trial"",""time""
""fullscreenenter"",""1"",""1538""
","
","
","""event"",""trial"",""time""
""fullscreenenter"",""1"",""1538""
","
","","","","","","622.1000001430511","images/tree4.png","","","learning","7","7","1","1","tree","plants","1","0","","good","[5]"
"html-keyboard-response","166","605040","0.0-9.0-2.0-0.47","7056","1","19","Male","approach_avoid_spark_v1","""event"",""trial"",""time""
""fullscreenenter"",""1"",""1538""
","
","
","""event"",""trial"",""time""
""fullscreenenter"",""1"",""1538""
","
","","","","","","null","<div style=""font-size:60px;"">+</div>","null","","fixation","","","","","","","","","","",""
"aa-learning-trial","167","608042","0.0-9.0-2.0-1.47","7056","1","19","Male","approach_avoid_spark_v1","""event"",""trial"",""time""
""fullscreenenter"",""1"",""1538""
","
","
","""event"",""trial"",""time""
""fullscreenenter"",""1"",""1538""
","
","","","","","","511.19999980926514","images/tree8.png","","","learning","7","7","1","1","tree","plants","1","0","","good","[5]"
"html-keyboard-response","168","608543","0.0-9.0-2.0-0.48","7056","1","19","Male","approach_avoid_spark_v1","""event"",""trial"",""time""
""fullscreenenter"",""1"",""1538""
","
","
","""event"",""trial"",""time""
""fullscreenenter"",""1"",""1538""
","
","","","","","","null","<div style=""font-size:60px;"">+</div>","null","","fixation","","","","","","","","","","",""
"aa-learning-trial","169","611545","0.0-9.0-2.0-1.48","7056","1","19","Male","approach_avoid_spark_v1","""event"",""trial"",""time""
""fullscreenenter"",""1"",""1538""
","
","
","""event"",""trial"",""time""
""fullscreenenter"",""1"",""1538""
","
","","","","","","984.2999999523163","images/bush1.png","","","learning","-5","0","0","0","bush","plants","1","0","","bad","[-6]"
"html-keyboard-response","170","612046","0.0-9.0-2.0-0.49","7056","1","19","Male","approach_avoid_spark_v1","""event"",""trial"",""time""
""fullscreenenter"",""1"",""1538""
","
","
","""event"",""trial"",""time""
""fullscreenenter"",""1"",""1538""
","
","","","","","","null","<div style=""font-size:60px;"">+</div>","null","","fixation","","","","","","","","","","",""
"aa-learning-trial","171","615047","0.0-9.0-2.0-1.49","7056","1","19","Male","approach_avoid_spark_v1","""event"",""trial"",""time""
""fullscreenenter"",""1"",""1538""
","
","
","""event"",""trial"",""time""
""fullscreenenter"",""1"",""1538""
","
","","","","","","751.3999998569489","images/bush6.png","","","learning","-5","0","0","0","bush","plants","1","0","","bad","[-6]"
"html-keyboard-response","172","615548","0.0-9.0-2.0-0.50","7056","1","19","Male","approach_avoid_spark_v1","""event"",""trial"",""time""
""fullscreenenter"",""1"",""1538""
","
","
","""event"",""trial"",""time""
""fullscreenenter"",""1"",""1538""
","
","","","","","","null","<div style=""font-size:60px;"">+</div>","null","","fixation","","","","","","","","","","",""
"aa-learning-trial","173","618550","0.0-9.0-2.0-1.50","7056","1","19","Male","approach_avoid_spark_v1","""event"",""trial"",""time""
""fullscreenenter"",""1"",""1538""
","
","
","""event"",""trial"",""time""
""fullscreenenter"",""1"",""1538""
","
","","","","","","796.5","images/bush1.png","","","learning","-4","0","0","0","bush","plants","1","0","","bad","[-6]"
"html-button-response","174","620523","0.0-9.0-3.0","7056","1","19","Male","approach_avoid_spark_v1","""event"",""trial"",""time""
""fullscreenenter"",""1"",""1538""
","
","
","""event"",""trial"",""time""
""fullscreenenter"",""1"",""1538""
","
","","","","","","1972.4000000953674","<p> You have completed the round! <p> In this round, you earned 94 points! </p>","0","","break","","","","","","","","","","",""
"html-button-response","175","621358","0.0-10.0","7056","1","19","Male","approach_avoid_spark_v1","""event"",""trial"",""time""
""fullscreenenter"",""1"",""1538""
","
","
","""event"",""trial"",""time""
""fullscreenenter"",""1"",""1538""
","
","","","","","","834.2000000476837","<p> Now it's time to play another round. </p>","0","","transition_screen","","","","","","","","","","",""
"preload","176","621470","0.0-11.0-0.0","7056","1","19","Male","approach_avoid_spark_v1","""event"",""trial"",""time""
""fullscreenenter"",""1"",""1538""
","
","
","""event"",""trial"",""time""
""fullscreenenter"",""1"",""1538""
","
","true","false","[]","[]","[]","","","","","","","","","","","","","","","",""
"learning-instructions","177","630783","0.0-11.0-1.0-0.0","7056","1","19","Male","approach_avoid_spark_v1","""event"",""trial"",""time""
""fullscreenenter"",""1"",""1538""
","
","
","""event"",""trial"",""time""
""fullscreenenter"",""1"",""1538""
","
","","","","","","4811.099999904633","<p> Your goal in this round is to eat tasty fruit. </p></div>","","0","instructions","","","","","","","","","","",""
"learning-instructions","178","643992","0.0-11.0-1.0-0.1","7056","1","19","Male","approach_avoid_spark_v1","""event"",""trial"",""time""
""fullscreenenter"",""1"",""1538""
","
","
","""event"",""trial"",""time""
""fullscreenenter"",""1"",""1538""
","
","","","","","","2380.199999809265","<p> Some of the fruits you will see are tasty. Others are rotten on the inside.  </p><p> On each turn, you will see a fruit.   </p><p> You need to decide whether to eat it or not.  </p>","","0","instructions","","","","","","","","","","",""
"learning-instructions","179","652554","0.0-11.0-1.0-0.2","7056","1","19","Male","approach_avoid_spark_v1","""event"",""trial"",""time""
""fullscreenenter"",""1"",""1538""
","
","
","""event"",""trial"",""time""
""fullscreenenter"",""1"",""1538""
","
","","","","","","3171.7000000476837","<p> You can eat the fruit by pressing 1 and choose not to eat it by pressing 0. </p><br><div class=""choice-instructions-grid""> <div class=""choice-option""><img src=""images/approach.png"" class=""choice-option-img"" stage=""instructions"" position=""0"" ><div class=""choice-option-text""> Press ""1."" </div></div><div class=""choice-option""><img src=""images/avoid.png"" class=""choice-option-img"" stage=""instructions"" position=""1"" ><div class=""choice-option-text""> Press ""0."" </div></div>","","0","instructions","","","","","","","","","","",""
"learning-instructions","180","662527","0.0-11.0-1.0-0.3","7056","1","19","Male","approach_avoid_spark_v1","""event"",""trial"",""time""
""fullscreenenter"",""1"",""1538""
","
","
","""event"",""trial"",""time""
""fullscreenenter"",""1"",""1538""
","
","","","","","","1974.7000000476837","<p> If you eat the fruit and it was tasty, you will win points! </p><p> But if you eat the fruit and it was rotten, you will lose points. </p>","","0","instructions","","","","","","","","","","",""
"learning-instructions","181","679678","0.0-11.0-1.0-0.4","7056","1","19","Male","approach_avoid_spark_v1","""event"",""trial"",""time""
""fullscreenenter"",""1"",""1538""
","
","
","""event"",""trial"",""time""
""fullscreenenter"",""1"",""1538""
","
","","","","","","4575.299999952316","<p> You will earn points based on how tasty or rotten the fruit was. </p><p> If it was tasty, you will WIN anywhere from 1 - 9 points, </p><p> but if it was rotten, you will LOSE anywhere from 1 - 9 points. </p>","","0","instructions","","","","","","","","","","",""
"learning-instructions","182","687092","0.0-11.0-1.0-0.5","7056","1","19","Male","approach_avoid_spark_v1","""event"",""trial"",""time""
""fullscreenenter"",""1"",""1538""
","
","
","""event"",""trial"",""time""
""fullscreenenter"",""1"",""1538""
","
","","","","","","749.5","<p> You will see how many points you won or lost in the center of the screen. </p><p> Here is what you would see if you earned 5 points: </p><p style=""color:green;font-size:50px;font-weight:bolder"">5</p>","","0","instructions","","","","","","","","","","",""
"learning-instructions","183","691829","0.0-11.0-1.0-0.6","7056","1","19","Male","approach_avoid_spark_v1","""event"",""trial"",""time""
""fullscreenenter"",""1"",""1538""
","
","
","""event"",""trial"",""time""
""fullscreenenter"",""1"",""1538""
","
","","","","","","1896.8999998569489","<p> And here is what you would see if you lost 3 points: </p><p style=""color:red;font-size:50px;font-weight:bolder"">-3</p>","","0","instructions","","","","","","","","","","",""
"learning-instructions","184","708311","0.0-11.0-1.0-0.7","7056","1","19","Male","approach_avoid_spark_v1","""event"",""trial"",""time""
""fullscreenenter"",""1"",""1538""
","
","
","""event"",""trial"",""time""
""fullscreenenter"",""1"",""1538""
","
","","","","","","988","<p> Some fruit is very tasty or very rotten. </p><p> These fruits will make you win or lose LOTS of points. </p><p> Other fruits are only kind of tasty or kind of rotten. </p><p> These fruits will make you win or lose small amounts of points. </p>","","0","instructions","","","","","","","","","","",""
"learning-instructions","185","721048","0.0-11.0-1.0-0.8","7056","1","19","Male","approach_avoid_spark_v1","""event"",""trial"",""time""
""fullscreenenter"",""1"",""1538""
","
","
","""event"",""trial"",""time""
""fullscreenenter"",""1"",""1538""
","
","","","","","","1145.0999999046326","<p> If you choose to not eat the fruit, you will not win or lose any points. </p><p>  However, in the center of the screen, you will see the number of points you WOULD HAVE earned if you had eaten the fruit. </p>","","0","instructions","","","","","","","","","","",""
"learning-instructions","186","732794","0.0-11.0-1.0-0.9","7056","1","19","Male","approach_avoid_spark_v1","""event"",""trial"",""time""
""fullscreenenter"",""1"",""1538""
","
","
","""event"",""trial"",""time""
""fullscreenenter"",""1"",""1538""
","
","","","","","","841","<p> Here is what you might see if you did not eat the fruit but the fruit was tasty: </p><p style=""color:grey; font-size:50px; display: inline-block; border-spacing: 15px; border-width:3px; border-style:solid; border-color:red"">  &nbsp; 6 &nbsp; </p><p> Remember, in this case, you would not win or lose ANY points because you did not eat the fruit.  </p>","","0","instructions","","","","","","","","","","",""
"learning-instructions","187","741766","0.0-11.0-1.0-0.10","7056","1","19","Male","approach_avoid_spark_v1","""event"",""trial"",""time""
""fullscreenenter"",""1"",""1538""
","
","
","""event"",""trial"",""time""
""fullscreenenter"",""1"",""1538""
","
","","","","","","372.89999985694885","<p> Try to make the best choice for each fruit because </p><p> at the end of the game, you will earn bonus money based on how many points you earned. </p>","","0","instructions","","","","","","","","","","",""
"learning-instructions","188","750443","0.0-11.0-1.0-0.11","7056","1","19","Male","approach_avoid_spark_v1","""event"",""trial"",""time""
""fullscreenenter"",""1"",""1538""
","
","
","""event"",""trial"",""time""
""fullscreenenter"",""1"",""1538""
","
","","","","","","480.2999999523163","<p> You will have 3 seconds to make each choice. Try to respond before time runs out! </p><p> You will lose 5 points each time you do not make a response. </p>","","0","instructions","","","","","","","","","","",""
"html-keyboard-response","189","751060","0.0-11.0-2.0-0.0","7056","1","19","Male","approach_avoid_spark_v1","""event"",""trial"",""time""
""fullscreenenter"",""1"",""1538""
","
","
","""event"",""trial"",""time""
""fullscreenenter"",""1"",""1538""
","
","","","","","","null","<div style=""font-size:60px;"">+</div>","null","","fixation","","","","","","","","","","",""
"aa-learning-trial","190","754061","0.0-11.0-2.0-1.0","7056","1","19","Male","approach_avoid_spark_v1","""event"",""trial"",""time""
""fullscreenenter"",""1"",""1538""
","
","
","""event"",""trial"",""time""
""fullscreenenter"",""1"",""1538""
","
","","","","","","1501.5999999046326","images/banana2.png","","","learning","9","9","1","1","banana","fruit","2","1","","good","[4]"
"html-keyboard-response","191","754565","0.0-11.0-2.0-0.1","7056","1","19","Male","approach_avoid_spark_v1","""event"",""trial"",""time""
""fullscreenenter"",""1"",""1538""
","
","
","""event"",""trial"",""time""
""fullscreenenter"",""1"",""1538""
","
","","","","","","null","<div style=""font-size:60px;"">+</div>","null","","fixation","","","","","","","","","","",""
"aa-learning-trial","192","757578","0.0-11.0-2.0-1.1","7056","1","19","Male","approach_avoid_spark_v1","""event"",""trial"",""time""
""fullscreenenter"",""1"",""1538""
","
","
","""event"",""trial"",""time""
""fullscreenenter"",""1"",""1538""
","
","","","","","","800.5","images/orange6.png","","","learning","3","3","1","1","orange","fruit","2","1","","neutral","0"
"html-keyboard-response","193","758088","0.0-11.0-2.0-0.2","7056","1","19","Male","approach_avoid_spark_v1","""event"",""trial"",""time""
""fullscreenenter"",""1"",""1538""
","
","
","""event"",""trial"",""time""
""fullscreenenter"",""1"",""1538""
","
","","","","","","null","<div style=""font-size:60px;"">+</div>","null","","fixation","","","","","","","","","","",""
"aa-learning-trial","194","761098","0.0-11.0-2.0-1.2","7056","1","19","Male","approach_avoid_spark_v1","""event"",""trial"",""time""
""fullscreenenter"",""1"",""1538""
","
","
","""event"",""trial"",""time""
""fullscreenenter"",""1"",""1538""
","
","","","","","","1751.5999999046326","images/banana1.png","","","learning","-2","0","0","0","banana","fruit","2","1","","good","[4]"
"html-keyboard-response","195","761609","0.0-11.0-2.0-0.3","7056","1","19","Male","approach_avoid_spark_v1","""event"",""trial"",""time""
""fullscreenenter"",""1"",""1538""
","
","
","""event"",""trial"",""time""
""fullscreenenter"",""1"",""1538""
","
","","","","","","null","<div style=""font-size:60px;"">+</div>","null","","fixation","","","","","","","","","","",""
"aa-learning-trial","196","764617","0.0-11.0-2.0-1.3","7056","1","19","Male","approach_avoid_spark_v1","""event"",""trial"",""time""
""fullscreenenter"",""1"",""1538""
","
","
","""event"",""trial"",""time""
""fullscreenenter"",""1"",""1538""
","
","","","","","","615.6000001430511","images/orange8.png","","","learning","1","1","1","1","orange","fruit","2","1","","neutral","0"
"html-keyboard-response","197","765125","0.0-11.0-2.0-0.4","7056","1","19","Male","approach_avoid_spark_v1","""event"",""trial"",""time""
""fullscreenenter"",""1"",""1538""
","
","
","""event"",""trial"",""time""
""fullscreenenter"",""1"",""1538""
","
","","","","","","null","<div style=""font-size:60px;"">+</div>","null","","fixation","","","","","","","","","","",""
"aa-learning-trial","198","768140","0.0-11.0-2.0-1.4","7056","1","19","Male","approach_avoid_spark_v1","""event"",""trial"",""time""
""fullscreenenter"",""1"",""1538""
","
","
","""event"",""trial"",""time""
""fullscreenenter"",""1"",""1538""
","
","","","","","","502.2999999523163","images/orange8.png","","","learning","1","1","1","1","orange","fruit","2","1","","neutral","0"
"html-keyboard-response","199","768653","0.0-11.0-2.0-0.5","7056","1","19","Male","approach_avoid_spark_v1","""event"",""trial"",""time""
""fullscreenenter"",""1"",""1538""
","
","
","""event"",""trial"",""time""
""fullscreenenter"",""1"",""1538""
","
","","","","","","null","<div style=""font-size:60px;"">+</div>","null","","fixation","","","","","","","","","","",""
"aa-learning-trial","200","771666","0.0-11.0-2.0-1.5","7056","1","19","Male","approach_avoid_spark_v1","""event"",""trial"",""time""
""fullscreenenter"",""1"",""1538""
","
","
","""event"",""trial"",""time""
""fullscreenenter"",""1"",""1538""
","
","","","","","","620.2000000476837","images/straw5.png","","","learning","8","8","1","1","straw","fruit","2","1","","bad","[-6]"
"html-keyboard-response","201","772180","0.0-11.0-2.0-0.6","7056","1","19","Male","approach_avoid_spark_v1","""event"",""trial"",""time""
""fullscreenenter"",""1"",""1538""
","
","
","""event"",""trial"",""time""
""fullscreenenter"",""1"",""1538""
","
","","","","","","null","<div style=""font-size:60px;"">+</div>","null","","fixation","","","","","","","","","","",""
"aa-learning-trial","202","775188","0.0-11.0-2.0-1.6","7056","1","19","Male","approach_avoid_spark_v1","""event"",""trial"",""time""
""fullscreenenter"",""1"",""1538""
","
","
","""event"",""trial"",""time""
""fullscreenenter"",""1"",""1538""
","
","","","","","","1504.2999999523163","images/straw7.png","","","learning","-8","0","0","0","straw","fruit","2","1","","bad","[-6]"
"html-keyboard-response","203","775699","0.0-11.0-2.0-0.7","7056","1","19","Male","approach_avoid_spark_v1","""event"",""trial"",""time""
""fullscreenenter"",""1"",""1538""
","
","
","""event"",""trial"",""time""
""fullscreenenter"",""1"",""1538""
","
","","","","","","null","<div style=""font-size:60px;"">+</div>","null","","fixation","","","","","","","","","","",""
"aa-learning-trial","204","778704","0.0-11.0-2.0-1.7","7056","1","19","Male","approach_avoid_spark_v1","""event"",""trial"",""time""
""fullscreenenter"",""1"",""1538""
","
","
","""event"",""trial"",""time""
""fullscreenenter"",""1"",""1538""
","
","","","","","","648.7999999523163","images/orange4.png","","","learning","-7","-7","1","1","orange","fruit","2","1","","neutral","0"
"html-keyboard-response","205","779217","0.0-11.0-2.0-0.8","7056","1","19","Male","approach_avoid_spark_v1","""event"",""trial"",""time""
""fullscreenenter"",""1"",""1538""
","
","
","""event"",""trial"",""time""
""fullscreenenter"",""1"",""1538""
","
","","","","","","null","<div style=""font-size:60px;"">+</div>","null","","fixation","","","","","","","","","","",""
"aa-learning-trial","206","782218","0.0-11.0-2.0-1.8","7056","1","19","Male","approach_avoid_spark_v1","""event"",""trial"",""time""
""fullscreenenter"",""1"",""1538""
","
","
","""event"",""trial"",""time""
""fullscreenenter"",""1"",""1538""
","
","","","","","","892.7000000476837","images/banana1.png","","","learning","-2","0","0","0","banana","fruit","2","1","","good","[4]"
"html-keyboard-response","207","782719","0.0-11.0-2.0-0.9","7056","1","19","Male","approach_avoid_spark_v1","""event"",""trial"",""time""
""fullscreenenter"",""1"",""1538""
","
","
","""event"",""trial"",""time""
""fullscreenenter"",""1"",""1538""
","
","","","","","","null","<div style=""font-size:60px;"">+</div>","null","","fixation","","","","","","","","","","",""
"aa-learning-trial","208","785721","0.0-11.0-2.0-1.9","7056","1","19","Male","approach_avoid_spark_v1","""event"",""trial"",""time""
""fullscreenenter"",""1"",""1538""
","
","
","""event"",""trial"",""time""
""fullscreenenter"",""1"",""1538""
","
","","","","","","842.7999999523163","images/banana2.png","","","learning","9","9","1","1","banana","fruit","2","1","","good","[4]"
"html-keyboard-response","209","786222","0.0-11.0-2.0-0.10","7056","1","19","Male","approach_avoid_spark_v1","""event"",""trial"",""time""
""fullscreenenter"",""1"",""1538""
","
","
","""event"",""trial"",""time""
""fullscreenenter"",""1"",""1538""
","
","","","","","","null","<div style=""font-size:60px;"">+</div>","null","","fixation","","","","","","","","","","",""
"aa-learning-trial","210","789224","0.0-11.0-2.0-1.10","7056","1","19","Male","approach_avoid_spark_v1","""event"",""trial"",""time""
""fullscreenenter"",""1"",""1538""
","
","
","""event"",""trial"",""time""
""fullscreenenter"",""1"",""1538""
","
","","","","","","2353.899999856949","images/straw1.png","","","learning","2","2","1","1","straw","fruit","2","1","","bad","[-6]"
"html-keyboard-response","211","789725","0.0-11.0-2.0-0.11","7056","1","19","Male","approach_avoid_spark_v1","""event"",""trial"",""time""
""fullscreenenter"",""1"",""1538""
","
","
","""event"",""trial"",""time""
""fullscreenenter"",""1"",""1538""
","
","","","","","","null","<div style=""font-size:60px;"">+</div>","null","","fixation","","","","","","","","","","",""
"aa-learning-trial","212","792727","0.0-11.0-2.0-1.11","7056","1","19","Male","approach_avoid_spark_v1","""event"",""trial"",""time""
""fullscreenenter"",""1"",""1538""
","
","
","""event"",""trial"",""time""
""fullscreenenter"",""1"",""1538""
","
","","","","","","1736","images/straw5.png","","","learning","8","0","0","0","straw","fruit","2","1","","bad","[-6]"
"html-keyboard-response","213","793232","0.0-11.0-2.0-0.12","7056","1","19","Male","approach_avoid_spark_v1","""event"",""trial"",""time""
""fullscreenenter"",""1"",""1538""
","
","
","""event"",""trial"",""time""
""fullscreenenter"",""1"",""1538""
","
","","","","","","null","<div style=""font-size:60px;"">+</div>","null","","fixation","","","","","","","","","","",""
"aa-learning-trial","214","796234","0.0-11.0-2.0-1.12","7056","1","19","Male","approach_avoid_spark_v1","""event"",""trial"",""time""
""fullscreenenter"",""1"",""1538""
","
","
","""event"",""trial"",""time""
""fullscreenenter"",""1"",""1538""
","
","","","","","","1069.7999999523163","images/orange4.png","","","learning","-7","-7","1","1","orange","fruit","2","1","","neutral","0"
"html-keyboard-response","215","796735","0.0-11.0-2.0-0.13","7056","1","19","Male","approach_avoid_spark_v1","""event"",""trial"",""time""
""fullscreenenter"",""1"",""1538""
","
","
","""event"",""trial"",""time""
""fullscreenenter"",""1"",""1538""
","
","","","","","","null","<div style=""font-size:60px;"">+</div>","null","","fixation","","","","","","","","","","",""
"aa-learning-trial","216","799736","0.0-11.0-2.0-1.13","7056","1","19","Male","approach_avoid_spark_v1","""event"",""trial"",""time""
""fullscreenenter"",""1"",""1538""
","
","
","""event"",""trial"",""time""
""fullscreenenter"",""1"",""1538""
","
","","","","","","760.3000001907349","images/banana3.png","","","learning","-6","-6","1","1","banana","fruit","2","1","","good","[4]"
"html-keyboard-response","217","800237","0.0-11.0-2.0-0.14","7056","1","19","Male","approach_avoid_spark_v1","""event"",""trial"",""time""
""fullscreenenter"",""1"",""1538""
","
","
","""event"",""trial"",""time""
""fullscreenenter"",""1"",""1538""
","
","","","","","","null","<div style=""font-size:60px;"">+</div>","null","","fixation","","","","","","","","","","",""
"aa-learning-trial","218","803239","0.0-11.0-2.0-1.14","7056","1","19","Male","approach_avoid_spark_v1","""event"",""trial"",""time""
""fullscreenenter"",""1"",""1538""
","
","
","""event"",""trial"",""time""
""fullscreenenter"",""1"",""1538""
","
","","","","","","2670.9000000953674","images/straw1.png","","","learning","2","2","1","1","straw","fruit","2","1","","bad","[-6]"
"html-keyboard-response","219","803740","0.0-11.0-2.0-0.15","7056","1","19","Male","approach_avoid_spark_v1","""event"",""trial"",""time""
""fullscreenenter"",""1"",""1538""
","
","
","""event"",""trial"",""time""
""fullscreenenter"",""1"",""1538""
","
","","","","","","null","<div style=""font-size:60px;"">+</div>","null","","fixation","","","","","","","","","","",""
"aa-learning-trial","220","806742","0.0-11.0-2.0-1.15","7056","1","19","Male","approach_avoid_spark_v1","""event"",""trial"",""time""
""fullscreenenter"",""1"",""1538""
","
","
","""event"",""trial"",""time""
""fullscreenenter"",""1"",""1538""
","
","","","","","","1146.5","images/banana2.png","","","learning","9","9","1","1","banana","fruit","2","1","","good","[4]"
"html-keyboard-response","221","807244","0.0-11.0-2.0-0.16","7056","1","19","Male","approach_avoid_spark_v1","""event"",""trial"",""time""
""fullscreenenter"",""1"",""1538""
","
","
","""event"",""trial"",""time""
""fullscreenenter"",""1"",""1538""
","
","","","","","","null","<div style=""font-size:60px;"">+</div>","null","","fixation","","","","","","","","","","",""
"aa-learning-trial","222","810245","0.0-11.0-2.0-1.16","7056","1","19","Male","approach_avoid_spark_v1","""event"",""trial"",""time""
""fullscreenenter"",""1"",""1538""
","
","
","""event"",""trial"",""time""
""fullscreenenter"",""1"",""1538""
","
","","","","","","1487.7000000476837","images/orange3.png","","","learning","6","0","0","0","orange","fruit","2","1","","neutral","0"
"html-keyboard-response","223","810747","0.0-11.0-2.0-0.17","7056","1","19","Male","approach_avoid_spark_v1","""event"",""trial"",""time""
""fullscreenenter"",""1"",""1538""
","
","
","""event"",""trial"",""time""
""fullscreenenter"",""1"",""1538""
","
","","","","","","null","<div style=""font-size:60px;"">+</div>","null","","fixation","","","","","","","","","","",""
"aa-learning-trial","224","813748","0.0-11.0-2.0-1.17","7056","1","19","Male","approach_avoid_spark_v1","""event"",""trial"",""time""
""fullscreenenter"",""1"",""1538""
","
","
","""event"",""trial"",""time""
""fullscreenenter"",""1"",""1538""
","
","","","","","","733","images/orange4.png","","","learning","-7","0","0","0","orange","fruit","2","1","","neutral","0"
"html-keyboard-response","225","814249","0.0-11.0-2.0-0.18","7056","1","19","Male","approach_avoid_spark_v1","""event"",""trial"",""time""
""fullscreenenter"",""1"",""1538""
","
","
","""event"",""trial"",""time""
""fullscreenenter"",""1"",""1538""
","
","","","","","","null","<div style=""font-size:60px;"">+</div>","null","","fixation","","","","","","","","","","",""
"aa-learning-trial","226","817251","0.0-11.0-2.0-1.18","7056","1","19","Male","approach_avoid_spark_v1","""event"",""trial"",""time""
""fullscreenenter"",""1"",""1538""
","
","
","""event"",""trial"",""time""
""fullscreenenter"",""1"",""1538""
","
","","","","","","738.5999999046326","images/orange8.png","","","learning","1","1","1","1","orange","fruit","2","1","","neutral","0"
"html-keyboard-response","227","817752","0.0-11.0-2.0-0.19","7056","1","19","Male","approach_avoid_spark_v1","""event"",""trial"",""time""
""fullscreenenter"",""1"",""1538""
","
","
","""event"",""trial"",""time""
""fullscreenenter"",""1"",""1538""
","
","","","","","","null","<div style=""font-size:60px;"">+</div>","null","","fixation","","","","","","","","","","",""
"aa-learning-trial","228","820753","0.0-11.0-2.0-1.19","7056","1","19","Male","approach_avoid_spark_v1","""event"",""trial"",""time""
""fullscreenenter"",""1"",""1538""
","
","
","""event"",""trial"",""time""
""fullscreenenter"",""1"",""1538""
","
","","","","","","732.2999999523163","images/orange7.png","","","learning","-5","-5","1","1","orange","fruit","2","1","","neutral","0"
"html-keyboard-response","229","821254","0.0-11.0-2.0-0.20","7056","1","19","Male","approach_avoid_spark_v1","""event"",""trial"",""time""
""fullscreenenter"",""1"",""1538""
","
","
","""event"",""trial"",""time""
""fullscreenenter"",""1"",""1538""
","
","","","","","","null","<div style=""font-size:60px;"">+</div>","null","","fixation","","","","","","","","","","",""
"aa-learning-trial","230","824256","0.0-11.0-2.0-1.20","7056","1","19","Male","approach_avoid_spark_v1","""event"",""trial"",""time""
""fullscreenenter"",""1"",""1538""
","
","
","""event"",""trial"",""time""
""fullscreenenter"",""1"",""1538""
","
","","","","","","1302.5999999046326","images/orange6.png","","","learning","3","0","0","0","orange","fruit","2","1","","neutral","0"
"html-keyboard-response","231","824756","0.0-11.0-2.0-0.21","7056","1","19","Male","approach_avoid_spark_v1","""event"",""trial"",""time""
""fullscreenenter"",""1"",""1538""
","
","
","""event"",""trial"",""time""
""fullscreenenter"",""1"",""1538""
","
","","","","","","null","<div style=""font-size:60px;"">+</div>","null","","fixation","","","","","","","","","","",""
"aa-learning-trial","232","827758","0.0-11.0-2.0-1.21","7056","1","19","Male","approach_avoid_spark_v1","""event"",""trial"",""time""
""fullscreenenter"",""1"",""1538""
","
","
","""event"",""trial"",""time""
""fullscreenenter"",""1"",""1538""
","
","","","","","","971.2999999523163","images/banana2.png","","","learning","9","9","1","1","banana","fruit","2","1","","good","[4]"
"html-keyboard-response","233","828259","0.0-11.0-2.0-0.22","7056","1","19","Male","approach_avoid_spark_v1","""event"",""trial"",""time""
""fullscreenenter"",""1"",""1538""
","
","
","""event"",""trial"",""time""
""fullscreenenter"",""1"",""1538""
","
","","","","","","null","<div style=""font-size:60px;"">+</div>","null","","fixation","","","","","","","","","","",""
"aa-learning-trial","234","831261","0.0-11.0-2.0-1.22","7056","1","19","Male","approach_avoid_spark_v1","""event"",""trial"",""time""
""fullscreenenter"",""1"",""1538""
","
","
","""event"",""trial"",""time""
""fullscreenenter"",""1"",""1538""
","
","","","","","","679.2999999523163","images/orange8.png","","","learning","1","1","1","1","orange","fruit","2","1","","neutral","0"
"html-keyboard-response","235","831773","0.0-11.0-2.0-0.23","7056","1","19","Male","approach_avoid_spark_v1","""event"",""trial"",""time""
""fullscreenenter"",""1"",""1538""
","
","
","""event"",""trial"",""time""
""fullscreenenter"",""1"",""1538""
","
","","","","","","null","<div style=""font-size:60px;"">+</div>","null","","fixation","","","","","","","","","","",""
"aa-learning-trial","236","834775","0.0-11.0-2.0-1.23","7056","1","19","Male","approach_avoid_spark_v1","""event"",""trial"",""time""
""fullscreenenter"",""1"",""1538""
","
","
","""event"",""trial"",""time""
""fullscreenenter"",""1"",""1538""
","
","","","","","","919.8000001907349","images/straw5.png","","","learning","8","8","1","1","straw","fruit","2","1","","bad","[-6]"
"html-keyboard-response","237","835276","0.0-11.0-2.0-0.24","7056","1","19","Male","approach_avoid_spark_v1","""event"",""trial"",""time""
""fullscreenenter"",""1"",""1538""
","
","
","""event"",""trial"",""time""
""fullscreenenter"",""1"",""1538""
","
","","","","","","null","<div style=""font-size:60px;"">+</div>","null","","fixation","","","","","","","","","","",""
