"trial_type","trial_index","time_elapsed","internal_node_id","subject_id","task_condition","age","gender","task_version","interactions","blur_events","focus_events","fullscreenenter_events","fullscreenexit_events","success","timeout","failed_images","failed_audio","failed_video","rt","stimulus","response","button_pressed","task_part","approach_reward","points","key_press","option_selected","stim_cat","task_block","block_condition","block_number","correct","cat_type","mean_cat_reward"
"pavlovia","0","5","0.0-0.0","5174","1","10","Male","approach_avoid_spark_v1","""event"",""trial"",""time""
""fullscreenenter"",""1"",""4368""
","
","
","""event"",""trial"",""time""
""fullscreenenter"",""1"",""4368""
","
","","","","","","","","","","","","","","","","","","","","",""
"fullscreen","1","5307","0.0-1.0","5174","1","10","Male","approach_avoid_spark_v1","""event"",""trial"",""time""
""fullscreenenter"",""1"",""4368""
","
","
","""event"",""trial"",""time""
""fullscreenenter"",""1"",""4368""
","
","true","","","","","","","","","","","","","","","","","","","",""
"preload","2","18678","0.0-2.0","5174","1","10","Male","approach_avoid_spark_v1","""event"",""trial"",""time""
""fullscreenenter"",""1"",""4368""
","
","
","""event"",""trial"",""time""
""fullscreenenter"",""1"",""4368""
","
","true","false","[]","[]","[]","","","","","","","","","","","","","","","",""
"audio-keyboard-response","3","23951","0.0-3.0","5174","1","10","Male","approach_avoid_spark_v1","""event"",""trial"",""time""
""fullscreenenter"",""1"",""4368""
","
","
","""event"",""trial"",""time""
""fullscreenenter"",""1"",""4368""
","
","","","","","","5269.333333333336","audio/beep_loop.wav"," ","","","","","","","","","","","","",""
"audio-button-response","4","28090","0.0-4.0","5174","1","10","Male","approach_avoid_spark_v1","""event"",""trial"",""time""
""fullscreenenter"",""1"",""4368""
","
","
","""event"",""trial"",""time""
""fullscreenenter"",""1"",""4368""
","
","","","","","","4141","audio/shark.wav","4","","","","","","","","","","","","",""
"audio-button-response","5","37888","0.0-5.0","5174","1","10","Male","approach_avoid_spark_v1","""event"",""trial"",""time""
""fullscreenenter"",""1"",""4368""
","
","
","""event"",""trial"",""time""
""fullscreenenter"",""1"",""4368""
","
","","","","","","8781","audio/turtle.wav","1","","","","","","","","","","","","",""
"preload","6","40900","0.0-6.0","5174","1","10","Male","approach_avoid_spark_v1","""event"",""trial"",""time""
""fullscreenenter"",""1"",""4368""
","
","
","""event"",""trial"",""time""
""fullscreenenter"",""1"",""4368""
","
","true","false","[]","[]","[]","","","","","","","","","","","","","","","",""
"html-keyboard-response","7","49260","0.0-7.0","5174","1","10","Male","approach_avoid_spark_v1","""event"",""trial"",""time""
""fullscreenenter"",""1"",""4368""
","
","
","""event"",""trial"",""time""
""fullscreenenter"",""1"",""4368""
","
","","","","","","8357.70000076294","Welcome to the experiment. Press any key to begin and to advance the instructions."," ","","","","","","","","","","","","",""
"learning-instructions","8","59836","0.0-8.0-0.0-0.0","5174","1","10","Male","approach_avoid_spark_v1","""event"",""trial"",""time""
""fullscreenenter"",""1"",""4368""
","
","
","""event"",""trial"",""time""
""fullscreenenter"",""1"",""4368""
","
","","","","","","3601.599998474121","<p> Welcome! Today you are going to play 6 different rounds of a decision-making game. </p><p> Use the mouse to click next to continue. </p>","","0","instructions","","","","","","","","","","",""
"learning-instructions","9","69559","0.0-8.0-0.0-0.1","5174","1","10","Male","approach_avoid_spark_v1","""event"",""trial"",""time""
""fullscreenenter"",""1"",""4368""
","
","
","""event"",""trial"",""time""
""fullscreenenter"",""1"",""4368""
","
","","","","","","6984.39999961853","<p> You will start with a practice round to learn the rules. </p>","","0","instructions","","","","","","","","","","",""
"learning-instructions","10","74329","0.0-8.0-0.0-0.2","5174","1","10","Male","approach_avoid_spark_v1","""event"",""trial"",""time""
""fullscreenenter"",""1"",""4368""
","
","
","""event"",""trial"",""time""
""fullscreenenter"",""1"",""4368""
","
","","","","","","1314.6000003814697","<p> Your goal in this round is to give out sports equipment to kids. </p></div>","","0","instructions","","","","","","","","","","",""
"learning-instructions","11","82826","0.0-8.0-0.0-0.3","5174","1","10","Male","approach_avoid_spark_v1","""event"",""trial"",""time""
""fullscreenenter"",""1"",""4368""
","
","
","""event"",""trial"",""time""
""fullscreenenter"",""1"",""4368""
","
","","","","","","931.3999996185303","<p> The kids only like some of the equipment.  </p><p> On each turn, you will see a piece of sports equipment.   </p><p> You need to decide whether to give it to the kids or not.  </p>","","0","instructions","","","","","","","","","","",""
"learning-instructions","12","92196","0.0-8.0-0.0-0.4","5174","1","10","Male","approach_avoid_spark_v1","""event"",""trial"",""time""
""fullscreenenter"",""1"",""4368""
","
","
","""event"",""trial"",""time""
""fullscreenenter"",""1"",""4368""
","
","","","","","","4620.900001525879","<p> You can give them the equipment by pressing 1 and choose not to give it to them by pressing 0. </p><br><div class=""choice-instructions-grid""> <div class=""choice-option""><img src=""images/approach.png"" class=""choice-option-img"" stage=""instructions"" position=""0"" ><div class=""choice-option-text""> Press ""1."" </div></div><div class=""choice-option""><img src=""images/avoid.png"" class=""choice-option-img"" stage=""instructions"" position=""1"" ><div class=""choice-option-text""> Press ""0."" </div></div>","","0","instructions","","","","","","","","","","",""
"learning-instructions","13","103891","0.0-8.0-0.0-0.5","5174","1","10","Male","approach_avoid_spark_v1","""event"",""trial"",""time""
""fullscreenenter"",""1"",""4368""
","
","
","""event"",""trial"",""time""
""fullscreenenter"",""1"",""4368""
","
","","","","","","4306.89999961853","<p> If you give them a piece of equipment they like, they will be happy! </p><p> But if you give them a piece of equipment they do not like, they will be sad. </p>","","0","instructions","","","","","","","","","","",""
"learning-instructions","14","115497","0.0-8.0-0.0-0.6","5174","1","10","Male","approach_avoid_spark_v1","""event"",""trial"",""time""
""fullscreenenter"",""1"",""4368""
","
","
","""event"",""trial"",""time""
""fullscreenenter"",""1"",""4368""
","
","","","","","","1082.6000003814697","<p> You will earn points based on how you make kids feel. </p><p> If you make them happy, you will WIN anywhere from 1 - 9 points, </p><p> but if you make them sad, you will LOSE anywhere from 1 - 9 points. </p>","","0","instructions","","","","","","","","","","",""
"learning-instructions","15","126365","0.0-8.0-0.0-0.7","5174","1","10","Male","approach_avoid_spark_v1","""event"",""trial"",""time""
""fullscreenenter"",""1"",""4368""
","
","
","""event"",""trial"",""time""
""fullscreenenter"",""1"",""4368""
","
","","","","","","1311.3999996185303","<p> You will see how many points you won or lost in the center of the screen. </p><p> Here is what you would see if you won 6 points: </p><p style=""color:green;font-size:50px;font-weight:bolder"">6</p><p style=""color:green"">The text is GREEN because you WON points.</p>","","0","instructions","","","","","","","","","","",""
"learning-instructions","16","133103","0.0-8.0-0.0-0.8","5174","1","10","Male","approach_avoid_spark_v1","""event"",""trial"",""time""
""fullscreenenter"",""1"",""4368""
","
","
","""event"",""trial"",""time""
""fullscreenenter"",""1"",""4368""
","
","","","","","","1230.8999996185303","<p> And here is what you would see if you lost 4 points: </p><p style=""color:red;font-size:50px;font-weight:bolder"">-4</p><p style=""color:red"">The text is RED because you LOST points. </p>","","0","instructions","","","","","","","","","","",""
"learning-instructions","17","148964","0.0-8.0-0.0-0.9","5174","1","10","Male","approach_avoid_spark_v1","""event"",""trial"",""time""
""fullscreenenter"",""1"",""4368""
","
","
","""event"",""trial"",""time""
""fullscreenenter"",""1"",""4368""
","
","","","","","","1131.2999992370605","<p> Some of the equipment will make the kids VERY happy or sad. </p><p> These pieces of equipment will make you win or lose LOTS of points. </p><p> Other pieces of equipment will only make the kids a little happy or sad. </p><p> These pieces of equipment will make you win or lose small amounts of points. </p>","","0","instructions","","","","","","","","","","",""
"learning-instructions","18","164044","0.0-8.0-0.0-0.10","5174","1","10","Male","approach_avoid_spark_v1","""event"",""trial"",""time""
""fullscreenenter"",""1"",""4368""
","
","
","""event"",""trial"",""time""
""fullscreenenter"",""1"",""4368""
","
","","","","","","4451.299999237061","<p> If you choose not to give them the equipment, you will not win or lose any points. </p><p>  However, in the center of the screen, you will see the number of points you WOULD HAVE won or lost if you had given them the equipment. </p>","","0","instructions","","","","","","","","","","",""
"learning-instructions","19","187032","0.0-8.0-0.0-0.11","5174","1","10","Male","approach_avoid_spark_v1","""event"",""trial"",""time""
""fullscreenenter"",""1"",""4368""
","
","
","""event"",""trial"",""time""
""fullscreenenter"",""1"",""4368""
","
","","","","","","1457.1999988555908","<p> Here is what you might see if you did not give the equipment to the kids but it would have made them happy: </p><p style=""color:grey; font-size:50px; display: inline-block; border-spacing: 15px; border-width:3px; border-style:solid; border-color:red"">  &nbsp; 7 &nbsp; </p><p> Remember, in this case, you would not win or lose ANY points because you did not give them the equipment.  </p><p style=""color:grey"">The text is GREY because you earned ZERO points. </p><p style=""color:red"">However, choosing to give the kids the equipment would have made you win points. The box around the text is RED because you chose the worse option. </p>","","0","instructions","","","","","","","","","","",""
"learning-instructions","20","210486","0.0-8.0-0.0-0.12","5174","1","10","Male","approach_avoid_spark_v1","""event"",""trial"",""time""
""fullscreenenter"",""1"",""4368""
","
","
","""event"",""trial"",""time""
""fullscreenenter"",""1"",""4368""
","
","","","","","","2371.5","<p> Here is what you might see if you did not give the equipment to the kids but it would have made them sad: </p><p style=""color:grey;font-size:50px; display: inline-block; border-spacing: 15px; border-width:3px; border-style:solid; border-color:green"">  &nbsp; -8 &nbsp; </p><p> Remember, in this case, you would not win or lose ANY points because you did not give them the equipment.  </p><p style=""color:grey"">The text is GREY because you earned ZERO points. </p><p  style=""color:green""> Choosing to give the kids the equipment would have made you lose points. The box around the text is GREEN because you chose the better option.</p>","","0","instructions","","","","","","","","","","",""
"learning-instructions","21","220797","0.0-8.0-0.0-0.13","5174","1","10","Male","approach_avoid_spark_v1","""event"",""trial"",""time""
""fullscreenenter"",""1"",""4368""
","
","
","""event"",""trial"",""time""
""fullscreenenter"",""1"",""4368""
","
","","","","","","1072.6000003814697","<p> You will have 3 seconds to make each choice. Try to respond before time runs out! </p><p> You will lose 5 points each time you do not make a response. </p>","","0","instructions","","","","","","","","","","",""
"learning-instructions","22","227566","0.0-8.0-0.0-0.14","5174","1","10","Male","approach_avoid_spark_v1","""event"",""trial"",""time""
""fullscreenenter"",""1"",""4368""
","
","
","""event"",""trial"",""time""
""fullscreenenter"",""1"",""4368""
","
","","","","","","1351.099998474121","<p> This is just a practice round, but in the real game, your bonus payment will depend on your total number of points.","","0","instructions","","","","","","","","","","",""
"learning-instructions","23","239716","0.0-8.0-0.0-0.15","5174","1","10","Male","approach_avoid_spark_v1","""event"",""trial"",""time""
""fullscreenenter"",""1"",""4368""
","
","
","""event"",""trial"",""time""
""fullscreenenter"",""1"",""4368""
","
","","","","","","6381.299999237061","<p> Remember, you can give them the equipment by pressing 1 and choose not to give it to them by pressing 0. </p><br><div class=""choice-instructions-grid""> <div class=""choice-option""><img src=""images/approach.png"" class=""choice-option-img"" stage=""instructions"" position=""0"" ><div class=""choice-option-text""> Press ""1."" </div></div><div class=""choice-option""><img src=""images/avoid.png"" class=""choice-option-img"" stage=""instructions"" position=""1"" ><div class=""choice-option-text""> Press ""0."" </div></div>","","0","instructions","","","","","","","","","","",""
"html-button-response","24","247944","0.0-8.0-1.0","5174","1","10","Male","approach_avoid_spark_v1","""event"",""trial"",""time""
""fullscreenenter"",""1"",""4368""
","
","
","""event"",""trial"",""time""
""fullscreenenter"",""1"",""4368""
","
","","","","","","8109.39999961853","<p> Ready to practice? </p>","0","","","","","","","","","","","","",""
"html-keyboard-response","25","248562","0.0-8.0-2.0-0.0","5174","1","10","Male","approach_avoid_spark_v1","""event"",""trial"",""time""
""fullscreenenter"",""1"",""4368""
","
","
","""event"",""trial"",""time""
""fullscreenenter"",""1"",""4368""
","
","","","","","","null","<div style=""font-size:60px;"">+</div>","null","","fixation","","","","","","","","","","",""
"aa-learning-trial","26","251580","0.0-8.0-2.0-1.0","5174","1","10","Male","approach_avoid_spark_v1","""event"",""trial"",""time""
""fullscreenenter"",""1"",""4368""
","
","
","""event"",""trial"",""time""
""fullscreenenter"",""1"",""4368""
","
","","","","","","null","images/racket2.png","","","learning","2","-5","","null","practice","practice","practice","-1","","",""
"html-keyboard-response","27","252083","0.0-8.0-2.0-0.1","5174","1","10","Male","approach_avoid_spark_v1","""event"",""trial"",""time""
""fullscreenenter"",""1"",""4368""
","
","
","""event"",""trial"",""time""
""fullscreenenter"",""1"",""4368""
","
","","","","","","null","<div style=""font-size:60px;"">+</div>","null","","fixation","","","","","","","","","","",""
"aa-learning-trial","28","255112","0.0-8.0-2.0-1.1","5174","1","10","Male","approach_avoid_spark_v1","""event"",""trial"",""time""
""fullscreenenter"",""1"",""4368""
","
","
","""event"",""trial"",""time""
""fullscreenenter"",""1"",""4368""
","
","","","","","","null","images/racket2.png","","","learning","-4","-5","","null","practice","practice","practice","-1","","",""
"html-keyboard-response","29","255622","0.0-8.0-2.0-0.2","5174","1","10","Male","approach_avoid_spark_v1","""event"",""trial"",""time""
""fullscreenenter"",""1"",""4368""
","
","
","""event"",""trial"",""time""
""fullscreenenter"",""1"",""4368""
","
","","","","","","null","<div style=""font-size:60px;"">+</div>","null","","fixation","","","","","","","","","","",""
"aa-learning-trial","30","258632","0.0-8.0-2.0-1.2","5174","1","10","Male","approach_avoid_spark_v1","""event"",""trial"",""time""
""fullscreenenter"",""1"",""4368""
","
","
","""event"",""trial"",""time""
""fullscreenenter"",""1"",""4368""
","
","","","","","","2049.599998474121","images/ball3.png","","","learning","4","4","1","1","practice","practice","practice","-1","","",""
"html-keyboard-response","31","259142","0.0-8.0-2.0-0.3","5174","1","10","Male","approach_avoid_spark_v1","""event"",""trial"",""time""
""fullscreenenter"",""1"",""4368""
","
","
","""event"",""trial"",""time""
""fullscreenenter"",""1"",""4368""
","
","","","","","","null","<div style=""font-size:60px;"">+</div>","null","","fixation","","","","","","","","","","",""
"aa-learning-trial","32","262153","0.0-8.0-2.0-1.3","5174","1","10","Male","approach_avoid_spark_v1","""event"",""trial"",""time""
""fullscreenenter"",""1"",""4368""
","
","
","""event"",""trial"",""time""
""fullscreenenter"",""1"",""4368""
","
","","","","","","2456.2999992370605","images/ball4.png","","","learning","-5","-5","1","1","practice","practice","practice","-1","","",""
"html-keyboard-response","33","262672","0.0-8.0-2.0-0.4","5174","1","10","Male","approach_avoid_spark_v1","""event"",""trial"",""time""
""fullscreenenter"",""1"",""4368""
","
","
","""event"",""trial"",""time""
""fullscreenenter"",""1"",""4368""
","
","","","","","","null","<div style=""font-size:60px;"">+</div>","null","","fixation","","","","","","","","","","",""
"aa-learning-trial","34","265678","0.0-8.0-2.0-1.4","5174","1","10","Male","approach_avoid_spark_v1","""event"",""trial"",""time""
""fullscreenenter"",""1"",""4368""
","
","
","""event"",""trial"",""time""
""fullscreenenter"",""1"",""4368""
","
","","","","","","1501","images/ball4.png","","","learning","-8","-8","1","1","practice","practice","practice","-1","","",""
"html-keyboard-response","35","266184","0.0-8.0-2.0-0.5","5174","1","10","Male","approach_avoid_spark_v1","""event"",""trial"",""time""
""fullscreenenter"",""1"",""4368""
","
","
","""event"",""trial"",""time""
""fullscreenenter"",""1"",""4368""
","
","","","","","","null","<div style=""font-size:60px;"">+</div>","null","","fixation","","","","","","","","","","",""
"aa-learning-trial","36","269192","0.0-8.0-2.0-1.5","5174","1","10","Male","approach_avoid_spark_v1","""event"",""trial"",""time""
""fullscreenenter"",""1"",""4368""
","
","
","""event"",""trial"",""time""
""fullscreenenter"",""1"",""4368""
","
","","","","","","1681.1999988555908","images/ball1.png","","","learning","-3","-3","1","1","practice","practice","practice","-1","","",""
"html-keyboard-response","37","269708","0.0-8.0-2.0-0.6","5174","1","10","Male","approach_avoid_spark_v1","""event"",""trial"",""time""
""fullscreenenter"",""1"",""4368""
","
","
","""event"",""trial"",""time""
""fullscreenenter"",""1"",""4368""
","
","","","","","","null","<div style=""font-size:60px;"">+</div>","null","","fixation","","","","","","","","","","",""
"aa-learning-trial","38","272723","0.0-8.0-2.0-1.6","5174","1","10","Male","approach_avoid_spark_v1","""event"",""trial"",""time""
""fullscreenenter"",""1"",""4368""
","
","
","""event"",""trial"",""time""
""fullscreenenter"",""1"",""4368""
","
","","","","","","1500.7999992370605","images/ball1.png","","","learning","-9","0","0","0","practice","practice","practice","-1","","",""
"html-keyboard-response","39","273230","0.0-8.0-2.0-0.7","5174","1","10","Male","approach_avoid_spark_v1","""event"",""trial"",""time""
""fullscreenenter"",""1"",""4368""
","
","
","""event"",""trial"",""time""
""fullscreenenter"",""1"",""4368""
","
","","","","","","null","<div style=""font-size:60px;"">+</div>","null","","fixation","","","","","","","","","","",""
"aa-learning-trial","40","276240","0.0-8.0-2.0-1.7","5174","1","10","Male","approach_avoid_spark_v1","""event"",""trial"",""time""
""fullscreenenter"",""1"",""4368""
","
","
","""event"",""trial"",""time""
""fullscreenenter"",""1"",""4368""
","
","","","","","","798.3000011444092","images/ball3.png","","","learning","4","0","0","0","practice","practice","practice","-1","","",""
"html-keyboard-response","41","276758","0.0-8.0-2.0-0.8","5174","1","10","Male","approach_avoid_spark_v1","""event"",""trial"",""time""
""fullscreenenter"",""1"",""4368""
","
","
","""event"",""trial"",""time""
""fullscreenenter"",""1"",""4368""
","
","","","","","","null","<div style=""font-size:60px;"">+</div>","null","","fixation","","","","","","","","","","",""
"aa-learning-trial","42","279767","0.0-8.0-2.0-1.8","5174","1","10","Male","approach_avoid_spark_v1","""event"",""trial"",""time""
""fullscreenenter"",""1"",""4368""
","
","
","""event"",""trial"",""time""
""fullscreenenter"",""1"",""4368""
","
","","","","","","1153","images/ball1.png","","","learning","1","0","0","0","practice","practice","practice","-1","","",""
"html-keyboard-response","43","280289","0.0-8.0-2.0-0.9","5174","1","10","Male","approach_avoid_spark_v1","""event"",""trial"",""time""
""fullscreenenter"",""1"",""4368""
","
","
","""event"",""trial"",""time""
""fullscreenenter"",""1"",""4368""
","
","","","","","","null","<div style=""font-size:60px;"">+</div>","null","","fixation","","","","","","","","","","",""
"aa-learning-trial","44","283296","0.0-8.0-2.0-1.9","5174","1","10","Male","approach_avoid_spark_v1","""event"",""trial"",""time""
""fullscreenenter"",""1"",""4368""
","
","
","""event"",""trial"",""time""
""fullscreenenter"",""1"",""4368""
","
","","","","","","1125","images/racket1.png","","","learning","9","0","0","0","practice","practice","practice","-1","","",""
"html-keyboard-response","45","283815","0.0-8.0-2.0-0.10","5174","1","10","Male","approach_avoid_spark_v1","""event"",""trial"",""time""
""fullscreenenter"",""1"",""4368""
","
","
","""event"",""trial"",""time""
""fullscreenenter"",""1"",""4368""
","
","","","","","","null","<div style=""font-size:60px;"">+</div>","null","","fixation","","","","","","","","","","",""
"aa-learning-trial","46","286822","0.0-8.0-2.0-1.10","5174","1","10","Male","approach_avoid_spark_v1","""event"",""trial"",""time""
""fullscreenenter"",""1"",""4368""
","
","
","""event"",""trial"",""time""
""fullscreenenter"",""1"",""4368""
","
","","","","","","708","images/ball3.png","","","learning","-8","-8","1","1","practice","practice","practice","-1","","",""
"html-keyboard-response","47","287339","0.0-8.0-2.0-0.11","5174","1","10","Male","approach_avoid_spark_v1","""event"",""trial"",""time""
""fullscreenenter"",""1"",""4368""
","
","
","""event"",""trial"",""time""
""fullscreenenter"",""1"",""4368""
","
","","","","","","null","<div style=""font-size:60px;"">+</div>","null","","fixation","","","","","","","","","","",""
"aa-learning-trial","48","290350","0.0-8.0-2.0-1.11","5174","1","10","Male","approach_avoid_spark_v1","""event"",""trial"",""time""
""fullscreenenter"",""1"",""4368""
","
","
","""event"",""trial"",""time""
""fullscreenenter"",""1"",""4368""
","
","","","","","","528.1000003814697","images/racket2.png","","","learning","1","1","1","1","practice","practice","practice","-1","","",""
"html-button-response","49","296083","0.0-8.0-3.0","5174","1","10","Male","approach_avoid_spark_v1","""event"",""trial"",""time""
""fullscreenenter"",""1"",""4368""
","
","
","""event"",""trial"",""time""
""fullscreenenter"",""1"",""4368""
","
","","","","","","5729.5","<p> You earned -29 points in the practice round! </p>","0","","break","","","","","","","","","","",""
"learning-instructions","50","305111","0.0-8.0-4.0-0.0","5174","1","10","Male","approach_avoid_spark_v1","""event"",""trial"",""time""
""fullscreenenter"",""1"",""4368""
","
","
","""event"",""trial"",""time""
""fullscreenenter"",""1"",""4368""
","
","","","","","","2441.7000007629395","<p> It's almost time to start the real game. </p><p> Before you start, we're going to ask you a few questions about how the game works. </p>","","0","instructions","","","","","","","","","","",""
"preload","51","306581","0.0-8.0-5.0","5174","1","10","Male","approach_avoid_spark_v1","""event"",""trial"",""time""
""fullscreenenter"",""1"",""4368""
","
","
","""event"",""trial"",""time""
""fullscreenenter"",""1"",""4368""
","
","true","false","[]","[]","[]","","","","","","","","","","","","","","","",""
"comp-q","52","316238","0.0-8.0-6.0-0.0","5174","1","10","Male","approach_avoid_spark_v1","""event"",""trial"",""time""
""fullscreenenter"",""1"",""4368""
","
","
","""event"",""trial"",""time""
""fullscreenenter"",""1"",""4368""
","
","","","","","","4661.799999237061","<p> <b> True or False? </b> </p><p> If you see a number in GREY, that means you earned that many points. </p>","","1","comp_question","","","","","","","","","true","",""
"comp-q","53","328858","0.0-8.0-6.0-1.0","5174","1","10","Male","approach_avoid_spark_v1","""event"",""trial"",""time""
""fullscreenenter"",""1"",""4368""
","
","
","""event"",""trial"",""time""
""fullscreenenter"",""1"",""4368""
","
","","","","","","4251.89999961853","<p><b> That's right! </b> If you see a grey number, it means you earned ZERO points. <br> The grey numbers show the points you WOULD HAVE earned if you had made the other choice. </p>","","0","comp_answer","","","","","","","","","","",""
"comp-q","54","338077","0.0-8.0-7.0-0.0","5174","1","10","Male","approach_avoid_spark_v1","""event"",""trial"",""time""
""fullscreenenter"",""1"",""4368""
","
","
","""event"",""trial"",""time""
""fullscreenenter"",""1"",""4368""
","
","","","","","","4511.39999961853","<p> <b> True or False? </b> </p><p> You will have as much time as you want to make each choice. </p>","","1","comp_question","","","","","","","","","true","",""
"comp-q","55","344140","0.0-8.0-7.0-1.0","5174","1","10","Male","approach_avoid_spark_v1","""event"",""trial"",""time""
""fullscreenenter"",""1"",""4368""
","
","
","""event"",""trial"",""time""
""fullscreenenter"",""1"",""4368""
","
","","","","","","2014.2000007629395","<p> <b> That's right! </b> You will only have 3 seconds to make each choice. </p>","","0","comp_answer","","","","","","","","","","",""
"comp-q","56","350809","0.0-8.0-8.0-0.0","5174","1","10","Male","approach_avoid_spark_v1","""event"",""trial"",""time""
""fullscreenenter"",""1"",""4368""
","
","
","""event"",""trial"",""time""
""fullscreenenter"",""1"",""4368""
","
","","","","","","2012.6000003814697","<p> <b> True or False? </b> </p><p> You should use the '1' and '0' keys to make your choices. </p>","","0","comp_question","","","","","","","","","true","",""
"comp-q","57","359187","0.0-8.0-8.0-1.0","5174","1","10","Male","approach_avoid_spark_v1","""event"",""trial"",""time""
""fullscreenenter"",""1"",""4368""
","
","
","""event"",""trial"",""time""
""fullscreenenter"",""1"",""4368""
","
","","","","","","3771.3999996185303","<p> <b> That's right! </b> You should use the '1' and '0' keys to make each choice. </p>","","0","comp_answer","","","","","","","","","","",""
"learning-instructions","58","369611","0.0-8.0-9.0-0.0","5174","1","10","Male","approach_avoid_spark_v1","""event"",""trial"",""time""
""fullscreenenter"",""1"",""4368""
","
","
","""event"",""trial"",""time""
""fullscreenenter"",""1"",""4368""
","
","","","","","","4131.5","<p> It's now time to start the real game. </p>Do your best, because the points you earn in the next rounds will influence your bonus payment. </p>","","0","instructions","","","","","","","","","","",""
"preload","59","369756","0.0-9.0-0.0","5174","1","10","Male","approach_avoid_spark_v1","""event"",""trial"",""time""
""fullscreenenter"",""1"",""4368""
","
","
","""event"",""trial"",""time""
""fullscreenenter"",""1"",""4368""
","
","true","false","[]","[]","[]","","","","","","","","","","","","","","","",""
"learning-instructions","60","376952","0.0-9.0-1.0-0.0","5174","1","10","Male","approach_avoid_spark_v1","""event"",""trial"",""time""
""fullscreenenter"",""1"",""4368""
","
","
","""event"",""trial"",""time""
""fullscreenenter"",""1"",""4368""
","
","","","","","","2852.6000003814697","<p> Your goal in this round is to take care of lots of farm animals. </p></div>","","0","instructions","","","","","","","","","","",""
"learning-instructions","61","390002","0.0-9.0-1.0-0.1","5174","1","10","Male","approach_avoid_spark_v1","""event"",""trial"",""time""
""fullscreenenter"",""1"",""4368""
","
","
","""event"",""trial"",""time""
""fullscreenenter"",""1"",""4368""
","
","","","","","","2972.6000003814697","<p> Some farm animals are hungry, while other farm animals are already full.  </p><p> On each turn, you will see a farm animal.   </p><p> You need to decide whether to feed it or not.  </p>","","0","instructions","","","","","","","","","","",""
"learning-instructions","62","399581","0.0-9.0-1.0-0.2","5174","1","10","Male","approach_avoid_spark_v1","""event"",""trial"",""time""
""fullscreenenter"",""1"",""4368""
","
","
","""event"",""trial"",""time""
""fullscreenenter"",""1"",""4368""
","
","","","","","","3551","<p> You can feed the farm animal by pressing 1 and leave the farm animal alone by pressing 0. </p><br><div class=""choice-instructions-grid""> <div class=""choice-option""><img src=""images/approach.png"" class=""choice-option-img"" stage=""instructions"" position=""0"" ><div class=""choice-option-text""> Press ""1."" </div></div><div class=""choice-option""><img src=""images/avoid.png"" class=""choice-option-img"" stage=""instructions"" position=""1"" ><div class=""choice-option-text""> Press ""0."" </div></div>","","0","instructions","","","","","","","","","","",""
"learning-instructions","63","411251","0.0-9.0-1.0-0.3","5174","1","10","Male","approach_avoid_spark_v1","""event"",""trial"",""time""
""fullscreenenter"",""1"",""4368""
","
","
","""event"",""trial"",""time""
""fullscreenenter"",""1"",""4368""
","
","","","","","","1771.1000003814697","<p> If you feed a hungry farm animal, you will make it feel satisfied! </p><p> But if you feed the farm animal and it was already full, you will make it feel sick. </p>","","0","instructions","","","","","","","","","","",""
"learning-instructions","64","435401","0.0-9.0-1.0-0.4","5174","1","10","Male","approach_avoid_spark_v1","""event"",""trial"",""time""
""fullscreenenter"",""1"",""4368""
","
","
","""event"",""trial"",""time""
""fullscreenenter"",""1"",""4368""
","
","","","","","","11762.10000038147","<p> You will earn points based on how you made the farm animal feel. </p><p> If you made it satisfied, you will WIN anywhere from 1 - 9 points, </p><p> but if you made it sick, you will LOSE anywhere from 1 - 9 points. </p>","","0","instructions","","","","","","","","","","",""
"learning-instructions","65","444991","0.0-9.0-1.0-0.5","5174","1","10","Male","approach_avoid_spark_v1","""event"",""trial"",""time""
""fullscreenenter"",""1"",""4368""
","
","
","""event"",""trial"",""time""
""fullscreenenter"",""1"",""4368""
","
","","","","","","1841.5","<p> You will see how many points you won or lost in the center of the screen. </p><p> Here is what you would see if you won 5 points: </p><p style=""color:green;font-size:50px;font-weight:bolder"">5</p>","","0","instructions","","","","","","","","","","",""
"learning-instructions","66","451522","0.0-9.0-1.0-0.6","5174","1","10","Male","approach_avoid_spark_v1","""event"",""trial"",""time""
""fullscreenenter"",""1"",""4368""
","
","
","""event"",""trial"",""time""
""fullscreenenter"",""1"",""4368""
","
","","","","","","2882.5","<p> And here is what you would see if you lost 3 points: </p><p style=""color:red;font-size:50px;font-weight:bolder"">-3</p>","","0","instructions","","","","","","","","","","",""
"learning-instructions","67","469863","0.0-9.0-1.0-0.7","5174","1","10","Male","approach_avoid_spark_v1","""event"",""trial"",""time""
""fullscreenenter"",""1"",""4368""
","
","
","""event"",""trial"",""time""
""fullscreenenter"",""1"",""4368""
","
","","","","","","3043.2999992370605","<p> Some farm animals will become very satisfied or very sick. </p><p> These farm animals will make you win or lose LOTS of points. </p><p> Other farm animals have less strong feelings. </p><p> These farm animals will make you win or lose small amounts of points. </p>","","0","instructions","","","","","","","","","","",""
"learning-instructions","68","484971","0.0-9.0-1.0-0.8","5174","1","10","Male","approach_avoid_spark_v1","""event"",""trial"",""time""
""fullscreenenter"",""1"",""4368""
","
","
","""event"",""trial"",""time""
""fullscreenenter"",""1"",""4368""
","
","","","","","","3061.6000003814697","<p> If you choose to leave the farm animal alone, you will not win or lose any points. </p><p>  However, in the center of the screen, you will see the number of points you WOULD HAVE won or lost if you had fed the farm animal. </p>","","0","instructions","","","","","","","","","","",""
"learning-instructions","69","500370","0.0-9.0-1.0-0.9","5174","1","10","Male","approach_avoid_spark_v1","""event"",""trial"",""time""
""fullscreenenter"",""1"",""4368""
","
","
","""event"",""trial"",""time""
""fullscreenenter"",""1"",""4368""
","
","","","","","","3842.1000003814697","<p> Here is what you might see if you did not feed the farm animal but the animal was hungry: </p><p style=""color:grey; font-size:50px; display: inline-block; border-spacing: 15px; border-width:3px; border-style:solid; border-color:red"">  &nbsp; 6 &nbsp; </p><p> Remember, in this case, you would not win or lose ANY points because you did not feed the farm animal.  </p>","","0","instructions","","","","","","","","","","",""
"learning-instructions","70","510249","0.0-9.0-1.0-0.10","5174","1","10","Male","approach_avoid_spark_v1","""event"",""trial"",""time""
""fullscreenenter"",""1"",""4368""
","
","
","""event"",""trial"",""time""
""fullscreenenter"",""1"",""4368""
","
","","","","","","1811.6999988555908","<p> Try to make the best choice for each farm animal because </p><p> at the end of the game, you will earn bonus money based on how many points you earned. </p>","","0","instructions","","","","","","","","","","",""
"learning-instructions","71","524359","0.0-9.0-1.0-0.11","5174","1","10","Male","approach_avoid_spark_v1","""event"",""trial"",""time""
""fullscreenenter"",""1"",""4368""
","
","
","""event"",""trial"",""time""
""fullscreenenter"",""1"",""4368""
","
","","","","","","5911.10000038147","<p> You will have 3 seconds to make each choice. Try to respond before time runs out! </p><p> You will lose 5 points each time you do not make a response. </p>","","0","instructions","","","","","","","","","","",""
"html-keyboard-response","72","524975","0.0-9.0-2.0-0.0","5174","1","10","Male","approach_avoid_spark_v1","""event"",""trial"",""time""
""fullscreenenter"",""1"",""4368""
","
","
","""event"",""trial"",""time""
""fullscreenenter"",""1"",""4368""
","
","","","","","","null","<div style=""font-size:60px;"">+</div>","null","","fixation","","","","","","","","","","",""
"aa-learning-trial","73","527989","0.0-9.0-2.0-1.0","5174","1","10","Male","approach_avoid_spark_v1","""event"",""trial"",""time""
""fullscreenenter"",""1"",""4368""
","
","
","""event"",""trial"",""time""
""fullscreenenter"",""1"",""4368""
","
","","","","","","null","images/sheep4.png","","","learning","5","-5","","null","sheep","animals","1","0","","good","[5]"
"html-keyboard-response","74","528505","0.0-9.0-2.0-0.1","5174","1","10","Male","approach_avoid_spark_v1","""event"",""trial"",""time""
""fullscreenenter"",""1"",""4368""
","
","
","""event"",""trial"",""time""
""fullscreenenter"",""1"",""4368""
","
","","","","","","null","<div style=""font-size:60px;"">+</div>","null","","fixation","","","","","","","","","","",""
"aa-learning-trial","75","531509","0.0-9.0-2.0-1.1","5174","1","10","Male","approach_avoid_spark_v1","""event"",""trial"",""time""
""fullscreenenter"",""1"",""4368""
","
","
","""event"",""trial"",""time""
""fullscreenenter"",""1"",""4368""
","
","","","","","","2887.3999996185303","images/cow6.png","","","learning","-5","0","0","0","cow","animals","1","0","","bad","[-4]"
"html-keyboard-response","76","532015","0.0-9.0-2.0-0.2","5174","1","10","Male","approach_avoid_spark_v1","""event"",""trial"",""time""
""fullscreenenter"",""1"",""4368""
""blur"",""77"",""544663""
","""event"",""trial"",""time""
""blur"",""77"",""544663""
","
","""event"",""trial"",""time""
""fullscreenenter"",""1"",""4368""
","
","","","","","","null","<div style=""font-size:60px;"">+</div>","null","","fixation","","","","","","","","","","",""
"aa-learning-trial","77","544664","0.0-9.0-2.0-1.2","5174","1","10","Male","approach_avoid_spark_v1","""event"",""trial"",""time""
""fullscreenenter"",""1"",""4368""
""blur"",""77"",""544663""
","""event"",""trial"",""time""
""blur"",""77"",""544663""
","
","""event"",""trial"",""time""
""fullscreenenter"",""1"",""4368""
","
","","","","","","1564.2999992370605","images/sheep3.png","","","learning","6","-5","standby","","sheep","animals","1","0","","good","[5]"
"html-keyboard-response","78","545173","0.0-9.0-2.0-0.3","5174","1","10","Male","approach_avoid_spark_v1","""event"",""trial"",""time""
""fullscreenenter"",""1"",""4368""
""blur"",""77"",""544663""
""focus"",""79"",""545651""
","""event"",""trial"",""time""
""blur"",""77"",""544663""
","""event"",""trial"",""time""
""focus"",""79"",""545651""
","""event"",""trial"",""time""
""fullscreenenter"",""1"",""4368""
","
","","","","","","null","<div style=""font-size:60px;"">+</div>","null","","fixation","","","","","","","","","","",""
"aa-learning-trial","79","548181","0.0-9.0-2.0-1.3","5174","1","10","Male","approach_avoid_spark_v1","""event"",""trial"",""time""
""fullscreenenter"",""1"",""4368""
""blur"",""77"",""544663""
""focus"",""79"",""545651""
","""event"",""trial"",""time""
""blur"",""77"",""544663""
","""event"",""trial"",""time""
""focus"",""79"",""545651""
","""event"",""trial"",""time""
""fullscreenenter"",""1"",""4368""
","
","","","","","","null","images/sheep7.png","","","learning","6","-5","","null","sheep","animals","1","0","","good","[5]"
"html-keyboard-response","80","548691","0.0-9.0-2.0-0.4","5174","1","10","Male","approach_avoid_spark_v1","""event"",""trial"",""time""
""fullscreenenter"",""1"",""4368""
""blur"",""77"",""544663""
""focus"",""79"",""545651""
","""event"",""trial"",""time""
""blur"",""77"",""544663""
","""event"",""trial"",""time""
""focus"",""79"",""545651""
","""event"",""trial"",""time""
""fullscreenenter"",""1"",""4368""
","
","","","","","","null","<div style=""font-size:60px;"">+</div>","null","","fixation","","","","","","","","","","",""
"aa-learning-trial","81","551700","0.0-9.0-2.0-1.4","5174","1","10","Male","approach_avoid_spark_v1","""event"",""trial"",""time""
""fullscreenenter"",""1"",""4368""
""blur"",""77"",""544663""
""focus"",""79"",""545651""
","""event"",""trial"",""time""
""blur"",""77"",""544663""
","""event"",""trial"",""time""
""focus"",""79"",""545651""
","""event"",""trial"",""time""
""fullscreenenter"",""1"",""4368""
","
","","","","","","1473.6999988555908","images/cow7.png","","","learning","-4","-4","1","1","cow","animals","1","0","","bad","[-4]"
"html-keyboard-response","82","552203","0.0-9.0-2.0-0.5","5174","1","10","Male","approach_avoid_spark_v1","""event"",""trial"",""time""
""fullscreenenter"",""1"",""4368""
""blur"",""77"",""544663""
""focus"",""79"",""545651""
","""event"",""trial"",""time""
""blur"",""77"",""544663""
","""event"",""trial"",""time""
""focus"",""79"",""545651""
","""event"",""trial"",""time""
""fullscreenenter"",""1"",""4368""
","
","","","","","","null","<div style=""font-size:60px;"">+</div>","null","","fixation","","","","","","","","","","",""
"aa-learning-trial","83","555223","0.0-9.0-2.0-1.5","5174","1","10","Male","approach_avoid_spark_v1","""event"",""trial"",""time""
""fullscreenenter"",""1"",""4368""
""blur"",""77"",""544663""
""focus"",""79"",""545651""
","""event"",""trial"",""time""
""blur"",""77"",""544663""
","""event"",""trial"",""time""
""focus"",""79"",""545651""
","""event"",""trial"",""time""
""fullscreenenter"",""1"",""4368""
","
","","","","","","1473.6000003814697","images/sheep3.png","","","learning","6","0","0","0","sheep","animals","1","0","","good","[5]"
"html-keyboard-response","84","555735","0.0-9.0-2.0-0.6","5174","1","10","Male","approach_avoid_spark_v1","""event"",""trial"",""time""
""fullscreenenter"",""1"",""4368""
""blur"",""77"",""544663""
""focus"",""79"",""545651""
","""event"",""trial"",""time""
""blur"",""77"",""544663""
","""event"",""trial"",""time""
""focus"",""79"",""545651""
","""event"",""trial"",""time""
""fullscreenenter"",""1"",""4368""
","
","","","","","","null","<div style=""font-size:60px;"">+</div>","null","","fixation","","","","","","","","","","",""
"aa-learning-trial","85","558749","0.0-9.0-2.0-1.6","5174","1","10","Male","approach_avoid_spark_v1","""event"",""trial"",""time""
""fullscreenenter"",""1"",""4368""
""blur"",""77"",""544663""
""focus"",""79"",""545651""
","""event"",""trial"",""time""
""blur"",""77"",""544663""
","""event"",""trial"",""time""
""focus"",""79"",""545651""
","""event"",""trial"",""time""
""fullscreenenter"",""1"",""4368""
","
","","","","","","1959.8999996185303","images/cow3.png","","","learning","-6","-6","1","1","cow","animals","1","0","","bad","[-4]"
"html-keyboard-response","86","559261","0.0-9.0-2.0-0.7","5174","1","10","Male","approach_avoid_spark_v1","""event"",""trial"",""time""
""fullscreenenter"",""1"",""4368""
""blur"",""77"",""544663""
""focus"",""79"",""545651""
","""event"",""trial"",""time""
""blur"",""77"",""544663""
","""event"",""trial"",""time""
""focus"",""79"",""545651""
","""event"",""trial"",""time""
""fullscreenenter"",""1"",""4368""
","
","","","","","","null","<div style=""font-size:60px;"">+</div>","null","","fixation","","","","","","","","","","",""
"aa-learning-trial","87","562277","0.0-9.0-2.0-1.7","5174","1","10","Male","approach_avoid_spark_v1","""event"",""trial"",""time""
""fullscreenenter"",""1"",""4368""
""blur"",""77"",""544663""
""focus"",""79"",""545651""
","""event"",""trial"",""time""
""blur"",""77"",""544663""
","""event"",""trial"",""time""
""focus"",""79"",""545651""
","""event"",""trial"",""time""
""fullscreenenter"",""1"",""4368""
","
","","","","","","2925.2999992370605","images/goat5.png","","","learning","-1","-1","1","1","goat","animals","1","0","","neutral","0"
"html-keyboard-response","88","562782","0.0-9.0-2.0-0.8","5174","1","10","Male","approach_avoid_spark_v1","""event"",""trial"",""time""
""fullscreenenter"",""1"",""4368""
""blur"",""77"",""544663""
""focus"",""79"",""545651""
","""event"",""trial"",""time""
""blur"",""77"",""544663""
","""event"",""trial"",""time""
""focus"",""79"",""545651""
","""event"",""trial"",""time""
""fullscreenenter"",""1"",""4368""
","
","","","","","","null","<div style=""font-size:60px;"">+</div>","null","","fixation","","","","","","","","","","",""
"aa-learning-trial","89","565793","0.0-9.0-2.0-1.8","5174","1","10","Male","approach_avoid_spark_v1","""event"",""trial"",""time""
""fullscreenenter"",""1"",""4368""
""blur"",""77"",""544663""
""focus"",""79"",""545651""
","""event"",""trial"",""time""
""blur"",""77"",""544663""
","""event"",""trial"",""time""
""focus"",""79"",""545651""
","""event"",""trial"",""time""
""fullscreenenter"",""1"",""4368""
","
","","","","","","1620.099998474121","images/goat1.png","","","learning","2","2","1","1","goat","animals","1","0","","neutral","0"
"html-keyboard-response","90","566312","0.0-9.0-2.0-0.9","5174","1","10","Male","approach_avoid_spark_v1","""event"",""trial"",""time""
""fullscreenenter"",""1"",""4368""
""blur"",""77"",""544663""
""focus"",""79"",""545651""
","""event"",""trial"",""time""
""blur"",""77"",""544663""
","""event"",""trial"",""time""
""focus"",""79"",""545651""
","""event"",""trial"",""time""
""fullscreenenter"",""1"",""4368""
","
","","","","","","null","<div style=""font-size:60px;"">+</div>","null","","fixation","","","","","","","","","","",""
"aa-learning-trial","91","569327","0.0-9.0-2.0-1.9","5174","1","10","Male","approach_avoid_spark_v1","""event"",""trial"",""time""
""fullscreenenter"",""1"",""4368""
""blur"",""77"",""544663""
""focus"",""79"",""545651""
","""event"",""trial"",""time""
""blur"",""77"",""544663""
","""event"",""trial"",""time""
""focus"",""79"",""545651""
","""event"",""trial"",""time""
""fullscreenenter"",""1"",""4368""
","
","","","","","","1681.3000011444092","images/goat6.png","","","learning","[1]","0","0","0","goat","animals","1","0","","neutral","0"
"html-keyboard-response","92","569830","0.0-9.0-2.0-0.10","5174","1","10","Male","approach_avoid_spark_v1","""event"",""trial"",""time""
""fullscreenenter"",""1"",""4368""
""blur"",""77"",""544663""
""focus"",""79"",""545651""
","""event"",""trial"",""time""
""blur"",""77"",""544663""
","""event"",""trial"",""time""
""focus"",""79"",""545651""
","""event"",""trial"",""time""
""fullscreenenter"",""1"",""4368""
","
","","","","","","null","<div style=""font-size:60px;"">+</div>","null","","fixation","","","","","","","","","","",""
"aa-learning-trial","93","572839","0.0-9.0-2.0-1.10","5174","1","10","Male","approach_avoid_spark_v1","""event"",""trial"",""time""
""fullscreenenter"",""1"",""4368""
""blur"",""77"",""544663""
""focus"",""79"",""545651""
","""event"",""trial"",""time""
""blur"",""77"",""544663""
","""event"",""trial"",""time""
""focus"",""79"",""545651""
","""event"",""trial"",""time""
""fullscreenenter"",""1"",""4368""
","
","","","","","","1749.1999988555908","images/goat6.png","","","learning","-2","0","0","0","goat","animals","1","0","","neutral","0"
"html-keyboard-response","94","573350","0.0-9.0-2.0-0.11","5174","1","10","Male","approach_avoid_spark_v1","""event"",""trial"",""time""
""fullscreenenter"",""1"",""4368""
""blur"",""77"",""544663""
""focus"",""79"",""545651""
","""event"",""trial"",""time""
""blur"",""77"",""544663""
","""event"",""trial"",""time""
""focus"",""79"",""545651""
","""event"",""trial"",""time""
""fullscreenenter"",""1"",""4368""
","
","","","","","","null","<div style=""font-size:60px;"">+</div>","null","","fixation","","","","","","","","","","",""
"aa-learning-trial","95","576355","0.0-9.0-2.0-1.11","5174","1","10","Male","approach_avoid_spark_v1","""event"",""trial"",""time""
""fullscreenenter"",""1"",""4368""
""blur"",""77"",""544663""
""focus"",""79"",""545651""
","""event"",""trial"",""time""
""blur"",""77"",""544663""
","""event"",""trial"",""time""
""focus"",""79"",""545651""
","""event"",""trial"",""time""
""fullscreenenter"",""1"",""4368""
","
","","","","","","2002.8999996185303","images/cow3.png","","","learning","-3","-3","1","1","cow","animals","1","0","","bad","[-4]"
"html-keyboard-response","96","576870","0.0-9.0-2.0-0.12","5174","1","10","Male","approach_avoid_spark_v1","""event"",""trial"",""time""
""fullscreenenter"",""1"",""4368""
""blur"",""77"",""544663""
""focus"",""79"",""545651""
","""event"",""trial"",""time""
""blur"",""77"",""544663""
","""event"",""trial"",""time""
""focus"",""79"",""545651""
","""event"",""trial"",""time""
""fullscreenenter"",""1"",""4368""
","
","","","","","","null","<div style=""font-size:60px;"">+</div>","null","","fixation","","","","","","","","","","",""
"aa-learning-trial","97","579881","0.0-9.0-2.0-1.12","5174","1","10","Male","approach_avoid_spark_v1","""event"",""trial"",""time""
""fullscreenenter"",""1"",""4368""
""blur"",""77"",""544663""
""focus"",""79"",""545651""
","""event"",""trial"",""time""
""blur"",""77"",""544663""
","""event"",""trial"",""time""
""focus"",""79"",""545651""
","""event"",""trial"",""time""
""fullscreenenter"",""1"",""4368""
","
","","","","","","1945.7999992370605","images/cow6.png","","","learning","-7","-7","1","1","cow","animals","1","0","","bad","[-4]"
"html-keyboard-response","98","580397","0.0-9.0-2.0-0.13","5174","1","10","Male","approach_avoid_spark_v1","""event"",""trial"",""time""
""fullscreenenter"",""1"",""4368""
""blur"",""77"",""544663""
""focus"",""79"",""545651""
","""event"",""trial"",""time""
""blur"",""77"",""544663""
","""event"",""trial"",""time""
""focus"",""79"",""545651""
","""event"",""trial"",""time""
""fullscreenenter"",""1"",""4368""
","
","","","","","","null","<div style=""font-size:60px;"">+</div>","null","","fixation","","","","","","","","","","",""
"aa-learning-trial","99","583406","0.0-9.0-2.0-1.13","5174","1","10","Male","approach_avoid_spark_v1","""event"",""trial"",""time""
""fullscreenenter"",""1"",""4368""
""blur"",""77"",""544663""
""focus"",""79"",""545651""
","""event"",""trial"",""time""
""blur"",""77"",""544663""
","""event"",""trial"",""time""
""focus"",""79"",""545651""
","""event"",""trial"",""time""
""fullscreenenter"",""1"",""4368""
","
","","","","","","2615.3999996185303","images/sheep7.png","","","learning","4","0","0","0","sheep","animals","1","0","","good","[5]"
"html-keyboard-response","100","583924","0.0-9.0-2.0-0.14","5174","1","10","Male","approach_avoid_spark_v1","""event"",""trial"",""time""
""fullscreenenter"",""1"",""4368""
""blur"",""77"",""544663""
""focus"",""79"",""545651""
","""event"",""trial"",""time""
""blur"",""77"",""544663""
","""event"",""trial"",""time""
""focus"",""79"",""545651""
","""event"",""trial"",""time""
""fullscreenenter"",""1"",""4368""
","
","","","","","","null","<div style=""font-size:60px;"">+</div>","null","","fixation","","","","","","","","","","",""
"aa-learning-trial","101","586935","0.0-9.0-2.0-1.14","5174","1","10","Male","approach_avoid_spark_v1","""event"",""trial"",""time""
""fullscreenenter"",""1"",""4368""
""blur"",""77"",""544663""
""focus"",""79"",""545651""
","""event"",""trial"",""time""
""blur"",""77"",""544663""
","""event"",""trial"",""time""
""focus"",""79"",""545651""
","""event"",""trial"",""time""
""fullscreenenter"",""1"",""4368""
","
","","","","","","2490.800001144409","images/goat5.png","","","learning","-1","-1","1","1","goat","animals","1","0","","neutral","0"
"html-keyboard-response","102","587443","0.0-9.0-2.0-0.15","5174","1","10","Male","approach_avoid_spark_v1","""event"",""trial"",""time""
""fullscreenenter"",""1"",""4368""
""blur"",""77"",""544663""
""focus"",""79"",""545651""
","""event"",""trial"",""time""
""blur"",""77"",""544663""
","""event"",""trial"",""time""
""focus"",""79"",""545651""
","""event"",""trial"",""time""
""fullscreenenter"",""1"",""4368""
","
","","","","","","null","<div style=""font-size:60px;"">+</div>","null","","fixation","","","","","","","","","","",""
"aa-learning-trial","103","590462","0.0-9.0-2.0-1.15","5174","1","10","Male","approach_avoid_spark_v1","""event"",""trial"",""time""
""fullscreenenter"",""1"",""4368""
""blur"",""77"",""544663""
""focus"",""79"",""545651""
","""event"",""trial"",""time""
""blur"",""77"",""544663""
","""event"",""trial"",""time""
""focus"",""79"",""545651""
","""event"",""trial"",""time""
""fullscreenenter"",""1"",""4368""
","
","","","","","","1586.7000007629395","images/sheep3.png","","","learning","3","0","0","0","sheep","animals","1","0","","good","[5]"
"html-keyboard-response","104","590968","0.0-9.0-2.0-0.16","5174","1","10","Male","approach_avoid_spark_v1","""event"",""trial"",""time""
""fullscreenenter"",""1"",""4368""
""blur"",""77"",""544663""
""focus"",""79"",""545651""
","""event"",""trial"",""time""
""blur"",""77"",""544663""
","""event"",""trial"",""time""
""focus"",""79"",""545651""
","""event"",""trial"",""time""
""fullscreenenter"",""1"",""4368""
","
","","","","","","null","<div style=""font-size:60px;"">+</div>","null","","fixation","","","","","","","","","","",""
"aa-learning-trial","105","593982","0.0-9.0-2.0-1.16","5174","1","10","Male","approach_avoid_spark_v1","""event"",""trial"",""time""
""fullscreenenter"",""1"",""4368""
""blur"",""77"",""544663""
""focus"",""79"",""545651""
","""event"",""trial"",""time""
""blur"",""77"",""544663""
","""event"",""trial"",""time""
""focus"",""79"",""545651""
","""event"",""trial"",""time""
""fullscreenenter"",""1"",""4368""
","
","","","","","","798.9000015258789","images/goat3.png","","","learning","-2","-2","1","1","goat","animals","1","0","","neutral","0"
"html-keyboard-response","106","594489","0.0-9.0-2.0-0.17","5174","1","10","Male","approach_avoid_spark_v1","""event"",""trial"",""time""
""fullscreenenter"",""1"",""4368""
""blur"",""77"",""544663""
""focus"",""79"",""545651""
","""event"",""trial"",""time""
""blur"",""77"",""544663""
","""event"",""trial"",""time""
""focus"",""79"",""545651""
","""event"",""trial"",""time""
""fullscreenenter"",""1"",""4368""
","
","","","","","","null","<div style=""font-size:60px;"">+</div>","null","","fixation","","","","","","","","","","",""
"aa-learning-trial","107","597499","0.0-9.0-2.0-1.17","5174","1","10","Male","approach_avoid_spark_v1","""event"",""trial"",""time""
""fullscreenenter"",""1"",""4368""
""blur"",""77"",""544663""
""focus"",""79"",""545651""
","""event"",""trial"",""time""
""blur"",""77"",""544663""
","""event"",""trial"",""time""
""focus"",""79"",""545651""
","""event"",""trial"",""time""
""fullscreenenter"",""1"",""4368""
","
","","","","","","1733.5","images/goat6.png","","","learning","1","0","0","0","goat","animals","1","0","","neutral","0"
"html-keyboard-response","108","598007","0.0-9.0-2.0-0.18","5174","1","10","Male","approach_avoid_spark_v1","""event"",""trial"",""time""
""fullscreenenter"",""1"",""4368""
""blur"",""77"",""544663""
""focus"",""79"",""545651""
","""event"",""trial"",""time""
""blur"",""77"",""544663""
","""event"",""trial"",""time""
""focus"",""79"",""545651""
","""event"",""trial"",""time""
""fullscreenenter"",""1"",""4368""
","
","","","","","","null","<div style=""font-size:60px;"">+</div>","null","","fixation","","","","","","","","","","",""
"aa-learning-trial","109","601016","0.0-9.0-2.0-1.18","5174","1","10","Male","approach_avoid_spark_v1","""event"",""trial"",""time""
""fullscreenenter"",""1"",""4368""
""blur"",""77"",""544663""
""focus"",""79"",""545651""
","""event"",""trial"",""time""
""blur"",""77"",""544663""
","""event"",""trial"",""time""
""focus"",""79"",""545651""
","""event"",""trial"",""time""
""fullscreenenter"",""1"",""4368""
","
","","","","","","2124.2999992370605","images/goat6.png","","","learning","-3","0","0","0","goat","animals","1","0","","neutral","0"
"html-keyboard-response","110","601519","0.0-9.0-2.0-0.19","5174","1","10","Male","approach_avoid_spark_v1","""event"",""trial"",""time""
""fullscreenenter"",""1"",""4368""
""blur"",""77"",""544663""
""focus"",""79"",""545651""
","""event"",""trial"",""time""
""blur"",""77"",""544663""
","""event"",""trial"",""time""
""focus"",""79"",""545651""
","""event"",""trial"",""time""
""fullscreenenter"",""1"",""4368""
","
","","","","","","null","<div style=""font-size:60px;"">+</div>","null","","fixation","","","","","","","","","","",""
"aa-learning-trial","111","604532","0.0-9.0-2.0-1.19","5174","1","10","Male","approach_avoid_spark_v1","""event"",""trial"",""time""
""fullscreenenter"",""1"",""4368""
""blur"",""77"",""544663""
""focus"",""79"",""545651""
","""event"",""trial"",""time""
""blur"",""77"",""544663""
","""event"",""trial"",""time""
""focus"",""79"",""545651""
","""event"",""trial"",""time""
""fullscreenenter"",""1"",""4368""
","
","","","","","","2120.7999992370605","images/goat1.png","","","learning","1","1","1","1","goat","animals","1","0","","neutral","0"
"html-keyboard-response","112","605043","0.0-9.0-2.0-0.20","5174","1","10","Male","approach_avoid_spark_v1","""event"",""trial"",""time""
""fullscreenenter"",""1"",""4368""
""blur"",""77"",""544663""
""focus"",""79"",""545651""
","""event"",""trial"",""time""
""blur"",""77"",""544663""
","""event"",""trial"",""time""
""focus"",""79"",""545651""
","""event"",""trial"",""time""
""fullscreenenter"",""1"",""4368""
","
","","","","","","null","<div style=""font-size:60px;"">+</div>","null","","fixation","","","","","","","","","","",""
"aa-learning-trial","113","608066","0.0-9.0-2.0-1.20","5174","1","10","Male","approach_avoid_spark_v1","""event"",""trial"",""time""
""fullscreenenter"",""1"",""4368""
""blur"",""77"",""544663""
""focus"",""79"",""545651""
","""event"",""trial"",""time""
""blur"",""77"",""544663""
","""event"",""trial"",""time""
""focus"",""79"",""545651""
","""event"",""trial"",""time""
""fullscreenenter"",""1"",""4368""
","
","","","","","","null","images/sheep3.png","","","learning","6","-5","","null","sheep","animals","1","0","","good","[5]"
"html-keyboard-response","114","608582","0.0-9.0-2.0-0.21","5174","1","10","Male","approach_avoid_spark_v1","""event"",""trial"",""time""
""fullscreenenter"",""1"",""4368""
""blur"",""77"",""544663""
""focus"",""79"",""545651""
","""event"",""trial"",""time""
""blur"",""77"",""544663""
","""event"",""trial"",""time""
""focus"",""79"",""545651""
","""event"",""trial"",""time""
""fullscreenenter"",""1"",""4368""
","
","","","","","","null","<div style=""font-size:60px;"">+</div>","null","","fixation","","","","","","","","","","",""
"aa-learning-trial","115","611598","0.0-9.0-2.0-1.21","5174","1","10","Male","approach_avoid_spark_v1","""event"",""trial"",""time""
""fullscreenenter"",""1"",""4368""
""blur"",""77"",""544663""
""focus"",""79"",""545651""
","""event"",""trial"",""time""
""blur"",""77"",""544663""
","""event"",""trial"",""time""
""focus"",""79"",""545651""
","""event"",""trial"",""time""
""fullscreenenter"",""1"",""4368""
","
","","","","","","1937.3000011444092","images/goat6.png","","","learning","-2","0","0","0","goat","animals","1","0","","neutral","0"
"html-keyboard-response","116","612102","0.0-9.0-2.0-0.22","5174","1","10","Male","approach_avoid_spark_v1","""event"",""trial"",""time""
""fullscreenenter"",""1"",""4368""
""blur"",""77"",""544663""
""focus"",""79"",""545651""
","""event"",""trial"",""time""
""blur"",""77"",""544663""
","""event"",""trial"",""time""
""focus"",""79"",""545651""
","""event"",""trial"",""time""
""fullscreenenter"",""1"",""4368""
","
","","","","","","null","<div style=""font-size:60px;"">+</div>","null","","fixation","","","","","","","","","","",""
"aa-learning-trial","117","615111","0.0-9.0-2.0-1.22","5174","1","10","Male","approach_avoid_spark_v1","""event"",""trial"",""time""
""fullscreenenter"",""1"",""4368""
""blur"",""77"",""544663""
""focus"",""79"",""545651""
","""event"",""trial"",""time""
""blur"",""77"",""544663""
","""event"",""trial"",""time""
""focus"",""79"",""545651""
","""event"",""trial"",""time""
""fullscreenenter"",""1"",""4368""
","
","","","","","","1002.1000003814697","images/cow6.png","","","learning","-3","0","0","0","cow","animals","1","0","","bad","[-4]"
"html-keyboard-response","118","615622","0.0-9.0-2.0-0.23","5174","1","10","Male","approach_avoid_spark_v1","""event"",""trial"",""time""
""fullscreenenter"",""1"",""4368""
""blur"",""77"",""544663""
""focus"",""79"",""545651""
","""event"",""trial"",""time""
""blur"",""77"",""544663""
","""event"",""trial"",""time""
""focus"",""79"",""545651""
","""event"",""trial"",""time""
""fullscreenenter"",""1"",""4368""
","
","","","","","","null","<div style=""font-size:60px;"">+</div>","null","","fixation","","","","","","","","","","",""
"aa-learning-trial","119","618634","0.0-9.0-2.0-1.23","5174","1","10","Male","approach_avoid_spark_v1","""event"",""trial"",""time""
""fullscreenenter"",""1"",""4368""
""blur"",""77"",""544663""
""focus"",""79"",""545651""
","""event"",""trial"",""time""
""blur"",""77"",""544663""
","""event"",""trial"",""time""
""focus"",""79"",""545651""
","""event"",""trial"",""time""
""fullscreenenter"",""1"",""4368""
","
","","","","","","2994.2999992370605","images/sheep8.png","","","learning","6","0","0","0","sheep","animals","1","0","","good","[5]"
"html-keyboard-response","120","619142","0.0-9.0-2.0-0.24","5174","1","10","Male","approach_avoid_spark_v1","""event"",""trial"",""time""
""fullscreenenter"",""1"",""4368""
""blur"",""77"",""544663""
""focus"",""79"",""545651""
","""event"",""trial"",""time""
""blur"",""77"",""544663""
","""event"",""trial"",""time""
""focus"",""79"",""545651""
","""event"",""trial"",""time""
""fullscreenenter"",""1"",""4368""
","
","","","","","","null","<div style=""font-size:60px;"">+</div>","null","","fixation","","","","","","","","","","",""
"aa-learning-trial","121","622150","0.0-9.0-2.0-1.24","5174","1","10","Male","approach_avoid_spark_v1","""event"",""trial"",""time""
""fullscreenenter"",""1"",""4368""
""blur"",""77"",""544663""
""focus"",""79"",""545651""
","""event"",""trial"",""time""
""blur"",""77"",""544663""
","""event"",""trial"",""time""
""focus"",""79"",""545651""
","""event"",""trial"",""time""
""fullscreenenter"",""1"",""4368""
","
","","","","","","1841.6000003814697","images/sheep3.png","","","learning","5","0","0","0","sheep","animals","1","0","","good","[5]"
"html-keyboard-response","122","622655","0.0-9.0-2.0-0.25","5174","1","10","Male","approach_avoid_spark_v1","""event"",""trial"",""time""
""fullscreenenter"",""1"",""4368""
""blur"",""77"",""544663""
""focus"",""79"",""545651""
","""event"",""trial"",""time""
""blur"",""77"",""544663""
","""event"",""trial"",""time""
""focus"",""79"",""545651""
","""event"",""trial"",""time""
""fullscreenenter"",""1"",""4368""
","
","","","","","","null","<div style=""font-size:60px;"">+</div>","null","","fixation","","","","","","","","","","",""
"aa-learning-trial","123","625662","0.0-9.0-2.0-1.25","5174","1","10","Male","approach_avoid_spark_v1","""event"",""trial"",""time""
""fullscreenenter"",""1"",""4368""
""blur"",""77"",""544663""
""focus"",""79"",""545651""
","""event"",""trial"",""time""
""blur"",""77"",""544663""
","""event"",""trial"",""time""
""focus"",""79"",""545651""
","""event"",""trial"",""time""
""fullscreenenter"",""1"",""4368""
","
","","","","","","1555.8999996185303","images/cow7.png","","","learning","-8","-8","1","1","cow","animals","1","0","","bad","[-4]"
"html-keyboard-response","124","626167","0.0-9.0-2.0-0.26","5174","1","10","Male","approach_avoid_spark_v1","""event"",""trial"",""time""
""fullscreenenter"",""1"",""4368""
""blur"",""77"",""544663""
""focus"",""79"",""545651""
","""event"",""trial"",""time""
""blur"",""77"",""544663""
","""event"",""trial"",""time""
""focus"",""79"",""545651""
","""event"",""trial"",""time""
""fullscreenenter"",""1"",""4368""
","
","","","","","","null","<div style=""font-size:60px;"">+</div>","null","","fixation","","","","","","","","","","",""
"aa-learning-trial","125","629176","0.0-9.0-2.0-1.26","5174","1","10","Male","approach_avoid_spark_v1","""event"",""trial"",""time""
""fullscreenenter"",""1"",""4368""
""blur"",""77"",""544663""
""focus"",""79"",""545651""
","""event"",""trial"",""time""
""blur"",""77"",""544663""
","""event"",""trial"",""time""
""focus"",""79"",""545651""
","""event"",""trial"",""time""
""fullscreenenter"",""1"",""4368""
","
","","","","","","2175.3999996185303","images/cow3.png","","","learning","-6","0","0","0","cow","animals","1","0","","bad","[-4]"
"html-keyboard-response","126","629689","0.0-9.0-2.0-0.27","5174","1","10","Male","approach_avoid_spark_v1","""event"",""trial"",""time""
""fullscreenenter"",""1"",""4368""
""blur"",""77"",""544663""
""focus"",""79"",""545651""
","""event"",""trial"",""time""
""blur"",""77"",""544663""
","""event"",""trial"",""time""
""focus"",""79"",""545651""
","""event"",""trial"",""time""
""fullscreenenter"",""1"",""4368""
","
","","","","","","null","<div style=""font-size:60px;"">+</div>","null","","fixation","","","","","","","","","","",""
"aa-learning-trial","127","632698","0.0-9.0-2.0-1.27","5174","1","10","Male","approach_avoid_spark_v1","""event"",""trial"",""time""
""fullscreenenter"",""1"",""4368""
""blur"",""77"",""544663""
""focus"",""79"",""545651""
","""event"",""trial"",""time""
""blur"",""77"",""544663""
","""event"",""trial"",""time""
""focus"",""79"",""545651""
","""event"",""trial"",""time""
""fullscreenenter"",""1"",""4368""
","
","","","","","","null","images/sheep7.png","","","learning","6","-5","","null","sheep","animals","1","0","","good","[5]"
"html-keyboard-response","128","633214","0.0-9.0-2.0-0.28","5174","1","10","Male","approach_avoid_spark_v1","""event"",""trial"",""time""
""fullscreenenter"",""1"",""4368""
""blur"",""77"",""544663""
""focus"",""79"",""545651""
","""event"",""trial"",""time""
""blur"",""77"",""544663""
","""event"",""trial"",""time""
""focus"",""79"",""545651""
","""event"",""trial"",""time""
""fullscreenenter"",""1"",""4368""
","
","","","","","","null","<div style=""font-size:60px;"">+</div>","null","","fixation","","","","","","","","","","",""
"aa-learning-trial","129","636223","0.0-9.0-2.0-1.28","5174","1","10","Male","approach_avoid_spark_v1","""event"",""trial"",""time""
""fullscreenenter"",""1"",""4368""
""blur"",""77"",""544663""
""focus"",""79"",""545651""
","""event"",""trial"",""time""
""blur"",""77"",""544663""
","""event"",""trial"",""time""
""focus"",""79"",""545651""
","""event"",""trial"",""time""
""fullscreenenter"",""1"",""4368""
","
","","","","","","1030.6000003814697","images/goat4.png","","","learning","1","0","0","0","goat","animals","1","0","","neutral","0"
"html-keyboard-response","130","636730","0.0-9.0-2.0-0.29","5174","1","10","Male","approach_avoid_spark_v1","""event"",""trial"",""time""
""fullscreenenter"",""1"",""4368""
""blur"",""77"",""544663""
""focus"",""79"",""545651""
","""event"",""trial"",""time""
""blur"",""77"",""544663""
","""event"",""trial"",""time""
""focus"",""79"",""545651""
","""event"",""trial"",""time""
""fullscreenenter"",""1"",""4368""
","
","","","","","","null","<div style=""font-size:60px;"">+</div>","null","","fixation","","","","","","","","","","",""
"aa-learning-trial","131","639736","0.0-9.0-2.0-1.29","5174","1","10","Male","approach_avoid_spark_v1","""event"",""trial"",""time""
""fullscreenenter"",""1"",""4368""
""blur"",""77"",""544663""
""focus"",""79"",""545651""
","""event"",""trial"",""time""
""blur"",""77"",""544663""
","""event"",""trial"",""time""
""focus"",""79"",""545651""
","""event"",""trial"",""time""
""fullscreenenter"",""1"",""4368""
","
","","","","","","1111.8999996185303","images/goat5.png","","","learning","[1]","1","1","1","goat","animals","1","0","","neutral","0"
"html-keyboard-response","132","640250","0.0-9.0-2.0-0.30","5174","1","10","Male","approach_avoid_spark_v1","""event"",""trial"",""time""
""fullscreenenter"",""1"",""4368""
""blur"",""77"",""544663""
""focus"",""79"",""545651""
","""event"",""trial"",""time""
""blur"",""77"",""544663""
","""event"",""trial"",""time""
""focus"",""79"",""545651""
","""event"",""trial"",""time""
""fullscreenenter"",""1"",""4368""
","
","","","","","","null","<div style=""font-size:60px;"">+</div>","null","","fixation","","","","","","","","","","",""
"aa-learning-trial","133","643253","0.0-9.0-2.0-1.30","5174","1","10","Male","approach_avoid_spark_v1","""event"",""trial"",""time""
""fullscreenenter"",""1"",""4368""
""blur"",""77"",""544663""
""focus"",""79"",""545651""
","""event"",""trial"",""time""
""blur"",""77"",""544663""
","""event"",""trial"",""time""
""focus"",""79"",""545651""
","""event"",""trial"",""time""
""fullscreenenter"",""1"",""4368""
","
","","","","","","1110.3999996185303","images/goat5.png","","","learning","2","2","1","1","goat","animals","1","0","","neutral","0"
"html-keyboard-response","134","643762","0.0-9.0-2.0-0.31","5174","1","10","Male","approach_avoid_spark_v1","""event"",""trial"",""time""
""fullscreenenter"",""1"",""4368""
""blur"",""77"",""544663""
""focus"",""79"",""545651""
","""event"",""trial"",""time""
""blur"",""77"",""544663""
","""event"",""trial"",""time""
""focus"",""79"",""545651""
","""event"",""trial"",""time""
""fullscreenenter"",""1"",""4368""
","
","","","","","","null","<div style=""font-size:60px;"">+</div>","null","","fixation","","","","","","","","","","",""
"aa-learning-trial","135","646782","0.0-9.0-2.0-1.31","5174","1","10","Male","approach_avoid_spark_v1","""event"",""trial"",""time""
""fullscreenenter"",""1"",""4368""
""blur"",""77"",""544663""
""focus"",""79"",""545651""
","""event"",""trial"",""time""
""blur"",""77"",""544663""
","""event"",""trial"",""time""
""focus"",""79"",""545651""
","""event"",""trial"",""time""
""fullscreenenter"",""1"",""4368""
","
","","","","","","1587.8000011444092","images/cow8.png","","","learning","-3","0","0","0","cow","animals","1","0","","bad","[-4]"
"html-keyboard-response","136","647298","0.0-9.0-2.0-0.32","5174","1","10","Male","approach_avoid_spark_v1","""event"",""trial"",""time""
""fullscreenenter"",""1"",""4368""
""blur"",""77"",""544663""
""focus"",""79"",""545651""
","""event"",""trial"",""time""
""blur"",""77"",""544663""
","""event"",""trial"",""time""
""focus"",""79"",""545651""
","""event"",""trial"",""time""
""fullscreenenter"",""1"",""4368""
","
","","","","","","null","<div style=""font-size:60px;"">+</div>","null","","fixation","","","","","","","","","","",""
"aa-learning-trial","137","650301","0.0-9.0-2.0-1.32","5174","1","10","Male","approach_avoid_spark_v1","""event"",""trial"",""time""
""fullscreenenter"",""1"",""4368""
""blur"",""77"",""544663""
""focus"",""79"",""545651""
","""event"",""trial"",""time""
""blur"",""77"",""544663""
","""event"",""trial"",""time""
""focus"",""79"",""545651""
","""event"",""trial"",""time""
""fullscreenenter"",""1"",""4368""
","
","","","","","","1724.6000003814697","images/goat5.png","","","learning","1","1","1","1","goat","animals","1","0","","neutral","0"
"html-keyboard-response","138","650810","0.0-9.0-2.0-0.33","5174","1","10","Male","approach_avoid_spark_v1","""event"",""trial"",""time""
""fullscreenenter"",""1"",""4368""
""blur"",""77"",""544663""
""focus"",""79"",""545651""
","""event"",""trial"",""time""
""blur"",""77"",""544663""
","""event"",""trial"",""time""
""focus"",""79"",""545651""
","""event"",""trial"",""time""
""fullscreenenter"",""1"",""4368""
","
","","","","","","null","<div style=""font-size:60px;"">+</div>","null","","fixation","","","","","","","","","","",""
"aa-learning-trial","139","653820","0.0-9.0-2.0-1.33","5174","1","10","Male","approach_avoid_spark_v1","""event"",""trial"",""time""
""fullscreenenter"",""1"",""4368""
""blur"",""77"",""544663""
""focus"",""79"",""545651""
","""event"",""trial"",""time""
""blur"",""77"",""544663""
","""event"",""trial"",""time""
""focus"",""79"",""545651""
","""event"",""trial"",""time""
""fullscreenenter"",""1"",""4368""
","
","","","","","","1142.2999992370605","images/cow7.png","","","learning","-5","-5","1","1","cow","animals","1","0","","bad","[-4]"
"html-keyboard-response","140","654331","0.0-9.0-2.0-0.34","5174","1","10","Male","approach_avoid_spark_v1","""event"",""trial"",""time""
""fullscreenenter"",""1"",""4368""
""blur"",""77"",""544663""
""focus"",""79"",""545651""
","""event"",""trial"",""time""
""blur"",""77"",""544663""
","""event"",""trial"",""time""
""focus"",""79"",""545651""
","""event"",""trial"",""time""
""fullscreenenter"",""1"",""4368""
","
","","","","","","null","<div style=""font-size:60px;"">+</div>","null","","fixation","","","","","","","","","","",""
"aa-learning-trial","141","657342","0.0-9.0-2.0-1.34","5174","1","10","Male","approach_avoid_spark_v1","""event"",""trial"",""time""
""fullscreenenter"",""1"",""4368""
""blur"",""77"",""544663""
""focus"",""79"",""545651""
","""event"",""trial"",""time""
""blur"",""77"",""544663""
","""event"",""trial"",""time""
""focus"",""79"",""545651""
","""event"",""trial"",""time""
""fullscreenenter"",""1"",""4368""
","
","","","","","","1779.7999992370605","images/sheep7.png","","","learning","8","0","0","0","sheep","animals","1","0","","good","[5]"
"html-keyboard-response","142","657849","0.0-9.0-2.0-0.35","5174","1","10","Male","approach_avoid_spark_v1","""event"",""trial"",""time""
""fullscreenenter"",""1"",""4368""
""blur"",""77"",""544663""
""focus"",""79"",""545651""
","""event"",""trial"",""time""
""blur"",""77"",""544663""
","""event"",""trial"",""time""
""focus"",""79"",""545651""
","""event"",""trial"",""time""
""fullscreenenter"",""1"",""4368""
","
","","","","","","null","<div style=""font-size:60px;"">+</div>","null","","fixation","","","","","","","","","","",""
"aa-learning-trial","143","660859","0.0-9.0-2.0-1.35","5174","1","10","Male","approach_avoid_spark_v1","""event"",""trial"",""time""
""fullscreenenter"",""1"",""4368""
""blur"",""77"",""544663""
""focus"",""79"",""545651""
","""event"",""trial"",""time""
""blur"",""77"",""544663""
","""event"",""trial"",""time""
""focus"",""79"",""545651""
","""event"",""trial"",""time""
""fullscreenenter"",""1"",""4368""
","
","","","","","","891.1000003814697","images/cow3.png","","","learning","-5","-5","1","1","cow","animals","1","0","","bad","[-4]"
"html-keyboard-response","144","661370","0.0-9.0-2.0-0.36","5174","1","10","Male","approach_avoid_spark_v1","""event"",""trial"",""time""
""fullscreenenter"",""1"",""4368""
""blur"",""77"",""544663""
""focus"",""79"",""545651""
","""event"",""trial"",""time""
""blur"",""77"",""544663""
","""event"",""trial"",""time""
""focus"",""79"",""545651""
","""event"",""trial"",""time""
""fullscreenenter"",""1"",""4368""
","
","","","","","","null","<div style=""font-size:60px;"">+</div>","null","","fixation","","","","","","","","","","",""
"aa-learning-trial","145","664376","0.0-9.0-2.0-1.36","5174","1","10","Male","approach_avoid_spark_v1","""event"",""trial"",""time""
""fullscreenenter"",""1"",""4368""
""blur"",""77"",""544663""
""focus"",""79"",""545651""
","""event"",""trial"",""time""
""blur"",""77"",""544663""
","""event"",""trial"",""time""
""focus"",""79"",""545651""
","""event"",""trial"",""time""
""fullscreenenter"",""1"",""4368""
","
","","","","","","1358.1000003814697","images/cow6.png","","","learning","-5","-5","1","1","cow","animals","1","0","","bad","[-4]"
"html-keyboard-response","146","664887","0.0-9.0-2.0-0.37","5174","1","10","Male","approach_avoid_spark_v1","""event"",""trial"",""time""
""fullscreenenter"",""1"",""4368""
""blur"",""77"",""544663""
""focus"",""79"",""545651""
","""event"",""trial"",""time""
""blur"",""77"",""544663""
","""event"",""trial"",""time""
""focus"",""79"",""545651""
","""event"",""trial"",""time""
""fullscreenenter"",""1"",""4368""
","
","","","","","","null","<div style=""font-size:60px;"">+</div>","null","","fixation","","","","","","","","","","",""
"aa-learning-trial","147","667895","0.0-9.0-2.0-1.37","5174","1","10","Male","approach_avoid_spark_v1","""event"",""trial"",""time""
""fullscreenenter"",""1"",""4368""
""blur"",""77"",""544663""
""focus"",""79"",""545651""
","""event"",""trial"",""time""
""blur"",""77"",""544663""
","""event"",""trial"",""time""
""focus"",""79"",""545651""
","""event"",""trial"",""time""
""fullscreenenter"",""1"",""4368""
","
","","","","","","928.7000007629395","images/goat5.png","","","learning","[1]","1","1","1","goat","animals","1","0","","neutral","0"
"html-keyboard-response","148","668407","0.0-9.0-2.0-0.38","5174","1","10","Male","approach_avoid_spark_v1","""event"",""trial"",""time""
""fullscreenenter"",""1"",""4368""
""blur"",""77"",""544663""
""focus"",""79"",""545651""
","""event"",""trial"",""time""
""blur"",""77"",""544663""
","""event"",""trial"",""time""
""focus"",""79"",""545651""
","""event"",""trial"",""time""
""fullscreenenter"",""1"",""4368""
","
","","","","","","null","<div style=""font-size:60px;"">+</div>","null","","fixation","","","","","","","","","","",""
"aa-learning-trial","149","671416","0.0-9.0-2.0-1.38","5174","1","10","Male","approach_avoid_spark_v1","""event"",""trial"",""time""
""fullscreenenter"",""1"",""4368""
""blur"",""77"",""544663""
""focus"",""79"",""545651""
","""event"",""trial"",""time""
""blur"",""77"",""544663""
","""event"",""trial"",""time""
""focus"",""79"",""545651""
","""event"",""trial"",""time""
""fullscreenenter"",""1"",""4368""
","
","","","","","","1528.6000003814697","images/sheep7.png","","","learning","4","0","0","0","sheep","animals","1","0","","good","[5]"
"html-keyboard-response","150","671927","0.0-9.0-2.0-0.39","5174","1","10","Male","approach_avoid_spark_v1","""event"",""trial"",""time""
""fullscreenenter"",""1"",""4368""
""blur"",""77"",""544663""
""focus"",""79"",""545651""
","""event"",""trial"",""time""
""blur"",""77"",""544663""
","""event"",""trial"",""time""
""focus"",""79"",""545651""
","""event"",""trial"",""time""
""fullscreenenter"",""1"",""4368""
","
","","","","","","null","<div style=""font-size:60px;"">+</div>","null","","fixation","","","","","","","","","","",""
"aa-learning-trial","151","674939","0.0-9.0-2.0-1.39","5174","1","10","Male","approach_avoid_spark_v1","""event"",""trial"",""time""
""fullscreenenter"",""1"",""4368""
""blur"",""77"",""544663""
""focus"",""79"",""545651""
","""event"",""trial"",""time""
""blur"",""77"",""544663""
","""event"",""trial"",""time""
""focus"",""79"",""545651""
","""event"",""trial"",""time""
""fullscreenenter"",""1"",""4368""
","
","","","","","","1256.5","images/sheep7.png","","","learning","7","7","1","1","sheep","animals","1","0","","good","[5]"
"html-keyboard-response","152","675447","0.0-9.0-2.0-0.40","5174","1","10","Male","approach_avoid_spark_v1","""event"",""trial"",""time""
""fullscreenenter"",""1"",""4368""
""blur"",""77"",""544663""
""focus"",""79"",""545651""
","""event"",""trial"",""time""
""blur"",""77"",""544663""
","""event"",""trial"",""time""
""focus"",""79"",""545651""
","""event"",""trial"",""time""
""fullscreenenter"",""1"",""4368""
","
","","","","","","null","<div style=""font-size:60px;"">+</div>","null","","fixation","","","","","","","","","","",""
"aa-learning-trial","153","678454","0.0-9.0-2.0-1.40","5174","1","10","Male","approach_avoid_spark_v1","""event"",""trial"",""time""
""fullscreenenter"",""1"",""4368""
""blur"",""77"",""544663""
""focus"",""79"",""545651""
","""event"",""trial"",""time""
""blur"",""77"",""544663""
","""event"",""trial"",""time""
""focus"",""79"",""545651""
","""event"",""trial"",""time""
""fullscreenenter"",""1"",""4368""
","
","","","","","","1874.400001525879","images/goat1.png","","","learning","[1]","1","1","1","goat","animals","1","0","","neutral","0"
"html-keyboard-response","154","678958","0.0-9.0-2.0-0.41","5174","1","10","Male","approach_avoid_spark_v1","""event"",""trial"",""time""
""fullscreenenter"",""1"",""4368""
""blur"",""77"",""544663""
""focus"",""79"",""545651""
","""event"",""trial"",""time""
""blur"",""77"",""544663""
","""event"",""trial"",""time""
""focus"",""79"",""545651""
","""event"",""trial"",""time""
""fullscreenenter"",""1"",""4368""
","
","","","","","","null","<div style=""font-size:60px;"">+</div>","null","","fixation","","","","","","","","","","",""
"aa-learning-trial","155","681970","0.0-9.0-2.0-1.41","5174","1","10","Male","approach_avoid_spark_v1","""event"",""trial"",""time""
""fullscreenenter"",""1"",""4368""
""blur"",""77"",""544663""
""focus"",""79"",""545651""
","""event"",""trial"",""time""
""blur"",""77"",""544663""
","""event"",""trial"",""time""
""focus"",""79"",""545651""
","""event"",""trial"",""time""
""fullscreenenter"",""1"",""4368""
","
","","","","","","1806.8000011444092","images/cow5.png","","","learning","-2","0","0","0","cow","animals","1","0","","bad","[-4]"
"html-keyboard-response","156","682479","0.0-9.0-2.0-0.42","5174","1","10","Male","approach_avoid_spark_v1","""event"",""trial"",""time""
""fullscreenenter"",""1"",""4368""
""blur"",""77"",""544663""
""focus"",""79"",""545651""
","""event"",""trial"",""time""
""blur"",""77"",""544663""
","""event"",""trial"",""time""
""focus"",""79"",""545651""
","""event"",""trial"",""time""
""fullscreenenter"",""1"",""4368""
","
","","","","","","null","<div style=""font-size:60px;"">+</div>","null","","fixation","","","","","","","","","","",""
"aa-learning-trial","157","685486","0.0-9.0-2.0-1.42","5174","1","10","Male","approach_avoid_spark_v1","""event"",""trial"",""time""
""fullscreenenter"",""1"",""4368""
""blur"",""77"",""544663""
""focus"",""79"",""545651""
","""event"",""trial"",""time""
""blur"",""77"",""544663""
","""event"",""trial"",""time""
""focus"",""79"",""545651""
","""event"",""trial"",""time""
""fullscreenenter"",""1"",""4368""
","
","","","","","","2012.7999992370605","images/sheep4.png","","","learning","7","7","1","1","sheep","animals","1","0","","good","[5]"
"html-keyboard-response","158","685998","0.0-9.0-2.0-0.43","5174","1","10","Male","approach_avoid_spark_v1","""event"",""trial"",""time""
""fullscreenenter"",""1"",""4368""
""blur"",""77"",""544663""
""focus"",""79"",""545651""
","""event"",""trial"",""time""
""blur"",""77"",""544663""
","""event"",""trial"",""time""
""focus"",""79"",""545651""
","""event"",""trial"",""time""
""fullscreenenter"",""1"",""4368""
","
","","","","","","null","<div style=""font-size:60px;"">+</div>","null","","fixation","","","","","","","","","","",""
"aa-learning-trial","159","689011","0.0-9.0-2.0-1.43","5174","1","10","Male","approach_avoid_spark_v1","""event"",""trial"",""time""
""fullscreenenter"",""1"",""4368""
""blur"",""77"",""544663""
""focus"",""79"",""545651""
","""event"",""trial"",""time""
""blur"",""77"",""544663""
","""event"",""trial"",""time""
""focus"",""79"",""545651""
","""event"",""trial"",""time""
""fullscreenenter"",""1"",""4368""
","
","","","","","","1981.7999992370605","images/cow3.png","","","learning","-4","-4","1","1","cow","animals","1","0","","bad","[-4]"
"html-keyboard-response","160","689519","0.0-9.0-2.0-0.44","5174","1","10","Male","approach_avoid_spark_v1","""event"",""trial"",""time""
""fullscreenenter"",""1"",""4368""
""blur"",""77"",""544663""
""focus"",""79"",""545651""
","""event"",""trial"",""time""
""blur"",""77"",""544663""
","""event"",""trial"",""time""
""focus"",""79"",""545651""
","""event"",""trial"",""time""
""fullscreenenter"",""1"",""4368""
","
","","","","","","null","<div style=""font-size:60px;"">+</div>","null","","fixation","","","","","","","","","","",""
"aa-learning-trial","161","692533","0.0-9.0-2.0-1.44","5174","1","10","Male","approach_avoid_spark_v1","""event"",""trial"",""time""
""fullscreenenter"",""1"",""4368""
""blur"",""77"",""544663""
""focus"",""79"",""545651""
","""event"",""trial"",""time""
""blur"",""77"",""544663""
","""event"",""trial"",""time""
""focus"",""79"",""545651""
","""event"",""trial"",""time""
""fullscreenenter"",""1"",""4368""
","
","","","","","","1231.599998474121","images/sheep4.png","","","learning","5","5","1","1","sheep","animals","1","0","","good","[5]"
"html-keyboard-response","162","693037","0.0-9.0-2.0-0.45","5174","1","10","Male","approach_avoid_spark_v1","""event"",""trial"",""time""
""fullscreenenter"",""1"",""4368""
""blur"",""77"",""544663""
""focus"",""79"",""545651""
","""event"",""trial"",""time""
""blur"",""77"",""544663""
","""event"",""trial"",""time""
""focus"",""79"",""545651""
","""event"",""trial"",""time""
""fullscreenenter"",""1"",""4368""
","
","","","","","","null","<div style=""font-size:60px;"">+</div>","null","","fixation","","","","","","","","","","",""
"aa-learning-trial","163","696051","0.0-9.0-2.0-1.45","5174","1","10","Male","approach_avoid_spark_v1","""event"",""trial"",""time""
""fullscreenenter"",""1"",""4368""
""blur"",""77"",""544663""
""focus"",""79"",""545651""
","""event"",""trial"",""time""
""blur"",""77"",""544663""
","""event"",""trial"",""time""
""focus"",""79"",""545651""
","""event"",""trial"",""time""
""fullscreenenter"",""1"",""4368""
","
","","","","","","1331.6000003814697","images/sheep3.png","","","learning","5","5","1","1","sheep","animals","1","0","","good","[5]"
"html-keyboard-response","164","696558","0.0-9.0-2.0-0.46","5174","1","10","Male","approach_avoid_spark_v1","""event"",""trial"",""time""
""fullscreenenter"",""1"",""4368""
""blur"",""77"",""544663""
""focus"",""79"",""545651""
","""event"",""trial"",""time""
""blur"",""77"",""544663""
","""event"",""trial"",""time""
""focus"",""79"",""545651""
","""event"",""trial"",""time""
""fullscreenenter"",""1"",""4368""
","
","","","","","","null","<div style=""font-size:60px;"">+</div>","null","","fixation","","","","","","","","","","",""
"aa-learning-trial","165","699569","0.0-9.0-2.0-1.46","5174","1","10","Male","approach_avoid_spark_v1","""event"",""trial"",""time""
""fullscreenenter"",""1"",""4368""
""blur"",""77"",""544663""
""focus"",""79"",""545651""
","""event"",""trial"",""time""
""blur"",""77"",""544663""
","""event"",""trial"",""time""
""focus"",""79"",""545651""
","""event"",""trial"",""time""
""fullscreenenter"",""1"",""4368""
","
","","","","","","1154.7999992370605","images/cow6.png","","","learning","-3","-3","1","1","cow","animals","1","0","","bad","[-4]"
"html-keyboard-response","166","700081","0.0-9.0-2.0-0.47","5174","1","10","Male","approach_avoid_spark_v1","""event"",""trial"",""time""
""fullscreenenter"",""1"",""4368""
""blur"",""77"",""544663""
""focus"",""79"",""545651""
","""event"",""trial"",""time""
""blur"",""77"",""544663""
","""event"",""trial"",""time""
""focus"",""79"",""545651""
","""event"",""trial"",""time""
""fullscreenenter"",""1"",""4368""
","
","","","","","","null","<div style=""font-size:60px;"">+</div>","null","","fixation","","","","","","","","","","",""
"aa-learning-trial","167","703092","0.0-9.0-2.0-1.47","5174","1","10","Male","approach_avoid_spark_v1","""event"",""trial"",""time""
""fullscreenenter"",""1"",""4368""
""blur"",""77"",""544663""
""focus"",""79"",""545651""
","""event"",""trial"",""time""
""blur"",""77"",""544663""
","""event"",""trial"",""time""
""focus"",""79"",""545651""
","""event"",""trial"",""time""
""fullscreenenter"",""1"",""4368""
","
","","","","","","995.2000007629395","images/goat6.png","","","learning","1","1","1","1","goat","animals","1","0","","neutral","0"
"html-keyboard-response","168","703599","0.0-9.0-2.0-0.48","5174","1","10","Male","approach_avoid_spark_v1","""event"",""trial"",""time""
""fullscreenenter"",""1"",""4368""
""blur"",""77"",""544663""
""focus"",""79"",""545651""
","""event"",""trial"",""time""
""blur"",""77"",""544663""
","""event"",""trial"",""time""
""focus"",""79"",""545651""
","""event"",""trial"",""time""
""fullscreenenter"",""1"",""4368""
","
","","","","","","null","<div style=""font-size:60px;"">+</div>","null","","fixation","","","","","","","","","","",""
"aa-learning-trial","169","706608","0.0-9.0-2.0-1.48","5174","1","10","Male","approach_avoid_spark_v1","""event"",""trial"",""time""
""fullscreenenter"",""1"",""4368""
""blur"",""77"",""544663""
""focus"",""79"",""545651""
","""event"",""trial"",""time""
""blur"",""77"",""544663""
","""event"",""trial"",""time""
""focus"",""79"",""545651""
","""event"",""trial"",""time""
""fullscreenenter"",""1"",""4368""
","
","","","","","","1311.2000007629395","images/cow6.png","","","learning","-5","0","0","0","cow","animals","1","0","","bad","[-4]"
"html-keyboard-response","170","707120","0.0-9.0-2.0-0.49","5174","1","10","Male","approach_avoid_spark_v1","""event"",""trial"",""time""
""fullscreenenter"",""1"",""4368""
""blur"",""77"",""544663""
""focus"",""79"",""545651""
","""event"",""trial"",""time""
""blur"",""77"",""544663""
","""event"",""trial"",""time""
""focus"",""79"",""545651""
","""event"",""trial"",""time""
""fullscreenenter"",""1"",""4368""
","
","","","","","","null","<div style=""font-size:60px;"">+</div>","null","","fixation","","","","","","","","","","",""
"aa-learning-trial","171","710128","0.0-9.0-2.0-1.49","5174","1","10","Male","approach_avoid_spark_v1","""event"",""trial"",""time""
""fullscreenenter"",""1"",""4368""
""blur"",""77"",""544663""
""focus"",""79"",""545651""
","""event"",""trial"",""time""
""blur"",""77"",""544663""
","""event"",""trial"",""time""
""focus"",""79"",""545651""
","""event"",""trial"",""time""
""fullscreenenter"",""1"",""4368""
","
","","","","","","1098.6000003814697","images/cow3.png","","","learning","-7","-7","1","1","cow","animals","1","0","","bad","[-4]"
"html-keyboard-response","172","710640","0.0-9.0-2.0-0.50","5174","1","10","Male","approach_avoid_spark_v1","""event"",""trial"",""time""
""fullscreenenter"",""1"",""4368""
""blur"",""77"",""544663""
""focus"",""79"",""545651""
","""event"",""trial"",""time""
""blur"",""77"",""544663""
","""event"",""trial"",""time""
""focus"",""79"",""545651""
","""event"",""trial"",""time""
""fullscreenenter"",""1"",""4368""
","
","","","","","","null","<div style=""font-size:60px;"">+</div>","null","","fixation","","","","","","","","","","",""
"aa-learning-trial","173","713647","0.0-9.0-2.0-1.50","5174","1","10","Male","approach_avoid_spark_v1","""event"",""trial"",""time""
""fullscreenenter"",""1"",""4368""
""blur"",""77"",""544663""
""focus"",""79"",""545651""
","""event"",""trial"",""time""
""blur"",""77"",""544663""
","""event"",""trial"",""time""
""focus"",""79"",""545651""
","""event"",""trial"",""time""
""fullscreenenter"",""1"",""4368""
","
","","","","","","1036.6000003814697","images/sheep6.png","","","learning","5","5","1","1","sheep","animals","1","0","","good","[5]"
"html-button-response","174","716741","0.0-9.0-3.0","5174","1","10","Male","approach_avoid_spark_v1","""event"",""trial"",""time""
""fullscreenenter"",""1"",""4368""
""blur"",""77"",""544663""
""focus"",""79"",""545651""
","""event"",""trial"",""time""
""blur"",""77"",""544663""
","""event"",""trial"",""time""
""focus"",""79"",""545651""
","""event"",""trial"",""time""
""fullscreenenter"",""1"",""4368""
","
","","","","","","3091.7999992370605","<p> You have completed the round! <p> In this round, you earned -47 points! </p>","0","","break","","","","","","","","","","",""
"html-button-response","175","718146","0.0-10.0","5174","1","10","Male","approach_avoid_spark_v1","""event"",""trial"",""time""
""fullscreenenter"",""1"",""4368""
""blur"",""77"",""544663""
""focus"",""79"",""545651""
","""event"",""trial"",""time""
""blur"",""77"",""544663""
","""event"",""trial"",""time""
""focus"",""79"",""545651""
","""event"",""trial"",""time""
""fullscreenenter"",""1"",""4368""
","
","","","","","","1403.5","<p> Now it's time to play another round. </p>","0","","transition_screen","","","","","","","","","","",""
"preload","176","718286","0.0-11.0-0.0","5174","1","10","Male","approach_avoid_spark_v1","""event"",""trial"",""time""
""fullscreenenter"",""1"",""4368""
""blur"",""77"",""544663""
""focus"",""79"",""545651""
","""event"",""trial"",""time""
""blur"",""77"",""544663""
","""event"",""trial"",""time""
""focus"",""79"",""545651""
","""event"",""trial"",""time""
""fullscreenenter"",""1"",""4368""
","
","true","false","[]","[]","[]","","","","","","","","","","","","","","","",""
"learning-instructions","177","727839","0.0-11.0-1.0-0.0","5174","1","10","Male","approach_avoid_spark_v1","""event"",""trial"",""time""
""fullscreenenter"",""1"",""4368""
""blur"",""77"",""544663""
""focus"",""79"",""545651""
","""event"",""trial"",""time""
""blur"",""77"",""544663""
","""event"",""trial"",""time""
""focus"",""79"",""545651""
","""event"",""trial"",""time""
""fullscreenenter"",""1"",""4368""
","
","","","","","","4110.400001525879","<p> Your goal in this round is to decorate your friend's new house with furniture. </p></div>","","0","instructions","","","","","","","","","","",""
"learning-instructions","178","740885","0.0-11.0-1.0-0.1","5174","1","10","Male","approach_avoid_spark_v1","""event"",""trial"",""time""
""fullscreenenter"",""1"",""4368""
""blur"",""77"",""544663""
""focus"",""79"",""545651""
","""event"",""trial"",""time""
""blur"",""77"",""544663""
","""event"",""trial"",""time""
""focus"",""79"",""545651""
","""event"",""trial"",""time""
""fullscreenenter"",""1"",""4368""
","
","","","","","","3068.2000007629395","<p> Your friend likes some pieces of furniture but not others.  </p><p> On each turn, you will see a piece of furniture.   </p><p> You need to decide whether to put it in your friend's house or not.  </p>","","0","instructions","","","","","","","","","","",""
"learning-instructions","179","748489","0.0-11.0-1.0-0.2","5174","1","10","Male","approach_avoid_spark_v1","""event"",""trial"",""time""
""fullscreenenter"",""1"",""4368""
""blur"",""77"",""544663""
""focus"",""79"",""545651""
","""event"",""trial"",""time""
""blur"",""77"",""544663""
","""event"",""trial"",""time""
""focus"",""79"",""545651""
","""event"",""trial"",""time""
""fullscreenenter"",""1"",""4368""
","
","","","","","","911.5","<p> You can put the furniture in her house by pressing 1 and deliver it elsewhere by pressing 0. </p><br><div class=""choice-instructions-grid""> <div class=""choice-option""><img src=""images/approach.png"" class=""choice-option-img"" stage=""instructions"" position=""0"" ><div class=""choice-option-text""> Press ""1."" </div></div><div class=""choice-option""><img src=""images/avoid.png"" class=""choice-option-img"" stage=""instructions"" position=""1"" ><div class=""choice-option-text""> Press ""0."" </div></div>","","0","instructions","","","","","","","","","","",""
"learning-instructions","180","758415","0.0-11.0-1.0-0.3","5174","1","10","Male","approach_avoid_spark_v1","""event"",""trial"",""time""
""fullscreenenter"",""1"",""4368""
""blur"",""77"",""544663""
""focus"",""79"",""545651""
","""event"",""trial"",""time""
""blur"",""77"",""544663""
","""event"",""trial"",""time""
""focus"",""79"",""545651""
","""event"",""trial"",""time""
""fullscreenenter"",""1"",""4368""
","
","","","","","","798.1000003814697","<p> If you decorate your friend's house with furniture she likes, she will be happy! </p><p> But if you give her furniture that she does not like, she will be annoyed. </p>","","0","instructions","","","","","","","","","","",""
"learning-instructions","181","771724","0.0-11.0-1.0-0.4","5174","1","10","Male","approach_avoid_spark_v1","""event"",""trial"",""time""
""fullscreenenter"",""1"",""4368""
""blur"",""77"",""544663""
""focus"",""79"",""545651""
","""event"",""trial"",""time""
""blur"",""77"",""544663""
","""event"",""trial"",""time""
""focus"",""79"",""545651""
","""event"",""trial"",""time""
""fullscreenenter"",""1"",""4368""
","
","","","","","","1416.8999996185303","<p> You will earn points based on how you made your friend feel. </p><p> If you made her happy, you will WIN anywhere from 1 - 9 points, </p><p> but if you made her annoyed you will LOSE anywhere from 1 - 9 points. </p>","","0","instructions","","","","","","","","","","",""
"learning-instructions","182","778887","0.0-11.0-1.0-0.5","5174","1","10","Male","approach_avoid_spark_v1","""event"",""trial"",""time""
""fullscreenenter"",""1"",""4368""
""blur"",""77"",""544663""
""focus"",""79"",""545651""
","""event"",""trial"",""time""
""blur"",""77"",""544663""
","""event"",""trial"",""time""
""focus"",""79"",""545651""
","""event"",""trial"",""time""
""fullscreenenter"",""1"",""4368""
","
","","","","","","499.4000015258789","<p> You will see how many points you won or lost in the center of the screen. </p><p> Here is what you would see if you won 5 points: </p><p style=""color:green;font-size:50px;font-weight:bolder"">5</p>","","0","instructions","","","","","","","","","","",""
"learning-instructions","183","782590","0.0-11.0-1.0-0.6","5174","1","10","Male","approach_avoid_spark_v1","""event"",""trial"",""time""
""fullscreenenter"",""1"",""4368""
""blur"",""77"",""544663""
""focus"",""79"",""545651""
","""event"",""trial"",""time""
""blur"",""77"",""544663""
","""event"",""trial"",""time""
""focus"",""79"",""545651""
","""event"",""trial"",""time""
""fullscreenenter"",""1"",""4368""
","
","","","","","","863.3999996185303","<p> And here is what you would see if you lost 3 points: </p><p style=""color:red;font-size:50px;font-weight:bolder"">-3</p>","","0","instructions","","","","","","","","","","",""
"learning-instructions","184","802157","0.0-11.0-1.0-0.7","5174","1","10","Male","approach_avoid_spark_v1","""event"",""trial"",""time""
""fullscreenenter"",""1"",""4368""
""blur"",""77"",""544663""
""focus"",""79"",""545651""
","""event"",""trial"",""time""
""blur"",""77"",""544663""
","""event"",""trial"",""time""
""focus"",""79"",""545651""
","""event"",""trial"",""time""
""fullscreenenter"",""1"",""4368""
","
","","","","","","1910.400001525879","<p> Some pieces of furniture will make her feel very happy or very annoyed. </p><p> These pieces of furniture will make you win or lose LOTS of points. </p><p> Other pieces of furniture will only make her feel a little happy or a little annoyed. </p><p> These pieces of furniture will make you win or lose small amounts of points. </p>","","0","instructions","","","","","","","","","","",""
"learning-instructions","185","815868","0.0-11.0-1.0-0.8","5174","1","10","Male","approach_avoid_spark_v1","""event"",""trial"",""time""
""fullscreenenter"",""1"",""4368""
""blur"",""77"",""544663""
""focus"",""79"",""545651""
","""event"",""trial"",""time""
""blur"",""77"",""544663""
","""event"",""trial"",""time""
""focus"",""79"",""545651""
","""event"",""trial"",""time""
""fullscreenenter"",""1"",""4368""
","
","","","","","","891.2000007629395","<p> If you choose to deliver a piece of furniture elsewhere, you will not win or lose any points. </p><p>  However, in the center of the screen, you will see the number of points you WOULD HAVE won or lost if you had given the furniture to your friend. </p>","","0","instructions","","","","","","","","","","",""
"learning-instructions","186","828817","0.0-11.0-1.0-0.9","5174","1","10","Male","approach_avoid_spark_v1","""event"",""trial"",""time""
""fullscreenenter"",""1"",""4368""
""blur"",""77"",""544663""
""focus"",""79"",""545651""
","""event"",""trial"",""time""
""blur"",""77"",""544663""
","""event"",""trial"",""time""
""focus"",""79"",""545651""
","""event"",""trial"",""time""
""fullscreenenter"",""1"",""4368""
","
","","","","","","1191","<p> Here is what you might see if you did not give a piece of furniture to your friend that would have made her happy: </p><p style=""color:grey; font-size:50px; display: inline-block; border-spacing: 15px; border-width:3px; border-style:solid; border-color:red"">  &nbsp; 6 &nbsp; </p><p> Remember, in this case, you would not win or lose ANY points because you did not give her the furniture.  </p>","","0","instructions","","","","","","","","","","",""
"learning-instructions","187","837279","0.0-11.0-1.0-0.10","5174","1","10","Male","approach_avoid_spark_v1","""event"",""trial"",""time""
""fullscreenenter"",""1"",""4368""
""blur"",""77"",""544663""
""focus"",""79"",""545651""
","""event"",""trial"",""time""
""blur"",""77"",""544663""
","""event"",""trial"",""time""
""focus"",""79"",""545651""
","""event"",""trial"",""time""
""fullscreenenter"",""1"",""4368""
","
","","","","","","791.8000011444092","<p> Try to make the best choice for each piece of furniture because </p><p> at the end of the game, you will earn bonus money based on how many points you earned. </p>","","0","instructions","","","","","","","","","","",""
"learning-instructions","188","847289","0.0-11.0-1.0-0.11","5174","1","10","Male","approach_avoid_spark_v1","""event"",""trial"",""time""
