"trial_type","trial_index","time_elapsed","internal_node_id","subject_id","task_condition","age","gender","task_version","interactions","blur_events","focus_events","fullscreenenter_events","fullscreenexit_events","success","timeout","failed_images","failed_audio","failed_video","rt","stimulus","response","button_pressed","task_part","approach_reward","points","key_press","option_selected","stim_cat","task_block","block_condition","block_number","correct","cat_type","mean_cat_reward"
"pavlovia","0","4","0.0-0.0","4284","1","17","Male","approach_avoid_spark_v1","""event"",""trial"",""time""
""fullscreenenter"",""1"",""5504""
","
","
","""event"",""trial"",""time""
""fullscreenenter"",""1"",""5504""
","
","","","","","","","","","","","","","","","","","","","","",""
"fullscreen","1","6481","0.0-1.0","4284","1","17","Male","approach_avoid_spark_v1","""event"",""trial"",""time""
""fullscreenenter"",""1"",""5504""
","
","
","""event"",""trial"",""time""
""fullscreenenter"",""1"",""5504""
","
","true","","","","","","","","","","","","","","","","","","","",""
"preload","2","9613","0.0-2.0","4284","1","17","Male","approach_avoid_spark_v1","""event"",""trial"",""time""
""fullscreenenter"",""1"",""5504""
","
","
","""event"",""trial"",""time""
""fullscreenenter"",""1"",""5504""
","
","true","false","[]","[]","[]","","","","","","","","","","","","","","","",""
"audio-keyboard-response","3","12554","0.0-3.0","4284","1","17","Male","approach_avoid_spark_v1","""event"",""trial"",""time""
""fullscreenenter"",""1"",""5504""
","
","
","""event"",""trial"",""time""
""fullscreenenter"",""1"",""5504""
","
","","","","","","2938.6666666666665","audio/beep_loop.wav"," ","","","","","","","","","","","","",""
"audio-button-response","4","14318","0.0-4.0","4284","1","17","Male","approach_avoid_spark_v1","""event"",""trial"",""time""
""fullscreenenter"",""1"",""5504""
","
","
","""event"",""trial"",""time""
""fullscreenenter"",""1"",""5504""
","
","","","","","","1749","audio/shark.wav","4","","","","","","","","","","","","",""
"audio-button-response","5","17060","0.0-5.0","4284","1","17","Male","approach_avoid_spark_v1","""event"",""trial"",""time""
""fullscreenenter"",""1"",""5504""
","
","
","""event"",""trial"",""time""
""fullscreenenter"",""1"",""5504""
","
","","","","","","1720","audio/turtle.wav","1","","","","","","","","","","","","",""
"preload","6","19899","0.0-6.0","4284","1","17","Male","approach_avoid_spark_v1","""event"",""trial"",""time""
""fullscreenenter"",""1"",""5504""
","
","
","""event"",""trial"",""time""
""fullscreenenter"",""1"",""5504""
","
","true","false","[]","[]","[]","","","","","","","","","","","","","","","",""
"html-keyboard-response","7","97579","0.0-7.0","4284","1","17","Male","approach_avoid_spark_v1","""event"",""trial"",""time""
""fullscreenenter"",""1"",""5504""
","
","
","""event"",""trial"",""time""
""fullscreenenter"",""1"",""5504""
","
","","","","","","77677.89999999851","Welcome to the experiment. Press any key to begin and to advance the instructions."," ","","","","","","","","","","","","",""
"learning-instructions","8","106469","0.0-8.0-0.0-0.0","4284","1","17","Male","approach_avoid_spark_v1","""event"",""trial"",""time""
""fullscreenenter"",""1"",""5504""
","
","
","""event"",""trial"",""time""
""fullscreenenter"",""1"",""5504""
","
","","","","","","1542.1999999955297","<p> Welcome! Today you are going to play 6 different rounds of a decision-making game. </p><p> Use the mouse to click next to continue. </p>","","0","instructions","","","","","","","","","","",""
"learning-instructions","9","141160","0.0-8.0-0.0-0.1","4284","1","17","Male","approach_avoid_spark_v1","""event"",""trial"",""time""
""fullscreenenter"",""1"",""5504""
","
","
","""event"",""trial"",""time""
""fullscreenenter"",""1"",""5504""
","
","","","","","","31954.09999999404","<p> You will start with a practice round to learn the rules. </p>","","0","instructions","","","","","","","","","","",""
"learning-instructions","10","149218","0.0-8.0-0.0-0.2","4284","1","17","Male","approach_avoid_spark_v1","""event"",""trial"",""time""
""fullscreenenter"",""1"",""5504""
","
","
","""event"",""trial"",""time""
""fullscreenenter"",""1"",""5504""
","
","","","","","","4620.5","<p> Your goal in this round is to give out sports equipment to kids. </p></div>","","0","instructions","","","","","","","","","","",""
"learning-instructions","11","157296","0.0-8.0-0.0-0.3","4284","1","17","Male","approach_avoid_spark_v1","""event"",""trial"",""time""
""fullscreenenter"",""1"",""5504""
","
","
","""event"",""trial"",""time""
""fullscreenenter"",""1"",""5504""
","
","","","","","","518.2999999970198","<p> The kids only like some of the equipment.  </p><p> On each turn, you will see a piece of sports equipment.   </p><p> You need to decide whether to give it to the kids or not.  </p>","","0","instructions","","","","","","","","","","",""
"learning-instructions","12","163222","0.0-8.0-0.0-0.4","4284","1","17","Male","approach_avoid_spark_v1","""event"",""trial"",""time""
""fullscreenenter"",""1"",""5504""
","
","
","""event"",""trial"",""time""
""fullscreenenter"",""1"",""5504""
","
","","","","","","1155","<p> You can give them the equipment by pressing 1 and choose not to give it to them by pressing 0. </p><br><div class=""choice-instructions-grid""> <div class=""choice-option""><img src=""images/approach.png"" class=""choice-option-img"" stage=""instructions"" position=""0"" ><div class=""choice-option-text""> Press ""1."" </div></div><div class=""choice-option""><img src=""images/avoid.png"" class=""choice-option-img"" stage=""instructions"" position=""1"" ><div class=""choice-option-text""> Press ""0."" </div></div>","","0","instructions","","","","","","","","","","",""
"learning-instructions","13","172510","0.0-8.0-0.0-0.5","4284","1","17","Male","approach_avoid_spark_v1","""event"",""trial"",""time""
""fullscreenenter"",""1"",""5504""
","
","
","""event"",""trial"",""time""
""fullscreenenter"",""1"",""5504""
","
","","","","","","1892.3999999985099","<p> If you give them a piece of equipment they like, they will be happy! </p><p> But if you give them a piece of equipment they do not like, they will be sad. </p>","","0","instructions","","","","","","","","","","",""
"learning-instructions","14","189784","0.0-8.0-0.0-0.6","4284","1","17","Male","approach_avoid_spark_v1","""event"",""trial"",""time""
""fullscreenenter"",""1"",""5504""
","
","
","""event"",""trial"",""time""
""fullscreenenter"",""1"",""5504""
","
","","","","","","6756.80000000447","<p> You will earn points based on how you make kids feel. </p><p> If you make them happy, you will WIN anywhere from 1 - 9 points, </p><p> but if you make them sad, you will LOSE anywhere from 1 - 9 points. </p>","","0","instructions","","","","","","","","","","",""
"learning-instructions","15","201342","0.0-8.0-0.0-0.7","4284","1","17","Male","approach_avoid_spark_v1","""event"",""trial"",""time""
""fullscreenenter"",""1"",""5504""
","
","
","""event"",""trial"",""time""
""fullscreenenter"",""1"",""5504""
","
","","","","","","1995","<p> You will see how many points you won or lost in the center of the screen. </p><p> Here is what you would see if you won 6 points: </p><p style=""color:green;font-size:50px;font-weight:bolder"">6</p><p style=""color:green"">The text is GREEN because you WON points.</p>","","0","instructions","","","","","","","","","","",""
"learning-instructions","16","213546","0.0-8.0-0.0-0.8","4284","1","17","Male","approach_avoid_spark_v1","""event"",""trial"",""time""
""fullscreenenter"",""1"",""5504""
","
","
","""event"",""trial"",""time""
""fullscreenenter"",""1"",""5504""
","
","","","","","","6698","<p> And here is what you would see if you lost 4 points: </p><p style=""color:red;font-size:50px;font-weight:bolder"">-4</p><p style=""color:red"">The text is RED because you LOST points. </p>","","0","instructions","","","","","","","","","","",""
"learning-instructions","17","229976","0.0-8.0-0.0-0.9","4284","1","17","Male","approach_avoid_spark_v1","""event"",""trial"",""time""
""fullscreenenter"",""1"",""5504""
","
","
","""event"",""trial"",""time""
""fullscreenenter"",""1"",""5504""
","
","","","","","","1708.7999999970198","<p> Some of the equipment will make the kids VERY happy or sad. </p><p> These pieces of equipment will make you win or lose LOTS of points. </p><p> Other pieces of equipment will only make the kids a little happy or sad. </p><p> These pieces of equipment will make you win or lose small amounts of points. </p>","","0","instructions","","","","","","","","","","",""
"learning-instructions","18","242046","0.0-8.0-0.0-0.10","4284","1","17","Male","approach_avoid_spark_v1","""event"",""trial"",""time""
""fullscreenenter"",""1"",""5504""
","
","
","""event"",""trial"",""time""
""fullscreenenter"",""1"",""5504""
","
","","","","","","1438.7000000029802","<p> If you choose not to give them the equipment, you will not win or lose any points. </p><p>  However, in the center of the screen, you will see the number of points you WOULD HAVE won or lost if you had given them the equipment. </p>","","0","instructions","","","","","","","","","","",""
"learning-instructions","19","276773","0.0-8.0-0.0-0.11","4284","1","17","Male","approach_avoid_spark_v1","""event"",""trial"",""time""
""fullscreenenter"",""1"",""5504""
","
","
","""event"",""trial"",""time""
""fullscreenenter"",""1"",""5504""
","
","","","","","","13194.90000000596","<p> Here is what you might see if you did not give the equipment to the kids but it would have made them happy: </p><p style=""color:grey; font-size:50px; display: inline-block; border-spacing: 15px; border-width:3px; border-style:solid; border-color:red"">  &nbsp; 7 &nbsp; </p><p> Remember, in this case, you would not win or lose ANY points because you did not give them the equipment.  </p><p style=""color:grey"">The text is GREY because you earned ZERO points. </p><p style=""color:red"">However, choosing to give the kids the equipment would have made you win points. The box around the text is RED because you chose the worse option. </p>","","0","instructions","","","","","","","","","","",""
"learning-instructions","20","301507","0.0-8.0-0.0-0.12","4284","1","17","Male","approach_avoid_spark_v1","""event"",""trial"",""time""
""fullscreenenter"",""1"",""5504""
","
","
","""event"",""trial"",""time""
""fullscreenenter"",""1"",""5504""
","
","","","","","","3658.3000000044703","<p> Here is what you might see if you did not give the equipment to the kids but it would have made them sad: </p><p style=""color:grey;font-size:50px; display: inline-block; border-spacing: 15px; border-width:3px; border-style:solid; border-color:green"">  &nbsp; -8 &nbsp; </p><p> Remember, in this case, you would not win or lose ANY points because you did not give them the equipment.  </p><p style=""color:grey"">The text is GREY because you earned ZERO points. </p><p  style=""color:green""> Choosing to give the kids the equipment would have made you lose points. The box around the text is GREEN because you chose the better option.</p>","","0","instructions","","","","","","","","","","",""
"learning-instructions","21","315101","0.0-8.0-0.0-0.13","4284","1","17","Male","approach_avoid_spark_v1","""event"",""trial"",""time""
""fullscreenenter"",""1"",""5504""
","
","
","""event"",""trial"",""time""
""fullscreenenter"",""1"",""5504""
","
","","","","","","3962.5","<p> You will have 3 seconds to make each choice. Try to respond before time runs out! </p><p> You will lose 5 points each time you do not make a response. </p>","","0","instructions","","","","","","","","","","",""
"learning-instructions","22","324055","0.0-8.0-0.0-0.14","4284","1","17","Male","approach_avoid_spark_v1","""event"",""trial"",""time""
""fullscreenenter"",""1"",""5504""
","
","
","""event"",""trial"",""time""
""fullscreenenter"",""1"",""5504""
","
","","","","","","3536.2000000029802","<p> This is just a practice round, but in the real game, your bonus payment will depend on your total number of points.","","0","instructions","","","","","","","","","","",""
"learning-instructions","23","334229","0.0-8.0-0.0-0.15","4284","1","17","Male","approach_avoid_spark_v1","""event"",""trial"",""time""
""fullscreenenter"",""1"",""5504""
","
","
","""event"",""trial"",""time""
""fullscreenenter"",""1"",""5504""
","
","","","","","","4390.4000000059605","<p> Remember, you can give them the equipment by pressing 1 and choose not to give it to them by pressing 0. </p><br><div class=""choice-instructions-grid""> <div class=""choice-option""><img src=""images/approach.png"" class=""choice-option-img"" stage=""instructions"" position=""0"" ><div class=""choice-option-text""> Press ""1."" </div></div><div class=""choice-option""><img src=""images/avoid.png"" class=""choice-option-img"" stage=""instructions"" position=""1"" ><div class=""choice-option-text""> Press ""0."" </div></div>","","0","instructions","","","","","","","","","","",""
"html-button-response","24","344789","0.0-8.0-1.0","4284","1","17","Male","approach_avoid_spark_v1","""event"",""trial"",""time""
""fullscreenenter"",""1"",""5504""
","
","
","""event"",""trial"",""time""
""fullscreenenter"",""1"",""5504""
","
","","","","","","10450.5","<p> Ready to practice? </p>","0","","","","","","","","","","","","",""
"html-keyboard-response","25","345416","0.0-8.0-2.0-0.0","4284","1","17","Male","approach_avoid_spark_v1","""event"",""trial"",""time""
""fullscreenenter"",""1"",""5504""
","
","
","""event"",""trial"",""time""
""fullscreenenter"",""1"",""5504""
","
","","","","","","null","<div style=""font-size:60px;"">+</div>","null","","fixation","","","","","","","","","","",""
"aa-learning-trial","26","348436","0.0-8.0-2.0-1.0","4284","1","17","Male","approach_avoid_spark_v1","""event"",""trial"",""time""
""fullscreenenter"",""1"",""5504""
","
","
","""event"",""trial"",""time""
""fullscreenenter"",""1"",""5504""
","
","","","","","","1816.1000000014901","images/racket2.png","","","learning","-3","-3","1","1","practice","practice","practice","-1","","",""
"html-keyboard-response","27","348956","0.0-8.0-2.0-0.1","4284","1","17","Male","approach_avoid_spark_v1","""event"",""trial"",""time""
""fullscreenenter"",""1"",""5504""
","
","
","""event"",""trial"",""time""
""fullscreenenter"",""1"",""5504""
","
","","","","","","null","<div style=""font-size:60px;"">+</div>","null","","fixation","","","","","","","","","","",""
"aa-learning-trial","28","351962","0.0-8.0-2.0-1.1","4284","1","17","Male","approach_avoid_spark_v1","""event"",""trial"",""time""
""fullscreenenter"",""1"",""5504""
","
","
","""event"",""trial"",""time""
""fullscreenenter"",""1"",""5504""
","
","","","","","","1476.8999999985099","images/ball3.png","","","learning","9","9","1","1","practice","practice","practice","-1","","",""
"html-keyboard-response","29","352476","0.0-8.0-2.0-0.2","4284","1","17","Male","approach_avoid_spark_v1","""event"",""trial"",""time""
""fullscreenenter"",""1"",""5504""
","
","
","""event"",""trial"",""time""
""fullscreenenter"",""1"",""5504""
","
","","","","","","null","<div style=""font-size:60px;"">+</div>","null","","fixation","","","","","","","","","","",""
"aa-learning-trial","30","355487","0.0-8.0-2.0-1.2","4284","1","17","Male","approach_avoid_spark_v1","""event"",""trial"",""time""
""fullscreenenter"",""1"",""5504""
","
","
","""event"",""trial"",""time""
""fullscreenenter"",""1"",""5504""
","
","","","","","","1188.7999999970198","images/racket4.png","","","learning","5","5","1","1","practice","practice","practice","-1","","",""
"html-keyboard-response","31","355996","0.0-8.0-2.0-0.3","4284","1","17","Male","approach_avoid_spark_v1","""event"",""trial"",""time""
""fullscreenenter"",""1"",""5504""
","
","
","""event"",""trial"",""time""
""fullscreenenter"",""1"",""5504""
","
","","","","","","null","<div style=""font-size:60px;"">+</div>","null","","fixation","","","","","","","","","","",""
"aa-learning-trial","32","359007","0.0-8.0-2.0-1.3","4284","1","17","Male","approach_avoid_spark_v1","""event"",""trial"",""time""
""fullscreenenter"",""1"",""5504""
","
","
","""event"",""trial"",""time""
""fullscreenenter"",""1"",""5504""
","
","","","","","","643.8000000044703","images/ball4.png","","","learning","2","2","1","1","practice","practice","practice","-1","","",""
"html-keyboard-response","33","359511","0.0-8.0-2.0-0.4","4284","1","17","Male","approach_avoid_spark_v1","""event"",""trial"",""time""
""fullscreenenter"",""1"",""5504""
","
","
","""event"",""trial"",""time""
""fullscreenenter"",""1"",""5504""
","
","","","","","","null","<div style=""font-size:60px;"">+</div>","null","","fixation","","","","","","","","","","",""
"aa-learning-trial","34","362519","0.0-8.0-2.0-1.4","4284","1","17","Male","approach_avoid_spark_v1","""event"",""trial"",""time""
""fullscreenenter"",""1"",""5504""
","
","
","""event"",""trial"",""time""
""fullscreenenter"",""1"",""5504""
","
","","","","","","553.6000000014901","images/ball4.png","","","learning","1","1","1","1","practice","practice","practice","-1","","",""
"html-keyboard-response","35","363023","0.0-8.0-2.0-0.5","4284","1","17","Male","approach_avoid_spark_v1","""event"",""trial"",""time""
""fullscreenenter"",""1"",""5504""
","
","
","""event"",""trial"",""time""
""fullscreenenter"",""1"",""5504""
","
","","","","","","null","<div style=""font-size:60px;"">+</div>","null","","fixation","","","","","","","","","","",""
"aa-learning-trial","36","366030","0.0-8.0-2.0-1.5","4284","1","17","Male","approach_avoid_spark_v1","""event"",""trial"",""time""
""fullscreenenter"",""1"",""5504""
","
","
","""event"",""trial"",""time""
""fullscreenenter"",""1"",""5504""
","
","","","","","","570.6999999955297","images/racket1.png","","","learning","5","5","1","1","practice","practice","practice","-1","","",""
"html-keyboard-response","37","366536","0.0-8.0-2.0-0.6","4284","1","17","Male","approach_avoid_spark_v1","""event"",""trial"",""time""
""fullscreenenter"",""1"",""5504""
","
","
","""event"",""trial"",""time""
""fullscreenenter"",""1"",""5504""
","
","","","","","","null","<div style=""font-size:60px;"">+</div>","null","","fixation","","","","","","","","","","",""
"aa-learning-trial","38","369553","0.0-8.0-2.0-1.6","4284","1","17","Male","approach_avoid_spark_v1","""event"",""trial"",""time""
""fullscreenenter"",""1"",""5504""
","
","
","""event"",""trial"",""time""
""fullscreenenter"",""1"",""5504""
","
","","","","","","512.6000000014901","images/ball1.png","","","learning","5","5","1","1","practice","practice","practice","-1","","",""
"html-keyboard-response","39","370063","0.0-8.0-2.0-0.7","4284","1","17","Male","approach_avoid_spark_v1","""event"",""trial"",""time""
""fullscreenenter"",""1"",""5504""
","
","
","""event"",""trial"",""time""
""fullscreenenter"",""1"",""5504""
","
","","","","","","null","<div style=""font-size:60px;"">+</div>","null","","fixation","","","","","","","","","","",""
"aa-learning-trial","40","373071","0.0-8.0-2.0-1.7","4284","1","17","Male","approach_avoid_spark_v1","""event"",""trial"",""time""
""fullscreenenter"",""1"",""5504""
","
","
","""event"",""trial"",""time""
""fullscreenenter"",""1"",""5504""
","
","","","","","","666","images/ball1.png","","","learning","4","4","1","1","practice","practice","practice","-1","","",""
"html-keyboard-response","41","373590","0.0-8.0-2.0-0.8","4284","1","17","Male","approach_avoid_spark_v1","""event"",""trial"",""time""
""fullscreenenter"",""1"",""5504""
","
","
","""event"",""trial"",""time""
""fullscreenenter"",""1"",""5504""
","
","","","","","","null","<div style=""font-size:60px;"">+</div>","null","","fixation","","","","","","","","","","",""
"aa-learning-trial","42","376599","0.0-8.0-2.0-1.8","4284","1","17","Male","approach_avoid_spark_v1","""event"",""trial"",""time""
""fullscreenenter"",""1"",""5504""
","
","
","""event"",""trial"",""time""
""fullscreenenter"",""1"",""5504""
","
","","","","","","722.7000000029802","images/racket4.png","","","learning","4","4","1","1","practice","practice","practice","-1","","",""
"html-keyboard-response","43","377103","0.0-8.0-2.0-0.9","4284","1","17","Male","approach_avoid_spark_v1","""event"",""trial"",""time""
""fullscreenenter"",""1"",""5504""
","
","
","""event"",""trial"",""time""
""fullscreenenter"",""1"",""5504""
","
","","","","","","null","<div style=""font-size:60px;"">+</div>","null","","fixation","","","","","","","","","","",""
"aa-learning-trial","44","380110","0.0-8.0-2.0-1.9","4284","1","17","Male","approach_avoid_spark_v1","""event"",""trial"",""time""
""fullscreenenter"",""1"",""5504""
","
","
","""event"",""trial"",""time""
""fullscreenenter"",""1"",""5504""
","
","","","","","","442.20000000298023","images/racket3.png","","","learning","4","4","1","1","practice","practice","practice","-1","","",""
"html-keyboard-response","45","380614","0.0-8.0-2.0-0.10","4284","1","17","Male","approach_avoid_spark_v1","""event"",""trial"",""time""
""fullscreenenter"",""1"",""5504""
","
","
","""event"",""trial"",""time""
""fullscreenenter"",""1"",""5504""
","
","","","","","","null","<div style=""font-size:60px;"">+</div>","null","","fixation","","","","","","","","","","",""
"aa-learning-trial","46","383623","0.0-8.0-2.0-1.10","4284","1","17","Male","approach_avoid_spark_v1","""event"",""trial"",""time""
""fullscreenenter"",""1"",""5504""
","
","
","""event"",""trial"",""time""
""fullscreenenter"",""1"",""5504""
","
","","","","","","514.5","images/ball3.png","","","learning","-8","-8","1","1","practice","practice","practice","-1","","",""
"html-keyboard-response","47","384127","0.0-8.0-2.0-0.11","4284","1","17","Male","approach_avoid_spark_v1","""event"",""trial"",""time""
""fullscreenenter"",""1"",""5504""
","
","
","""event"",""trial"",""time""
""fullscreenenter"",""1"",""5504""
","
","","","","","","null","<div style=""font-size:60px;"">+</div>","null","","fixation","","","","","","","","","","",""
"aa-learning-trial","48","387147","0.0-8.0-2.0-1.11","4284","1","17","Male","approach_avoid_spark_v1","""event"",""trial"",""time""
""fullscreenenter"",""1"",""5504""
","
","
","""event"",""trial"",""time""
""fullscreenenter"",""1"",""5504""
","
","","","","","","1930.3000000044703","images/ball2.png","","","learning","3","0","0","0","practice","practice","practice","-1","","",""
"html-button-response","49","389739","0.0-8.0-3.0","4284","1","17","Male","approach_avoid_spark_v1","""event"",""trial"",""time""
""fullscreenenter"",""1"",""5504""
","
","
","""event"",""trial"",""time""
""fullscreenenter"",""1"",""5504""
","
","","","","","","2591","<p> You earned 28 points in the practice round! </p>","0","","break","","","","","","","","","","",""
"learning-instructions","50","434507","0.0-8.0-4.0-0.0","4284","1","17","Male","approach_avoid_spark_v1","""event"",""trial"",""time""
""fullscreenenter"",""1"",""5504""
","
","
","""event"",""trial"",""time""
""fullscreenenter"",""1"",""5504""
","
","","","","","","38387.19999999553","<p> It's almost time to start the real game. </p><p> Before you start, we're going to ask you a few questions about how the game works. </p>","","0","instructions","","","","","","","","","","",""
"preload","51","436039","0.0-8.0-5.0","4284","1","17","Male","approach_avoid_spark_v1","""event"",""trial"",""time""
""fullscreenenter"",""1"",""5504""
","
","
","""event"",""trial"",""time""
""fullscreenenter"",""1"",""5504""
","
","true","false","[]","[]","[]","","","","","","","","","","","","","","","",""
"comp-q","52","442857","0.0-8.0-6.0-0.0","4284","1","17","Male","approach_avoid_spark_v1","""event"",""trial"",""time""
""fullscreenenter"",""1"",""5504""
","
","
","""event"",""trial"",""time""
""fullscreenenter"",""1"",""5504""
","
","","","","","","1442.1000000014901","<p> <b> True or False? </b> </p><p> If you see a number in GREY, that means you earned that many points. </p>","","1","comp_question","","","","","","","","","true","",""
"comp-q","53","453061","0.0-8.0-6.0-1.0","4284","1","17","Male","approach_avoid_spark_v1","""event"",""trial"",""time""
""fullscreenenter"",""1"",""5504""
","
","
","""event"",""trial"",""time""
""fullscreenenter"",""1"",""5504""
","
","","","","","","1826.2000000029802","<p><b> That's right! </b> If you see a grey number, it means you earned ZERO points. <br> The grey numbers show the points you WOULD HAVE earned if you had made the other choice. </p>","","0","comp_answer","","","","","","","","","","",""
"comp-q","54","463675","0.0-8.0-7.0-0.0","4284","1","17","Male","approach_avoid_spark_v1","""event"",""trial"",""time""
""fullscreenenter"",""1"",""5504""
","
","
","""event"",""trial"",""time""
""fullscreenenter"",""1"",""5504""
","
","","","","","","5900.80000000447","<p> <b> True or False? </b> </p><p> You will have as much time as you want to make each choice. </p>","","1","comp_question","","","","","","","","","true","",""
"comp-q","55","471613","0.0-8.0-7.0-1.0","4284","1","17","Male","approach_avoid_spark_v1","""event"",""trial"",""time""
""fullscreenenter"",""1"",""5504""
","
","
","""event"",""trial"",""time""
""fullscreenenter"",""1"",""5504""
","
","","","","","","3888.60000000149","<p> <b> That's right! </b> You will only have 3 seconds to make each choice. </p>","","0","comp_answer","","","","","","","","","","",""
"comp-q","56","479213","0.0-8.0-8.0-0.0","4284","1","17","Male","approach_avoid_spark_v1","""event"",""trial"",""time""
""fullscreenenter"",""1"",""5504""
","
","
","""event"",""trial"",""time""
""fullscreenenter"",""1"",""5504""
","
","","","","","","2928.39999999851","<p> <b> True or False? </b> </p><p> You should use the '1' and '0' keys to make your choices. </p>","","0","comp_question","","","","","","","","","true","",""
"comp-q","57","489219","0.0-8.0-8.0-1.0","4284","1","17","Male","approach_avoid_spark_v1","""event"",""trial"",""time""
""fullscreenenter"",""1"",""5504""
","
","
","""event"",""trial"",""time""
""fullscreenenter"",""1"",""5504""
","
","","","","","","5384.39999999851","<p> <b> That's right! </b> You should use the '1' and '0' keys to make each choice. </p>","","0","comp_answer","","","","","","","","","","",""
"learning-instructions","58","510955","0.0-8.0-9.0-0.0","4284","1","17","Male","approach_avoid_spark_v1","""event"",""trial"",""time""
""fullscreenenter"",""1"",""5504""
","
","
","""event"",""trial"",""time""
""fullscreenenter"",""1"",""5504""
","
","","","","","","15450.20000000298","<p> It's now time to start the real game. </p>Do your best, because the points you earn in the next rounds will influence your bonus payment. </p>","","0","instructions","","","","","","","","","","",""
"preload","59","511087","0.0-9.0-0.0","4284","1","17","Male","approach_avoid_spark_v1","""event"",""trial"",""time""
""fullscreenenter"",""1"",""5504""
","
","
","""event"",""trial"",""time""
""fullscreenenter"",""1"",""5504""
","
","true","false","[]","[]","[]","","","","","","","","","","","","","","","",""
"learning-instructions","60","517583","0.0-9.0-1.0-0.0","4284","1","17","Male","approach_avoid_spark_v1","""event"",""trial"",""time""
""fullscreenenter"",""1"",""5504""
","
","
","""event"",""trial"",""time""
""fullscreenenter"",""1"",""5504""
","
","","","","","","1768.3999999985099","<p> Your goal in this round is to decorate your friend's new house with furniture. </p></div>","","0","instructions","","","","","","","","","","",""
"learning-instructions","61","528949","0.0-9.0-1.0-0.1","4284","1","17","Male","approach_avoid_spark_v1","""event"",""trial"",""time""
""fullscreenenter"",""1"",""5504""
","
","
","""event"",""trial"",""time""
""fullscreenenter"",""1"",""5504""
","
","","","","","","1484.3999999985099","<p> Your friend likes some pieces of furniture but not others.  </p><p> On each turn, you will see a piece of furniture.   </p><p> You need to decide whether to put it in your friend's house or not.  </p>","","0","instructions","","","","","","","","","","",""
"learning-instructions","62","535425","0.0-9.0-1.0-0.2","4284","1","17","Male","approach_avoid_spark_v1","""event"",""trial"",""time""
""fullscreenenter"",""1"",""5504""
","
","
","""event"",""trial"",""time""
""fullscreenenter"",""1"",""5504""
","
","","","","","","650","<p> You can put the furniture in her house by pressing 1 and deliver it elsewhere by pressing 0. </p><br><div class=""choice-instructions-grid""> <div class=""choice-option""><img src=""images/approach.png"" class=""choice-option-img"" stage=""instructions"" position=""0"" ><div class=""choice-option-text""> Press ""1."" </div></div><div class=""choice-option""><img src=""images/avoid.png"" class=""choice-option-img"" stage=""instructions"" position=""1"" ><div class=""choice-option-text""> Press ""0."" </div></div>","","0","instructions","","","","","","","","","","",""
"learning-instructions","63","544957","0.0-9.0-1.0-0.3","4284","1","17","Male","approach_avoid_spark_v1","""event"",""trial"",""time""
""fullscreenenter"",""1"",""5504""
","
","
","""event"",""trial"",""time""
""fullscreenenter"",""1"",""5504""
","
","","","","","","562.2999999970198","<p> If you decorate your friend's house with furniture she likes, she will be happy! </p><p> But if you give her furniture that she does not like, she will be annoyed. </p>","","0","instructions","","","","","","","","","","",""
"learning-instructions","64","557495","0.0-9.0-1.0-0.4","4284","1","17","Male","approach_avoid_spark_v1","""event"",""trial"",""time""
""fullscreenenter"",""1"",""5504""
","
","
","""event"",""trial"",""time""
""fullscreenenter"",""1"",""5504""
","
","","","","","","310.5","<p> You will earn points based on how you made your friend feel. </p><p> If you made her happy, you will WIN anywhere from 1 - 9 points, </p><p> but if you made her annoyed you will LOSE anywhere from 1 - 9 points. </p>","","0","instructions","","","","","","","","","","",""
"learning-instructions","65","566245","0.0-9.0-1.0-0.5","4284","1","17","Male","approach_avoid_spark_v1","""event"",""trial"",""time""
""fullscreenenter"",""1"",""5504""
","
","
","""event"",""trial"",""time""
""fullscreenenter"",""1"",""5504""
","
","","","","","","1081.1000000014901","<p> You will see how many points you won or lost in the center of the screen. </p><p> Here is what you would see if you won 5 points: </p><p style=""color:green;font-size:50px;font-weight:bolder"">5</p>","","0","instructions","","","","","","","","","","",""
"learning-instructions","66","570039","0.0-9.0-1.0-0.6","4284","1","17","Male","approach_avoid_spark_v1","""event"",""trial"",""time""
""fullscreenenter"",""1"",""5504""
","
","
","""event"",""trial"",""time""
""fullscreenenter"",""1"",""5504""
","
","","","","","","274.8999999985099","<p> And here is what you would see if you lost 3 points: </p><p style=""color:red;font-size:50px;font-weight:bolder"">-3</p>","","0","instructions","","","","","","","","","","",""
"learning-instructions","67","587979","0.0-9.0-1.0-0.7","4284","1","17","Male","approach_avoid_spark_v1","""event"",""trial"",""time""
""fullscreenenter"",""1"",""5504""
","
","
","""event"",""trial"",""time""
""fullscreenenter"",""1"",""5504""
","
","","","","","","574.2999999970198","<p> Some pieces of furniture will make her feel very happy or very annoyed. </p><p> These pieces of furniture will make you win or lose LOTS of points. </p><p> Other pieces of furniture will only make her feel a little happy or a little annoyed. </p><p> These pieces of furniture will make you win or lose small amounts of points. </p>","","0","instructions","","","","","","","","","","",""
"learning-instructions","68","602217","0.0-9.0-1.0-0.8","4284","1","17","Male","approach_avoid_spark_v1","""event"",""trial"",""time""
""fullscreenenter"",""1"",""5504""
","
","
","""event"",""trial"",""time""
""fullscreenenter"",""1"",""5504""
","
","","","","","","1313","<p> If you choose to deliver a piece of furniture elsewhere, you will not win or lose any points. </p><p>  However, in the center of the screen, you will see the number of points you WOULD HAVE won or lost if you had given the furniture to your friend. </p>","","0","instructions","","","","","","","","","","",""
"learning-instructions","69","626779","0.0-9.0-1.0-0.9","4284","1","17","Male","approach_avoid_spark_v1","""event"",""trial"",""time""
""fullscreenenter"",""1"",""5504""
","
","
","""event"",""trial"",""time""
""fullscreenenter"",""1"",""5504""
","
","","","","","","12994.09999999404","<p> Here is what you might see if you did not give a piece of furniture to your friend that would have made her happy: </p><p style=""color:grey; font-size:50px; display: inline-block; border-spacing: 15px; border-width:3px; border-style:solid; border-color:red"">  &nbsp; 6 &nbsp; </p><p> Remember, in this case, you would not win or lose ANY points because you did not give her the furniture.  </p>","","0","instructions","","","","","","","","","","",""
"learning-instructions","70","760186","0.0-9.0-1.0-0.10","4284","1","17","Male","approach_avoid_spark_v1","""event"",""trial"",""time""
""fullscreenenter"",""1"",""5504""
","
","
","""event"",""trial"",""time""
""fullscreenenter"",""1"",""5504""
","
","","","","","","125702.09999999404","<p> Try to make the best choice for each piece of furniture because </p><p> at the end of the game, you will earn bonus money based on how many points you earned. </p>","","0","instructions","","","","","","","","","","",""
"learning-instructions","71","770144","0.0-9.0-1.0-0.11","4284","1","17","Male","approach_avoid_spark_v1","""event"",""trial"",""time""
""fullscreenenter"",""1"",""5504""
","
","
","""event"",""trial"",""time""
""fullscreenenter"",""1"",""5504""
","
","","","","","","1360.7999999970198","<p> You will have 3 seconds to make each choice. Try to respond before time runs out! </p><p> You will lose 5 points each time you do not make a response. </p>","","0","instructions","","","","","","","","","","",""
"html-keyboard-response","72","770772","0.0-9.0-2.0-0.0","4284","1","17","Male","approach_avoid_spark_v1","""event"",""trial"",""time""
""fullscreenenter"",""1"",""5504""
","
","
","""event"",""trial"",""time""
""fullscreenenter"",""1"",""5504""
","
","","","","","","null","<div style=""font-size:60px;"">+</div>","null","","fixation","","","","","","","","","","",""
"aa-learning-trial","73","773801","0.0-9.0-2.0-1.0","4284","1","17","Male","approach_avoid_spark_v1","""event"",""trial"",""time""
""fullscreenenter"",""1"",""5504""
","
","
","""event"",""trial"",""time""
""fullscreenenter"",""1"",""5504""
","
","","","","","","1284.3999999985099","images/chair1.png","","","learning","5","5","1","1","chair","furniture","1","0","","good","[5]"
"html-keyboard-response","74","774311","0.0-9.0-2.0-0.1","4284","1","17","Male","approach_avoid_spark_v1","""event"",""trial"",""time""
""fullscreenenter"",""1"",""5504""
","
","
","""event"",""trial"",""time""
""fullscreenenter"",""1"",""5504""
","
","","","","","","null","<div style=""font-size:60px;"">+</div>","null","","fixation","","","","","","","","","","",""
"aa-learning-trial","75","777332","0.0-9.0-2.0-1.1","4284","1","17","Male","approach_avoid_spark_v1","""event"",""trial"",""time""
""fullscreenenter"",""1"",""5504""
","
","
","""event"",""trial"",""time""
""fullscreenenter"",""1"",""5504""
","
","","","","","","976.8000000044703","images/table7.png","","","learning","-3","0","0","0","table","furniture","1","0","","bad","[-3]"
"html-keyboard-response","76","777852","0.0-9.0-2.0-0.2","4284","1","17","Male","approach_avoid_spark_v1","""event"",""trial"",""time""
""fullscreenenter"",""1"",""5504""
","
","
","""event"",""trial"",""time""
""fullscreenenter"",""1"",""5504""
","
","","","","","","null","<div style=""font-size:60px;"">+</div>","null","","fixation","","","","","","","","","","",""
"aa-learning-trial","77","780881","0.0-9.0-2.0-1.2","4284","1","17","Male","approach_avoid_spark_v1","""event"",""trial"",""time""
""fullscreenenter"",""1"",""5504""
","
","
","""event"",""trial"",""time""
""fullscreenenter"",""1"",""5504""
","
","","","","","","510.30000000447035","images/table4.png","","","learning","-5","-5","1","1","table","furniture","1","0","","bad","[-3]"
"html-keyboard-response","78","781401","0.0-9.0-2.0-0.3","4284","1","17","Male","approach_avoid_spark_v1","""event"",""trial"",""time""
""fullscreenenter"",""1"",""5504""
","
","
","""event"",""trial"",""time""
""fullscreenenter"",""1"",""5504""
","
","","","","","","null","<div style=""font-size:60px;"">+</div>","null","","fixation","","","","","","","","","","",""
"aa-learning-trial","79","784422","0.0-9.0-2.0-1.3","4284","1","17","Male","approach_avoid_spark_v1","""event"",""trial"",""time""
""fullscreenenter"",""1"",""5504""
","
","
","""event"",""trial"",""time""
""fullscreenenter"",""1"",""5504""
","
","","","","","","479.29999999701977","images/chair7.png","","","learning","8","8","1","1","chair","furniture","1","0","","good","[5]"
"html-keyboard-response","80","784941","0.0-9.0-2.0-0.4","4284","1","17","Male","approach_avoid_spark_v1","""event"",""trial"",""time""
""fullscreenenter"",""1"",""5504""
","
","
","""event"",""trial"",""time""
""fullscreenenter"",""1"",""5504""
","
","","","","","","null","<div style=""font-size:60px;"">+</div>","null","","fixation","","","","","","","","","","",""
"aa-learning-trial","81","787961","0.0-9.0-2.0-1.4","4284","1","17","Male","approach_avoid_spark_v1","""event"",""trial"",""time""
""fullscreenenter"",""1"",""5504""
","
","
","""event"",""trial"",""time""
""fullscreenenter"",""1"",""5504""
","
","","","","","","1035.2000000029802","images/chair8.png","","","learning","5","5","1","1","chair","furniture","1","0","","good","[5]"
"html-keyboard-response","82","788472","0.0-9.0-2.0-0.5","4284","1","17","Male","approach_avoid_spark_v1","""event"",""trial"",""time""
""fullscreenenter"",""1"",""5504""
","
","
","""event"",""trial"",""time""
""fullscreenenter"",""1"",""5504""
","
","","","","","","null","<div style=""font-size:60px;"">+</div>","null","","fixation","","","","","","","","","","",""
"aa-learning-trial","83","791492","0.0-9.0-2.0-1.5","4284","1","17","Male","approach_avoid_spark_v1","""event"",""trial"",""time""
""fullscreenenter"",""1"",""5504""
","
","
","""event"",""trial"",""time""
""fullscreenenter"",""1"",""5504""
","
","","","","","","640.7999999970198","images/bed1.png","","","learning","1","1","1","1","bed","furniture","1","0","","neutral","0"
"html-keyboard-response","84","792012","0.0-9.0-2.0-0.6","4284","1","17","Male","approach_avoid_spark_v1","""event"",""trial"",""time""
""fullscreenenter"",""1"",""5504""
","
","
","""event"",""trial"",""time""
""fullscreenenter"",""1"",""5504""
","
","","","","","","null","<div style=""font-size:60px;"">+</div>","null","","fixation","","","","","","","","","","",""
"aa-learning-trial","85","795042","0.0-9.0-2.0-1.6","4284","1","17","Male","approach_avoid_spark_v1","""event"",""trial"",""time""
""fullscreenenter"",""1"",""5504""
","
","
","""event"",""trial"",""time""
""fullscreenenter"",""1"",""5504""
","
","","","","","","844.6000000014901","images/table8.png","","","learning","-3","0","0","0","table","furniture","1","0","","bad","[-3]"
"html-keyboard-response","86","795561","0.0-9.0-2.0-0.7","4284","1","17","Male","approach_avoid_spark_v1","""event"",""trial"",""time""
""fullscreenenter"",""1"",""5504""
","
","
","""event"",""trial"",""time""
""fullscreenenter"",""1"",""5504""
","
","","","","","","null","<div style=""font-size:60px;"">+</div>","null","","fixation","","","","","","","","","","",""
"aa-learning-trial","87","798582","0.0-9.0-2.0-1.7","4284","1","17","Male","approach_avoid_spark_v1","""event"",""trial"",""time""
""fullscreenenter"",""1"",""5504""
","
","
","""event"",""trial"",""time""
""fullscreenenter"",""1"",""5504""
","
","","","","","","463.1000000014901","images/chair7.png","","","learning","4","4","1","1","chair","furniture","1","0","","good","[5]"
"html-keyboard-response","88","799099","0.0-9.0-2.0-0.8","4284","1","17","Male","approach_avoid_spark_v1","""event"",""trial"",""time""
""fullscreenenter"",""1"",""5504""
","
","
","""event"",""trial"",""time""
""fullscreenenter"",""1"",""5504""
","
","","","","","","null","<div style=""font-size:60px;"">+</div>","null","","fixation","","","","","","","","","","",""
"aa-learning-trial","89","802102","0.0-9.0-2.0-1.8","4284","1","17","Male","approach_avoid_spark_v1","""event"",""trial"",""time""
""fullscreenenter"",""1"",""5504""
","
","
","""event"",""trial"",""time""
""fullscreenenter"",""1"",""5504""
","
","","","","","","701.3000000044703","images/table7.png","","","learning","-3","0","0","0","table","furniture","1","0","","bad","[-3]"
"html-keyboard-response","90","802611","0.0-9.0-2.0-0.9","4284","1","17","Male","approach_avoid_spark_v1","""event"",""trial"",""time""
""fullscreenenter"",""1"",""5504""
","
","
","""event"",""trial"",""time""
""fullscreenenter"",""1"",""5504""
","
","","","","","","null","<div style=""font-size:60px;"">+</div>","null","","fixation","","","","","","","","","","",""
"aa-learning-trial","91","805613","0.0-9.0-2.0-1.9","4284","1","17","Male","approach_avoid_spark_v1","""event"",""trial"",""time""
""fullscreenenter"",""1"",""5504""
","
","
","""event"",""trial"",""time""
""fullscreenenter"",""1"",""5504""
","
","","","","","","421.79999999701977","images/chair8.png","","","learning","6","6","1","1","chair","furniture","1","0","","good","[5]"
"html-keyboard-response","92","806119","0.0-9.0-2.0-0.10","4284","1","17","Male","approach_avoid_spark_v1","""event"",""trial"",""time""
""fullscreenenter"",""1"",""5504""
","
","
","""event"",""trial"",""time""
""fullscreenenter"",""1"",""5504""
","
","","","","","","null","<div style=""font-size:60px;"">+</div>","null","","fixation","","","","","","","","","","",""
"aa-learning-trial","93","809125","0.0-9.0-2.0-1.10","4284","1","17","Male","approach_avoid_spark_v1","""event"",""trial"",""time""
""fullscreenenter"",""1"",""5504""
","
","
","""event"",""trial"",""time""
""fullscreenenter"",""1"",""5504""
","
","","","","","","497.69999999552965","images/bed3.png","","","learning","-1","-1","1","1","bed","furniture","1","0","","neutral","0"
"html-keyboard-response","94","809631","0.0-9.0-2.0-0.11","4284","1","17","Male","approach_avoid_spark_v1","""event"",""trial"",""time""
""fullscreenenter"",""1"",""5504""
","
","
","""event"",""trial"",""time""
""fullscreenenter"",""1"",""5504""
","
","","","","","","null","<div style=""font-size:60px;"">+</div>","null","","fixation","","","","","","","","","","",""
"aa-learning-trial","95","812639","0.0-9.0-2.0-1.11","4284","1","17","Male","approach_avoid_spark_v1","""event"",""trial"",""time""
""fullscreenenter"",""1"",""5504""
","
","
","""event"",""trial"",""time""
""fullscreenenter"",""1"",""5504""
","
","","","","","","793.3999999985099","images/bed3.png","","","learning","[1]","0","0","0","bed","furniture","1","0","","neutral","0"
"html-keyboard-response","96","813142","0.0-9.0-2.0-0.12","4284","1","17","Male","approach_avoid_spark_v1","""event"",""trial"",""time""
""fullscreenenter"",""1"",""5504""
","
","
","""event"",""trial"",""time""
""fullscreenenter"",""1"",""5504""
","
","","","","","","null","<div style=""font-size:60px;"">+</div>","null","","fixation","","","","","","","","","","",""
"aa-learning-trial","97","816150","0.0-9.0-2.0-1.12","4284","1","17","Male","approach_avoid_spark_v1","""event"",""trial"",""time""
""fullscreenenter"",""1"",""5504""
","
","
","""event"",""trial"",""time""
""fullscreenenter"",""1"",""5504""
","
","","","","","","1314.7000000029802","images/table4.png","","","learning","2","0","0","0","table","furniture","1","0","","bad","[-3]"
"html-keyboard-response","98","816655","0.0-9.0-2.0-0.13","4284","1","17","Male","approach_avoid_spark_v1","""event"",""trial"",""time""
""fullscreenenter"",""1"",""5504""
","
","
","""event"",""trial"",""time""
""fullscreenenter"",""1"",""5504""
","
","","","","","","null","<div style=""font-size:60px;"">+</div>","null","","fixation","","","","","","","","","","",""
"aa-learning-trial","99","819669","0.0-9.0-2.0-1.13","4284","1","17","Male","approach_avoid_spark_v1","""event"",""trial"",""time""
""fullscreenenter"",""1"",""5504""
","
","
","""event"",""trial"",""time""
""fullscreenenter"",""1"",""5504""
","
","","","","","","1322.1000000014901","images/bed4.png","","","learning","1","0","0","0","bed","furniture","1","0","","neutral","0"
"html-keyboard-response","100","820175","0.0-9.0-2.0-0.14","4284","1","17","Male","approach_avoid_spark_v1","""event"",""trial"",""time""
""fullscreenenter"",""1"",""5504""
","
","
","""event"",""trial"",""time""
""fullscreenenter"",""1"",""5504""
","
","","","","","","null","<div style=""font-size:60px;"">+</div>","null","","fixation","","","","","","","","","","",""
"aa-learning-trial","101","823183","0.0-9.0-2.0-1.14","4284","1","17","Male","approach_avoid_spark_v1","""event"",""trial"",""time""
""fullscreenenter"",""1"",""5504""
","
","
","""event"",""trial"",""time""
""fullscreenenter"",""1"",""5504""
","
","","","","","","618.3000000044703","images/bed4.png","","","learning","2","2","1","1","bed","furniture","1","0","","neutral","0"
"html-keyboard-response","102","823692","0.0-9.0-2.0-0.15","4284","1","17","Male","approach_avoid_spark_v1","""event"",""trial"",""time""
""fullscreenenter"",""1"",""5504""
","
","
","""event"",""trial"",""time""
""fullscreenenter"",""1"",""5504""
","
","","","","","","null","<div style=""font-size:60px;"">+</div>","null","","fixation","","","","","","","","","","",""
"aa-learning-trial","103","826696","0.0-9.0-2.0-1.15","4284","1","17","Male","approach_avoid_spark_v1","""event"",""trial"",""time""
""fullscreenenter"",""1"",""5504""
","
","
","""event"",""trial"",""time""
""fullscreenenter"",""1"",""5504""
","
","","","","","","1357.5","images/table4.png","","","learning","-4","0","0","0","table","furniture","1","0","","bad","[-3]"
"html-keyboard-response","104","827200","0.0-9.0-2.0-0.16","4284","1","17","Male","approach_avoid_spark_v1","""event"",""trial"",""time""
""fullscreenenter"",""1"",""5504""
","
","
","""event"",""trial"",""time""
""fullscreenenter"",""1"",""5504""
","
","","","","","","null","<div style=""font-size:60px;"">+</div>","null","","fixation","","","","","","","","","","",""
"aa-learning-trial","105","830207","0.0-9.0-2.0-1.16","4284","1","17","Male","approach_avoid_spark_v1","""event"",""trial"",""time""
""fullscreenenter"",""1"",""5504""
","
","
","""event"",""trial"",""time""
""fullscreenenter"",""1"",""5504""
","
","","","","","","697.2000000029802","images/bed3.png","","","learning","[1]","0","0","0","bed","furniture","1","0","","neutral","0"
"html-keyboard-response","106","830711","0.0-9.0-2.0-0.17","4284","1","17","Male","approach_avoid_spark_v1","""event"",""trial"",""time""
""fullscreenenter"",""1"",""5504""
","
","
","""event"",""trial"",""time""
""fullscreenenter"",""1"",""5504""
","
","","","","","","null","<div style=""font-size:60px;"">+</div>","null","","fixation","","","","","","","","","","",""
"aa-learning-trial","107","833719","0.0-9.0-2.0-1.17","4284","1","17","Male","approach_avoid_spark_v1","""event"",""trial"",""time""
""fullscreenenter"",""1"",""5504""
","
","
","""event"",""trial"",""time""
""fullscreenenter"",""1"",""5504""
","
","","","","","","578.6000000014901","images/bed3.png","","","learning","2","2","1","1","bed","furniture","1","0","","neutral","0"
"html-keyboard-response","108","834222","0.0-9.0-2.0-0.18","4284","1","17","Male","approach_avoid_spark_v1","""event"",""trial"",""time""
""fullscreenenter"",""1"",""5504""
","
","
","""event"",""trial"",""time""
""fullscreenenter"",""1"",""5504""
","
","","","","","","null","<div style=""font-size:60px;"">+</div>","null","","fixation","","","","","","","","","","",""
"aa-learning-trial","109","837232","0.0-9.0-2.0-1.18","4284","1","17","Male","approach_avoid_spark_v1","""event"",""trial"",""time""
""fullscreenenter"",""1"",""5504""
","
","
","""event"",""trial"",""time""
""fullscreenenter"",""1"",""5504""
","
","","","","","","907.0999999940395","images/chair8.png","","","learning","5","5","1","1","chair","furniture","1","0","","good","[5]"
"html-keyboard-response","110","837738","0.0-9.0-2.0-0.19","4284","1","17","Male","approach_avoid_spark_v1","""event"",""trial"",""time""
""fullscreenenter"",""1"",""5504""
","
","
","""event"",""trial"",""time""
""fullscreenenter"",""1"",""5504""
","
","","","","","","null","<div style=""font-size:60px;"">+</div>","null","","fixation","","","","","","","","","","",""
"aa-learning-trial","111","840743","0.0-9.0-2.0-1.19","4284","1","17","Male","approach_avoid_spark_v1","""event"",""trial"",""time""
""fullscreenenter"",""1"",""5504""
","
","
","""event"",""trial"",""time""
""fullscreenenter"",""1"",""5504""
","
","","","","","","495.5","images/chair8.png","","","learning","6","6","1","1","chair","furniture","1","0","","good","[5]"
"html-keyboard-response","112","841247","0.0-9.0-2.0-0.20","4284","1","17","Male","approach_avoid_spark_v1","""event"",""trial"",""time""
""fullscreenenter"",""1"",""5504""
","
","
","""event"",""trial"",""time""
""fullscreenenter"",""1"",""5504""
","
","","","","","","null","<div style=""font-size:60px;"">+</div>","null","","fixation","","","","","","","","","","",""
"aa-learning-trial","113","844254","0.0-9.0-2.0-1.20","4284","1","17","Male","approach_avoid_spark_v1","""event"",""trial"",""time""
""fullscreenenter"",""1"",""5504""
","
","
","""event"",""trial"",""time""
""fullscreenenter"",""1"",""5504""
","
","","","","","","506.70000000298023","images/chair3.png","","","learning","7","7","1","1","chair","furniture","1","0","","good","[5]"
"html-keyboard-response","114","844761","0.0-9.0-2.0-0.21","4284","1","17","Male","approach_avoid_spark_v1","""event"",""trial"",""time""
""fullscreenenter"",""1"",""5504""
","
","
","""event"",""trial"",""time""
""fullscreenenter"",""1"",""5504""
","
","","","","","","null","<div style=""font-size:60px;"">+</div>","null","","fixation","","","","","","","","","","",""
"aa-learning-trial","115","847767","0.0-9.0-2.0-1.21","4284","1","17","Male","approach_avoid_spark_v1","""event"",""trial"",""time""
""fullscreenenter"",""1"",""5504""
","
","
","""event"",""trial"",""time""
""fullscreenenter"",""1"",""5504""
","
","","","","","","704.7999999970198","images/bed4.png","","","learning","-3","-3","1","1","bed","furniture","1","0","","neutral","0"
"html-keyboard-response","116","848272","0.0-9.0-2.0-0.22","4284","1","17","Male","approach_avoid_spark_v1","""event"",""trial"",""time""
""fullscreenenter"",""1"",""5504""
","
","
","""event"",""trial"",""time""
""fullscreenenter"",""1"",""5504""
","
","","","","","","null","<div style=""font-size:60px;"">+</div>","null","","fixation","","","","","","","","","","",""
"aa-learning-trial","117","851278","0.0-9.0-2.0-1.22","4284","1","17","Male","approach_avoid_spark_v1","""event"",""trial"",""time""
""fullscreenenter"",""1"",""5504""
","
","
","""event"",""trial"",""time""
""fullscreenenter"",""1"",""5504""
","
","","","","","","778.3000000044703","images/bed1.png","","","learning","1","1","1","1","bed","furniture","1","0","","neutral","0"
"html-keyboard-response","118","851783","0.0-9.0-2.0-0.23","4284","1","17","Male","approach_avoid_spark_v1","""event"",""trial"",""time""
""fullscreenenter"",""1"",""5504""
","
","
","""event"",""trial"",""time""
""fullscreenenter"",""1"",""5504""
","
","","","","","","null","<div style=""font-size:60px;"">+</div>","null","","fixation","","","","","","","","","","",""
"aa-learning-trial","119","854790","0.0-9.0-2.0-1.23","4284","1","17","Male","approach_avoid_spark_v1","""event"",""trial"",""time""
""fullscreenenter"",""1"",""5504""
","
","
","""event"",""trial"",""time""
""fullscreenenter"",""1"",""5504""
","
","","","","","","434.5","images/table4.png","","","learning","-2","-2","1","1","table","furniture","1","0","","bad","[-3]"
"html-keyboard-response","120","855308","0.0-9.0-2.0-0.24","4284","1","17","Male","approach_avoid_spark_v1","""event"",""trial"",""time""
""fullscreenenter"",""1"",""5504""
","
","
","""event"",""trial"",""time""
""fullscreenenter"",""1"",""5504""
","
","","","","","","null","<div style=""font-size:60px;"">+</div>","null","","fixation","","","","","","","","","","",""
"aa-learning-trial","121","858324","0.0-9.0-2.0-1.24","4284","1","17","Male","approach_avoid_spark_v1","""event"",""trial"",""time""
""fullscreenenter"",""1"",""5504""
","
","
","""event"",""trial"",""time""
""fullscreenenter"",""1"",""5504""
","
","","","","","","621.5","images/bed3.png","","","learning","2","2","1","1","bed","furniture","1","0","","neutral","0"
"html-keyboard-response","122","858831","0.0-9.0-2.0-0.25","4284","1","17","Male","approach_avoid_spark_v1","""event"",""trial"",""time""
""fullscreenenter"",""1"",""5504""
","
","
","""event"",""trial"",""time""
""fullscreenenter"",""1"",""5504""
","
","","","","","","null","<div style=""font-size:60px;"">+</div>","null","","fixation","","","","","","","","","","",""
"aa-learning-trial","123","861840","0.0-9.0-2.0-1.25","4284","1","17","Male","approach_avoid_spark_v1","""event"",""trial"",""time""
""fullscreenenter"",""1"",""5504""
","
","
","""event"",""trial"",""time""
""fullscreenenter"",""1"",""5504""
","
","","","","","","579.0999999940395","images/table7.png","","","learning","-3","0","0","0","table","furniture","1","0","","bad","[-3]"
"html-keyboard-response","124","862342","0.0-9.0-2.0-0.26","4284","1","17","Male","approach_avoid_spark_v1","""event"",""trial"",""time""
""fullscreenenter"",""1"",""5504""
","
","
","""event"",""trial"",""time""
""fullscreenenter"",""1"",""5504""
","
","","","","","","null","<div style=""font-size:60px;"">+</div>","null","","fixation","","","","","","","","","","",""
"aa-learning-trial","125","865352","0.0-9.0-2.0-1.26","4284","1","17","Male","approach_avoid_spark_v1","""event"",""trial"",""time""
""fullscreenenter"",""1"",""5504""
","
","
","""event"",""trial"",""time""
""fullscreenenter"",""1"",""5504""
","
","","","","","","427.5","images/chair7.png","","","learning","7","7","1","1","chair","furniture","1","0","","good","[5]"
"html-keyboard-response","126","865863","0.0-9.0-2.0-0.27","4284","1","17","Male","approach_avoid_spark_v1","""event"",""trial"",""time""
""fullscreenenter"",""1"",""5504""
","
","
","""event"",""trial"",""time""
""fullscreenenter"",""1"",""5504""
","
","","","","","","null","<div style=""font-size:60px;"">+</div>","null","","fixation","","","","","","","","","","",""
"aa-learning-trial","127","868872","0.0-9.0-2.0-1.27","4284","1","17","Male","approach_avoid_spark_v1","""event"",""trial"",""time""
""fullscreenenter"",""1"",""5504""
","
","
","""event"",""trial"",""time""
""fullscreenenter"",""1"",""5504""
","
","","","","","","650.2999999970198","images/table4.png","","","learning","-3","0","0","0","table","furniture","1","0","","bad","[-3]"
"html-keyboard-response","128","869389","0.0-9.0-2.0-0.28","4284","1","17","Male","approach_avoid_spark_v1","""event"",""trial"",""time""
""fullscreenenter"",""1"",""5504""
","
","
","""event"",""trial"",""time""
""fullscreenenter"",""1"",""5504""
","
","","","","","","null","<div style=""font-size:60px;"">+</div>","null","","fixation","","","","","","","","","","",""
"aa-learning-trial","129","872399","0.0-9.0-2.0-1.28","4284","1","17","Male","approach_avoid_spark_v1","""event"",""trial"",""time""
""fullscreenenter"",""1"",""5504""
","
","
","""event"",""trial"",""time""
""fullscreenenter"",""1"",""5504""
","
","","","","","","964.1999999955297","images/table5.png","","","learning","-3","0","0","0","table","furniture","1","0","","bad","[-3]"
"html-keyboard-response","130","872902","0.0-9.0-2.0-0.29","4284","1","17","Male","approach_avoid_spark_v1","""event"",""trial"",""time""
""fullscreenenter"",""1"",""5504""
","
","
","""event"",""trial"",""time""
""fullscreenenter"",""1"",""5504""
","
","","","","","","null","<div style=""font-size:60px;"">+</div>","null","","fixation","","","","","","","","","","",""
"aa-learning-trial","131","875912","0.0-9.0-2.0-1.29","4284","1","17","Male","approach_avoid_spark_v1","""event"",""trial"",""time""
""fullscreenenter"",""1"",""5504""
","
","
","""event"",""trial"",""time""
""fullscreenenter"",""1"",""5504""
","
","","","","","","587.7000000029802","images/table8.png","","","learning","-3","0","0","0","table","furniture","1","0","","bad","[-3]"
"html-keyboard-response","132","876415","0.0-9.0-2.0-0.30","4284","1","17","Male","approach_avoid_spark_v1","""event"",""trial"",""time""
""fullscreenenter"",""1"",""5504""
","
","
","""event"",""trial"",""time""
""fullscreenenter"",""1"",""5504""
","
","","","","","","null","<div style=""font-size:60px;"">+</div>","null","","fixation","","","","","","","","","","",""
"aa-learning-trial","133","879423","0.0-9.0-2.0-1.30","4284","1","17","Male","approach_avoid_spark_v1","""event"",""trial"",""time""
""fullscreenenter"",""1"",""5504""
","
","
","""event"",""trial"",""time""
""fullscreenenter"",""1"",""5504""
","
","","","","","","658.1000000014901","images/table7.png","","","learning","-2","0","0","0","table","furniture","1","0","","bad","[-3]"
"html-keyboard-response","134","879940","0.0-9.0-2.0-0.31","4284","1","17","Male","approach_avoid_spark_v1","""event"",""trial"",""time""
""fullscreenenter"",""1"",""5504""
","
","
","""event"",""trial"",""time""
""fullscreenenter"",""1"",""5504""
","
","","","","","","null","<div style=""font-size:60px;"">+</div>","null","","fixation","","","","","","","","","","",""
"aa-learning-trial","135","882948","0.0-9.0-2.0-1.31","4284","1","17","Male","approach_avoid_spark_v1","""event"",""trial"",""time""
""fullscreenenter"",""1"",""5504""
","
","
","""event"",""trial"",""time""
""fullscreenenter"",""1"",""5504""
","
","","","","","","557.6999999955297","images/chair8.png","","","learning","6","6","1","1","chair","furniture","1","0","","good","[5]"
"html-keyboard-response","136","883454","0.0-9.0-2.0-0.32","4284","1","17","Male","approach_avoid_spark_v1","""event"",""trial"",""time""
""fullscreenenter"",""1"",""5504""
","
","
","""event"",""trial"",""time""
""fullscreenenter"",""1"",""5504""
","
","","","","","","null","<div style=""font-size:60px;"">+</div>","null","","fixation","","","","","","","","","","",""
"aa-learning-trial","137","886462","0.0-9.0-2.0-1.32","4284","1","17","Male","approach_avoid_spark_v1","""event"",""trial"",""time""
""fullscreenenter"",""1"",""5504""
","
","
","""event"",""trial"",""time""
""fullscreenenter"",""1"",""5504""
","
","","","","","","627.1999999955297","images/table4.png","","","learning","-1","0","0","0","table","furniture","1","0","","bad","[-3]"
"html-keyboard-response","138","886966","0.0-9.0-2.0-0.33","4284","1","17","Male","approach_avoid_spark_v1","""event"",""trial"",""time""
""fullscreenenter"",""1"",""5504""
","
","
","""event"",""trial"",""time""
""fullscreenenter"",""1"",""5504""
","
","","","","","","null","<div style=""font-size:60px;"">+</div>","null","","fixation","","","","","","","","","","",""
"aa-learning-trial","139","889975","0.0-9.0-2.0-1.33","4284","1","17","Male","approach_avoid_spark_v1","""event"",""trial"",""time""
""fullscreenenter"",""1"",""5504""
","
","
","""event"",""trial"",""time""
""fullscreenenter"",""1"",""5504""
","
","","","","","","658.6000000014901","images/table7.png","","","learning","-4","0","0","0","table","furniture","1","0","","bad","[-3]"
"html-keyboard-response","140","890478","0.0-9.0-2.0-0.34","4284","1","17","Male","approach_avoid_spark_v1","""event"",""trial"",""time""
""fullscreenenter"",""1"",""5504""
","
","
","""event"",""trial"",""time""
""fullscreenenter"",""1"",""5504""
","
","","","","","","null","<div style=""font-size:60px;"">+</div>","null","","fixation","","","","","","","","","","",""
"aa-learning-trial","141","893487","0.0-9.0-2.0-1.34","4284","1","17","Male","approach_avoid_spark_v1","""event"",""trial"",""time""
""fullscreenenter"",""1"",""5504""
","
","
","""event"",""trial"",""time""
""fullscreenenter"",""1"",""5504""
","
","","","","","","891.2999999970198","images/chair1.png","","","learning","5","5","1","1","chair","furniture","1","0","","good","[5]"
"html-keyboard-response","142","893995","0.0-9.0-2.0-0.35","4284","1","17","Male","approach_avoid_spark_v1","""event"",""trial"",""time""
""fullscreenenter"",""1"",""5504""
","
","
","""event"",""trial"",""time""
""fullscreenenter"",""1"",""5504""
","
","","","","","","null","<div style=""font-size:60px;"">+</div>","null","","fixation","","","","","","","","","","",""
"aa-learning-trial","143","896998","0.0-9.0-2.0-1.35","4284","1","17","Male","approach_avoid_spark_v1","""event"",""trial"",""time""
""fullscreenenter"",""1"",""5504""
","
","
","""event"",""trial"",""time""
""fullscreenenter"",""1"",""5504""
","
","","","","","","957.5","images/bed4.png","","","learning","2","2","1","1","bed","furniture","1","0","","neutral","0"
"html-keyboard-response","144","897504","0.0-9.0-2.0-0.36","4284","1","17","Male","approach_avoid_spark_v1","""event"",""trial"",""time""
""fullscreenenter"",""1"",""5504""
","
","
","""event"",""trial"",""time""
""fullscreenenter"",""1"",""5504""
","
","","","","","","null","<div style=""font-size:60px;"">+</div>","null","","fixation","","","","","","","","","","",""
"aa-learning-trial","145","900510","0.0-9.0-2.0-1.36","4284","1","17","Male","approach_avoid_spark_v1","""event"",""trial"",""time""
""fullscreenenter"",""1"",""5504""
","
","
","""event"",""trial"",""time""
""fullscreenenter"",""1"",""5504""
","
","","","","","","1001.6000000014901","images/chair8.png","","","learning","3","3","1","1","chair","furniture","1","0","","good","[5]"
"html-keyboard-response","146","901014","0.0-9.0-2.0-0.37","4284","1","17","Male","approach_avoid_spark_v1","""event"",""trial"",""time""
""fullscreenenter"",""1"",""5504""
","
","
","""event"",""trial"",""time""
""fullscreenenter"",""1"",""5504""
","
","","","","","","null","<div style=""font-size:60px;"">+</div>","null","","fixation","","","","","","","","","","",""
"aa-learning-trial","147","904022","0.0-9.0-2.0-1.37","4284","1","17","Male","approach_avoid_spark_v1","""event"",""trial"",""time""
""fullscreenenter"",""1"",""5504""
","
","
","""event"",""trial"",""time""
""fullscreenenter"",""1"",""5504""
","
","","","","","","722.6999999955297","images/bed5.png","","","learning","-1","-1","1","1","bed","furniture","1","0","","neutral","0"
"html-keyboard-response","148","904533","0.0-9.0-2.0-0.38","4284","1","17","Male","approach_avoid_spark_v1","""event"",""trial"",""time""
""fullscreenenter"",""1"",""5504""
","
","
","""event"",""trial"",""time""
""fullscreenenter"",""1"",""5504""
","
","","","","","","null","<div style=""font-size:60px;"">+</div>","null","","fixation","","","","","","","","","","",""
"aa-learning-trial","149","907542","0.0-9.0-2.0-1.38","4284","1","17","Male","approach_avoid_spark_v1","""event"",""trial"",""time""
""fullscreenenter"",""1"",""5504""
","
","
","""event"",""trial"",""time""
""fullscreenenter"",""1"",""5504""
","
","","","","","","723.7000000029802","images/bed8.png","","","learning","2","2","1","1","bed","furniture","1","0","","neutral","0"
"html-keyboard-response","150","908046","0.0-9.0-2.0-0.39","4284","1","17","Male","approach_avoid_spark_v1","""event"",""trial"",""time""
""fullscreenenter"",""1"",""5504""
","
","
","""event"",""trial"",""time""
""fullscreenenter"",""1"",""5504""
","
","","","","","","null","<div style=""font-size:60px;"">+</div>","null","","fixation","","","","","","","","","","",""
"aa-learning-trial","151","911055","0.0-9.0-2.0-1.39","4284","1","17","Male","approach_avoid_spark_v1","""event"",""trial"",""time""
""fullscreenenter"",""1"",""5504""
","
","
","""event"",""trial"",""time""
""fullscreenenter"",""1"",""5504""
","
","","","","","","474.5","images/chair7.png","","","learning","5","5","1","1","chair","furniture","1","0","","good","[5]"
"html-keyboard-response","152","911563","0.0-9.0-2.0-0.40","4284","1","17","Male","approach_avoid_spark_v1","""event"",""trial"",""time""
""fullscreenenter"",""1"",""5504""
","
","
","""event"",""trial"",""time""
""fullscreenenter"",""1"",""5504""
","
","","","","","","null","<div style=""font-size:60px;"">+</div>","null","","fixation","","","","","","","","","","",""
"aa-learning-trial","153","914566","0.0-9.0-2.0-1.40","4284","1","17","Male","approach_avoid_spark_v1","""event"",""trial"",""time""
""fullscreenenter"",""1"",""5504""
","
","
","""event"",""trial"",""time""
""fullscreenenter"",""1"",""5504""
","
","","","","","","445.29999999701977","images/bed4.png","","","learning","1","1","1","1","bed","furniture","1","0","","neutral","0"
"html-keyboard-response","154","915083","0.0-9.0-2.0-0.41","4284","1","17","Male","approach_avoid_spark_v1","""event"",""trial"",""time""
""fullscreenenter"",""1"",""5504""
","
","
","""event"",""trial"",""time""
""fullscreenenter"",""1"",""5504""
","
","","","","","","null","<div style=""font-size:60px;"">+</div>","null","","fixation","","","","","","","","","","",""
"aa-learning-trial","155","918087","0.0-9.0-2.0-1.41","4284","1","17","Male","approach_avoid_spark_v1","""event"",""trial"",""time""
""fullscreenenter"",""1"",""5504""
","
","
","""event"",""trial"",""time""
""fullscreenenter"",""1"",""5504""
","
","","","","","","477.70000000298023","images/bed3.png","","","learning","[1]","1","1","1","bed","furniture","1","0","","neutral","0"
"html-keyboard-response","156","918591","0.0-9.0-2.0-0.42","4284","1","17","Male","approach_avoid_spark_v1","""event"",""trial"",""time""
""fullscreenenter"",""1"",""5504""
","
","
","""event"",""trial"",""time""
""fullscreenenter"",""1"",""5504""
","
","","","","","","null","<div style=""font-size:60px;"">+</div>","null","","fixation","","","","","","","","","","",""
"aa-learning-trial","157","921609","0.0-9.0-2.0-1.42","4284","1","17","Male","approach_avoid_spark_v1","""event"",""trial"",""time""
""fullscreenenter"",""1"",""5504""
","
","
","""event"",""trial"",""time""
""fullscreenenter"",""1"",""5504""
","
","","","","","","521.5","images/chair7.png","","","learning","4","4","1","1","chair","furniture","1","0","","good","[5]"
"html-keyboard-response","158","922117","0.0-9.0-2.0-0.43","4284","1","17","Male","approach_avoid_spark_v1","""event"",""trial"",""time""
""fullscreenenter"",""1"",""5504""
","
","
","""event"",""trial"",""time""
""fullscreenenter"",""1"",""5504""
","
","","","","","","null","<div style=""font-size:60px;"">+</div>","null","","fixation","","","","","","","","","","",""
"aa-learning-trial","159","925126","0.0-9.0-2.0-1.43","4284","1","17","Male","approach_avoid_spark_v1","""event"",""trial"",""time""
""fullscreenenter"",""1"",""5504""
","
","
","""event"",""trial"",""time""
""fullscreenenter"",""1"",""5504""
","
","","","","","","611.2999999970198","images/bed1.png","","","learning","-1","-1","1","1","bed","furniture","1","0","","neutral","0"
"html-keyboard-response","160","925630","0.0-9.0-2.0-0.44","4284","1","17","Male","approach_avoid_spark_v1","""event"",""trial"",""time""
""fullscreenenter"",""1"",""5504""
","
","
","""event"",""trial"",""time""
""fullscreenenter"",""1"",""5504""
","
","","","","","","null","<div style=""font-size:60px;"">+</div>","null","","fixation","","","","","","","","","","",""
"aa-learning-trial","161","928638","0.0-9.0-2.0-1.44","4284","1","17","Male","approach_avoid_spark_v1","""event"",""trial"",""time""
""fullscreenenter"",""1"",""5504""
","
","
","""event"",""trial"",""time""
""fullscreenenter"",""1"",""5504""
","
","","","","","","867.3999999985099","images/table2.png","","","learning","-3","0","0","0","table","furniture","1","0","","bad","[-3]"
"html-keyboard-response","162","929142","0.0-9.0-2.0-0.45","4284","1","17","Male","approach_avoid_spark_v1","""event"",""trial"",""time""
""fullscreenenter"",""1"",""5504""
","
","
","""event"",""trial"",""time""
""fullscreenenter"",""1"",""5504""
","
","","","","","","null","<div style=""font-size:60px;"">+</div>","null","","fixation","","","","","","","","","","",""
"aa-learning-trial","163","932155","0.0-9.0-2.0-1.45","4284","1","17","Male","approach_avoid_spark_v1","""event"",""trial"",""time""
""fullscreenenter"",""1"",""5504""
","
","
","""event"",""trial"",""time""
""fullscreenenter"",""1"",""5504""
","
","","","","","","651","images/table7.png","","","learning","-3","0","0","0","table","furniture","1","0","","bad","[-3]"
"html-keyboard-response","164","932662","0.0-9.0-2.0-0.46","4284","1","17","Male","approach_avoid_spark_v1","""event"",""trial"",""time""
""fullscreenenter"",""1"",""5504""
","
","
","""event"",""trial"",""time""
""fullscreenenter"",""1"",""5504""
","
","","","","","","null","<div style=""font-size:60px;"">+</div>","null","","fixation","","","","","","","","","","",""
"aa-learning-trial","165","935670","0.0-9.0-2.0-1.46","4284","1","17","Male","approach_avoid_spark_v1","""event"",""trial"",""time""
""fullscreenenter"",""1"",""5504""
","
","
","""event"",""trial"",""time""
""fullscreenenter"",""1"",""5504""
","
","","","","","","939.0999999940395","images/bed4.png","","","learning","-1","-1","1","1","bed","furniture","1","0","","neutral","0"
"html-keyboard-response","166","936175","0.0-9.0-2.0-0.47","4284","1","17","Male","approach_avoid_spark_v1","""event"",""trial"",""time""
""fullscreenenter"",""1"",""5504""
","
","
","""event"",""trial"",""time""
""fullscreenenter"",""1"",""5504""
","
","","","","","","null","<div style=""font-size:60px;"">+</div>","null","","fixation","","","","","","","","","","",""
"aa-learning-trial","167","939182","0.0-9.0-2.0-1.47","4284","1","17","Male","approach_avoid_spark_v1","""event"",""trial"",""time""
""fullscreenenter"",""1"",""5504""
","
","
","""event"",""trial"",""time""
""fullscreenenter"",""1"",""5504""
","
","","","","","","914.5","images/chair4.png","","","learning","5","5","1","1","chair","furniture","1","0","","good","[5]"
"html-keyboard-response","168","939686","0.0-9.0-2.0-0.48","4284","1","17","Male","approach_avoid_spark_v1","""event"",""trial"",""time""
""fullscreenenter"",""1"",""5504""
","
","
","""event"",""trial"",""time""
""fullscreenenter"",""1"",""5504""
","
","","","","","","null","<div style=""font-size:60px;"">+</div>","null","","fixation","","","","","","","","","","",""
"aa-learning-trial","169","942697","0.0-9.0-2.0-1.48","4284","1","17","Male","approach_avoid_spark_v1","""event"",""trial"",""time""
""fullscreenenter"",""1"",""5504""
","
","
","""event"",""trial"",""time""
""fullscreenenter"",""1"",""5504""
","
","","","","","","634.5999999940395","images/chair1.png","","","learning","4","4","1","1","chair","furniture","1","0","","good","[5]"
"html-keyboard-response","170","943213","0.0-9.0-2.0-0.49","4284","1","17","Male","approach_avoid_spark_v1","""event"",""trial"",""time""
""fullscreenenter"",""1"",""5504""
","
","
","""event"",""trial"",""time""
""fullscreenenter"",""1"",""5504""
","
","","","","","","null","<div style=""font-size:60px;"">+</div>","null","","fixation","","","","","","","","","","",""
"aa-learning-trial","171","946222","0.0-9.0-2.0-1.49","4284","1","17","Male","approach_avoid_spark_v1","""event"",""trial"",""time""
""fullscreenenter"",""1"",""5504""
","
","
","""event"",""trial"",""time""
""fullscreenenter"",""1"",""5504""
","
","","","","","","659.7000000029802","images/table8.png","","","learning","-1","0","0","0","table","furniture","1","0","","bad","[-3]"
"html-keyboard-response","172","946727","0.0-9.0-2.0-0.50","4284","1","17","Male","approach_avoid_spark_v1","""event"",""trial"",""time""
""fullscreenenter"",""1"",""5504""
","
","
","""event"",""trial"",""time""
""fullscreenenter"",""1"",""5504""
","
","","","","","","null","<div style=""font-size:60px;"">+</div>","null","","fixation","","","","","","","","","","",""
"aa-learning-trial","173","949734","0.0-9.0-2.0-1.50","4284","1","17","Male","approach_avoid_spark_v1","""event"",""trial"",""time""
""fullscreenenter"",""1"",""5504""
","
","
","""event"",""trial"",""time""
""fullscreenenter"",""1"",""5504""
","
","","","","","","506.59999999403954","images/chair7.png","","","learning","5","5","1","1","chair","furniture","1","0","","good","[5]"
"html-button-response","174","5046404","0.0-9.0-3.0","4284","1","17","Male","approach_avoid_spark_v1","""event"",""trial"",""time""
""fullscreenenter"",""1"",""5504""
","
","
","""event"",""trial"",""time""
""fullscreenenter"",""1"",""5504""
","
","","","","","","4096668.8000000045","<p> You have completed the round! <p> In this round, you earned 90 points! </p>","0","","break","","","","","","","","","","",""
"html-button-response","175","5047137","0.0-10.0","4284","1","17","Male","approach_avoid_spark_v1","""event"",""trial"",""time""
""fullscreenenter"",""1"",""5504""
","
","
","""event"",""trial"",""time""
""fullscreenenter"",""1"",""5504""
","
","","","","","","732.3999999985099","<p> Now it's time to play another round. </p>","0","","transition_screen","","","","","","","","","","",""
"preload","176","5047260","0.0-11.0-0.0","4284","1","17","Male","approach_avoid_spark_v1","""event"",""trial"",""time""
""fullscreenenter"",""1"",""5504""
","
","
","""event"",""trial"",""time""
""fullscreenenter"",""1"",""5504""
","
","true","false","[]","[]","[]","","","","","","","","","","","","","","","",""
"learning-instructions","177","5053087","0.0-11.0-1.0-0.0","4284","1","17","Male","approach_avoid_spark_v1","""event"",""trial"",""time""
""fullscreenenter"",""1"",""5504""
","
","
","""event"",""trial"",""time""
""fullscreenenter"",""1"",""5504""
","
","","","","","","1627.1000000014901","<p> Your goal in this round is to eat tasty fruit. </p></div>","","0","instructions","","","","","","","","","","",""
"learning-instructions","178","5064083","0.0-11.0-1.0-0.1","4284","1","17","Male","approach_avoid_spark_v1","""event"",""trial"",""time""
""fullscreenenter"",""1"",""5504""
","
","
","""event"",""trial"",""time""
""fullscreenenter"",""1"",""5504""
","
","","","","","","1212.3999999985099","<p> Some of the fruits you will see are tasty. Others are rotten on the inside.  </p><p> On each turn, you will see a fruit.   </p><p> You need to decide whether to eat it or not.  </p>","","0","instructions","","","","","","","","","","",""
"learning-instructions","179","5070127","0.0-11.0-1.0-0.2","4284","1","17","Male","approach_avoid_spark_v1","""event"",""trial"",""time""
""fullscreenenter"",""1"",""5504""
","
","
","""event"",""trial"",""time""
""fullscreenenter"",""1"",""5504""
","
","","","","","","1056.7000000029802","<p> You can eat the fruit by pressing 1 and choose not to eat it by pressing 0. </p><br><div class=""choice-instructions-grid""> <div class=""choice-option""><img src=""images/approach.png"" class=""choice-option-img"" stage=""instructions"" position=""0"" ><div class=""choice-option-text""> Press ""1."" </div></div><div class=""choice-option""><img src=""images/avoid.png"" class=""choice-option-img"" stage=""instructions"" position=""1"" ><div class=""choice-option-text""> Press ""0."" </div></div>","","0","instructions","","","","","","","","","","",""
"learning-instructions","180","5079025","0.0-11.0-1.0-0.3","4284","1","17","Male","approach_avoid_spark_v1","""event"",""trial"",""time""
""fullscreenenter"",""1"",""5504""
","
","
","""event"",""trial"",""time""
""fullscreenenter"",""1"",""5504""
","
","","","","","","1394.7999999970198","<p> If you eat the fruit and it was tasty, you will win points! </p><p> But if you eat the fruit and it was rotten, you will lose points. </p>","","0","instructions","","","","","","","","","","",""
"learning-instructions","181","5091235","0.0-11.0-1.0-0.4","4284","1","17","Male","approach_avoid_spark_v1","""event"",""trial"",""time""
""fullscreenenter"",""1"",""5504""
","
","
","""event"",""trial"",""time""
""fullscreenenter"",""1"",""5504""
","
","","","","","","905","<p> You will earn points based on how tasty or rotten the fruit was. </p><p> If it was tasty, you will WIN anywhere from 1 - 9 points, </p><p> but if it was rotten, you will LOSE anywhere from 1 - 9 points. </p>","","0","instructions","","","","","","","","","","",""
"learning-instructions","182","5098264","0.0-11.0-1.0-0.5","4284","1","17","Male","approach_avoid_spark_v1","""event"",""trial"",""time""
""fullscreenenter"",""1"",""5504""
","
","
","""event"",""trial"",""time""
""fullscreenenter"",""1"",""5504""
","
","","","","","","353.1000000014901","<p> You will see how many points you won or lost in the center of the screen. </p><p> Here is what you would see if you earned 5 points: </p><p style=""color:green;font-size:50px;font-weight:bolder"">5</p>","","0","instructions","","","","","","","","","","",""
"learning-instructions","183","5101412","0.0-11.0-1.0-0.6","4284","1","17","Male","approach_avoid_spark_v1","""event"",""trial"",""time""
""fullscreenenter"",""1"",""5504""
","
","
","""event"",""trial"",""time""
""fullscreenenter"",""1"",""5504""
","
","","","","","","300.80000000447035","<p> And here is what you would see if you lost 3 points: </p><p style=""color:red;font-size:50px;font-weight:bolder"">-3</p>","","0","instructions","","","","","","","","","","",""
"learning-instructions","184","5116374","0.0-11.0-1.0-0.7","4284","1","17","Male","approach_avoid_spark_v1","""event"",""trial"",""time""
""fullscreenenter"",""1"",""5504""
","
","
","""event"",""trial"",""time""
""fullscreenenter"",""1"",""5504""
","
","","","","","","1202.7999999970198","<p> Some fruit is very tasty or very rotten. </p><p> These fruits will make you win or lose LOTS of points. </p><p> Other fruits are only kind of tasty or kind of rotten. </p><p> These fruits will make you win or lose small amounts of points. </p>","","0","instructions","","","","","","","","","","",""
"learning-instructions","185","5128502","0.0-11.0-1.0-0.8","4284","1","17","Male","approach_avoid_spark_v1","""event"",""trial"",""time""
""fullscreenenter"",""1"",""5504""
","
","
","""event"",""trial"",""time""
""fullscreenenter"",""1"",""5504""
","
","","","","","","1690.8999999985099","<p> If you choose to not eat the fruit, you will not win or lose any points. </p><p>  However, in the center of the screen, you will see the number of points you WOULD HAVE earned if you had eaten the fruit. </p>","","0","instructions","","","","","","","","","","",""
"learning-instructions","186","5176264","0.0-11.0-1.0-0.9","4284","1","17","Male","approach_avoid_spark_v1","""event"",""trial"",""time""
""fullscreenenter"",""1"",""5504""
","
","
","""event"",""trial"",""time""
""fullscreenenter"",""1"",""5504""
","
","","","","","","37832.5","<p> Here is what you might see if you did not eat the fruit but the fruit was tasty: </p><p style=""color:grey; font-size:50px; display: inline-block; border-spacing: 15px; border-width:3px; border-style:solid; border-color:red"">  &nbsp; 6 &nbsp; </p><p> Remember, in this case, you would not win or lose ANY points because you did not eat the fruit.  </p>","","0","instructions","","","","","","","","","","",""
"learning-instructions","187","5185250","0.0-11.0-1.0-0.10","4284","1","17","Male","approach_avoid_spark_v1","""event"",""trial"",""time""
""fullscreenenter"",""1"",""5504""
","
","
","""event"",""trial"",""time""
""fullscreenenter"",""1"",""5504""
","
","","","","","","631.1999999955297","<p> Try to make the best choice for each fruit because </p><p> at the end of the game, you will earn bonus money based on how many points you earned. </p>","","0","instructions","","","","","","","","","","",""
"learning-instructions","188","5193848","0.0-11.0-1.0-0.11","4284","1","17","Male","approach_avoid_spark_v1","""event"",""trial"",""time""
""fullscreenenter"",""1"",""5504""
","
","
","""event"",""trial"",""time""
""fullscreenenter"",""1"",""5504""
","
","","","","","","389","<p> You will have 3 seconds to make each choice. Try to respond before time runs out! </p><p> You will lose 5 points each time you do not make a response. </p>","","0","instructions","","","","","","","","","","",""
"html-keyboard-response","189","5194477","0.0-11.0-2.0-0.0","4284","1","17","Male","approach_avoid_spark_v1","""event"",""trial"",""time""
""fullscreenenter"",""1"",""5504""
","
","
","""event"",""trial"",""time""
""fullscreenenter"",""1"",""5504""
","
","","","","","","null","<div style=""font-size:60px;"">+</div>","null","","fixation","","","","","","","","","","",""
"aa-learning-trial","190","5197497","0.0-11.0-2.0-1.0","4284","1","17","Male","approach_avoid_spark_v1","""event"",""trial"",""time""
""fullscreenenter"",""1"",""5504""
","
","
","""event"",""trial"",""time""
""fullscreenenter"",""1"",""5504""
","
","","","","","","733.1000000014901","images/banana7.png","","","learning","5","5","1","1","banana","fruit","2","1","","good","[3]"
"html-keyboard-response","191","5198007","0.0-11.0-2.0-0.1","4284","1","17","Male","approach_avoid_spark_v1","""event"",""trial"",""time""
""fullscreenenter"",""1"",""5504""
","
","
","""event"",""trial"",""time""
""fullscreenenter"",""1"",""5504""
","
","","","","","","null","<div style=""font-size:60px;"">+</div>","null","","fixation","","","","","","","","","","",""
"aa-learning-trial","192","5201017","0.0-11.0-2.0-1.1","4284","1","17","Male","approach_avoid_spark_v1","""event"",""trial"",""time""
""fullscreenenter"",""1"",""5504""
","
","
","""event"",""trial"",""time""
""fullscreenenter"",""1"",""5504""
","
","","","","","","939.1999999955297","images/apple7.png","","","learning","-2","0","0","0","apple","fruit","2","1","","bad","[-6]"
"html-keyboard-response","193","5201527","0.0-11.0-2.0-0.2","4284","1","17","Male","approach_avoid_spark_v1","""event"",""trial"",""time""
""fullscreenenter"",""1"",""5504""
","
","
","""event"",""trial"",""time""
""fullscreenenter"",""1"",""5504""
","
","","","","","","null","<div style=""font-size:60px;"">+</div>","null","","fixation","","","","","","","","","","",""
"aa-learning-trial","194","5204543","0.0-11.0-2.0-1.2","4284","1","17","Male","approach_avoid_spark_v1","""event"",""trial"",""time""
""fullscreenenter"",""1"",""5504""
","
","
","""event"",""trial"",""time""
""fullscreenenter"",""1"",""5504""
","
","","","","","","810.8999999985099","images/banana3.png","","","learning","-7","-7","1","1","banana","fruit","2","1","","good","[3]"
"html-keyboard-response","195","5205067","0.0-11.0-2.0-0.3","4284","1","17","Male","approach_avoid_spark_v1","""event"",""trial"",""time""
""fullscreenenter"",""1"",""5504""
","
","
","""event"",""trial"",""time""
""fullscreenenter"",""1"",""5504""
","
","","","","","","null","<div style=""font-size:60px;"">+</div>","null","","fixation","","","","","","","","","","",""
"aa-learning-trial","196","5208077","0.0-11.0-2.0-1.3","4284","1","17","Male","approach_avoid_spark_v1","""event"",""trial"",""time""
""fullscreenenter"",""1"",""5504""
","
","
","""event"",""trial"",""time""
""fullscreenenter"",""1"",""5504""
","
","","","","","","503.29999999701977","images/apple7.png","","","learning","-2","0","0","0","apple","fruit","2","1","","bad","[-6]"
"html-keyboard-response","197","5208587","0.0-11.0-2.0-0.4","4284","1","17","Male","approach_avoid_spark_v1","""event"",""trial"",""time""
""fullscreenenter"",""1"",""5504""
","
","
","""event"",""trial"",""time""
""fullscreenenter"",""1"",""5504""
","
","","","","","","null","<div style=""font-size:60px;"">+</div>","null","","fixation","","","","","","","","","","",""
"aa-learning-trial","198","5211597","0.0-11.0-2.0-1.4","4284","1","17","Male","approach_avoid_spark_v1","""event"",""trial"",""time""
""fullscreenenter"",""1"",""5504""
","
","
","""event"",""trial"",""time""
""fullscreenenter"",""1"",""5504""
","
","","","","","","558.8999999985099","images/straw1.png","","","learning","-9","-9","1","1","straw","fruit","2","1","","neutral","0"
"html-keyboard-response","199","5212117","0.0-11.0-2.0-0.5","4284","1","17","Male","approach_avoid_spark_v1","""event"",""trial"",""time""
""fullscreenenter"",""1"",""5504""
","
","
","""event"",""trial"",""time""
""fullscreenenter"",""1"",""5504""
","
","","","","","","null","<div style=""font-size:60px;"">+</div>","null","","fixation","","","","","","","","","","",""
"aa-learning-trial","200","5215137","0.0-11.0-2.0-1.5","4284","1","17","Male","approach_avoid_spark_v1","""event"",""trial"",""time""
""fullscreenenter"",""1"",""5504""
","
","
","""event"",""trial"",""time""
""fullscreenenter"",""1"",""5504""
","
","","","","","","613.5","images/banana1.png","","","learning","7","7","1","1","banana","fruit","2","1","","good","[3]"
"html-keyboard-response","201","5215655","0.0-11.0-2.0-0.6","4284","1","17","Male","approach_avoid_spark_v1","""event"",""trial"",""time""
""fullscreenenter"",""1"",""5504""
","
","
","""event"",""trial"",""time""
""fullscreenenter"",""1"",""5504""
","
","","","","","","null","<div style=""font-size:60px;"">+</div>","null","","fixation","","","","","","","","","","",""
"aa-learning-trial","202","5218657","0.0-11.0-2.0-1.6","4284","1","17","Male","approach_avoid_spark_v1","""event"",""trial"",""time""
""fullscreenenter"",""1"",""5504""
","
","
","""event"",""trial"",""time""
""fullscreenenter"",""1"",""5504""
","
","","","","","","883","images/banana3.png","","","learning","-7","-7","1","1","banana","fruit","2","1","","good","[3]"
"html-keyboard-response","203","5219177","0.0-11.0-2.0-0.7","4284","1","17","Male","approach_avoid_spark_v1","""event"",""trial"",""time""
""fullscreenenter"",""1"",""5504""
","
","
","""event"",""trial"",""time""
""fullscreenenter"",""1"",""5504""
","
","","","","","","null","<div style=""font-size:60px;"">+</div>","null","","fixation","","","","","","","","","","",""
"aa-learning-trial","204","5222197","0.0-11.0-2.0-1.7","4284","1","17","Male","approach_avoid_spark_v1","""event"",""trial"",""time""
""fullscreenenter"",""1"",""5504""
","
","
","""event"",""trial"",""time""
""fullscreenenter"",""1"",""5504""
","
","","","","","","1000.8000000044703","images/straw8.png","","","learning","3","0","0","0","straw","fruit","2","1","","neutral","0"
"html-keyboard-response","205","5222707","0.0-11.0-2.0-0.8","4284","1","17","Male","approach_avoid_spark_v1","""event"",""trial"",""time""
""fullscreenenter"",""1"",""5504""
","
","
","""event"",""trial"",""time""
""fullscreenenter"",""1"",""5504""
","
","","","","","","null","<div style=""font-size:60px;"">+</div>","null","","fixation","","","","","","","","","","",""
"aa-learning-trial","206","5225721","0.0-11.0-2.0-1.8","4284","1","17","Male","approach_avoid_spark_v1","""event"",""trial"",""time""
""fullscreenenter"",""1"",""5504""
","
","
","""event"",""trial"",""time""
""fullscreenenter"",""1"",""5504""
","
","","","","","","1151.0999999940395","images/apple2.png","","","learning","-5","0","0","0","apple","fruit","2","1","","bad","[-6]"
"html-keyboard-response","207","5226223","0.0-11.0-2.0-0.9","4284","1","17","Male","approach_avoid_spark_v1","""event"",""trial"",""time""
""fullscreenenter"",""1"",""5504""
","
","
","""event"",""trial"",""time""
""fullscreenenter"",""1"",""5504""
","
","","","","","","null","<div style=""font-size:60px;"">+</div>","null","","fixation","","","","","","","","","","",""
"aa-learning-trial","208","5229232","0.0-11.0-2.0-1.9","4284","1","17","Male","approach_avoid_spark_v1","""event"",""trial"",""time""
""fullscreenenter"",""1"",""5504""
","
","
","""event"",""trial"",""time""
""fullscreenenter"",""1"",""5504""
","
","","","","","","1219.7999999970198","images/straw6.png","","","learning","1","0","0","0","straw","fruit","2","1","","neutral","0"
"html-keyboard-response","209","5229735","0.0-11.0-2.0-0.10","4284","1","17","Male","approach_avoid_spark_v1","""event"",""trial"",""time""
""fullscreenenter"",""1"",""5504""
","
","
","""event"",""trial"",""time""
""fullscreenenter"",""1"",""5504""
","
","","","","","","null","<div style=""font-size:60px;"">+</div>","null","","fixation","","","","","","","","","","",""
"aa-learning-trial","210","5232743","0.0-11.0-2.0-1.10","4284","1","17","Male","approach_avoid_spark_v1","""event"",""trial"",""time""
""fullscreenenter"",""1"",""5504""
","
","
","""event"",""trial"",""time""
""fullscreenenter"",""1"",""5504""
","
","","","","","","1219.3999999985099","images/apple6.png","","","learning","-8","0","0","0","apple","fruit","2","1","","bad","[-6]"
"html-keyboard-response","211","5233246","0.0-11.0-2.0-0.11","4284","1","17","Male","approach_avoid_spark_v1","""event"",""trial"",""time""
""fullscreenenter"",""1"",""5504""
","
","
","""event"",""trial"",""time""
""fullscreenenter"",""1"",""5504""
","
","","","","","","null","<div style=""font-size:60px;"">+</div>","null","","fixation","","","","","","","","","","",""
"aa-learning-trial","212","5236254","0.0-11.0-2.0-1.11","4284","1","17","Male","approach_avoid_spark_v1","""event"",""trial"",""time""
""fullscreenenter"",""1"",""5504""
","
","
","""event"",""trial"",""time""
""fullscreenenter"",""1"",""5504""
","
","","","","","","492","images/apple6.png","","","learning","-8","0","0","0","apple","fruit","2","1","","bad","[-6]"
"html-keyboard-response","213","5236759","0.0-11.0-2.0-0.12","4284","1","17","Male","approach_avoid_spark_v1","""event"",""trial"",""time""
""fullscreenenter"",""1"",""5504""
","
","
","""event"",""trial"",""time""
""fullscreenenter"",""1"",""5504""
","
","","","","","","null","<div style=""font-size:60px;"">+</div>","null","","fixation","","","","","","","","","","",""
"aa-learning-trial","214","5239766","0.0-11.0-2.0-1.12","4284","1","17","Male","approach_avoid_spark_v1","""event"",""trial"",""time""
""fullscreenenter"",""1"",""5504""
","
","
","""event"",""trial"",""time""
""fullscreenenter"",""1"",""5504""
","
","","","","","","467.6000000014901","images/straw6.png","","","learning","1","1","1","1","straw","fruit","2","1","","neutral","0"
"html-keyboard-response","215","5240271","0.0-11.0-2.0-0.13","4284","1","17","Male","approach_avoid_spark_v1","""event"",""trial"",""time""
""fullscreenenter"",""1"",""5504""
","
","
","""event"",""trial"",""time""
""fullscreenenter"",""1"",""5504""
","
","","","","","","null","<div style=""font-size:60px;"">+</div>","null","","fixation","","","","","","","","","","",""
"aa-learning-trial","216","5243279","0.0-11.0-2.0-1.13","4284","1","17","Male","approach_avoid_spark_v1","""event"",""trial"",""time""
""fullscreenenter"",""1"",""5504""
","
","
","""event"",""trial"",""time""
""fullscreenenter"",""1"",""5504""
","
","","","","","","851.7999999970198","images/banana7.png","","","learning","5","-5","`","","banana","fruit","2","1","","good","[3]"
"html-keyboard-response","217","5243782","0.0-11.0-2.0-0.14","4284","1","17","Male","approach_avoid_spark_v1","""event"",""trial"",""time""
""fullscreenenter"",""1"",""5504""
","
","
","""event"",""trial"",""time""
""fullscreenenter"",""1"",""5504""
","
","","","","","","null","<div style=""font-size:60px;"">+</div>","null","","fixation","","","","","","","","","","",""
"aa-learning-trial","218","5246791","0.0-11.0-2.0-1.14","4284","1","17","Male","approach_avoid_spark_v1","""event"",""trial"",""time""
""fullscreenenter"",""1"",""5504""
","
","
","""event"",""trial"",""time""
""fullscreenenter"",""1"",""5504""
","
","","","","","","1244","images/straw1.png","","","learning","-9","0","0","0","straw","fruit","2","1","","neutral","0"
"html-keyboard-response","219","5247294","0.0-11.0-2.0-0.15","4284","1","17","Male","approach_avoid_spark_v1","""event"",""trial"",""time""
""fullscreenenter"",""1"",""5504""
","
","
","""event"",""trial"",""time""
""fullscreenenter"",""1"",""5504""
","
","","","","","","null","<div style=""font-size:60px;"">+</div>","null","","fixation","","","","","","","","","","",""
"aa-learning-trial","220","5250302","0.0-11.0-2.0-1.15","4284","1","17","Male","approach_avoid_spark_v1","""event"",""trial"",""time""
""fullscreenenter"",""1"",""5504""
","
","
","""event"",""trial"",""time""
""fullscreenenter"",""1"",""5504""
","
","","","","","","771.6999999955297","images/banana3.png","","","learning","-7","-7","1","1","banana","fruit","2","1","","good","[3]"
"html-keyboard-response","221","5250808","0.0-11.0-2.0-0.16","4284","1","17","Male","approach_avoid_spark_v1","""event"",""trial"",""time""
""fullscreenenter"",""1"",""5504""
","
","
","""event"",""trial"",""time""
""fullscreenenter"",""1"",""5504""
","
","","","","","","null","<div style=""font-size:60px;"">+</div>","null","","fixation","","","","","","","","","","",""
"aa-learning-trial","222","5253814","0.0-11.0-2.0-1.16","4284","1","17","Male","approach_avoid_spark_v1","""event"",""trial"",""time""
""fullscreenenter"",""1"",""5504""
","
","
","""event"",""trial"",""time""
""fullscreenenter"",""1"",""5504""
","
","","","","","","1218.5","images/straw6.png","","","learning","1","0","0","0","straw","fruit","2","1","","neutral","0"
"html-keyboard-response","223","5254318","0.0-11.0-2.0-0.17","4284","1","17","Male","approach_avoid_spark_v1","""event"",""trial"",""time""
""fullscreenenter"",""1"",""5504""
","
","
","""event"",""trial"",""time""
""fullscreenenter"",""1"",""5504""
","
","","","","","","null","<div style=""font-size:60px;"">+</div>","null","","fixation","","","","","","","","","","",""
"aa-learning-trial","224","5257328","0.0-11.0-2.0-1.17","4284","1","17","Male","approach_avoid_spark_v1","""event"",""trial"",""time""
""fullscreenenter"",""1"",""5504""
","
","
","""event"",""trial"",""time""
""fullscreenenter"",""1"",""5504""
","
","","","","","","1036","images/banana3.png","","","learning","-7","0","0","0","banana","fruit","2","1","","good","[3]"
"html-keyboard-response","225","5257832","0.0-11.0-2.0-0.18","4284","1","17","Male","approach_avoid_spark_v1","""event"",""trial"",""time""
""fullscreenenter"",""1"",""5504""
","
","
","""event"",""trial"",""time""
""fullscreenenter"",""1"",""5504""
","
","","","","","","null","<div style=""font-size:60px;"">+</div>","null","","fixation","","","","","","","","","","",""
"aa-learning-trial","226","5260838","0.0-11.0-2.0-1.18","4284","1","17","Male","approach_avoid_spark_v1","""event"",""trial"",""time""
""fullscreenenter"",""1"",""5504""
","
","
","""event"",""trial"",""time""
""fullscreenenter"",""1"",""5504""
","
","","","","","","786.2999999970198","images/straw8.png","","","learning","3","3","1","1","straw","fruit","2","1","","neutral","0"
"html-keyboard-response","227","5261344","0.0-11.0-2.0-0.19","4284","1","17","Male","approach_avoid_spark_v1","""event"",""trial"",""time""
""fullscreenenter"",""1"",""5504""
","
","
","""event"",""trial"",""time""
""fullscreenenter"",""1"",""5504""
","
","","","","","","null","<div style=""font-size:60px;"">+</div>","null","","fixation","","","","","","","","","","",""
"aa-learning-trial","228","5264351","0.0-11.0-2.0-1.19","4284","1","17","Male","approach_avoid_spark_v1","""event"",""trial"",""time""
""fullscreenenter"",""1"",""5504""
","
","
","""event"",""trial"",""time""
""fullscreenenter"",""1"",""5504""
","
","","","","","","530","images/straw6.png","","","learning","1","1","1","1","straw","fruit","2","1","","neutral","0"
"html-keyboard-response","229","5264855","0.0-11.0-2.0-0.20","4284","1","17","Male","approach_avoid_spark_v1","""event"",""trial"",""time""
""fullscreenenter"",""1"",""5504""
","
","
","""event"",""trial"",""time""
""fullscreenenter"",""1"",""5504""
","
","","","","","","null","<div style=""font-size:60px;"">+</div>","null","","fixation","","","","","","","","","","",""
"aa-learning-trial","230","5267866","0.0-11.0-2.0-1.20","4284","1","17","Male","approach_avoid_spark_v1","""event"",""trial"",""time""
""fullscreenenter"",""1"",""5504""
","
","
","""event"",""trial"",""time""
""fullscreenenter"",""1"",""5504""
","
","","","","","","954.8999999985099","images/banana7.png","","","learning","5","5","1","1","banana","fruit","2","1","","good","[3]"
"html-keyboard-response","231","5268376","0.0-11.0-2.0-0.21","4284","1","17","Male","approach_avoid_spark_v1","""event"",""trial"",""time""
""fullscreenenter"",""1"",""5504""
","
","
","""event"",""trial"",""time""
""fullscreenenter"",""1"",""5504""
","
","","","","","","null","<div style=""font-size:60px;"">+</div>","null","","fixation","","","","","","","","","","",""
"aa-learning-trial","232","5271383","0.0-11.0-2.0-1.21","4284","1","17","Male","approach_avoid_spark_v1","""event"",""trial"",""time""
""fullscreenenter"",""1"",""5504""
","
","
","""event"",""trial"",""time""
""fullscreenenter"",""1"",""5504""
","
","","","","","","882.7999999970198","images/banana4.png","","","learning","2","2","1","1","banana","fruit","2","1","","good","[3]"
"html-keyboard-response","233","5271886","0.0-11.0-2.0-0.22","4284","1","17","Male","approach_avoid_spark_v1","""event"",""trial"",""time""
""fullscreenenter"",""1"",""5504""
","
","
","""event"",""trial"",""time""
""fullscreenenter"",""1"",""5504""
","
","","","","","","null","<div style=""font-size:60px;"">+</div>","null","","fixation","","","","","","","","","","",""
"aa-learning-trial","234","5274895","0.0-11.0-2.0-1.22","4284","1","17","Male","approach_avoid_spark_v1","""event"",""trial"",""time""
""fullscreenenter"",""1"",""5504""
","
","
","""event"",""trial"",""time""
""fullscreenenter"",""1"",""5504""
","
","","","","","","1052.1000000014901","images/banana3.png","","","learning","-7","0","0","0","banana","fruit","2","1","","good","[3]"
"html-keyboard-response","235","5275398","0.0-11.0-2.0-0.23","4284","1","17","Male","approach_avoid_spark_v1","""event"",""trial"",""time""
""fullscreenenter"",""1"",""5504""
","
","
","""event"",""trial"",""time""
""fullscreenenter"",""1"",""5504""
","
","","","","","","null","<div style=""font-size:60px;"">+</div>","null","","fixation","","","","","","","","","","",""
"aa-learning-trial","236","5278406","0.0-11.0-2.0-1.23","4284","1","17","Male","approach_avoid_spark_v1","""event"",""trial"",""time""
""fullscreenenter"",""1"",""5504""
","
","
","""event"",""trial"",""time""
""fullscreenenter"",""1"",""5504""
","
","","","","","","484.1000000014901","images/banana7.png","","","learning","5","5","1","1","banana","fruit","2","1","","good","[3]"
"html-keyboard-response","237","5278918","0.0-11.0-2.0-0.24","4284","1","17","Male","approach_avoid_spark_v1","""event"",""trial"",""time""
""fullscreenenter"",""1"",""5504""
","
","
