"trial_type","trial_index","time_elapsed","internal_node_id","subject_id","task_condition","age","gender","task_version","interactions","blur_events","focus_events","fullscreenenter_events","fullscreenexit_events","success","timeout","failed_images","failed_audio","failed_video","rt","stimulus","response","button_pressed","task_part","approach_reward","points","key_press","option_selected","stim_cat","task_block","block_condition","block_number","correct","cat_type","mean_cat_reward"
"pavlovia","0","5","0.0-0.0","6281","2","16","Male","approach_avoid_spark_v1","""event"",""trial"",""time""
""fullscreenenter"",""1"",""3566""
","
","
","""event"",""trial"",""time""
""fullscreenenter"",""1"",""3566""
","
","","","","","","","","","","","","","","","","","","","","",""
"fullscreen","1","4558","0.0-1.0","6281","2","16","Male","approach_avoid_spark_v1","""event"",""trial"",""time""
""fullscreenenter"",""1"",""3566""
","
","
","""event"",""trial"",""time""
""fullscreenenter"",""1"",""3566""
","
","true","","","","","","","","","","","","","","","","","","","",""
"preload","2","22521","0.0-2.0","6281","2","16","Male","approach_avoid_spark_v1","""event"",""trial"",""time""
""fullscreenenter"",""1"",""3566""
","
","
","""event"",""trial"",""time""
""fullscreenenter"",""1"",""3566""
","
","true","false","[]","[]","[]","","","","","","","","","","","","","","","",""
"audio-keyboard-response","3","28214","0.0-3.0","6281","2","16","Male","approach_avoid_spark_v1","""event"",""trial"",""time""
""fullscreenenter"",""1"",""3566""
","
","
","""event"",""trial"",""time""
""fullscreenenter"",""1"",""3566""
","
","","","","","","5690.666666666669","audio/beep_loop.wav"," ","","","","","","","","","","","","",""
"audio-button-response","4","30234","0.0-4.0","6281","2","16","Male","approach_avoid_spark_v1","""event"",""trial"",""time""
""fullscreenenter"",""1"",""3566""
","
","
","""event"",""trial"",""time""
""fullscreenenter"",""1"",""3566""
","
","","","","","","2019","audio/shark.wav","4","","","","","","","","","","","","",""
"audio-button-response","5","32688","0.0-5.0","6281","2","16","Male","approach_avoid_spark_v1","""event"",""trial"",""time""
""fullscreenenter"",""1"",""3566""
","
","
","""event"",""trial"",""time""
""fullscreenenter"",""1"",""3566""
","
","","","","","","1461","audio/turtle.wav","1","","","","","","","","","","","","",""
"preload","6","36497","0.0-6.0","6281","2","16","Male","approach_avoid_spark_v1","""event"",""trial"",""time""
""fullscreenenter"",""1"",""3566""
","
","
","""event"",""trial"",""time""
""fullscreenenter"",""1"",""3566""
","
","true","false","[]","[]","[]","","","","","","","","","","","","","","","",""
"html-keyboard-response","7","47293","0.0-7.0","6281","2","16","Male","approach_avoid_spark_v1","""event"",""trial"",""time""
""fullscreenenter"",""1"",""3566""
","
","
","""event"",""trial"",""time""
""fullscreenenter"",""1"",""3566""
","
","","","","","","10795.5","Welcome to the experiment. Press any key to begin and to advance the instructions."," ","","","","","","","","","","","","",""
"learning-instructions","8","55519","0.0-8.0-0.0-0.0","6281","2","16","Male","approach_avoid_spark_v1","""event"",""trial"",""time""
""fullscreenenter"",""1"",""3566""
","
","
","""event"",""trial"",""time""
""fullscreenenter"",""1"",""3566""
","
","","","","","","1271","<p> Welcome! Today you are going to play 6 different rounds of a decision-making game. </p><p> Use the mouse to click next to continue. </p>","","0","instructions","","","","","","","","","","",""
"learning-instructions","9","59966","0.0-8.0-0.0-0.1","6281","2","16","Male","approach_avoid_spark_v1","""event"",""trial"",""time""
""fullscreenenter"",""1"",""3566""
","
","
","""event"",""trial"",""time""
""fullscreenenter"",""1"",""3566""
","
","","","","","","1708.8999999994412","<p> You will start with a practice round to learn the rules. </p>","","0","instructions","","","","","","","","","","",""
"learning-instructions","10","69120","0.0-8.0-0.0-0.2","6281","2","16","Male","approach_avoid_spark_v1","""event"",""trial"",""time""
""fullscreenenter"",""1"",""3566""
","
","
","""event"",""trial"",""time""
""fullscreenenter"",""1"",""3566""
","
","","","","","","5703.299999999814","<p> Your goal in this round is to give out sports equipment to kids. </p></div>","","0","instructions","","","","","","","","","","",""
"learning-instructions","11","77282","0.0-8.0-0.0-0.3","6281","2","16","Male","approach_avoid_spark_v1","""event"",""trial"",""time""
""fullscreenenter"",""1"",""3566""
","
","
","""event"",""trial"",""time""
""fullscreenenter"",""1"",""3566""
","
","","","","","","605.7000000001863","<p> The kids only like some of the equipment.  </p><p> On each turn, you will see a piece of sports equipment.   </p><p> You need to decide whether to give it to the kids or not.  </p>","","0","instructions","","","","","","","","","","",""
"learning-instructions","12","83480","0.0-8.0-0.0-0.4","6281","2","16","Male","approach_avoid_spark_v1","""event"",""trial"",""time""
""fullscreenenter"",""1"",""3566""
","
","
","""event"",""trial"",""time""
""fullscreenenter"",""1"",""3566""
","
","","","","","","1432.7999999998137","<p> You can give them the equipment by pressing 1 and choose not to give it to them by pressing 0. </p><br><div class=""choice-instructions-grid""> <div class=""choice-option""><img src=""images/approach.png"" class=""choice-option-img"" stage=""instructions"" position=""0"" ><div class=""choice-option-text""> Press ""1."" </div></div><div class=""choice-option""><img src=""images/avoid.png"" class=""choice-option-img"" stage=""instructions"" position=""1"" ><div class=""choice-option-text""> Press ""0."" </div></div>","","0","instructions","","","","","","","","","","",""
"learning-instructions","13","95821","0.0-8.0-0.0-0.5","6281","2","16","Male","approach_avoid_spark_v1","""event"",""trial"",""time""
""fullscreenenter"",""1"",""3566""
","
","
","""event"",""trial"",""time""
""fullscreenenter"",""1"",""3566""
","
","","","","","","4964.100000000559","<p> If you give them a piece of equipment they like, they will be happy! </p><p> But if you give them a piece of equipment they do not like, they will be sad. </p>","","0","instructions","","","","","","","","","","",""
"learning-instructions","14","108538","0.0-8.0-0.0-0.6","6281","2","16","Male","approach_avoid_spark_v1","""event"",""trial"",""time""
""fullscreenenter"",""1"",""3566""
","
","
","""event"",""trial"",""time""
""fullscreenenter"",""1"",""3566""
","
","","","","","","2202.2000000001863","<p> You will earn points based on how you make kids feel. </p><p> If you make them happy, you will WIN anywhere from 1 - 9 points, </p><p> but if you make them sad, you will LOSE anywhere from 1 - 9 points. </p>","","0","instructions","","","","","","","","","","",""
"learning-instructions","15","119232","0.0-8.0-0.0-0.7","6281","2","16","Male","approach_avoid_spark_v1","""event"",""trial"",""time""
""fullscreenenter"",""1"",""3566""
","
","
","""event"",""trial"",""time""
""fullscreenenter"",""1"",""3566""
","
","","","","","","1126","<p> You will see how many points you won or lost in the center of the screen. </p><p> Here is what you would see if you won 6 points: </p><p style=""color:green;font-size:50px;font-weight:bolder"">6</p><p style=""color:green"">The text is GREEN because you WON points.</p>","","0","instructions","","","","","","","","","","",""
"learning-instructions","16","126569","0.0-8.0-0.0-0.8","6281","2","16","Male","approach_avoid_spark_v1","""event"",""trial"",""time""
""fullscreenenter"",""1"",""3566""
","
","
","""event"",""trial"",""time""
""fullscreenenter"",""1"",""3566""
","
","","","","","","1822.9000000003725","<p> And here is what you would see if you lost 4 points: </p><p style=""color:red;font-size:50px;font-weight:bolder"">-4</p><p style=""color:red"">The text is RED because you LOST points. </p>","","0","instructions","","","","","","","","","","",""
"learning-instructions","17","141752","0.0-8.0-0.0-0.9","6281","2","16","Male","approach_avoid_spark_v1","""event"",""trial"",""time""
""fullscreenenter"",""1"",""3566""
","
","
","""event"",""trial"",""time""
""fullscreenenter"",""1"",""3566""
","
","","","","","","466.20000000018626","<p> Some of the equipment will make the kids VERY happy or sad. </p><p> These pieces of equipment will make you win or lose LOTS of points. </p><p> Other pieces of equipment will only make the kids a little happy or sad. </p><p> These pieces of equipment will make you win or lose small amounts of points. </p>","","0","instructions","","","","","","","","","","",""
"learning-instructions","18","154212","0.0-8.0-0.0-0.10","6281","2","16","Male","approach_avoid_spark_v1","""event"",""trial"",""time""
""fullscreenenter"",""1"",""3566""
","
","
","""event"",""trial"",""time""
""fullscreenenter"",""1"",""3566""
","
","","","","","","1836.199999999255","<p> If you choose not to give them the equipment, you will not win or lose any points. </p><p>  However, in the center of the screen, you will see the number of points you WOULD HAVE won or lost if you had given them the equipment. </p>","","0","instructions","","","","","","","","","","",""
"learning-instructions","19","192014","0.0-8.0-0.0-0.11","6281","2","16","Male","approach_avoid_spark_v1","""event"",""trial"",""time""
""fullscreenenter"",""1"",""3566""
","
","
","""event"",""trial"",""time""
""fullscreenenter"",""1"",""3566""
","
","","","","","","16269.100000000559","<p> Here is what you might see if you did not give the equipment to the kids but it would have made them happy: </p><p style=""color:grey; font-size:50px; display: inline-block; border-spacing: 15px; border-width:3px; border-style:solid; border-color:red"">  &nbsp; 7 &nbsp; </p><p> Remember, in this case, you would not win or lose ANY points because you did not give them the equipment.  </p><p style=""color:grey"">The text is GREY because you earned ZERO points. </p><p style=""color:red"">However, choosing to give the kids the equipment would have made you win points. The box around the text is RED because you chose the worse option. </p>","","0","instructions","","","","","","","","","","",""
"learning-instructions","20","213777","0.0-8.0-0.0-0.12","6281","2","16","Male","approach_avoid_spark_v1","""event"",""trial"",""time""
""fullscreenenter"",""1"",""3566""
","
","
","""event"",""trial"",""time""
""fullscreenenter"",""1"",""3566""
","
","","","","","","691.9000000003725","<p> Here is what you might see if you did not give the equipment to the kids but it would have made them sad: </p><p style=""color:grey;font-size:50px; display: inline-block; border-spacing: 15px; border-width:3px; border-style:solid; border-color:green"">  &nbsp; -8 &nbsp; </p><p> Remember, in this case, you would not win or lose ANY points because you did not give them the equipment.  </p><p style=""color:grey"">The text is GREY because you earned ZERO points. </p><p  style=""color:green""> Choosing to give the kids the equipment would have made you lose points. The box around the text is GREEN because you chose the better option.</p>","","0","instructions","","","","","","","","","","",""
"learning-instructions","21","223440","0.0-8.0-0.0-0.13","6281","2","16","Male","approach_avoid_spark_v1","""event"",""trial"",""time""
""fullscreenenter"",""1"",""3566""
","
","
","""event"",""trial"",""time""
""fullscreenenter"",""1"",""3566""
","
","","","","","","436","<p> You will have 3 seconds to make each choice. Try to respond before time runs out! </p><p> You will lose 5 points each time you do not make a response. </p>","","0","instructions","","","","","","","","","","",""
"learning-instructions","22","229935","0.0-8.0-0.0-0.14","6281","2","16","Male","approach_avoid_spark_v1","""event"",""trial"",""time""
""fullscreenenter"",""1"",""3566""
","
","
","""event"",""trial"",""time""
""fullscreenenter"",""1"",""3566""
","
","","","","","","1081","<p> This is just a practice round, but in the real game, your bonus payment will depend on your total number of points.","","0","instructions","","","","","","","","","","",""
"learning-instructions","23","236375","0.0-8.0-0.0-0.15","6281","2","16","Male","approach_avoid_spark_v1","""event"",""trial"",""time""
""fullscreenenter"",""1"",""3566""
","
","
","""event"",""trial"",""time""
""fullscreenenter"",""1"",""3566""
","
","","","","","","670.7000000001863","<p> Remember, you can give them the equipment by pressing 1 and choose not to give it to them by pressing 0. </p><br><div class=""choice-instructions-grid""> <div class=""choice-option""><img src=""images/approach.png"" class=""choice-option-img"" stage=""instructions"" position=""0"" ><div class=""choice-option-text""> Press ""1."" </div></div><div class=""choice-option""><img src=""images/avoid.png"" class=""choice-option-img"" stage=""instructions"" position=""1"" ><div class=""choice-option-text""> Press ""0."" </div></div>","","0","instructions","","","","","","","","","","",""
"html-button-response","24","237913","0.0-8.0-1.0","6281","2","16","Male","approach_avoid_spark_v1","""event"",""trial"",""time""
""fullscreenenter"",""1"",""3566""
","
","
","""event"",""trial"",""time""
""fullscreenenter"",""1"",""3566""
","
","","","","","","1424.2999999998137","<p> Ready to practice? </p>","0","","","","","","","","","","","","",""
"html-keyboard-response","25","238525","0.0-8.0-2.0-0.0","6281","2","16","Male","approach_avoid_spark_v1","""event"",""trial"",""time""
""fullscreenenter"",""1"",""3566""
","
","
","""event"",""trial"",""time""
""fullscreenenter"",""1"",""3566""
","
","","","","","","null","<div style=""font-size:60px;"">+</div>","null","","fixation","","","","","","","","","","",""
"aa-learning-trial","26","241537","0.0-8.0-2.0-1.0","6281","2","16","Male","approach_avoid_spark_v1","""event"",""trial"",""time""
""fullscreenenter"",""1"",""3566""
","
","
","""event"",""trial"",""time""
""fullscreenenter"",""1"",""3566""
","
","","","","","","1555.4000000003725","images/racket1.png","","","learning","-9","-9","1","1","practice","practice","practice","-1","","",""
"html-keyboard-response","27","242054","0.0-8.0-2.0-0.1","6281","2","16","Male","approach_avoid_spark_v1","""event"",""trial"",""time""
""fullscreenenter"",""1"",""3566""
","
","
","""event"",""trial"",""time""
""fullscreenenter"",""1"",""3566""
","
","","","","","","null","<div style=""font-size:60px;"">+</div>","null","","fixation","","","","","","","","","","",""
"aa-learning-trial","28","245070","0.0-8.0-2.0-1.1","6281","2","16","Male","approach_avoid_spark_v1","""event"",""trial"",""time""
""fullscreenenter"",""1"",""3566""
","
","
","""event"",""trial"",""time""
""fullscreenenter"",""1"",""3566""
","
","","","","","","1394.5999999996275","images/ball4.png","","","learning","7","7","1","1","practice","practice","practice","-1","","",""
"html-keyboard-response","29","245575","0.0-8.0-2.0-0.2","6281","2","16","Male","approach_avoid_spark_v1","""event"",""trial"",""time""
""fullscreenenter"",""1"",""3566""
","
","
","""event"",""trial"",""time""
""fullscreenenter"",""1"",""3566""
","
","","","","","","null","<div style=""font-size:60px;"">+</div>","null","","fixation","","","","","","","","","","",""
"aa-learning-trial","30","248591","0.0-8.0-2.0-1.2","6281","2","16","Male","approach_avoid_spark_v1","""event"",""trial"",""time""
""fullscreenenter"",""1"",""3566""
","
","
","""event"",""trial"",""time""
""fullscreenenter"",""1"",""3566""
","
","","","","","","1906","images/racket2.png","","","learning","3","-5","2","","practice","practice","practice","-1","","",""
"html-keyboard-response","31","249093","0.0-8.0-2.0-0.3","6281","2","16","Male","approach_avoid_spark_v1","""event"",""trial"",""time""
""fullscreenenter"",""1"",""3566""
","
","
","""event"",""trial"",""time""
""fullscreenenter"",""1"",""3566""
","
","","","","","","null","<div style=""font-size:60px;"">+</div>","null","","fixation","","","","","","","","","","",""
"aa-learning-trial","32","252109","0.0-8.0-2.0-1.3","6281","2","16","Male","approach_avoid_spark_v1","""event"",""trial"",""time""
""fullscreenenter"",""1"",""3566""
","
","
","""event"",""trial"",""time""
""fullscreenenter"",""1"",""3566""
","
","","","","","","2860","images/ball1.png","","","learning","4","4","1","1","practice","practice","practice","-1","","",""
"html-keyboard-response","33","252611","0.0-8.0-2.0-0.4","6281","2","16","Male","approach_avoid_spark_v1","""event"",""trial"",""time""
""fullscreenenter"",""1"",""3566""
","
","
","""event"",""trial"",""time""
""fullscreenenter"",""1"",""3566""
","
","","","","","","null","<div style=""font-size:60px;"">+</div>","null","","fixation","","","","","","","","","","",""
"aa-learning-trial","34","255617","0.0-8.0-2.0-1.4","6281","2","16","Male","approach_avoid_spark_v1","""event"",""trial"",""time""
""fullscreenenter"",""1"",""3566""
","
","
","""event"",""trial"",""time""
""fullscreenenter"",""1"",""3566""
","
","","","","","","1709.3999999994412","images/ball3.png","","","learning","-8","-8","1","1","practice","practice","practice","-1","","",""
"html-keyboard-response","35","256129","0.0-8.0-2.0-0.5","6281","2","16","Male","approach_avoid_spark_v1","""event"",""trial"",""time""
""fullscreenenter"",""1"",""3566""
","
","
","""event"",""trial"",""time""
""fullscreenenter"",""1"",""3566""
","
","","","","","","null","<div style=""font-size:60px;"">+</div>","null","","fixation","","","","","","","","","","",""
"aa-learning-trial","36","259132","0.0-8.0-2.0-1.5","6281","2","16","Male","approach_avoid_spark_v1","""event"",""trial"",""time""
""fullscreenenter"",""1"",""3566""
","
","
","""event"",""trial"",""time""
""fullscreenenter"",""1"",""3566""
","
","","","","","","1415.2999999998137","images/racket4.png","","","learning","-4","-4","1","1","practice","practice","practice","-1","","",""
"html-keyboard-response","37","259637","0.0-8.0-2.0-0.6","6281","2","16","Male","approach_avoid_spark_v1","""event"",""trial"",""time""
""fullscreenenter"",""1"",""3566""
","
","
","""event"",""trial"",""time""
""fullscreenenter"",""1"",""3566""
","
","","","","","","null","<div style=""font-size:60px;"">+</div>","null","","fixation","","","","","","","","","","",""
"aa-learning-trial","38","262640","0.0-8.0-2.0-1.6","6281","2","16","Male","approach_avoid_spark_v1","""event"",""trial"",""time""
""fullscreenenter"",""1"",""3566""
","
","
","""event"",""trial"",""time""
""fullscreenenter"",""1"",""3566""
","
","","","","","","1186.7999999998137","images/racket1.png","","","learning","4","4","1","1","practice","practice","practice","-1","","",""
"html-keyboard-response","39","263156","0.0-8.0-2.0-0.7","6281","2","16","Male","approach_avoid_spark_v1","""event"",""trial"",""time""
""fullscreenenter"",""1"",""3566""
","
","
","""event"",""trial"",""time""
""fullscreenenter"",""1"",""3566""
","
","","","","","","null","<div style=""font-size:60px;"">+</div>","null","","fixation","","","","","","","","","","",""
"aa-learning-trial","40","266159","0.0-8.0-2.0-1.7","6281","2","16","Male","approach_avoid_spark_v1","""event"",""trial"",""time""
""fullscreenenter"",""1"",""3566""
","
","
","""event"",""trial"",""time""
""fullscreenenter"",""1"",""3566""
","
","","","","","","1059.7999999998137","images/racket1.png","","","learning","5","5","1","1","practice","practice","practice","-1","","",""
"html-keyboard-response","41","266661","0.0-8.0-2.0-0.8","6281","2","16","Male","approach_avoid_spark_v1","""event"",""trial"",""time""
""fullscreenenter"",""1"",""3566""
","
","
","""event"",""trial"",""time""
""fullscreenenter"",""1"",""3566""
","
","","","","","","null","<div style=""font-size:60px;"">+</div>","null","","fixation","","","","","","","","","","",""
"aa-learning-trial","42","269662","0.0-8.0-2.0-1.8","6281","2","16","Male","approach_avoid_spark_v1","""event"",""trial"",""time""
""fullscreenenter"",""1"",""3566""
","
","
","""event"",""trial"",""time""
""fullscreenenter"",""1"",""3566""
","
","","","","","","859.2999999998137","images/ball1.png","","","learning","4","-5","2","","practice","practice","practice","-1","","",""
"html-keyboard-response","43","270163","0.0-8.0-2.0-0.9","6281","2","16","Male","approach_avoid_spark_v1","""event"",""trial"",""time""
""fullscreenenter"",""1"",""3566""
","
","
","""event"",""trial"",""time""
""fullscreenenter"",""1"",""3566""
","
","","","","","","null","<div style=""font-size:60px;"">+</div>","null","","fixation","","","","","","","","","","",""
"aa-learning-trial","44","273166","0.0-8.0-2.0-1.9","6281","2","16","Male","approach_avoid_spark_v1","""event"",""trial"",""time""
""fullscreenenter"",""1"",""3566""
","
","
","""event"",""trial"",""time""
""fullscreenenter"",""1"",""3566""
","
","","","","","","2124.5","images/racket4.png","","","learning","-4","-4","1","1","practice","practice","practice","-1","","",""
"html-keyboard-response","45","273666","0.0-8.0-2.0-0.10","6281","2","16","Male","approach_avoid_spark_v1","""event"",""trial"",""time""
""fullscreenenter"",""1"",""3566""
","
","
","""event"",""trial"",""time""
""fullscreenenter"",""1"",""3566""
","
","","","","","","null","<div style=""font-size:60px;"">+</div>","null","","fixation","","","","","","","","","","",""
"aa-learning-trial","46","276668","0.0-8.0-2.0-1.10","6281","2","16","Male","approach_avoid_spark_v1","""event"",""trial"",""time""
""fullscreenenter"",""1"",""3566""
","
","
","""event"",""trial"",""time""
""fullscreenenter"",""1"",""3566""
","
","","","","","","1414.4000000003725","images/ball3.png","","","learning","-3","-3","1","1","practice","practice","practice","-1","","",""
"html-keyboard-response","47","277170","0.0-8.0-2.0-0.11","6281","2","16","Male","approach_avoid_spark_v1","""event"",""trial"",""time""
""fullscreenenter"",""1"",""3566""
","
","
","""event"",""trial"",""time""
""fullscreenenter"",""1"",""3566""
","
","","","","","","null","<div style=""font-size:60px;"">+</div>","null","","fixation","","","","","","","","","","",""
"aa-learning-trial","48","280172","0.0-8.0-2.0-1.11","6281","2","16","Male","approach_avoid_spark_v1","""event"",""trial"",""time""
""fullscreenenter"",""1"",""3566""
","
","
","""event"",""trial"",""time""
""fullscreenenter"",""1"",""3566""
","
","","","","","","1910.2000000001863","images/racket4.png","","","learning","-1","-5","2","","practice","practice","practice","-1","","",""
"html-button-response","49","283456","0.0-8.0-3.0","6281","2","16","Male","approach_avoid_spark_v1","""event"",""trial"",""time""
""fullscreenenter"",""1"",""3566""
","
","
","""event"",""trial"",""time""
""fullscreenenter"",""1"",""3566""
","
","","","","","","3281.4000000003725","<p> You earned -23 points in the practice round! </p>","0","","break","","","","","","","","","","",""
"learning-instructions","50","300840","0.0-8.0-4.0-0.0","6281","2","16","Male","approach_avoid_spark_v1","""event"",""trial"",""time""
""fullscreenenter"",""1"",""3566""
","
","
","""event"",""trial"",""time""
""fullscreenenter"",""1"",""3566""
","
","","","","","","11404.199999999255","<p> It's almost time to start the real game. </p><p> Before you start, we're going to ask you a few questions about how the game works. </p>","","0","instructions","","","","","","","","","","",""
"preload","51","302514","0.0-8.0-5.0","6281","2","16","Male","approach_avoid_spark_v1","""event"",""trial"",""time""
""fullscreenenter"",""1"",""3566""
","
","
","""event"",""trial"",""time""
""fullscreenenter"",""1"",""3566""
","
","true","false","[]","[]","[]","","","","","","","","","","","","","","","",""
"comp-q","52","312045","0.0-8.0-6.0-0.0","6281","2","16","Male","approach_avoid_spark_v1","""event"",""trial"",""time""
""fullscreenenter"",""1"",""3566""
","
","
","""event"",""trial"",""time""
""fullscreenenter"",""1"",""3566""
","
","","","","","","4530","<p> <b> True or False? </b> </p><p> If you see a number in GREY, that means you earned that many points. </p>","","1","comp_question","","","","","","","","","true","",""
"comp-q","53","336959","0.0-8.0-6.0-1.0","6281","2","16","Male","approach_avoid_spark_v1","""event"",""trial"",""time""
""fullscreenenter"",""1"",""3566""
","
","
","""event"",""trial"",""time""
""fullscreenenter"",""1"",""3566""
","
","","","","","","16554.799999999814","<p><b> That's right! </b> If you see a grey number, it means you earned ZERO points. <br> The grey numbers show the points you WOULD HAVE earned if you had made the other choice. </p>","","0","comp_answer","","","","","","","","","","",""
"comp-q","54","344056","0.0-8.0-7.0-0.0","6281","2","16","Male","approach_avoid_spark_v1","""event"",""trial"",""time""
""fullscreenenter"",""1"",""3566""
","
","
","""event"",""trial"",""time""
""fullscreenenter"",""1"",""3566""
","
","","","","","","2401.899999999441","<p> <b> True or False? </b> </p><p> You will have as much time as you want to make each choice. </p>","","1","comp_question","","","","","","","","","true","",""
"comp-q","55","349587","0.0-8.0-7.0-1.0","6281","2","16","Male","approach_avoid_spark_v1","""event"",""trial"",""time""
""fullscreenenter"",""1"",""3566""
","
","
","""event"",""trial"",""time""
""fullscreenenter"",""1"",""3566""
","
","","","","","","1493.1000000005588","<p> <b> That's right! </b> You will only have 3 seconds to make each choice. </p>","","0","comp_answer","","","","","","","","","","",""
"comp-q","56","354820","0.0-8.0-8.0-0.0","6281","2","16","Male","approach_avoid_spark_v1","""event"",""trial"",""time""
""fullscreenenter"",""1"",""3566""
","
","
","""event"",""trial"",""time""
""fullscreenenter"",""1"",""3566""
","
","","","","","","585.6000000005588","<p> <b> True or False? </b> </p><p> You should use the '1' and '0' keys to make your choices. </p>","","0","comp_question","","","","","","","","","true","",""
"comp-q","57","365686","0.0-8.0-8.0-1.0","6281","2","16","Male","approach_avoid_spark_v1","""event"",""trial"",""time""
""fullscreenenter"",""1"",""3566""
","
","
","""event"",""trial"",""time""
""fullscreenenter"",""1"",""3566""
","
","","","","","","6262.0999999996275","<p> <b> That's right! </b> You should use the '1' and '0' keys to make each choice. </p>","","0","comp_answer","","","","","","","","","","",""
"learning-instructions","58","372925","0.0-8.0-9.0-0.0","6281","2","16","Male","approach_avoid_spark_v1","""event"",""trial"",""time""
""fullscreenenter"",""1"",""3566""
","
","
","""event"",""trial"",""time""
""fullscreenenter"",""1"",""3566""
","
","","","","","","961.2999999998137","<p> It's now time to start the real game. </p>Do your best, because the points you earn in the next rounds will influence your bonus payment. </p>","","0","instructions","","","","","","","","","","",""
"preload","59","373060","0.0-9.0-0.0","6281","2","16","Male","approach_avoid_spark_v1","""event"",""trial"",""time""
""fullscreenenter"",""1"",""3566""
","
","
","""event"",""trial"",""time""
""fullscreenenter"",""1"",""3566""
","
","true","false","[]","[]","[]","","","","","","","","","","","","","","","",""
"learning-instructions","60","379343","0.0-9.0-1.0-0.0","6281","2","16","Male","approach_avoid_spark_v1","""event"",""trial"",""time""
""fullscreenenter"",""1"",""3566""
","
","
","""event"",""trial"",""time""
""fullscreenenter"",""1"",""3566""
","
","","","","","","1569","<p> Your goal in this round is to decorate your friend's new house with furniture. </p></div>","","0","instructions","","","","","","","","","","",""
"learning-instructions","61","415500","0.0-9.0-1.0-0.1","6281","2","16","Male","approach_avoid_spark_v1","""event"",""trial"",""time""
""fullscreenenter"",""1"",""3566""
","
","
","""event"",""trial"",""time""
""fullscreenenter"",""1"",""3566""
","
","","","","","","25946.5","<p> Your friend likes some pieces of furniture but not others.  </p><p> On each turn, you will see a piece of furniture.   </p><p> You need to decide whether to put it in your friend's house or not.  </p>","","0","instructions","","","","","","","","","","",""
"learning-instructions","62","422697","0.0-9.0-1.0-0.2","6281","2","16","Male","approach_avoid_spark_v1","""event"",""trial"",""time""
""fullscreenenter"",""1"",""3566""
","
","
","""event"",""trial"",""time""
""fullscreenenter"",""1"",""3566""
","
","","","","","","1433.9000000003725","<p> You can put the furniture in her house by pressing 1 and deliver it elsewhere by pressing 0. </p><br><div class=""choice-instructions-grid""> <div class=""choice-option""><img src=""images/approach.png"" class=""choice-option-img"" stage=""instructions"" position=""0"" ><div class=""choice-option-text""> Press ""1."" </div></div><div class=""choice-option""><img src=""images/avoid.png"" class=""choice-option-img"" stage=""instructions"" position=""1"" ><div class=""choice-option-text""> Press ""0."" </div></div>","","0","instructions","","","","","","","","","","",""
"learning-instructions","63","432581","0.0-9.0-1.0-0.3","6281","2","16","Male","approach_avoid_spark_v1","""event"",""trial"",""time""
""fullscreenenter"",""1"",""3566""
","
","
","""event"",""trial"",""time""
""fullscreenenter"",""1"",""3566""
","
","","","","","","967.0999999996275","<p> If you decorate your friend's house with furniture she likes, she will be happy! </p><p> But if you give her furniture that she does not like, she will be annoyed. </p>","","0","instructions","","","","","","","","","","",""
"learning-instructions","64","445392","0.0-9.0-1.0-0.4","6281","2","16","Male","approach_avoid_spark_v1","""event"",""trial"",""time""
""fullscreenenter"",""1"",""3566""
","
","
","""event"",""trial"",""time""
""fullscreenenter"",""1"",""3566""
","
","","","","","","579","<p> You will earn points based on how you made your friend feel. </p><p> If you made her happy, you will WIN anywhere from 1 - 9 points, </p><p> but if you made her annoyed you will LOSE anywhere from 1 - 9 points. </p>","","0","instructions","","","","","","","","","","",""
"learning-instructions","65","453879","0.0-9.0-1.0-0.5","6281","2","16","Male","approach_avoid_spark_v1","""event"",""trial"",""time""
""fullscreenenter"",""1"",""3566""
","
","
","""event"",""trial"",""time""
""fullscreenenter"",""1"",""3566""
","
","","","","","","456.40000000037253","<p> You will see how many points you won or lost in the center of the screen. </p><p> Here is what you would see if you won 5 points: </p><p style=""color:green;font-size:50px;font-weight:bolder"">5</p>","","0","instructions","","","","","","","","","","",""
"learning-instructions","66","458650","0.0-9.0-1.0-0.6","6281","2","16","Male","approach_avoid_spark_v1","""event"",""trial"",""time""
""fullscreenenter"",""1"",""3566""
","
","
","""event"",""trial"",""time""
""fullscreenenter"",""1"",""3566""
","
","","","","","","1216.5999999996275","<p> And here is what you would see if you lost 3 points: </p><p style=""color:red;font-size:50px;font-weight:bolder"">-3</p>","","0","instructions","","","","","","","","","","",""
"learning-instructions","67","476680","0.0-9.0-1.0-0.7","6281","2","16","Male","approach_avoid_spark_v1","""event"",""trial"",""time""
""fullscreenenter"",""1"",""3566""
","
","
","""event"",""trial"",""time""
""fullscreenenter"",""1"",""3566""
","
","","","","","","617.3000000007451","<p> Some pieces of furniture will make her feel very happy or very annoyed. </p><p> These pieces of furniture will make you win or lose LOTS of points. </p><p> Other pieces of furniture will only make her feel a little happy or a little annoyed. </p><p> These pieces of furniture will make you win or lose small amounts of points. </p>","","0","instructions","","","","","","","","","","",""
"learning-instructions","68","492933","0.0-9.0-1.0-0.8","6281","2","16","Male","approach_avoid_spark_v1","""event"",""trial"",""time""
""fullscreenenter"",""1"",""3566""
","
","
","""event"",""trial"",""time""
""fullscreenenter"",""1"",""3566""
","
","","","","","","3209.9000000003725","<p> If you choose to deliver a piece of furniture elsewhere, you will not win or lose any points. </p><p>  However, in the center of the screen, you will see the number of points you WOULD HAVE won or lost if you had given the furniture to your friend. </p>","","0","instructions","","","","","","","","","","",""
"learning-instructions","69","505297","0.0-9.0-1.0-0.9","6281","2","16","Male","approach_avoid_spark_v1","""event"",""trial"",""time""
""fullscreenenter"",""1"",""3566""
","
","
","""event"",""trial"",""time""
""fullscreenenter"",""1"",""3566""
","
","","","","","","823.3999999994412","<p> Here is what you might see if you did not give a piece of furniture to your friend that would have made her happy: </p><p style=""color:grey; font-size:50px; display: inline-block; border-spacing: 15px; border-width:3px; border-style:solid; border-color:red"">  &nbsp; 6 &nbsp; </p><p> Remember, in this case, you would not win or lose ANY points because you did not give her the furniture.  </p>","","0","instructions","","","","","","","","","","",""
"learning-instructions","70","513621","0.0-9.0-1.0-0.10","6281","2","16","Male","approach_avoid_spark_v1","""event"",""trial"",""time""
""fullscreenenter"",""1"",""3566""
","
","
","""event"",""trial"",""time""
""fullscreenenter"",""1"",""3566""
","
","","","","","","618.4000000003725","<p> Try to make the best choice for each piece of furniture because </p><p> at the end of the game, you will earn bonus money based on how many points you earned. </p>","","0","instructions","","","","","","","","","","",""
"learning-instructions","71","522389","0.0-9.0-1.0-0.11","6281","2","16","Male","approach_avoid_spark_v1","""event"",""trial"",""time""
""fullscreenenter"",""1"",""3566""
","
","
","""event"",""trial"",""time""
""fullscreenenter"",""1"",""3566""
","
","","","","","","576.2000000001863","<p> You will have 3 seconds to make each choice. Try to respond before time runs out! </p><p> You will lose 5 points each time you do not make a response. </p>","","0","instructions","","","","","","","","","","",""
"html-keyboard-response","72","523014","0.0-9.0-2.0-0.0","6281","2","16","Male","approach_avoid_spark_v1","""event"",""trial"",""time""
""fullscreenenter"",""1"",""3566""
","
","
","""event"",""trial"",""time""
""fullscreenenter"",""1"",""3566""
","
","","","","","","null","<div style=""font-size:60px;"">+</div>","null","","fixation","","","","","","","","","","",""
"aa-learning-trial","73","526029","0.0-9.0-2.0-1.0","6281","2","16","Male","approach_avoid_spark_v1","""event"",""trial"",""time""
""fullscreenenter"",""1"",""3566""
","
","
","""event"",""trial"",""time""
""fullscreenenter"",""1"",""3566""
","
","","","","","","951.3999999994412","images/chair7.png","","","learning","3","-5","2","","chair","furniture","2","0","","neutral","0"
"html-keyboard-response","74","526533","0.0-9.0-2.0-0.1","6281","2","16","Male","approach_avoid_spark_v1","""event"",""trial"",""time""
""fullscreenenter"",""1"",""3566""
","
","
","""event"",""trial"",""time""
""fullscreenenter"",""1"",""3566""
","
","","","","","","null","<div style=""font-size:60px;"">+</div>","null","","fixation","","","","","","","","","","",""
"aa-learning-trial","75","529539","0.0-9.0-2.0-1.1","6281","2","16","Male","approach_avoid_spark_v1","""event"",""trial"",""time""
""fullscreenenter"",""1"",""3566""
","
","
","""event"",""trial"",""time""
""fullscreenenter"",""1"",""3566""
","
","","","","","","952.7000000001863","images/sofa6.png","","","learning","4","4","1","1","sofa","furniture","2","0","","bad","[-4]"
"html-keyboard-response","76","530042","0.0-9.0-2.0-0.2","6281","2","16","Male","approach_avoid_spark_v1","""event"",""trial"",""time""
""fullscreenenter"",""1"",""3566""
","
","
","""event"",""trial"",""time""
""fullscreenenter"",""1"",""3566""
","
","","","","","","null","<div style=""font-size:60px;"">+</div>","null","","fixation","","","","","","","","","","",""
"aa-learning-trial","77","533054","0.0-9.0-2.0-1.2","6281","2","16","Male","approach_avoid_spark_v1","""event"",""trial"",""time""
""fullscreenenter"",""1"",""3566""
","
","
","""event"",""trial"",""time""
""fullscreenenter"",""1"",""3566""
","
","","","","","","1730.9000000003725","images/sofa3.png","","","learning","2","-5","2","","sofa","furniture","2","0","","bad","[-4]"
"html-keyboard-response","78","533556","0.0-9.0-2.0-0.3","6281","2","16","Male","approach_avoid_spark_v1","""event"",""trial"",""time""
""fullscreenenter"",""1"",""3566""
","
","
","""event"",""trial"",""time""
""fullscreenenter"",""1"",""3566""
","
","","","","","","null","<div style=""font-size:60px;"">+</div>","null","","fixation","","","","","","","","","","",""
"aa-learning-trial","79","536560","0.0-9.0-2.0-1.3","6281","2","16","Male","approach_avoid_spark_v1","""event"",""trial"",""time""
""fullscreenenter"",""1"",""3566""
","
","
","""event"",""trial"",""time""
""fullscreenenter"",""1"",""3566""
","
","","","","","","865.7000000001863","images/sofa6.png","","","learning","4","4","1","1","sofa","furniture","2","0","","bad","[-4]"
"html-keyboard-response","80","537065","0.0-9.0-2.0-0.4","6281","2","16","Male","approach_avoid_spark_v1","""event"",""trial"",""time""
""fullscreenenter"",""1"",""3566""
","
","
","""event"",""trial"",""time""
""fullscreenenter"",""1"",""3566""
","
","","","","","","null","<div style=""font-size:60px;"">+</div>","null","","fixation","","","","","","","","","","",""
"aa-learning-trial","81","540082","0.0-9.0-2.0-1.4","6281","2","16","Male","approach_avoid_spark_v1","""event"",""trial"",""time""
""fullscreenenter"",""1"",""3566""
","
","
","""event"",""trial"",""time""
""fullscreenenter"",""1"",""3566""
","
","","","","","","1020.8999999994412","images/chair6.png","","","learning","7","7","1","1","chair","furniture","2","0","","neutral","0"
"html-keyboard-response","82","540596","0.0-9.0-2.0-0.5","6281","2","16","Male","approach_avoid_spark_v1","""event"",""trial"",""time""
""fullscreenenter"",""1"",""3566""
","
","
","""event"",""trial"",""time""
""fullscreenenter"",""1"",""3566""
","
","","","","","","null","<div style=""font-size:60px;"">+</div>","null","","fixation","","","","","","","","","","",""
"aa-learning-trial","83","543607","0.0-9.0-2.0-1.5","6281","2","16","Male","approach_avoid_spark_v1","""event"",""trial"",""time""
""fullscreenenter"",""1"",""3566""
","
","
","""event"",""trial"",""time""
""fullscreenenter"",""1"",""3566""
","
","","","","","","817.5","images/sofa3.png","","","learning","2","-5","2","","sofa","furniture","2","0","","bad","[-4]"
"html-keyboard-response","84","544123","0.0-9.0-2.0-0.6","6281","2","16","Male","approach_avoid_spark_v1","""event"",""trial"",""time""
""fullscreenenter"",""1"",""3566""
","
","
","""event"",""trial"",""time""
""fullscreenenter"",""1"",""3566""
","
","","","","","","null","<div style=""font-size:60px;"">+</div>","null","","fixation","","","","","","","","","","",""
"aa-learning-trial","85","547131","0.0-9.0-2.0-1.6","6281","2","16","Male","approach_avoid_spark_v1","""event"",""trial"",""time""
""fullscreenenter"",""1"",""3566""
","
","
","""event"",""trial"",""time""
""fullscreenenter"",""1"",""3566""
","
","","","","","","1378.8999999994412","images/bed3.png","","","learning","5","5","1","1","bed","furniture","2","0","","good","[4]"
"html-keyboard-response","86","547648","0.0-9.0-2.0-0.7","6281","2","16","Male","approach_avoid_spark_v1","""event"",""trial"",""time""
""fullscreenenter"",""1"",""3566""
","
","
","""event"",""trial"",""time""
""fullscreenenter"",""1"",""3566""
","
","","","","","","null","<div style=""font-size:60px;"">+</div>","null","","fixation","","","","","","","","","","",""
"aa-learning-trial","87","550654","0.0-9.0-2.0-1.7","6281","2","16","Male","approach_avoid_spark_v1","""event"",""trial"",""time""
""fullscreenenter"",""1"",""3566""
","
","
","""event"",""trial"",""time""
""fullscreenenter"",""1"",""3566""
","
","","","","","","1916.7000000001863","images/bed7.png","","","learning","1","-5","2","","bed","furniture","2","0","","good","[4]"
"html-keyboard-response","88","551158","0.0-9.0-2.0-0.8","6281","2","16","Male","approach_avoid_spark_v1","""event"",""trial"",""time""
""fullscreenenter"",""1"",""3566""
","
","
","""event"",""trial"",""time""
""fullscreenenter"",""1"",""3566""
","
","","","","","","null","<div style=""font-size:60px;"">+</div>","null","","fixation","","","","","","","","","","",""
"aa-learning-trial","89","554160","0.0-9.0-2.0-1.8","6281","2","16","Male","approach_avoid_spark_v1","""event"",""trial"",""time""
""fullscreenenter"",""1"",""3566""
","
","
","""event"",""trial"",""time""
""fullscreenenter"",""1"",""3566""
","
","","","","","","1127.7000000001863","images/bed3.png","","","learning","5","5","1","1","bed","furniture","2","0","","good","[4]"
"html-keyboard-response","90","554661","0.0-9.0-2.0-0.9","6281","2","16","Male","approach_avoid_spark_v1","""event"",""trial"",""time""
""fullscreenenter"",""1"",""3566""
","
","
","""event"",""trial"",""time""
""fullscreenenter"",""1"",""3566""
","
","","","","","","null","<div style=""font-size:60px;"">+</div>","null","","fixation","","","","","","","","","","",""
"aa-learning-trial","91","557663","0.0-9.0-2.0-1.9","6281","2","16","Male","approach_avoid_spark_v1","""event"",""trial"",""time""
""fullscreenenter"",""1"",""3566""
","
","
","""event"",""trial"",""time""
""fullscreenenter"",""1"",""3566""
","
","","","","","","1440.7999999998137","images/bed6.png","","","learning","-5","-5","2","","bed","furniture","2","0","","good","[4]"
"html-keyboard-response","92","558165","0.0-9.0-2.0-0.10","6281","2","16","Male","approach_avoid_spark_v1","""event"",""trial"",""time""
""fullscreenenter"",""1"",""3566""
","
","
","""event"",""trial"",""time""
""fullscreenenter"",""1"",""3566""
","
","","","","","","null","<div style=""font-size:60px;"">+</div>","null","","fixation","","","","","","","","","","",""
"aa-learning-trial","93","561166","0.0-9.0-2.0-1.10","6281","2","16","Male","approach_avoid_spark_v1","""event"",""trial"",""time""
""fullscreenenter"",""1"",""3566""
","
","
","""event"",""trial"",""time""
""fullscreenenter"",""1"",""3566""
","
","","","","","","896.2999999998137","images/chair5.png","","","learning","-7","-5","2","","chair","furniture","2","0","","neutral","0"
"html-keyboard-response","94","561668","0.0-9.0-2.0-0.11","6281","2","16","Male","approach_avoid_spark_v1","""event"",""trial"",""time""
""fullscreenenter"",""1"",""3566""
","
","
","""event"",""trial"",""time""
""fullscreenenter"",""1"",""3566""
","
","","","","","","null","<div style=""font-size:60px;"">+</div>","null","","fixation","","","","","","","","","","",""
"aa-learning-trial","95","564670","0.0-9.0-2.0-1.11","6281","2","16","Male","approach_avoid_spark_v1","""event"",""trial"",""time""
""fullscreenenter"",""1"",""3566""
","
","
","""event"",""trial"",""time""
""fullscreenenter"",""1"",""3566""
","
","","","","","","1057.2000000001863","images/bed6.png","","","learning","-5","-5","2","","bed","furniture","2","0","","good","[4]"
"html-keyboard-response","96","565171","0.0-9.0-2.0-0.12","6281","2","16","Male","approach_avoid_spark_v1","""event"",""trial"",""time""
""fullscreenenter"",""1"",""3566""
","
","
","""event"",""trial"",""time""
""fullscreenenter"",""1"",""3566""
","
","","","","","","null","<div style=""font-size:60px;"">+</div>","null","","fixation","","","","","","","","","","",""
"aa-learning-trial","97","568174","0.0-9.0-2.0-1.12","6281","2","16","Male","approach_avoid_spark_v1","""event"",""trial"",""time""
""fullscreenenter"",""1"",""3566""
","
","
","""event"",""trial"",""time""
""fullscreenenter"",""1"",""3566""
","
","","","","","","1170.5","images/chair7.png","","","learning","3","-5","2","","chair","furniture","2","0","","neutral","0"
"html-keyboard-response","98","568675","0.0-9.0-2.0-0.13","6281","2","16","Male","approach_avoid_spark_v1","""event"",""trial"",""time""
""fullscreenenter"",""1"",""3566""
","
","
","""event"",""trial"",""time""
""fullscreenenter"",""1"",""3566""
","
","","","","","","null","<div style=""font-size:60px;"">+</div>","null","","fixation","","","","","","","","","","",""
"aa-learning-trial","99","571678","0.0-9.0-2.0-1.13","6281","2","16","Male","approach_avoid_spark_v1","""event"",""trial"",""time""
""fullscreenenter"",""1"",""3566""
","
","
","""event"",""trial"",""time""
""fullscreenenter"",""1"",""3566""
","
","","","","","","2209.2999999998137","images/chair5.png","","","learning","-7","-5","2","","chair","furniture","2","0","","neutral","0"
"html-keyboard-response","100","572180","0.0-9.0-2.0-0.14","6281","2","16","Male","approach_avoid_spark_v1","""event"",""trial"",""time""
""fullscreenenter"",""1"",""3566""
","
","
","""event"",""trial"",""time""
""fullscreenenter"",""1"",""3566""
","
","","","","","","null","<div style=""font-size:60px;"">+</div>","null","","fixation","","","","","","","","","","",""
"aa-learning-trial","101","575183","0.0-9.0-2.0-1.14","6281","2","16","Male","approach_avoid_spark_v1","""event"",""trial"",""time""
""fullscreenenter"",""1"",""3566""
","
","
","""event"",""trial"",""time""
""fullscreenenter"",""1"",""3566""
","
","","","","","","1200.7999999998137","images/sofa7.png","","","learning","-4","-5","2","","sofa","furniture","2","0","","bad","[-4]"
"html-keyboard-response","102","575684","0.0-9.0-2.0-0.15","6281","2","16","Male","approach_avoid_spark_v1","""event"",""trial"",""time""
""fullscreenenter"",""1"",""3566""
","
","
","""event"",""trial"",""time""
""fullscreenenter"",""1"",""3566""
","
","","","","","","null","<div style=""font-size:60px;"">+</div>","null","","fixation","","","","","","","","","","",""
"aa-learning-trial","103","578687","0.0-9.0-2.0-1.15","6281","2","16","Male","approach_avoid_spark_v1","""event"",""trial"",""time""
""fullscreenenter"",""1"",""3566""
","
","
","""event"",""trial"",""time""
""fullscreenenter"",""1"",""3566""
","
","","","","","","937.1000000005588","images/bed6.png","","","learning","-5","-5","2","","bed","furniture","2","0","","good","[4]"
"html-keyboard-response","104","579188","0.0-9.0-2.0-0.16","6281","2","16","Male","approach_avoid_spark_v1","""event"",""trial"",""time""
""fullscreenenter"",""1"",""3566""
","
","
","""event"",""trial"",""time""
""fullscreenenter"",""1"",""3566""
","
","","","","","","null","<div style=""font-size:60px;"">+</div>","null","","fixation","","","","","","","","","","",""
"aa-learning-trial","105","582190","0.0-9.0-2.0-1.16","6281","2","16","Male","approach_avoid_spark_v1","""event"",""trial"",""time""
""fullscreenenter"",""1"",""3566""
","
","
","""event"",""trial"",""time""
""fullscreenenter"",""1"",""3566""
","
","","","","","","1345","images/bed1.png","","","learning","-8","-5","2","","bed","furniture","2","0","","good","[4]"
"html-keyboard-response","106","582691","0.0-9.0-2.0-0.17","6281","2","16","Male","approach_avoid_spark_v1","""event"",""trial"",""time""
""fullscreenenter"",""1"",""3566""
","
","
","""event"",""trial"",""time""
""fullscreenenter"",""1"",""3566""
","
","","","","","","null","<div style=""font-size:60px;"">+</div>","null","","fixation","","","","","","","","","","",""
"aa-learning-trial","107","585695","0.0-9.0-2.0-1.17","6281","2","16","Male","approach_avoid_spark_v1","""event"",""trial"",""time""
""fullscreenenter"",""1"",""3566""
","
","
","""event"",""trial"",""time""
""fullscreenenter"",""1"",""3566""
","
","","","","","","1617.2999999998137","images/bed3.png","","","learning","5","5","1","1","bed","furniture","2","0","","good","[4]"
"html-keyboard-response","108","586197","0.0-9.0-2.0-0.18","6281","2","16","Male","approach_avoid_spark_v1","""event"",""trial"",""time""
""fullscreenenter"",""1"",""3566""
","
","
","""event"",""trial"",""time""
""fullscreenenter"",""1"",""3566""
","
","","","","","","null","<div style=""font-size:60px;"">+</div>","null","","fixation","","","","","","","","","","",""
"aa-learning-trial","109","589199","0.0-9.0-2.0-1.18","6281","2","16","Male","approach_avoid_spark_v1","""event"",""trial"",""time""
""fullscreenenter"",""1"",""3566""
","
","
","""event"",""trial"",""time""
""fullscreenenter"",""1"",""3566""
","
","","","","","","856.1000000005588","images/bed7.png","","","learning","1","-5","2","","bed","furniture","2","0","","good","[4]"
"html-keyboard-response","110","589700","0.0-9.0-2.0-0.19","6281","2","16","Male","approach_avoid_spark_v1","""event"",""trial"",""time""
""fullscreenenter"",""1"",""3566""
","
","
","""event"",""trial"",""time""
""fullscreenenter"",""1"",""3566""
","
","","","","","","null","<div style=""font-size:60px;"">+</div>","null","","fixation","","","","","","","","","","",""
"aa-learning-trial","111","592703","0.0-9.0-2.0-1.19","6281","2","16","Male","approach_avoid_spark_v1","""event"",""trial"",""time""
""fullscreenenter"",""1"",""3566""
","
","
","""event"",""trial"",""time""
""fullscreenenter"",""1"",""3566""
","
","","","","","","904","images/sofa6.png","","","learning","4","4","1","1","sofa","furniture","2","0","","bad","[-4]"
"html-keyboard-response","112","593204","0.0-9.0-2.0-0.20","6281","2","16","Male","approach_avoid_spark_v1","""event"",""trial"",""time""
""fullscreenenter"",""1"",""3566""
","
","
","""event"",""trial"",""time""
""fullscreenenter"",""1"",""3566""
","
","","","","","","null","<div style=""font-size:60px;"">+</div>","null","","fixation","","","","","","","","","","",""
"aa-learning-trial","113","596206","0.0-9.0-2.0-1.20","6281","2","16","Male","approach_avoid_spark_v1","""event"",""trial"",""time""
""fullscreenenter"",""1"",""3566""
","
","
","""event"",""trial"",""time""
""fullscreenenter"",""1"",""3566""
","
","","","","","","745.0999999996275","images/chair5.png","","","learning","-7","-5","2","","chair","furniture","2","0","","neutral","0"
"html-keyboard-response","114","596708","0.0-9.0-2.0-0.21","6281","2","16","Male","approach_avoid_spark_v1","""event"",""trial"",""time""
""fullscreenenter"",""1"",""3566""
","
","
","""event"",""trial"",""time""
""fullscreenenter"",""1"",""3566""
","
","","","","","","null","<div style=""font-size:60px;"">+</div>","null","","fixation","","","","","","","","","","",""
"aa-learning-trial","115","599711","0.0-9.0-2.0-1.21","6281","2","16","Male","approach_avoid_spark_v1","""event"",""trial"",""time""
""fullscreenenter"",""1"",""3566""
","
","
","""event"",""trial"",""time""
""fullscreenenter"",""1"",""3566""
","
","","","","","","584.6000000005588","images/chair5.png","","","learning","-7","-5","2","","chair","furniture","2","0","","neutral","0"
"html-keyboard-response","116","600214","0.0-9.0-2.0-0.22","6281","2","16","Male","approach_avoid_spark_v1","""event"",""trial"",""time""
""fullscreenenter"",""1"",""3566""
","
","
","""event"",""trial"",""time""
""fullscreenenter"",""1"",""3566""
","
","","","","","","null","<div style=""font-size:60px;"">+</div>","null","","fixation","","","","","","","","","","",""
"aa-learning-trial","117","603216","0.0-9.0-2.0-1.22","6281","2","16","Male","approach_avoid_spark_v1","""event"",""trial"",""time""
""fullscreenenter"",""1"",""3566""
","
","
","""event"",""trial"",""time""
""fullscreenenter"",""1"",""3566""
","
","","","","","","630.7999999998137","images/sofa6.png","","","learning","4","4","1","1","sofa","furniture","2","0","","bad","[-4]"
"html-keyboard-response","118","603719","0.0-9.0-2.0-0.23","6281","2","16","Male","approach_avoid_spark_v1","""event"",""trial"",""time""
""fullscreenenter"",""1"",""3566""
","
","
","""event"",""trial"",""time""
""fullscreenenter"",""1"",""3566""
","
","","","","","","null","<div style=""font-size:60px;"">+</div>","null","","fixation","","","","","","","","","","",""
"aa-learning-trial","119","606721","0.0-9.0-2.0-1.23","6281","2","16","Male","approach_avoid_spark_v1","""event"",""trial"",""time""
""fullscreenenter"",""1"",""3566""
","
","
","""event"",""trial"",""time""
""fullscreenenter"",""1"",""3566""
","
","","","","","","926","images/chair8.png","","","learning","-1","-1","1","1","chair","furniture","2","0","","neutral","0"
"html-keyboard-response","120","607222","0.0-9.0-2.0-0.24","6281","2","16","Male","approach_avoid_spark_v1","""event"",""trial"",""time""
""fullscreenenter"",""1"",""3566""
","
","
","""event"",""trial"",""time""
""fullscreenenter"",""1"",""3566""
","
","","","","","","null","<div style=""font-size:60px;"">+</div>","null","","fixation","","","","","","","","","","",""
"aa-learning-trial","121","610224","0.0-9.0-2.0-1.24","6281","2","16","Male","approach_avoid_spark_v1","""event"",""trial"",""time""
""fullscreenenter"",""1"",""3566""
","
","
","""event"",""trial"",""time""
""fullscreenenter"",""1"",""3566""
","
","","","","","","846.8999999994412","images/chair7.png","","","learning","3","-5","2","","chair","furniture","2","0","","neutral","0"
"html-keyboard-response","122","610725","0.0-9.0-2.0-0.25","6281","2","16","Male","approach_avoid_spark_v1","""event"",""trial"",""time""
""fullscreenenter"",""1"",""3566""
","
","
","""event"",""trial"",""time""
""fullscreenenter"",""1"",""3566""
","
","","","","","","null","<div style=""font-size:60px;"">+</div>","null","","fixation","","","","","","","","","","",""
"aa-learning-trial","123","613728","0.0-9.0-2.0-1.25","6281","2","16","Male","approach_avoid_spark_v1","""event"",""trial"",""time""
""fullscreenenter"",""1"",""3566""
","
","
","""event"",""trial"",""time""
""fullscreenenter"",""1"",""3566""
","
","","","","","","2526.7000000001863","images/bed3.png","","","learning","5","5","1","1","bed","furniture","2","0","","good","[4]"
"html-keyboard-response","124","614229","0.0-9.0-2.0-0.26","6281","2","16","Male","approach_avoid_spark_v1","""event"",""trial"",""time""
""fullscreenenter"",""1"",""3566""
","
","
","""event"",""trial"",""time""
""fullscreenenter"",""1"",""3566""
","
","","","","","","null","<div style=""font-size:60px;"">+</div>","null","","fixation","","","","","","","","","","",""
"aa-learning-trial","125","617232","0.0-9.0-2.0-1.26","6281","2","16","Male","approach_avoid_spark_v1","""event"",""trial"",""time""
""fullscreenenter"",""1"",""3566""
","
","
","""event"",""trial"",""time""
""fullscreenenter"",""1"",""3566""
","
","","","","","","1702.7999999998137","images/chair6.png","","","learning","7","7","1","1","chair","furniture","2","0","","neutral","0"
"html-keyboard-response","126","617734","0.0-9.0-2.0-0.27","6281","2","16","Male","approach_avoid_spark_v1","""event"",""trial"",""time""
""fullscreenenter"",""1"",""3566""
","
","
","""event"",""trial"",""time""
""fullscreenenter"",""1"",""3566""
","
","","","","","","null","<div style=""font-size:60px;"">+</div>","null","","fixation","","","","","","","","","","",""
"aa-learning-trial","127","620736","0.0-9.0-2.0-1.27","6281","2","16","Male","approach_avoid_spark_v1","""event"",""trial"",""time""
""fullscreenenter"",""1"",""3566""
","
","
","""event"",""trial"",""time""
""fullscreenenter"",""1"",""3566""
","
","","","","","","1062.7000000001863","images/chair7.png","","","learning","3","3","1","1","chair","furniture","2","0","","neutral","0"
"html-keyboard-response","128","621238","0.0-9.0-2.0-0.28","6281","2","16","Male","approach_avoid_spark_v1","""event"",""trial"",""time""
""fullscreenenter"",""1"",""3566""
","
","
","""event"",""trial"",""time""
""fullscreenenter"",""1"",""3566""
","
","","","","","","null","<div style=""font-size:60px;"">+</div>","null","","fixation","","","","","","","","","","",""
"aa-learning-trial","129","624241","0.0-9.0-2.0-1.28","6281","2","16","Male","approach_avoid_spark_v1","""event"",""trial"",""time""
""fullscreenenter"",""1"",""3566""
","
","
","""event"",""trial"",""time""
""fullscreenenter"",""1"",""3566""
","
","","","","","","1071.2000000001863","images/bed6.png","","","learning","-5","-5","2","","bed","furniture","2","0","","good","[4]"
"html-keyboard-response","130","624742","0.0-9.0-2.0-0.29","6281","2","16","Male","approach_avoid_spark_v1","""event"",""trial"",""time""
""fullscreenenter"",""1"",""3566""
","
","
","""event"",""trial"",""time""
""fullscreenenter"",""1"",""3566""
","
","","","","","","null","<div style=""font-size:60px;"">+</div>","null","","fixation","","","","","","","","","","",""
"aa-learning-trial","131","627744","0.0-9.0-2.0-1.29","6281","2","16","Male","approach_avoid_spark_v1","""event"",""trial"",""time""
""fullscreenenter"",""1"",""3566""
","
","
","""event"",""trial"",""time""
""fullscreenenter"",""1"",""3566""
","
","","","","","","2222","images/sofa3.png","","","learning","2","-5","2","","sofa","furniture","2","0","","bad","[-4]"
"html-keyboard-response","132","628246","0.0-9.0-2.0-0.30","6281","2","16","Male","approach_avoid_spark_v1","""event"",""trial"",""time""
""fullscreenenter"",""1"",""3566""
","
","
","""event"",""trial"",""time""
""fullscreenenter"",""1"",""3566""
","
","","","","","","null","<div style=""font-size:60px;"">+</div>","null","","fixation","","","","","","","","","","",""
"aa-learning-trial","133","631249","0.0-9.0-2.0-1.30","6281","2","16","Male","approach_avoid_spark_v1","""event"",""trial"",""time""
""fullscreenenter"",""1"",""3566""
","
","
","""event"",""trial"",""time""
""fullscreenenter"",""1"",""3566""
","
","","","","","","966.5","images/sofa7.png","","","learning","-4","-4","1","1","sofa","furniture","2","0","","bad","[-4]"
"html-keyboard-response","134","631751","0.0-9.0-2.0-0.31","6281","2","16","Male","approach_avoid_spark_v1","""event"",""trial"",""time""
""fullscreenenter"",""1"",""3566""
","
","
","""event"",""trial"",""time""
""fullscreenenter"",""1"",""3566""
","
","","","","","","null","<div style=""font-size:60px;"">+</div>","null","","fixation","","","","","","","","","","",""
"aa-learning-trial","135","634755","0.0-9.0-2.0-1.31","6281","2","16","Male","approach_avoid_spark_v1","""event"",""trial"",""time""
""fullscreenenter"",""1"",""3566""
","
","
","""event"",""trial"",""time""
""fullscreenenter"",""1"",""3566""
","
","","","","","","1252.6000000005588","images/bed6.png","","","learning","-5","-5","2","","bed","furniture","2","0","","good","[4]"
"html-keyboard-response","136","635257","0.0-9.0-2.0-0.32","6281","2","16","Male","approach_avoid_spark_v1","""event"",""trial"",""time""
""fullscreenenter"",""1"",""3566""
","
","
","""event"",""trial"",""time""
""fullscreenenter"",""1"",""3566""
","
","","","","","","null","<div style=""font-size:60px;"">+</div>","null","","fixation","","","","","","","","","","",""
"aa-learning-trial","137","638260","0.0-9.0-2.0-1.32","6281","2","16","Male","approach_avoid_spark_v1","""event"",""trial"",""time""
""fullscreenenter"",""1"",""3566""
","
","
","""event"",""trial"",""time""
""fullscreenenter"",""1"",""3566""
","
","","","","","","1531.4000000003725","images/chair7.png","","","learning","3","3","1","1","chair","furniture","2","0","","neutral","0"
"html-keyboard-response","138","638761","0.0-9.0-2.0-0.33","6281","2","16","Male","approach_avoid_spark_v1","""event"",""trial"",""time""
""fullscreenenter"",""1"",""3566""
","
","
","""event"",""trial"",""time""
""fullscreenenter"",""1"",""3566""
","
","","","","","","null","<div style=""font-size:60px;"">+</div>","null","","fixation","","","","","","","","","","",""
"aa-learning-trial","139","641774","0.0-9.0-2.0-1.33","6281","2","16","Male","approach_avoid_spark_v1","""event"",""trial"",""time""
""fullscreenenter"",""1"",""3566""
","
","
","""event"",""trial"",""time""
""fullscreenenter"",""1"",""3566""
","
","","","","","","1059.5","images/sofa7.png","","","learning","-4","-4","1","1","sofa","furniture","2","0","","bad","[-4]"
"html-keyboard-response","140","642276","0.0-9.0-2.0-0.34","6281","2","16","Male","approach_avoid_spark_v1","""event"",""trial"",""time""
""fullscreenenter"",""1"",""3566""
","
","
","""event"",""trial"",""time""
""fullscreenenter"",""1"",""3566""
","
","","","","","","null","<div style=""font-size:60px;"">+</div>","null","","fixation","","","","","","","","","","",""
"aa-learning-trial","141","645279","0.0-9.0-2.0-1.34","6281","2","16","Male","approach_avoid_spark_v1","""event"",""trial"",""time""
""fullscreenenter"",""1"",""3566""
","
","
","""event"",""trial"",""time""
""fullscreenenter"",""1"",""3566""
","
","","","","","","983.7000000001863","images/sofa3.png","","","learning","2","-5","2","","sofa","furniture","2","0","","bad","[-4]"
"html-keyboard-response","142","645781","0.0-9.0-2.0-0.35","6281","2","16","Male","approach_avoid_spark_v1","""event"",""trial"",""time""
""fullscreenenter"",""1"",""3566""
","
","
","""event"",""trial"",""time""
""fullscreenenter"",""1"",""3566""
","
","","","","","","null","<div style=""font-size:60px;"">+</div>","null","","fixation","","","","","","","","","","",""
"aa-learning-trial","143","648784","0.0-9.0-2.0-1.35","6281","2","16","Male","approach_avoid_spark_v1","""event"",""trial"",""time""
""fullscreenenter"",""1"",""3566""
","
","
","""event"",""trial"",""time""
""fullscreenenter"",""1"",""3566""
","
","","","","","","798.7999999998137","images/bed3.png","","","learning","5","5","1","1","bed","furniture","2","0","","good","[4]"
"html-keyboard-response","144","649285","0.0-9.0-2.0-0.36","6281","2","16","Male","approach_avoid_spark_v1","""event"",""trial"",""time""
""fullscreenenter"",""1"",""3566""
","
","
","""event"",""trial"",""time""
""fullscreenenter"",""1"",""3566""
","
","","","","","","null","<div style=""font-size:60px;"">+</div>","null","","fixation","","","","","","","","","","",""
"aa-learning-trial","145","652287","0.0-9.0-2.0-1.36","6281","2","16","Male","approach_avoid_spark_v1","""event"",""trial"",""time""
""fullscreenenter"",""1"",""3566""
","
","
","""event"",""trial"",""time""
""fullscreenenter"",""1"",""3566""
","
","","","","","","655.5","images/sofa3.png","","","learning","2","2","1","1","sofa","furniture","2","0","","bad","[-4]"
"html-keyboard-response","146","652788","0.0-9.0-2.0-0.37","6281","2","16","Male","approach_avoid_spark_v1","""event"",""trial"",""time""
""fullscreenenter"",""1"",""3566""
","
","
","""event"",""trial"",""time""
""fullscreenenter"",""1"",""3566""
","
","","","","","","null","<div style=""font-size:60px;"">+</div>","null","","fixation","","","","","","","","","","",""
"aa-learning-trial","147","655791","0.0-9.0-2.0-1.37","6281","2","16","Male","approach_avoid_spark_v1","""event"",""trial"",""time""
""fullscreenenter"",""1"",""3566""
","
","
","""event"",""trial"",""time""
""fullscreenenter"",""1"",""3566""
","
","","","","","","607.8999999994412","images/chair7.png","","","learning","3","3","1","1","chair","furniture","2","0","","neutral","0"
"html-keyboard-response","148","656293","0.0-9.0-2.0-0.38","6281","2","16","Male","approach_avoid_spark_v1","""event"",""trial"",""time""
""fullscreenenter"",""1"",""3566""
","
","
","""event"",""trial"",""time""
""fullscreenenter"",""1"",""3566""
","
","","","","","","null","<div style=""font-size:60px;"">+</div>","null","","fixation","","","","","","","","","","",""
"aa-learning-trial","149","659295","0.0-9.0-2.0-1.38","6281","2","16","Male","approach_avoid_spark_v1","""event"",""trial"",""time""
""fullscreenenter"",""1"",""3566""
","
","
","""event"",""trial"",""time""
""fullscreenenter"",""1"",""3566""
","
","","","","","","631.2000000001863","images/bed3.png","","","learning","5","5","1","1","bed","furniture","2","0","","good","[4]"
"html-keyboard-response","150","659797","0.0-9.0-2.0-0.39","6281","2","16","Male","approach_avoid_spark_v1","""event"",""trial"",""time""
""fullscreenenter"",""1"",""3566""
","
","
","""event"",""trial"",""time""
""fullscreenenter"",""1"",""3566""
","
","","","","","","null","<div style=""font-size:60px;"">+</div>","null","","fixation","","","","","","","","","","",""
"aa-learning-trial","151","662799","0.0-9.0-2.0-1.39","6281","2","16","Male","approach_avoid_spark_v1","""event"",""trial"",""time""
""fullscreenenter"",""1"",""3566""
","
","
","""event"",""trial"",""time""
""fullscreenenter"",""1"",""3566""
","
","","","","","","943.5","images/sofa5.png","","","learning","-9","-9","1","1","sofa","furniture","2","0","","bad","[-4]"
"html-keyboard-response","152","663300","0.0-9.0-2.0-0.40","6281","2","16","Male","approach_avoid_spark_v1","""event"",""trial"",""time""
""fullscreenenter"",""1"",""3566""
","
","
","""event"",""trial"",""time""
""fullscreenenter"",""1"",""3566""
","
","","","","","","null","<div style=""font-size:60px;"">+</div>","null","","fixation","","","","","","","","","","",""
"aa-learning-trial","153","666303","0.0-9.0-2.0-1.40","6281","2","16","Male","approach_avoid_spark_v1","""event"",""trial"",""time""
""fullscreenenter"",""1"",""3566""
","
","
","""event"",""trial"",""time""
""fullscreenenter"",""1"",""3566""
","
","","","","","","751.7999999998137","images/sofa6.png","","","learning","4","4","1","1","sofa","furniture","2","0","","bad","[-4]"
"html-keyboard-response","154","666804","0.0-9.0-2.0-0.41","6281","2","16","Male","approach_avoid_spark_v1","""event"",""trial"",""time""
""fullscreenenter"",""1"",""3566""
","
","
","""event"",""trial"",""time""
""fullscreenenter"",""1"",""3566""
","
","","","","","","null","<div style=""font-size:60px;"">+</div>","null","","fixation","","","","","","","","","","",""
"aa-learning-trial","155","669807","0.0-9.0-2.0-1.41","6281","2","16","Male","approach_avoid_spark_v1","""event"",""trial"",""time""
""fullscreenenter"",""1"",""3566""
","
","
","""event"",""trial"",""time""
""fullscreenenter"",""1"",""3566""
","
","","","","","","711.5","images/bed7.png","","","learning","1","-5","2","","bed","furniture","2","0","","good","[4]"
"html-keyboard-response","156","670309","0.0-9.0-2.0-0.42","6281","2","16","Male","approach_avoid_spark_v1","""event"",""trial"",""time""
""fullscreenenter"",""1"",""3566""
","
","
","""event"",""trial"",""time""
""fullscreenenter"",""1"",""3566""
","
","","","","","","null","<div style=""font-size:60px;"">+</div>","null","","fixation","","","","","","","","","","",""
"aa-learning-trial","157","673311","0.0-9.0-2.0-1.42","6281","2","16","Male","approach_avoid_spark_v1","""event"",""trial"",""time""
""fullscreenenter"",""1"",""3566""
","
","
","""event"",""trial"",""time""
""fullscreenenter"",""1"",""3566""
","
","","","","","","846.8999999994412","images/chair5.png","","","learning","-7","-5","2","","chair","furniture","2","0","","neutral","0"
"html-keyboard-response","158","673813","0.0-9.0-2.0-0.43","6281","2","16","Male","approach_avoid_spark_v1","""event"",""trial"",""time""
""fullscreenenter"",""1"",""3566""
","
","
","""event"",""trial"",""time""
""fullscreenenter"",""1"",""3566""
","
","","","","","","null","<div style=""font-size:60px;"">+</div>","null","","fixation","","","","","","","","","","",""
"aa-learning-trial","159","676816","0.0-9.0-2.0-1.43","6281","2","16","Male","approach_avoid_spark_v1","""event"",""trial"",""time""
""fullscreenenter"",""1"",""3566""
","
","
","""event"",""trial"",""time""
""fullscreenenter"",""1"",""3566""
","
","","","","","","646.2000000001863","images/chair6.png","","","learning","7","7","1","1","chair","furniture","2","0","","neutral","0"
"html-keyboard-response","160","677317","0.0-9.0-2.0-0.44","6281","2","16","Male","approach_avoid_spark_v1","""event"",""trial"",""time""
""fullscreenenter"",""1"",""3566""
","
","
","""event"",""trial"",""time""
""fullscreenenter"",""1"",""3566""
","
","","","","","","null","<div style=""font-size:60px;"">+</div>","null","","fixation","","","","","","","","","","",""
"aa-learning-trial","161","680320","0.0-9.0-2.0-1.44","6281","2","16","Male","approach_avoid_spark_v1","""event"",""trial"",""time""
""fullscreenenter"",""1"",""3566""
","
","
","""event"",""trial"",""time""
""fullscreenenter"",""1"",""3566""
","
","","","","","","638.2999999998137","images/chair5.png","","","learning","-7","-5","2","","chair","furniture","2","0","","neutral","0"
"html-keyboard-response","162","680820","0.0-9.0-2.0-0.45","6281","2","16","Male","approach_avoid_spark_v1","""event"",""trial"",""time""
""fullscreenenter"",""1"",""3566""
","
","
","""event"",""trial"",""time""
""fullscreenenter"",""1"",""3566""
","
","","","","","","null","<div style=""font-size:60px;"">+</div>","null","","fixation","","","","","","","","","","",""
"aa-learning-trial","163","683822","0.0-9.0-2.0-1.45","6281","2","16","Male","approach_avoid_spark_v1","""event"",""trial"",""time""
""fullscreenenter"",""1"",""3566""
","
","
","""event"",""trial"",""time""
""fullscreenenter"",""1"",""3566""
","
","","","","","","824","images/sofa1.png","","","learning","8","8","1","1","sofa","furniture","2","0","","bad","[-4]"
"html-keyboard-response","164","684323","0.0-9.0-2.0-0.46","6281","2","16","Male","approach_avoid_spark_v1","""event"",""trial"",""time""
""fullscreenenter"",""1"",""3566""
","
","
","""event"",""trial"",""time""
""fullscreenenter"",""1"",""3566""
","
","","","","","","null","<div style=""font-size:60px;"">+</div>","null","","fixation","","","","","","","","","","",""
"aa-learning-trial","165","687325","0.0-9.0-2.0-1.46","6281","2","16","Male","approach_avoid_spark_v1","""event"",""trial"",""time""
""fullscreenenter"",""1"",""3566""
","
","
","""event"",""trial"",""time""
""fullscreenenter"",""1"",""3566""
","
","","","","","","920.2999999998137","images/bed6.png","","","learning","-5","-5","2","","bed","furniture","2","0","","good","[4]"
"html-keyboard-response","166","687826","0.0-9.0-2.0-0.47","6281","2","16","Male","approach_avoid_spark_v1","""event"",""trial"",""time""
""fullscreenenter"",""1"",""3566""
","
","
","""event"",""trial"",""time""
""fullscreenenter"",""1"",""3566""
","
","","","","","","null","<div style=""font-size:60px;"">+</div>","null","","fixation","","","","","","","","","","",""
"aa-learning-trial","167","690829","0.0-9.0-2.0-1.47","6281","2","16","Male","approach_avoid_spark_v1","""event"",""trial"",""time""
""fullscreenenter"",""1"",""3566""
","
","
","""event"",""trial"",""time""
""fullscreenenter"",""1"",""3566""
","
","","","","","","1233.300000000745","images/sofa3.png","","","learning","2","2","1","1","sofa","furniture","2","0","","bad","[-4]"
"html-keyboard-response","168","691330","0.0-9.0-2.0-0.48","6281","2","16","Male","approach_avoid_spark_v1","""event"",""trial"",""time""
""fullscreenenter"",""1"",""3566""
","
","
","""event"",""trial"",""time""
""fullscreenenter"",""1"",""3566""
","
","","","","","","null","<div style=""font-size:60px;"">+</div>","null","","fixation","","","","","","","","","","",""
"aa-learning-trial","169","694333","0.0-9.0-2.0-1.48","6281","2","16","Male","approach_avoid_spark_v1","""event"",""trial"",""time""
""fullscreenenter"",""1"",""3566""
","
","
","""event"",""trial"",""time""
""fullscreenenter"",""1"",""3566""
","
","","","","","","705.7999999998137","images/sofa6.png","","","learning","4","4","1","1","sofa","furniture","2","0","","bad","[-4]"
"html-keyboard-response","170","694835","0.0-9.0-2.0-0.49","6281","2","16","Male","approach_avoid_spark_v1","""event"",""trial"",""time""
""fullscreenenter"",""1"",""3566""
","
","
","""event"",""trial"",""time""
""fullscreenenter"",""1"",""3566""
","
","","","","","","null","<div style=""font-size:60px;"">+</div>","null","","fixation","","","","","","","","","","",""
"aa-learning-trial","171","697837","0.0-9.0-2.0-1.49","6281","2","16","Male","approach_avoid_spark_v1","""event"",""trial"",""time""
""fullscreenenter"",""1"",""3566""
","
","
","""event"",""trial"",""time""
""fullscreenenter"",""1"",""3566""
","
","","","","","","1241.0999999996275","images/chair2.png","","","learning","-3","-3","1","1","chair","furniture","2","0","","neutral","0"
"html-keyboard-response","172","698338","0.0-9.0-2.0-0.50","6281","2","16","Male","approach_avoid_spark_v1","""event"",""trial"",""time""
""fullscreenenter"",""1"",""3566""
","
","
","""event"",""trial"",""time""
""fullscreenenter"",""1"",""3566""
","
","","","","","","null","<div style=""font-size:60px;"">+</div>","null","","fixation","","","","","","","","","","",""
"aa-learning-trial","173","701340","0.0-9.0-2.0-1.50","6281","2","16","Male","approach_avoid_spark_v1","""event"",""trial"",""time""
""fullscreenenter"",""1"",""3566""
","
","
","""event"",""trial"",""time""
""fullscreenenter"",""1"",""3566""
","
","","","","","","1729.3999999994412","images/bed5.png","","","learning","6","-5","2","","bed","furniture","2","0","","good","[4]"
"html-button-response","174","708974","0.0-9.0-3.0","6281","2","16","Male","approach_avoid_spark_v1","""event"",""trial"",""time""
""fullscreenenter"",""1"",""3566""
","
","
","""event"",""trial"",""time""
""fullscreenenter"",""1"",""3566""
","
","","","","","","7631.699999999255","<p> You have completed the round! <p> In this round, you earned -50 points! </p>","0","","break","","","","","","","","","","",""
"html-button-response","175","710227","0.0-10.0","6281","2","16","Male","approach_avoid_spark_v1","""event"",""trial"",""time""
""fullscreenenter"",""1"",""3566""
","
","
","""event"",""trial"",""time""
""fullscreenenter"",""1"",""3566""
","
","","","","","","1252.4000000003725","<p> Now it's time to play another round. </p>","0","","transition_screen","","","","","","","","","","",""
"preload","176","712358","0.0-11.0-0.0","6281","2","16","Male","approach_avoid_spark_v1","""event"",""trial"",""time""
""fullscreenenter"",""1"",""3566""
","
","
","""event"",""trial"",""time""
""fullscreenenter"",""1"",""3566""
","
","true","false","[]","[]","[]","","","","","","","","","","","","","","","",""
"learning-instructions","177","718768","0.0-11.0-1.0-0.0","6281","2","16","Male","approach_avoid_spark_v1","""event"",""trial"",""time""
""fullscreenenter"",""1"",""3566""
","
","
","""event"",""trial"",""time""
""fullscreenenter"",""1"",""3566""
","
","","","","","","3512.7999999998137","<p> Your goal in this round is to eat tasty fruit. </p></div>","","0","instructions","","","","","","","","","","",""
"learning-instructions","178","729883","0.0-11.0-1.0-0.1","6281","2","16","Male","approach_avoid_spark_v1","""event"",""trial"",""time""
""fullscreenenter"",""1"",""3566""
","
","
","""event"",""trial"",""time""
""fullscreenenter"",""1"",""3566""
","
","","","","","","1337.7999999998137","<p> Some of the fruits you will see are tasty. Others are rotten on the inside.  </p><p> On each turn, you will see a fruit.   </p><p> You need to decide whether to eat it or not.  </p>","","0","instructions","","","","","","","","","","",""
"learning-instructions","179","735897","0.0-11.0-1.0-0.2","6281","2","16","Male","approach_avoid_spark_v1","""event"",""trial"",""time""
""fullscreenenter"",""1"",""3566""
","
","
","""event"",""trial"",""time""
""fullscreenenter"",""1"",""3566""
","
","","","","","","782.2000000001863","<p> You can eat the fruit by pressing 1 and choose not to eat it by pressing 0. </p><br><div class=""choice-instructions-grid""> <div class=""choice-option""><img src=""images/approach.png"" class=""choice-option-img"" stage=""instructions"" position=""0"" ><div class=""choice-option-text""> Press ""1."" </div></div><div class=""choice-option""><img src=""images/avoid.png"" class=""choice-option-img"" stage=""instructions"" position=""1"" ><div class=""choice-option-text""> Press ""0."" </div></div>","","0","instructions","","","","","","","","","","",""
"learning-instructions","180","750701","0.0-11.0-1.0-0.3","6281","2","16","Male","approach_avoid_spark_v1","""event"",""trial"",""time""
""fullscreenenter"",""1"",""3566""
","
","
","""event"",""trial"",""time""
""fullscreenenter"",""1"",""3566""
","
","","","","","","7316.899999999441","<p> If you eat the fruit and it was tasty, you will win points! </p><p> But if you eat the fruit and it was rotten, you will lose points. </p>","","0","instructions","","","","","","","","","","",""
"learning-instructions","181","762521","0.0-11.0-1.0-0.4","6281","2","16","Male","approach_avoid_spark_v1","""event"",""trial"",""time""
""fullscreenenter"",""1"",""3566""
","
","
","""event"",""trial"",""time""
""fullscreenenter"",""1"",""3566""
","
","","","","","","487.20000000018626","<p> You will earn points based on how tasty or rotten the fruit was. </p><p> If it was tasty, you will WIN anywhere from 1 - 9 points, </p><p> but if it was rotten, you will LOSE anywhere from 1 - 9 points. </p>","","0","instructions","","","","","","","","","","",""
"learning-instructions","182","769920","0.0-11.0-1.0-0.5","6281","2","16","Male","approach_avoid_spark_v1","""event"",""trial"",""time""
""fullscreenenter"",""1"",""3566""
","
","
","""event"",""trial"",""time""
""fullscreenenter"",""1"",""3566""
","
","","","","","","745.7999999998137","<p> You will see how many points you won or lost in the center of the screen. </p><p> Here is what you would see if you earned 5 points: </p><p style=""color:green;font-size:50px;font-weight:bolder"">5</p>","","0","instructions","","","","","","","","","","",""
"learning-instructions","183","773133","0.0-11.0-1.0-0.6","6281","2","16","Male","approach_avoid_spark_v1","""event"",""trial"",""time""
""fullscreenenter"",""1"",""3566""
","
","
","""event"",""trial"",""time""
""fullscreenenter"",""1"",""3566""
","
","","","","","","379","<p> And here is what you would see if you lost 3 points: </p><p style=""color:red;font-size:50px;font-weight:bolder"">-3</p>","","0","instructions","","","","","","","","","","",""
"learning-instructions","184","787489","0.0-11.0-1.0-0.7","6281","2","16","Male","approach_avoid_spark_v1","""event"",""trial"",""time""
""fullscreenenter"",""1"",""3566""
","
","
","""event"",""trial"",""time""
""fullscreenenter"",""1"",""3566""
","
","","","","","","385.09999999962747","<p> Some fruit is very tasty or very rotten. </p><p> These fruits will make you win or lose LOTS of points. </p><p> Other fruits are only kind of tasty or kind of rotten. </p><p> These fruits will make you win or lose small amounts of points. </p>","","0","instructions","","","","","","","","","","",""
"learning-instructions","185","798750","0.0-11.0-1.0-0.8","6281","2","16","Male","approach_avoid_spark_v1","""event"",""trial"",""time""
""fullscreenenter"",""1"",""3566""
","
","
","""event"",""trial"",""time""
""fullscreenenter"",""1"",""3566""
","
","","","","","","755.5999999996275","<p> If you choose to not eat the fruit, you will not win or lose any points. </p><p>  However, in the center of the screen, you will see the number of points you WOULD HAVE earned if you had eaten the fruit. </p>","","0","instructions","","","","","","","","","","",""
"learning-instructions","186","809283","0.0-11.0-1.0-0.9","6281","2","16","Male","approach_avoid_spark_v1","""event"",""trial"",""time""
""fullscreenenter"",""1"",""3566""
","
","
","""event"",""trial"",""time""
""fullscreenenter"",""1"",""3566""
","
","","","","","","599.1000000005588","<p> Here is what you might see if you did not eat the fruit but the fruit was tasty: </p><p style=""color:grey; font-size:50px; display: inline-block; border-spacing: 15px; border-width:3px; border-style:solid; border-color:red"">  &nbsp; 6 &nbsp; </p><p> Remember, in this case, you would not win or lose ANY points because you did not eat the fruit.  </p>","","0","instructions","","","","","","","","","","",""
"learning-instructions","187","817843","0.0-11.0-1.0-0.10","6281","2","16","Male","approach_avoid_spark_v1","""event"",""trial"",""time""
""fullscreenenter"",""1"",""3566""
","
","
","""event"",""trial"",""time""
""fullscreenenter"",""1"",""3566""
","
","","","","","","559.2999999998137","<p> Try to make the best choice for each fruit because </p><p> at the end of the game, you will earn bonus money based on how many points you earned. </p>","","0","instructions","","","","","","","","","","",""
"learning-instructions","188","826411","0.0-11.0-1.0-0.11","6281","2","16","Male","approach_avoid_spark_v1","""event"",""trial"",""time""
""fullscreenenter"",""1"",""3566""
","
","
","""event"",""trial"",""time""
""fullscreenenter"",""1"",""3566""
","
","","","","","","377.20000000018626","<p> You will have 3 seconds to make each choice. Try to respond before time runs out! </p><p> You will lose 5 points each time you do not make a response. </p>","","0","instructions","","","","","","","","","","",""
"html-keyboard-response","189","827020","0.0-11.0-2.0-0.0","6281","2","16","Male","approach_avoid_spark_v1","""event"",""trial"",""time""
""fullscreenenter"",""1"",""3566""
","
","
","""event"",""trial"",""time""
""fullscreenenter"",""1"",""3566""
","
","","","","","","null","<div style=""font-size:60px;"">+</div>","null","","fixation","","","","","","","","","","",""
"aa-learning-trial","190","830032","0.0-11.0-2.0-1.0","6281","2","16","Male","approach_avoid_spark_v1","""event"",""trial"",""time""
""fullscreenenter"",""1"",""3566""
","
","
","""event"",""trial"",""time""
""fullscreenenter"",""1"",""3566""
","
","","","","","","1341.4000000003725","images/straw4.png","","","learning","8","8","1","1","straw","fruit","1","1","","good","[4]"
"html-keyboard-response","191","830547","0.0-11.0-2.0-0.1","6281","2","16","Male","approach_avoid_spark_v1","""event"",""trial"",""time""
""fullscreenenter"",""1"",""3566""
","
","
","""event"",""trial"",""time""
""fullscreenenter"",""1"",""3566""
","
","","","","","","null","<div style=""font-size:60px;"">+</div>","null","","fixation","","","","","","","","","","",""
"aa-learning-trial","192","833554","0.0-11.0-2.0-1.1","6281","2","16","Male","approach_avoid_spark_v1","""event"",""trial"",""time""
""fullscreenenter"",""1"",""3566""
","
","
","""event"",""trial"",""time""
""fullscreenenter"",""1"",""3566""
","
","","","","","","1174.2999999998137","images/orange5.png","","","learning","-2","-2","1","1","orange","fruit","1","1","","bad","[-3]"
"html-keyboard-response","193","834058","0.0-11.0-2.0-0.2","6281","2","16","Male","approach_avoid_spark_v1","""event"",""trial"",""time""
""fullscreenenter"",""1"",""3566""
","
","
","""event"",""trial"",""time""
""fullscreenenter"",""1"",""3566""
","
","","","","","","null","<div style=""font-size:60px;"">+</div>","null","","fixation","","","","","","","","","","",""
"aa-learning-trial","194","837061","0.0-11.0-2.0-1.2","6281","2","16","Male","approach_avoid_spark_v1","""event"",""trial"",""time""
""fullscreenenter"",""1"",""3566""
","
","
","""event"",""trial"",""time""
""fullscreenenter"",""1"",""3566""
","
","","","","","","471.3999999994412","images/straw4.png","","","learning","7","7","1","1","straw","fruit","1","1","","good","[4]"
"html-keyboard-response","195","837578","0.0-11.0-2.0-0.3","6281","2","16","Male","approach_avoid_spark_v1","""event"",""trial"",""time""
""fullscreenenter"",""1"",""3566""
","
","
","""event"",""trial"",""time""
""fullscreenenter"",""1"",""3566""
","
","","","","","","null","<div style=""font-size:60px;"">+</div>","null","","fixation","","","","","","","","","","",""
"aa-learning-trial","196","840592","0.0-11.0-2.0-1.3","6281","2","16","Male","approach_avoid_spark_v1","""event"",""trial"",""time""
""fullscreenenter"",""1"",""3566""
","
","
","""event"",""trial"",""time""
""fullscreenenter"",""1"",""3566""
","
","","","","","","519","images/straw2.png","","","learning","5","5","1","1","straw","fruit","1","1","","good","[4]"
"html-keyboard-response","197","841104","0.0-11.0-2.0-0.4","6281","2","16","Male","approach_avoid_spark_v1","""event"",""trial"",""time""
""fullscreenenter"",""1"",""3566""
","
","
","""event"",""trial"",""time""
""fullscreenenter"",""1"",""3566""
","
","","","","","","null","<div style=""font-size:60px;"">+</div>","null","","fixation","","","","","","","","","","",""
"aa-learning-trial","198","844113","0.0-11.0-2.0-1.4","6281","2","16","Male","approach_avoid_spark_v1","""event"",""trial"",""time""
""fullscreenenter"",""1"",""3566""
","
","
","""event"",""trial"",""time""
""fullscreenenter"",""1"",""3566""
","
","","","","","","1009.3000000007451","images/banana2.png","","","learning","1","-5","2","","banana","fruit","1","1","","neutral","0"
"html-keyboard-response","199","844629","0.0-11.0-2.0-0.5","6281","2","16","Male","approach_avoid_spark_v1","""event"",""trial"",""time""
""fullscreenenter"",""1"",""3566""
","
","
","""event"",""trial"",""time""
""fullscreenenter"",""1"",""3566""
","
","","","","","","null","<div style=""font-size:60px;"">+</div>","null","","fixation","","","","","","","","","","",""
"aa-learning-trial","200","847645","0.0-11.0-2.0-1.5","6281","2","16","Male","approach_avoid_spark_v1","""event"",""trial"",""time""
""fullscreenenter"",""1"",""3566""
","
","
","""event"",""trial"",""time""
""fullscreenenter"",""1"",""3566""
","
","","","","","","883.7000000001863","images/straw8.png","","","learning","3","3","1","1","straw","fruit","1","1","","good","[4]"
"html-keyboard-response","201","848159","0.0-11.0-2.0-0.6","6281","2","16","Male","approach_avoid_spark_v1","""event"",""trial"",""time""
""fullscreenenter"",""1"",""3566""
","
","
","""event"",""trial"",""time""
""fullscreenenter"",""1"",""3566""
","
","","","","","","null","<div style=""font-size:60px;"">+</div>","null","","fixation","","","","","","","","","","",""
"aa-learning-trial","202","851168","0.0-11.0-2.0-1.6","6281","2","16","Male","approach_avoid_spark_v1","""event"",""trial"",""time""
""fullscreenenter"",""1"",""3566""
","
","
","""event"",""trial"",""time""
""fullscreenenter"",""1"",""3566""
","
","","","","","","514.7999999998137","images/orange1.png","","","learning","-1","-1","1","1","orange","fruit","1","1","","bad","[-3]"
"html-keyboard-response","203","851671","0.0-11.0-2.0-0.7","6281","2","16","Male","approach_avoid_spark_v1","""event"",""trial"",""time""
""fullscreenenter"",""1"",""3566""
","
","
","""event"",""trial"",""time""
""fullscreenenter"",""1"",""3566""
","
","","","","","","null","<div style=""font-size:60px;"">+</div>","null","","fixation","","","","","","","","","","",""
"aa-learning-trial","204","854686","0.0-11.0-2.0-1.7","6281","2","16","Male","approach_avoid_spark_v1","""event"",""trial"",""time""
""fullscreenenter"",""1"",""3566""
","
","
","""event"",""trial"",""time""
""fullscreenenter"",""1"",""3566""
","
","","","","","","993.7000000001863","images/banana6.png","","","learning","-1","-1","1","1","banana","fruit","1","1","","neutral","0"
"html-keyboard-response","205","855188","0.0-11.0-2.0-0.8","6281","2","16","Male","approach_avoid_spark_v1","""event"",""trial"",""time""
""fullscreenenter"",""1"",""3566""
","
","
","""event"",""trial"",""time""
""fullscreenenter"",""1"",""3566""
","
","","","","","","null","<div style=""font-size:60px;"">+</div>","null","","fixation","","","","","","","","","","",""
"aa-learning-trial","206","858191","0.0-11.0-2.0-1.8","6281","2","16","Male","approach_avoid_spark_v1","""event"",""trial"",""time""
""fullscreenenter"",""1"",""3566""
","
","
","""event"",""trial"",""time""
""fullscreenenter"",""1"",""3566""
","
","","","","","","1029.5999999996275","images/orange6.png","","","learning","-6","-6","1","1","orange","fruit","1","1","","bad","[-3]"
"html-keyboard-response","207","858693","0.0-11.0-2.0-0.9","6281","2","16","Male","approach_avoid_spark_v1","""event"",""trial"",""time""
""fullscreenenter"",""1"",""3566""
","
","
","""event"",""trial"",""time""
""fullscreenenter"",""1"",""3566""
","
","","","","","","null","<div style=""font-size:60px;"">+</div>","null","","fixation","","","","","","","","","","",""
"aa-learning-trial","208","861695","0.0-11.0-2.0-1.9","6281","2","16","Male","approach_avoid_spark_v1","""event"",""trial"",""time""
""fullscreenenter"",""1"",""3566""
","
","
","""event"",""trial"",""time""
""fullscreenenter"",""1"",""3566""
","
","","","","","","981.4000000003725","images/orange6.png","","","learning","-5","-5","2","","orange","fruit","1","1","","bad","[-3]"
"html-keyboard-response","209","862196","0.0-11.0-2.0-0.10","6281","2","16","Male","approach_avoid_spark_v1","""event"",""trial"",""time""
""fullscreenenter"",""1"",""3566""
","
","
","""event"",""trial"",""time""
""fullscreenenter"",""1"",""3566""
","
","","","","","","null","<div style=""font-size:60px;"">+</div>","null","","fixation","","","","","","","","","","",""
"aa-learning-trial","210","865199","0.0-11.0-2.0-1.10","6281","2","16","Male","approach_avoid_spark_v1","""event"",""trial"",""time""
""fullscreenenter"",""1"",""3566""
","
","
","""event"",""trial"",""time""
""fullscreenenter"",""1"",""3566""
","
","","","","","","1477.2999999998137","images/banana6.png","","","learning","2","2","1","1","banana","fruit","1","1","","neutral","0"
"html-keyboard-response","211","865700","0.0-11.0-2.0-0.11","6281","2","16","Male","approach_avoid_spark_v1","""event"",""trial"",""time""
""fullscreenenter"",""1"",""3566""
","
","
","""event"",""trial"",""time""
""fullscreenenter"",""1"",""3566""
","
","","","","","","null","<div style=""font-size:60px;"">+</div>","null","","fixation","","","","","","","","","","",""
"aa-learning-trial","212","868703","0.0-11.0-2.0-1.11","6281","2","16","Male","approach_avoid_spark_v1","""event"",""trial"",""time""
""fullscreenenter"",""1"",""3566""
","
","
","""event"",""trial"",""time""
""fullscreenenter"",""1"",""3566""
","
","","","","","","1149.2000000001863","images/banana1.png","","","learning","-2","-2","1","1","banana","fruit","1","1","","neutral","0"
"html-keyboard-response","213","869204","0.0-11.0-2.0-0.12","6281","2","16","Male","approach_avoid_spark_v1","""event"",""trial"",""time""
""fullscreenenter"",""1"",""3566""
","
","
","""event"",""trial"",""time""
""fullscreenenter"",""1"",""3566""
","
","","","","","","null","<div style=""font-size:60px;"">+</div>","null","","fixation","","","","","","","","","","",""
"aa-learning-trial","214","872208","0.0-11.0-2.0-1.12","6281","2","16","Male","approach_avoid_spark_v1","""event"",""trial"",""time""
""fullscreenenter"",""1"",""3566""
","
","
","""event"",""trial"",""time""
""fullscreenenter"",""1"",""3566""
","
","","","","","","885.3999999994412","images/banana2.png","","","learning","[1]","1","1","1","banana","fruit","1","1","","neutral","0"
"html-keyboard-response","215","872709","0.0-11.0-2.0-0.13","6281","2","16","Male","approach_avoid_spark_v1","""event"",""trial"",""time""
""fullscreenenter"",""1"",""3566""
","
","
","""event"",""trial"",""time""
""fullscreenenter"",""1"",""3566""
","
","","","","","","null","<div style=""font-size:60px;"">+</div>","null","","fixation","","","","","","","","","","",""
"aa-learning-trial","216","875712","0.0-11.0-2.0-1.13","6281","2","16","Male","approach_avoid_spark_v1","""event"",""trial"",""time""
""fullscreenenter"",""1"",""3566""
","
","
","""event"",""trial"",""time""
""fullscreenenter"",""1"",""3566""
","
","","","","","","739.7999999998137","images/orange1.png","","","learning","-3","-5","2","","orange","fruit","1","1","","bad","[-3]"
"html-keyboard-response","217","876214","0.0-11.0-2.0-0.14","6281","2","16","Male","approach_avoid_spark_v1","""event"",""trial"",""time""
""fullscreenenter"",""1"",""3566""
","
","
","""event"",""trial"",""time""
""fullscreenenter"",""1"",""3566""
","
","","","","","","null","<div style=""font-size:60px;"">+</div>","null","","fixation","","","","","","","","","","",""
"aa-learning-trial","218","879216","0.0-11.0-2.0-1.14","6281","2","16","Male","approach_avoid_spark_v1","""event"",""trial"",""time""
""fullscreenenter"",""1"",""3566""
","
","
","""event"",""trial"",""time""
""fullscreenenter"",""1"",""3566""
","
","","","","","","1155.3999999994412","images/straw8.png","","","learning","3","3","1","1","straw","fruit","1","1","","good","[4]"
"html-keyboard-response","219","879717","0.0-11.0-2.0-0.15","6281","2","16","Male","approach_avoid_spark_v1","""event"",""trial"",""time""
""fullscreenenter"",""1"",""3566""
","
","
","""event"",""trial"",""time""
""fullscreenenter"",""1"",""3566""
","
","","","","","","null","<div style=""font-size:60px;"">+</div>","null","","fixation","","","","","","","","","","",""
"aa-learning-trial","220","882720","0.0-11.0-2.0-1.15","6281","2","16","Male","approach_avoid_spark_v1","""event"",""trial"",""time""
""fullscreenenter"",""1"",""3566""
","
","
","""event"",""trial"",""time""
""fullscreenenter"",""1"",""3566""
","
","","","","","","1284.7999999998137","images/banana3.png","","","learning","1","-5","2","","banana","fruit","1","1","","neutral","0"
"html-keyboard-response","221","883221","0.0-11.0-2.0-0.16","6281","2","16","Male","approach_avoid_spark_v1","""event"",""trial"",""time""
""fullscreenenter"",""1"",""3566""
","
","
","""event"",""trial"",""time""
""fullscreenenter"",""1"",""3566""
","
","","","","","","null","<div style=""font-size:60px;"">+</div>","null","","fixation","","","","","","","","","","",""
"aa-learning-trial","222","886238","0.0-11.0-2.0-1.16","6281","2","16","Male","approach_avoid_spark_v1","""event"",""trial"",""time""
""fullscreenenter"",""1"",""3566""
","
","
","""event"",""trial"",""time""
""fullscreenenter"",""1"",""3566""
","
","","","","","","852.5","images/orange1.png","","","learning","-2","-2","1","1","orange","fruit","1","1","","bad","[-3]"
"html-keyboard-response","223","886739","0.0-11.0-2.0-0.17","6281","2","16","Male","approach_avoid_spark_v1","""event"",""trial"",""time""
""fullscreenenter"",""1"",""3566""
","
","
","""event"",""trial"",""time""
""fullscreenenter"",""1"",""3566""
","
","","","","","","null","<div style=""font-size:60px;"">+</div>","null","","fixation","","","","","","","","","","",""
"aa-learning-trial","224","889742","0.0-11.0-2.0-1.17","6281","2","16","Male","approach_avoid_spark_v1","""event"",""trial"",""time""
""fullscreenenter"",""1"",""3566""
","
","
","""event"",""trial"",""time""
""fullscreenenter"",""1"",""3566""
","
","","","","","","557.4000000003725","images/straw8.png","","","learning","5","5","1","1","straw","fruit","1","1","","good","[4]"
"html-keyboard-response","225","890245","0.0-11.0-2.0-0.18","6281","2","16","Male","approach_avoid_spark_v1","""event"",""trial"",""time""
""fullscreenenter"",""1"",""3566""
","
","
","""event"",""trial"",""time""
""fullscreenenter"",""1"",""3566""
","
","","","","","","null","<div style=""font-size:60px;"">+</div>","null","","fixation","","","","","","","","","","",""
"aa-learning-trial","226","893247","0.0-11.0-2.0-1.18","6281","2","16","Male","approach_avoid_spark_v1","""event"",""trial"",""time""
""fullscreenenter"",""1"",""3566""
","
","
","""event"",""trial"",""time""
""fullscreenenter"",""1"",""3566""
","
","","","","","","1012.7000000001863","images/banana6.png","","","learning","1","1","1","1","banana","fruit","1","1","","neutral","0"
"html-keyboard-response","227","893749","0.0-11.0-2.0-0.19","6281","2","16","Male","approach_avoid_spark_v1","""event"",""trial"",""time""
""fullscreenenter"",""1"",""3566""
","
","
","""event"",""trial"",""time""
""fullscreenenter"",""1"",""3566""
","
","","","","","","null","<div style=""font-size:60px;"">+</div>","null","","fixation","","","","","","","","","","",""
"aa-learning-trial","228","896751","0.0-11.0-2.0-1.19","6281","2","16","Male","approach_avoid_spark_v1","""event"",""trial"",""time""
""fullscreenenter"",""1"",""3566""
","
","
","""event"",""trial"",""time""
""fullscreenenter"",""1"",""3566""
","
","","","","","","676","images/orange6.png","","","learning","-5","-5","2","","orange","fruit","1","1","","bad","[-3]"
"html-keyboard-response","229","897253","0.0-11.0-2.0-0.20","6281","2","16","Male","approach_avoid_spark_v1","""event"",""trial"",""time""
""fullscreenenter"",""1"",""3566""
","
","
","""event"",""trial"",""time""
""fullscreenenter"",""1"",""3566""
","
","","","","","","null","<div style=""font-size:60px;"">+</div>","null","","fixation","","","","","","","","","","",""
"aa-learning-trial","230","900256","0.0-11.0-2.0-1.20","6281","2","16","Male","approach_avoid_spark_v1","""event"",""trial"",""time""
""fullscreenenter"",""1"",""3566""
","
","
","""event"",""trial"",""time""
""fullscreenenter"",""1"",""3566""
","
","","","","","","692.5","images/straw2.png","","","learning","6","6","1","1","straw","fruit","1","1","","good","[4]"
"html-keyboard-response","231","900756","0.0-11.0-2.0-0.21","6281","2","16","Male","approach_avoid_spark_v1","""event"",""trial"",""time""
""fullscreenenter"",""1"",""3566""
","
","
","""event"",""trial"",""time""
""fullscreenenter"",""1"",""3566""
","
","","","","","","null","<div style=""font-size:60px;"">+</div>","null","","fixation","","","","","","","","","","",""
"aa-learning-trial","232","903759","0.0-11.0-2.0-1.21","6281","2","16","Male","approach_avoid_spark_v1","""event"",""trial"",""time""
""fullscreenenter"",""1"",""3566""
","
","
","""event"",""trial"",""time""
""fullscreenenter"",""1"",""3566""
","
","","","","","","917.2999999998137","images/orange6.png","","","learning","-6","-6","1","1","orange","fruit","1","1","","bad","[-3]"
"html-keyboard-response","233","904260","0.0-11.0-2.0-0.22","6281","2","16","Male","approach_avoid_spark_v1","""event"",""trial"",""time""
""fullscreenenter"",""1"",""3566""
","
","
","""event"",""trial"",""time""
""fullscreenenter"",""1"",""3566""
","
","","","","","","null","<div style=""font-size:60px;"">+</div>","null","","fixation","","","","","","","","","","",""
"aa-learning-trial","234","907262","0.0-11.0-2.0-1.22","6281","2","16","Male","approach_avoid_spark_v1","""event"",""trial"",""time""
""fullscreenenter"",""1"",""3566""
","
","
","""event"",""trial"",""time""
""fullscreenenter"",""1"",""3566""
","
","","","","","","605.4000000003725","images/straw4.png","","","learning","4","4","1","1","straw","fruit","1","1","","good","[4]"
"html-keyboard-response","235","907763","0.0-11.0-2.0-0.23","6281","2","16","Male","approach_avoid_spark_v1","""event"",""trial"",""time""
""fullscreenenter"",""1"",""3566""
","
","
","""event"",""trial"",""time""
""fullscreenenter"",""1"",""3566""
","
","","","","","","null","<div style=""font-size:60px;"">+</div>","null","","fixation","","","","","","","","","","",""
"aa-learning-trial","236","910766","0.0-11.0-2.0-1.23","6281","2","16","Male","approach_avoid_spark_v1","""event"",""trial"",""time""
""fullscreenenter"",""1"",""3566""
","
","
","""event"",""trial"",""time""
""fullscreenenter"",""1"",""3566""
","
","","","","","","525.5","images/straw8.png","","","learning","3","3","1","1","straw","fruit","1","1","","good","[4]"
"html-keyboard-response","237","911267","0.0-11.0-2.0-0.24","6281","2","16","Male","approach_avoid_spark_v1","""event"",""trial"",""time""
""fullscreenenter"",""1"",""3566""
","
","
","""event"",""trial"",""time""
""fullscreenenter"",""1"",""3566""
","
