"trial_type","trial_index","time_elapsed","internal_node_id","subject_id","task_condition","age","gender","task_version","interactions","blur_events","focus_events","fullscreenenter_events","fullscreenexit_events","success","timeout","failed_images","failed_audio","failed_video","rt","stimulus","response","button_pressed","task_part","approach_reward","points","key_press","option_selected","stim_cat","task_block","block_condition","block_number","correct","cat_type","mean_cat_reward"
"pavlovia","0","2","0.0-0.0","7653","1","20","Male","approach_avoid_spark_v1","""event"",""trial"",""time""
""fullscreenenter"",""1"",""5716""
","
","
","""event"",""trial"",""time""
""fullscreenenter"",""1"",""5716""
","
","","","","","","","","","","","","","","","","","","","","",""
"fullscreen","1","6694","0.0-1.0","7653","1","20","Male","approach_avoid_spark_v1","""event"",""trial"",""time""
""fullscreenenter"",""1"",""5716""
","
","
","""event"",""trial"",""time""
""fullscreenenter"",""1"",""5716""
","
","true","","","","","","","","","","","","","","","","","","","",""
"preload","2","10524","0.0-2.0","7653","1","20","Male","approach_avoid_spark_v1","""event"",""trial"",""time""
""fullscreenenter"",""1"",""5716""
","
","
","""event"",""trial"",""time""
""fullscreenenter"",""1"",""5716""
","
","true","false","[]","[]","[]","","","","","","","","","","","","","","","",""
"audio-keyboard-response","3","13762","0.0-3.0","7653","1","20","Male","approach_avoid_spark_v1","""event"",""trial"",""time""
""fullscreenenter"",""1"",""5716""
","
","
","""event"",""trial"",""time""
""fullscreenenter"",""1"",""5716""
","
","","","","","","3239.9999999999995","audio/beep_loop.wav"," ","","","","","","","","","","","","",""
"audio-button-response","4","15559","0.0-4.0","7653","1","20","Male","approach_avoid_spark_v1","""event"",""trial"",""time""
""fullscreenenter"",""1"",""5716""
","
","
","""event"",""trial"",""time""
""fullscreenenter"",""1"",""5716""
","
","","","","","","1789","audio/shark.wav","4","","","","","","","","","","","","",""
"audio-button-response","5","19609","0.0-5.0","7653","1","20","Male","approach_avoid_spark_v1","""event"",""trial"",""time""
""fullscreenenter"",""1"",""5716""
","
","
","""event"",""trial"",""time""
""fullscreenenter"",""1"",""5716""
","
","","","","","","3040","audio/turtle.wav","1","","","","","","","","","","","","",""
"preload","6","22527","0.0-6.0","7653","1","20","Male","approach_avoid_spark_v1","""event"",""trial"",""time""
""fullscreenenter"",""1"",""5716""
","
","
","""event"",""trial"",""time""
""fullscreenenter"",""1"",""5716""
","
","true","false","[]","[]","[]","","","","","","","","","","","","","","","",""
"html-keyboard-response","7","25404","0.0-7.0","7653","1","20","Male","approach_avoid_spark_v1","""event"",""trial"",""time""
""fullscreenenter"",""1"",""5716""
","
","
","""event"",""trial"",""time""
""fullscreenenter"",""1"",""5716""
","
","","","","","","2875.5999999940395","Welcome to the experiment. Press any key to begin and to advance the instructions."," ","","","","","","","","","","","","",""
"learning-instructions","8","33773","0.0-8.0-0.0-0.0","7653","1","20","Male","approach_avoid_spark_v1","""event"",""trial"",""time""
""fullscreenenter"",""1"",""5716""
","
","
","""event"",""trial"",""time""
""fullscreenenter"",""1"",""5716""
","
","","","","","","1409.9000000059605","<p> Welcome! Today you are going to play 6 different rounds of a decision-making game. </p><p> Use the mouse to click next to continue. </p>","","0","instructions","","","","","","","","","","",""
"learning-instructions","9","38420","0.0-8.0-0.0-0.1","7653","1","20","Male","approach_avoid_spark_v1","""event"",""trial"",""time""
""fullscreenenter"",""1"",""5716""
","
","
","""event"",""trial"",""time""
""fullscreenenter"",""1"",""5716""
","
","","","","","","1907.199999988079","<p> You will start with a practice round to learn the rules. </p>","","0","instructions","","","","","","","","","","",""
"learning-instructions","10","43752","0.0-8.0-0.0-0.2","7653","1","20","Male","approach_avoid_spark_v1","""event"",""trial"",""time""
""fullscreenenter"",""1"",""5716""
","
","
","""event"",""trial"",""time""
""fullscreenenter"",""1"",""5716""
","
","","","","","","1869.800000011921","<p> Your goal in this round is to give out sports equipment to kids. </p></div>","","0","instructions","","","","","","","","","","",""
"learning-instructions","11","52347","0.0-8.0-0.0-0.3","7653","1","20","Male","approach_avoid_spark_v1","""event"",""trial"",""time""
""fullscreenenter"",""1"",""5716""
","
","
","""event"",""trial"",""time""
""fullscreenenter"",""1"",""5716""
","
","","","","","","1044.800000011921","<p> The kids only like some of the equipment.  </p><p> On each turn, you will see a piece of sports equipment.   </p><p> You need to decide whether to give it to the kids or not.  </p>","","0","instructions","","","","","","","","","","",""
"learning-instructions","12","58546","0.0-8.0-0.0-0.4","7653","1","20","Male","approach_avoid_spark_v1","""event"",""trial"",""time""
""fullscreenenter"",""1"",""5716""
","
","
","""event"",""trial"",""time""
""fullscreenenter"",""1"",""5716""
","
","","","","","","1442.699999988079","<p> You can give them the equipment by pressing 1 and choose not to give it to them by pressing 0. </p><br><div class=""choice-instructions-grid""> <div class=""choice-option""><img src=""images/approach.png"" class=""choice-option-img"" stage=""instructions"" position=""0"" ><div class=""choice-option-text""> Press ""1."" </div></div><div class=""choice-option""><img src=""images/avoid.png"" class=""choice-option-img"" stage=""instructions"" position=""1"" ><div class=""choice-option-text""> Press ""0."" </div></div>","","0","instructions","","","","","","","","","","",""
"learning-instructions","13","69053","0.0-8.0-0.0-0.5","7653","1","20","Male","approach_avoid_spark_v1","""event"",""trial"",""time""
""fullscreenenter"",""1"",""5716""
","
","
","""event"",""trial"",""time""
""fullscreenenter"",""1"",""5716""
","
","","","","","","3130.5","<p> If you give them a piece of equipment they like, they will be happy! </p><p> But if you give them a piece of equipment they do not like, they will be sad. </p>","","0","instructions","","","","","","","","","","",""
"learning-instructions","14","80821","0.0-8.0-0.0-0.6","7653","1","20","Male","approach_avoid_spark_v1","""event"",""trial"",""time""
""fullscreenenter"",""1"",""5716""
","
","
","""event"",""trial"",""time""
""fullscreenenter"",""1"",""5716""
","
","","","","","","1258.0999999940395","<p> You will earn points based on how you make kids feel. </p><p> If you make them happy, you will WIN anywhere from 1 - 9 points, </p><p> but if you make them sad, you will LOSE anywhere from 1 - 9 points. </p>","","0","instructions","","","","","","","","","","",""
"learning-instructions","15","93186","0.0-8.0-0.0-0.7","7653","1","20","Male","approach_avoid_spark_v1","""event"",""trial"",""time""
""fullscreenenter"",""1"",""5716""
","
","
","""event"",""trial"",""time""
""fullscreenenter"",""1"",""5716""
","
","","","","","","2803.4000000059605","<p> You will see how many points you won or lost in the center of the screen. </p><p> Here is what you would see if you won 6 points: </p><p style=""color:green;font-size:50px;font-weight:bolder"">6</p><p style=""color:green"">The text is GREEN because you WON points.</p>","","0","instructions","","","","","","","","","","",""
"learning-instructions","16","99654","0.0-8.0-0.0-0.8","7653","1","20","Male","approach_avoid_spark_v1","""event"",""trial"",""time""
""fullscreenenter"",""1"",""5716""
","
","
","""event"",""trial"",""time""
""fullscreenenter"",""1"",""5716""
","
","","","","","","962.1999999880791","<p> And here is what you would see if you lost 4 points: </p><p style=""color:red;font-size:50px;font-weight:bolder"">-4</p><p style=""color:red"">The text is RED because you LOST points. </p>","","0","instructions","","","","","","","","","","",""
"learning-instructions","17","115573","0.0-8.0-0.0-0.9","7653","1","20","Male","approach_avoid_spark_v1","""event"",""trial"",""time""
""fullscreenenter"",""1"",""5716""
","
","
","""event"",""trial"",""time""
""fullscreenenter"",""1"",""5716""
","
","","","","","","1201.7999999821186","<p> Some of the equipment will make the kids VERY happy or sad. </p><p> These pieces of equipment will make you win or lose LOTS of points. </p><p> Other pieces of equipment will only make the kids a little happy or sad. </p><p> These pieces of equipment will make you win or lose small amounts of points. </p>","","0","instructions","","","","","","","","","","",""
"learning-instructions","18","128749","0.0-8.0-0.0-0.10","7653","1","20","Male","approach_avoid_spark_v1","""event"",""trial"",""time""
""fullscreenenter"",""1"",""5716""
","
","
","""event"",""trial"",""time""
""fullscreenenter"",""1"",""5716""
","
","","","","","","2557.2999999821186","<p> If you choose not to give them the equipment, you will not win or lose any points. </p><p>  However, in the center of the screen, you will see the number of points you WOULD HAVE won or lost if you had given them the equipment. </p>","","0","instructions","","","","","","","","","","",""
"learning-instructions","19","152182","0.0-8.0-0.0-0.11","7653","1","20","Male","approach_avoid_spark_v1","""event"",""trial"",""time""
""fullscreenenter"",""1"",""5716""
","
","
","""event"",""trial"",""time""
""fullscreenenter"",""1"",""5716""
","
","","","","","","1920.800000011921","<p> Here is what you might see if you did not give the equipment to the kids but it would have made them happy: </p><p style=""color:grey; font-size:50px; display: inline-block; border-spacing: 15px; border-width:3px; border-style:solid; border-color:red"">  &nbsp; 7 &nbsp; </p><p> Remember, in this case, you would not win or lose ANY points because you did not give them the equipment.  </p><p style=""color:grey"">The text is GREY because you earned ZERO points. </p><p style=""color:red"">However, choosing to give the kids the equipment would have made you win points. The box around the text is RED because you chose the worse option. </p>","","0","instructions","","","","","","","","","","",""
"learning-instructions","20","175482","0.0-8.0-0.0-0.12","7653","1","20","Male","approach_avoid_spark_v1","""event"",""trial"",""time""
""fullscreenenter"",""1"",""5716""
","
","
","""event"",""trial"",""time""
""fullscreenenter"",""1"",""5716""
","
","","","","","","2230.699999988079","<p> Here is what you might see if you did not give the equipment to the kids but it would have made them sad: </p><p style=""color:grey;font-size:50px; display: inline-block; border-spacing: 15px; border-width:3px; border-style:solid; border-color:green"">  &nbsp; -8 &nbsp; </p><p> Remember, in this case, you would not win or lose ANY points because you did not give them the equipment.  </p><p style=""color:grey"">The text is GREY because you earned ZERO points. </p><p  style=""color:green""> Choosing to give the kids the equipment would have made you lose points. The box around the text is GREEN because you chose the better option.</p>","","0","instructions","","","","","","","","","","",""
"learning-instructions","21","188476","0.0-8.0-0.0-0.13","7653","1","20","Male","approach_avoid_spark_v1","""event"",""trial"",""time""
""fullscreenenter"",""1"",""5716""
","
","
","""event"",""trial"",""time""
""fullscreenenter"",""1"",""5716""
","
","","","","","","3904","<p> You will have 3 seconds to make each choice. Try to respond before time runs out! </p><p> You will lose 5 points each time you do not make a response. </p>","","0","instructions","","","","","","","","","","",""
"learning-instructions","22","196073","0.0-8.0-0.0-0.14","7653","1","20","Male","approach_avoid_spark_v1","""event"",""trial"",""time""
""fullscreenenter"",""1"",""5716""
","
","
","""event"",""trial"",""time""
""fullscreenenter"",""1"",""5716""
","
","","","","","","2181","<p> This is just a practice round, but in the real game, your bonus payment will depend on your total number of points.","","0","instructions","","","","","","","","","","",""
"learning-instructions","23","203699","0.0-8.0-0.0-0.15","7653","1","20","Male","approach_avoid_spark_v1","""event"",""trial"",""time""
""fullscreenenter"",""1"",""5716""
","
","
","""event"",""trial"",""time""
""fullscreenenter"",""1"",""5716""
","
","","","","","","1866.0999999940395","<p> Remember, you can give them the equipment by pressing 1 and choose not to give it to them by pressing 0. </p><br><div class=""choice-instructions-grid""> <div class=""choice-option""><img src=""images/approach.png"" class=""choice-option-img"" stage=""instructions"" position=""0"" ><div class=""choice-option-text""> Press ""1."" </div></div><div class=""choice-option""><img src=""images/avoid.png"" class=""choice-option-img"" stage=""instructions"" position=""1"" ><div class=""choice-option-text""> Press ""0."" </div></div>","","0","instructions","","","","","","","","","","",""
"html-button-response","24","206083","0.0-8.0-1.0","7653","1","20","Male","approach_avoid_spark_v1","""event"",""trial"",""time""
""fullscreenenter"",""1"",""5716""
","
","
","""event"",""trial"",""time""
""fullscreenenter"",""1"",""5716""
","
","","","","","","2268.4000000059605","<p> Ready to practice? </p>","0","","","","","","","","","","","","",""
"html-keyboard-response","25","206690","0.0-8.0-2.0-0.0","7653","1","20","Male","approach_avoid_spark_v1","""event"",""trial"",""time""
""fullscreenenter"",""1"",""5716""
","
","
","""event"",""trial"",""time""
""fullscreenenter"",""1"",""5716""
","
","","","","","","null","<div style=""font-size:60px;"">+</div>","null","","fixation","","","","","","","","","","",""
"aa-learning-trial","26","209703","0.0-8.0-2.0-1.0","7653","1","20","Male","approach_avoid_spark_v1","""event"",""trial"",""time""
""fullscreenenter"",""1"",""5716""
","
","
","""event"",""trial"",""time""
""fullscreenenter"",""1"",""5716""
","
","","","","","","1198.5999999940395","images/ball4.png","","","learning","9","9","1","1","practice","practice","practice","-1","","",""
"html-keyboard-response","27","210208","0.0-8.0-2.0-0.1","7653","1","20","Male","approach_avoid_spark_v1","""event"",""trial"",""time""
""fullscreenenter"",""1"",""5716""
","
","
","""event"",""trial"",""time""
""fullscreenenter"",""1"",""5716""
","
","","","","","","null","<div style=""font-size:60px;"">+</div>","null","","fixation","","","","","","","","","","",""
"aa-learning-trial","28","213226","0.0-8.0-2.0-1.1","7653","1","20","Male","approach_avoid_spark_v1","""event"",""trial"",""time""
""fullscreenenter"",""1"",""5716""
","
","
","""event"",""trial"",""time""
""fullscreenenter"",""1"",""5716""
","
","","","","","","1418.0999999940395","images/racket3.png","","","learning","8","0","0","0","practice","practice","practice","-1","","",""
"html-keyboard-response","29","213728","0.0-8.0-2.0-0.2","7653","1","20","Male","approach_avoid_spark_v1","""event"",""trial"",""time""
""fullscreenenter"",""1"",""5716""
","
","
","""event"",""trial"",""time""
""fullscreenenter"",""1"",""5716""
","
","","","","","","null","<div style=""font-size:60px;"">+</div>","null","","fixation","","","","","","","","","","",""
"aa-learning-trial","30","216731","0.0-8.0-2.0-1.2","7653","1","20","Male","approach_avoid_spark_v1","""event"",""trial"",""time""
""fullscreenenter"",""1"",""5716""
","
","
","""event"",""trial"",""time""
""fullscreenenter"",""1"",""5716""
","
","","","","","","1285.0999999940395","images/racket1.png","","","learning","9","9","1","1","practice","practice","practice","-1","","",""
"html-keyboard-response","31","217249","0.0-8.0-2.0-0.3","7653","1","20","Male","approach_avoid_spark_v1","""event"",""trial"",""time""
""fullscreenenter"",""1"",""5716""
","
","
","""event"",""trial"",""time""
""fullscreenenter"",""1"",""5716""
","
","","","","","","null","<div style=""font-size:60px;"">+</div>","null","","fixation","","","","","","","","","","",""
"aa-learning-trial","32","220261","0.0-8.0-2.0-1.3","7653","1","20","Male","approach_avoid_spark_v1","""event"",""trial"",""time""
""fullscreenenter"",""1"",""5716""
","
","
","""event"",""trial"",""time""
""fullscreenenter"",""1"",""5716""
","
","","","","","","578.9000000059605","images/racket2.png","","","learning","-1","-1","1","1","practice","practice","practice","-1","","",""
"html-keyboard-response","33","220764","0.0-8.0-2.0-0.4","7653","1","20","Male","approach_avoid_spark_v1","""event"",""trial"",""time""
""fullscreenenter"",""1"",""5716""
","
","
","""event"",""trial"",""time""
""fullscreenenter"",""1"",""5716""
","
","","","","","","null","<div style=""font-size:60px;"">+</div>","null","","fixation","","","","","","","","","","",""
"aa-learning-trial","34","223769","0.0-8.0-2.0-1.4","7653","1","20","Male","approach_avoid_spark_v1","""event"",""trial"",""time""
""fullscreenenter"",""1"",""5716""
","
","
","""event"",""trial"",""time""
""fullscreenenter"",""1"",""5716""
","
","","","","","","686.3999999761581","images/ball1.png","","","learning","-4","-4","1","1","practice","practice","practice","-1","","",""
"html-keyboard-response","35","224274","0.0-8.0-2.0-0.5","7653","1","20","Male","approach_avoid_spark_v1","""event"",""trial"",""time""
""fullscreenenter"",""1"",""5716""
","
","
","""event"",""trial"",""time""
""fullscreenenter"",""1"",""5716""
","
","","","","","","null","<div style=""font-size:60px;"">+</div>","null","","fixation","","","","","","","","","","",""
"aa-learning-trial","36","227278","0.0-8.0-2.0-1.5","7653","1","20","Male","approach_avoid_spark_v1","""event"",""trial"",""time""
""fullscreenenter"",""1"",""5716""
","
","
","""event"",""trial"",""time""
""fullscreenenter"",""1"",""5716""
","
","","","","","","838.1999999880791","images/ball4.png","","","learning","5","5","1","1","practice","practice","practice","-1","","",""
"html-keyboard-response","37","227782","0.0-8.0-2.0-0.6","7653","1","20","Male","approach_avoid_spark_v1","""event"",""trial"",""time""
""fullscreenenter"",""1"",""5716""
","
","
","""event"",""trial"",""time""
""fullscreenenter"",""1"",""5716""
","
","","","","","","null","<div style=""font-size:60px;"">+</div>","null","","fixation","","","","","","","","","","",""
"aa-learning-trial","38","230785","0.0-8.0-2.0-1.6","7653","1","20","Male","approach_avoid_spark_v1","""event"",""trial"",""time""
""fullscreenenter"",""1"",""5716""
","
","
","""event"",""trial"",""time""
""fullscreenenter"",""1"",""5716""
","
","","","","","","672.7999999821186","images/racket2.png","","","learning","1","0","0","0","practice","practice","practice","-1","","",""
"html-keyboard-response","39","231288","0.0-8.0-2.0-0.7","7653","1","20","Male","approach_avoid_spark_v1","""event"",""trial"",""time""
""fullscreenenter"",""1"",""5716""
","
","
","""event"",""trial"",""time""
""fullscreenenter"",""1"",""5716""
","
","","","","","","null","<div style=""font-size:60px;"">+</div>","null","","fixation","","","","","","","","","","",""
"aa-learning-trial","40","234291","0.0-8.0-2.0-1.7","7653","1","20","Male","approach_avoid_spark_v1","""event"",""trial"",""time""
""fullscreenenter"",""1"",""5716""
","
","
","""event"",""trial"",""time""
""fullscreenenter"",""1"",""5716""
","
","","","","","","1120","images/ball2.png","","","learning","-9","-9","1","1","practice","practice","practice","-1","","",""
"html-keyboard-response","41","234792","0.0-8.0-2.0-0.8","7653","1","20","Male","approach_avoid_spark_v1","""event"",""trial"",""time""
""fullscreenenter"",""1"",""5716""
","
","
","""event"",""trial"",""time""
""fullscreenenter"",""1"",""5716""
","
","","","","","","null","<div style=""font-size:60px;"">+</div>","null","","fixation","","","","","","","","","","",""
"aa-learning-trial","42","237795","0.0-8.0-2.0-1.8","7653","1","20","Male","approach_avoid_spark_v1","""event"",""trial"",""time""
""fullscreenenter"",""1"",""5716""
","
","
","""event"",""trial"",""time""
""fullscreenenter"",""1"",""5716""
","
","","","","","","1818.5","images/racket3.png","","","learning","-6","-6","1","1","practice","practice","practice","-1","","",""
"html-keyboard-response","43","238296","0.0-8.0-2.0-0.9","7653","1","20","Male","approach_avoid_spark_v1","""event"",""trial"",""time""
""fullscreenenter"",""1"",""5716""
","
","
","""event"",""trial"",""time""
""fullscreenenter"",""1"",""5716""
","
","","","","","","null","<div style=""font-size:60px;"">+</div>","null","","fixation","","","","","","","","","","",""
"aa-learning-trial","44","241299","0.0-8.0-2.0-1.9","7653","1","20","Male","approach_avoid_spark_v1","""event"",""trial"",""time""
""fullscreenenter"",""1"",""5716""
","
","
","""event"",""trial"",""time""
""fullscreenenter"",""1"",""5716""
","
","","","","","","1084.199999988079","images/racket3.png","","","learning","6","0","0","0","practice","practice","practice","-1","","",""
"html-keyboard-response","45","241801","0.0-8.0-2.0-0.10","7653","1","20","Male","approach_avoid_spark_v1","""event"",""trial"",""time""
""fullscreenenter"",""1"",""5716""
","
","
","""event"",""trial"",""time""
""fullscreenenter"",""1"",""5716""
","
","","","","","","null","<div style=""font-size:60px;"">+</div>","null","","fixation","","","","","","","","","","",""
"aa-learning-trial","46","244802","0.0-8.0-2.0-1.10","7653","1","20","Male","approach_avoid_spark_v1","""event"",""trial"",""time""
""fullscreenenter"",""1"",""5716""
","
","
","""event"",""trial"",""time""
""fullscreenenter"",""1"",""5716""
","
","","","","","","691","images/racket1.png","","","learning","3","3","1","1","practice","practice","practice","-1","","",""
"html-keyboard-response","47","245304","0.0-8.0-2.0-0.11","7653","1","20","Male","approach_avoid_spark_v1","""event"",""trial"",""time""
""fullscreenenter"",""1"",""5716""
","
","
","""event"",""trial"",""time""
""fullscreenenter"",""1"",""5716""
","
","","","","","","null","<div style=""font-size:60px;"">+</div>","null","","fixation","","","","","","","","","","",""
"aa-learning-trial","48","248308","0.0-8.0-2.0-1.11","7653","1","20","Male","approach_avoid_spark_v1","""event"",""trial"",""time""
""fullscreenenter"",""1"",""5716""
","
","
","""event"",""trial"",""time""
""fullscreenenter"",""1"",""5716""
","
","","","","","","904.5","images/ball1.png","","","learning","-9","-9","1","1","practice","practice","practice","-1","","",""
"html-button-response","49","251379","0.0-8.0-3.0","7653","1","20","Male","approach_avoid_spark_v1","""event"",""trial"",""time""
""fullscreenenter"",""1"",""5716""
","
","
","""event"",""trial"",""time""
""fullscreenenter"",""1"",""5716""
","
","","","","","","3069","<p> You earned -3 points in the practice round! </p>","0","","break","","","","","","","","","","",""
"learning-instructions","50","260548","0.0-8.0-4.0-0.0","7653","1","20","Male","approach_avoid_spark_v1","""event"",""trial"",""time""
""fullscreenenter"",""1"",""5716""
","
","
","""event"",""trial"",""time""
""fullscreenenter"",""1"",""5716""
","
","","","","","","3056.5","<p> It's almost time to start the real game. </p><p> Before you start, we're going to ask you a few questions about how the game works. </p>","","0","instructions","","","","","","","","","","",""
"preload","51","262115","0.0-8.0-5.0","7653","1","20","Male","approach_avoid_spark_v1","""event"",""trial"",""time""
""fullscreenenter"",""1"",""5716""
","
","
","""event"",""trial"",""time""
""fullscreenenter"",""1"",""5716""
","
","true","false","[]","[]","[]","","","","","","","","","","","","","","","",""
"comp-q","52","268007","0.0-8.0-6.0-0.0","7653","1","20","Male","approach_avoid_spark_v1","""event"",""trial"",""time""
""fullscreenenter"",""1"",""5716""
","
","
","""event"",""trial"",""time""
""fullscreenenter"",""1"",""5716""
","
","","","","","","895.1999999880791","<p> <b> True or False? </b> </p><p> If you see a number in GREY, that means you earned that many points. </p>","","1","comp_question","","","","","","","","","true","",""
"comp-q","53","277850","0.0-8.0-6.0-1.0","7653","1","20","Male","approach_avoid_spark_v1","""event"",""trial"",""time""
""fullscreenenter"",""1"",""5716""
","
","
","""event"",""trial"",""time""
""fullscreenenter"",""1"",""5716""
","
","","","","","","1489.4000000059605","<p><b> That's right! </b> If you see a grey number, it means you earned ZERO points. <br> The grey numbers show the points you WOULD HAVE earned if you had made the other choice. </p>","","0","comp_answer","","","","","","","","","","",""
"comp-q","54","283453","0.0-8.0-7.0-0.0","7653","1","20","Male","approach_avoid_spark_v1","""event"",""trial"",""time""
""fullscreenenter"",""1"",""5716""
","
","
","""event"",""trial"",""time""
""fullscreenenter"",""1"",""5716""
","
","","","","","","910.5","<p> <b> True or False? </b> </p><p> You will have as much time as you want to make each choice. </p>","","1","comp_question","","","","","","","","","true","",""
"comp-q","55","289134","0.0-8.0-7.0-1.0","7653","1","20","Male","approach_avoid_spark_v1","""event"",""trial"",""time""
""fullscreenenter"",""1"",""5716""
","
","
","""event"",""trial"",""time""
""fullscreenenter"",""1"",""5716""
","
","","","","","","1633.199999988079","<p> <b> That's right! </b> You will only have 3 seconds to make each choice. </p>","","0","comp_answer","","","","","","","","","","",""
"comp-q","56","295142","0.0-8.0-8.0-0.0","7653","1","20","Male","approach_avoid_spark_v1","""event"",""trial"",""time""
""fullscreenenter"",""1"",""5716""
","
","
","""event"",""trial"",""time""
""fullscreenenter"",""1"",""5716""
","
","","","","","","1351","<p> <b> True or False? </b> </p><p> You should use the '1' and '0' keys to make your choices. </p>","","0","comp_question","","","","","","","","","true","",""
"comp-q","57","301408","0.0-8.0-8.0-1.0","7653","1","20","Male","approach_avoid_spark_v1","""event"",""trial"",""time""
""fullscreenenter"",""1"",""5716""
","
","
","""event"",""trial"",""time""
""fullscreenenter"",""1"",""5716""
","
","","","","","","1657.0999999940395","<p> <b> That's right! </b> You should use the '1' and '0' keys to make each choice. </p>","","0","comp_answer","","","","","","","","","","",""
"learning-instructions","58","309317","0.0-8.0-9.0-0.0","7653","1","20","Male","approach_avoid_spark_v1","""event"",""trial"",""time""
""fullscreenenter"",""1"",""5716""
","
","
","""event"",""trial"",""time""
""fullscreenenter"",""1"",""5716""
","
","","","","","","1636.0999999940395","<p> It's now time to start the real game. </p>Do your best, because the points you earn in the next rounds will influence your bonus payment. </p>","","0","instructions","","","","","","","","","","",""
"preload","59","309446","0.0-9.0-0.0","7653","1","20","Male","approach_avoid_spark_v1","""event"",""trial"",""time""
""fullscreenenter"",""1"",""5716""
","
","
","""event"",""trial"",""time""
""fullscreenenter"",""1"",""5716""
","
","true","false","[]","[]","[]","","","","","","","","","","","","","","","",""
"learning-instructions","60","314390","0.0-9.0-1.0-0.0","7653","1","20","Male","approach_avoid_spark_v1","""event"",""trial"",""time""
""fullscreenenter"",""1"",""5716""
","
","
","""event"",""trial"",""time""
""fullscreenenter"",""1"",""5716""
","
","","","","","","1100.0999999940395","<p> Your goal in this round is to take care of lots of animals. </p></div>","","0","instructions","","","","","","","","","","",""
"learning-instructions","61","324955","0.0-9.0-1.0-0.1","7653","1","20","Male","approach_avoid_spark_v1","""event"",""trial"",""time""
""fullscreenenter"",""1"",""5716""
","
","
","""event"",""trial"",""time""
""fullscreenenter"",""1"",""5716""
","
","","","","","","872.8000000119209","<p> Some animals want to be pet, while other animals want to be left alone.  </p><p> On each turn, you will see an animal.   </p><p> You need to decide whether to pet it or not.  </p>","","0","instructions","","","","","","","","","","",""
"learning-instructions","62","331367","0.0-9.0-1.0-0.2","7653","1","20","Male","approach_avoid_spark_v1","""event"",""trial"",""time""
""fullscreenenter"",""1"",""5716""
","
","
","""event"",""trial"",""time""
""fullscreenenter"",""1"",""5716""
","
","","","","","","1275","<p> You can pet the animal by pressing 1 and leave the animal alone by pressing 0. </p><br><div class=""choice-instructions-grid""> <div class=""choice-option""><img src=""images/approach.png"" class=""choice-option-img"" stage=""instructions"" position=""0"" ><div class=""choice-option-text""> Press ""1."" </div></div><div class=""choice-option""><img src=""images/avoid.png"" class=""choice-option-img"" stage=""instructions"" position=""1"" ><div class=""choice-option-text""> Press ""0."" </div></div>","","0","instructions","","","","","","","","","","",""
"learning-instructions","63","342606","0.0-9.0-1.0-0.3","7653","1","20","Male","approach_avoid_spark_v1","""event"",""trial"",""time""
""fullscreenenter"",""1"",""5716""
","
","
","""event"",""trial"",""time""
""fullscreenenter"",""1"",""5716""
","
","","","","","","2535","<p> If you pet an animal that wants to be pet, you will make it feel happy! </p><p> But if you pet an animal that wants to be left alone, you will make it feel angry. </p>","","0","instructions","","","","","","","","","","",""
"learning-instructions","64","355769","0.0-9.0-1.0-0.4","7653","1","20","Male","approach_avoid_spark_v1","""event"",""trial"",""time""
""fullscreenenter"",""1"",""5716""
","
","
","""event"",""trial"",""time""
""fullscreenenter"",""1"",""5716""
","
","","","","","","957.3000000119209","<p> You will earn points based on how you made the animal feel. </p><p> If you made it feel happy, you will WIN anywhere from 1 - 9 points, </p><p> but if you made it feel angry, you will LOSE anywhere from 1 - 9 points. </p>","","0","instructions","","","","","","","","","","",""
"learning-instructions","65","364937","0.0-9.0-1.0-0.5","7653","1","20","Male","approach_avoid_spark_v1","""event"",""trial"",""time""
""fullscreenenter"",""1"",""5716""
","
","
","""event"",""trial"",""time""
""fullscreenenter"",""1"",""5716""
","
","","","","","","1597.0999999940395","<p> You will see how many points you won or lost in the center of the screen. </p><p> Here is what you would see if you won 5 points: </p><p style=""color:green;font-size:50px;font-weight:bolder"">5</p>","","0","instructions","","","","","","","","","","",""
"learning-instructions","66","370528","0.0-9.0-1.0-0.6","7653","1","20","Male","approach_avoid_spark_v1","""event"",""trial"",""time""
""fullscreenenter"",""1"",""5716""
","
","
","""event"",""trial"",""time""
""fullscreenenter"",""1"",""5716""
","
","","","","","","2138","<p> And here is what you would see if you lost 3 points: </p><p style=""color:red;font-size:50px;font-weight:bolder"">-3</p>","","0","instructions","","","","","","","","","","",""
"learning-instructions","67","385289","0.0-9.0-1.0-0.7","7653","1","20","Male","approach_avoid_spark_v1","""event"",""trial"",""time""
""fullscreenenter"",""1"",""5716""
","
","
","""event"",""trial"",""time""
""fullscreenenter"",""1"",""5716""
","
","","","","","","1157","<p> Some animals will become very happy or very angry. </p><p> These animals will make you win or lose LOTS of points. </p><p> Other animals have less strong feelings. </p><p> These animals will make you win or lose small amounts of points. </p>","","0","instructions","","","","","","","","","","",""
"learning-instructions","68","397720","0.0-9.0-1.0-0.8","7653","1","20","Male","approach_avoid_spark_v1","""event"",""trial"",""time""
""fullscreenenter"",""1"",""5716""
","
","
","""event"",""trial"",""time""
""fullscreenenter"",""1"",""5716""
","
","","","","","","1328.5","<p> If you choose to leave the animal alone, you will not win or lose any points. </p><p>  However, in the center of the screen, you will see the number of points you WOULD HAVE won or lost if you had pet the animal. </p>","","0","instructions","","","","","","","","","","",""
"learning-instructions","69","410421","0.0-9.0-1.0-0.9","7653","1","20","Male","approach_avoid_spark_v1","""event"",""trial"",""time""
""fullscreenenter"",""1"",""5716""
","
","
","""event"",""trial"",""time""
""fullscreenenter"",""1"",""5716""
","
","","","","","","1191.199999988079","<p> Here is what you might see if you did not pet the animal but the animal wanted to be pet: </p><p style=""color:grey; font-size:50px; display: inline-block; border-spacing: 15px; border-width:3px; border-style:solid; border-color:red"">  &nbsp; 6 &nbsp; </p><p> Remember, in this case, you would not win or lose ANY points because you did not pet the animal.  </p>","","0","instructions","","","","","","","","","","",""
"learning-instructions","70","419084","0.0-9.0-1.0-0.10","7653","1","20","Male","approach_avoid_spark_v1","""event"",""trial"",""time""
""fullscreenenter"",""1"",""5716""
","
","
","""event"",""trial"",""time""
""fullscreenenter"",""1"",""5716""
","
","","","","","","1632.0999999940395","<p> Try to make the best choice for each animal because </p><p> at the end of the game, you will earn bonus money based on how many points you earned. </p>","","0","instructions","","","","","","","","","","",""
"learning-instructions","71","428568","0.0-9.0-1.0-0.11","7653","1","20","Male","approach_avoid_spark_v1","""event"",""trial"",""time""
""fullscreenenter"",""1"",""5716""
","
","
","""event"",""trial"",""time""
""fullscreenenter"",""1"",""5716""
","
","","","","","","1286.7000000178814","<p> You will have 3 seconds to make each choice. Try to respond before time runs out! </p><p> You will lose 5 points each time you do not make a response. </p>","","0","instructions","","","","","","","","","","",""
"html-keyboard-response","72","429187","0.0-9.0-2.0-0.0","7653","1","20","Male","approach_avoid_spark_v1","""event"",""trial"",""time""
""fullscreenenter"",""1"",""5716""
","
","
","""event"",""trial"",""time""
""fullscreenenter"",""1"",""5716""
","
","","","","","","null","<div style=""font-size:60px;"">+</div>","null","","fixation","","","","","","","","","","",""
"aa-learning-trial","73","432197","0.0-9.0-2.0-1.0","7653","1","20","Male","approach_avoid_spark_v1","""event"",""trial"",""time""
""fullscreenenter"",""1"",""5716""
","
","
","""event"",""trial"",""time""
""fullscreenenter"",""1"",""5716""
","
","","","","","","1354.2000000178814","images/rabbit3.png","","","learning","[-1]","-1","1","1","rabbit","pets","1","0","","neutral","0"
"html-keyboard-response","74","432701","0.0-9.0-2.0-0.1","7653","1","20","Male","approach_avoid_spark_v1","""event"",""trial"",""time""
""fullscreenenter"",""1"",""5716""
","
","
","""event"",""trial"",""time""
""fullscreenenter"",""1"",""5716""
","
","","","","","","null","<div style=""font-size:60px;"">+</div>","null","","fixation","","","","","","","","","","",""
"aa-learning-trial","75","435711","0.0-9.0-2.0-1.1","7653","1","20","Male","approach_avoid_spark_v1","""event"",""trial"",""time""
""fullscreenenter"",""1"",""5716""
","
","
","""event"",""trial"",""time""
""fullscreenenter"",""1"",""5716""
","
","","","","","","538.5","images/cat5.png","","","learning","5","5","1","1","cat","pets","1","0","","good","[5]"
"html-keyboard-response","76","436219","0.0-9.0-2.0-0.2","7653","1","20","Male","approach_avoid_spark_v1","""event"",""trial"",""time""
""fullscreenenter"",""1"",""5716""
","
","
","""event"",""trial"",""time""
""fullscreenenter"",""1"",""5716""
","
","","","","","","null","<div style=""font-size:60px;"">+</div>","null","","fixation","","","","","","","","","","",""
"aa-learning-trial","77","439235","0.0-9.0-2.0-1.2","7653","1","20","Male","approach_avoid_spark_v1","""event"",""trial"",""time""
""fullscreenenter"",""1"",""5716""
","
","
","""event"",""trial"",""time""
""fullscreenenter"",""1"",""5716""
","
","","","","","","1275.5","images/rabbit5.png","","","learning","[1]","0","0","0","rabbit","pets","1","0","","neutral","0"
"html-keyboard-response","78","439739","0.0-9.0-2.0-0.3","7653","1","20","Male","approach_avoid_spark_v1","""event"",""trial"",""time""
""fullscreenenter"",""1"",""5716""
","
","
","""event"",""trial"",""time""
""fullscreenenter"",""1"",""5716""
","
","","","","","","null","<div style=""font-size:60px;"">+</div>","null","","fixation","","","","","","","","","","",""
"aa-learning-trial","79","442745","0.0-9.0-2.0-1.3","7653","1","20","Male","approach_avoid_spark_v1","""event"",""trial"",""time""
""fullscreenenter"",""1"",""5716""
","
","
","""event"",""trial"",""time""
""fullscreenenter"",""1"",""5716""
","
","","","","","","1040.5999999940395","images/rabbit5.png","","","learning","-1","-1","1","1","rabbit","pets","1","0","","neutral","0"
"html-keyboard-response","80","443249","0.0-9.0-2.0-0.4","7653","1","20","Male","approach_avoid_spark_v1","""event"",""trial"",""time""
""fullscreenenter"",""1"",""5716""
","
","
","""event"",""trial"",""time""
""fullscreenenter"",""1"",""5716""
","
","","","","","","null","<div style=""font-size:60px;"">+</div>","null","","fixation","","","","","","","","","","",""
"aa-learning-trial","81","446255","0.0-9.0-2.0-1.4","7653","1","20","Male","approach_avoid_spark_v1","""event"",""trial"",""time""
""fullscreenenter"",""1"",""5716""
","
","
","""event"",""trial"",""time""
""fullscreenenter"",""1"",""5716""
","
","","","","","","1212.4000000059605","images/dog2.png","","","learning","-5","-5","1","1","dog","pets","1","0","","bad","[-4]"
"html-keyboard-response","82","446759","0.0-9.0-2.0-0.5","7653","1","20","Male","approach_avoid_spark_v1","""event"",""trial"",""time""
""fullscreenenter"",""1"",""5716""
","
","
","""event"",""trial"",""time""
""fullscreenenter"",""1"",""5716""
","
","","","","","","null","<div style=""font-size:60px;"">+</div>","null","","fixation","","","","","","","","","","",""
"aa-learning-trial","83","449774","0.0-9.0-2.0-1.5","7653","1","20","Male","approach_avoid_spark_v1","""event"",""trial"",""time""
""fullscreenenter"",""1"",""5716""
","
","
","""event"",""trial"",""time""
""fullscreenenter"",""1"",""5716""
","
","","","","","","1088.0999999940395","images/cat1.png","","","learning","1","1","1","1","cat","pets","1","0","","good","[5]"
"html-keyboard-response","84","450276","0.0-9.0-2.0-0.6","7653","1","20","Male","approach_avoid_spark_v1","""event"",""trial"",""time""
""fullscreenenter"",""1"",""5716""
","
","
","""event"",""trial"",""time""
""fullscreenenter"",""1"",""5716""
","
","","","","","","null","<div style=""font-size:60px;"">+</div>","null","","fixation","","","","","","","","","","",""
"aa-learning-trial","85","453287","0.0-9.0-2.0-1.6","7653","1","20","Male","approach_avoid_spark_v1","""event"",""trial"",""time""
""fullscreenenter"",""1"",""5716""
","
","
","""event"",""trial"",""time""
""fullscreenenter"",""1"",""5716""
","
","","","","","","955.9000000059605","images/cat7.png","","","learning","2","2","1","1","cat","pets","1","0","","good","[5]"
"html-keyboard-response","86","453792","0.0-9.0-2.0-0.7","7653","1","20","Male","approach_avoid_spark_v1","""event"",""trial"",""time""
""fullscreenenter"",""1"",""5716""
","
","
","""event"",""trial"",""time""
""fullscreenenter"",""1"",""5716""
","
","","","","","","null","<div style=""font-size:60px;"">+</div>","null","","fixation","","","","","","","","","","",""
"aa-learning-trial","87","456797","0.0-9.0-2.0-1.7","7653","1","20","Male","approach_avoid_spark_v1","""event"",""trial"",""time""
""fullscreenenter"",""1"",""5716""
","
","
","""event"",""trial"",""time""
""fullscreenenter"",""1"",""5716""
","
","","","","","","1382.300000011921","images/rabbit8.png","","","learning","2","2","1","1","rabbit","pets","1","0","","neutral","0"
"html-keyboard-response","88","457299","0.0-9.0-2.0-0.8","7653","1","20","Male","approach_avoid_spark_v1","""event"",""trial"",""time""
""fullscreenenter"",""1"",""5716""
","
","
","""event"",""trial"",""time""
""fullscreenenter"",""1"",""5716""
","
","","","","","","null","<div style=""font-size:60px;"">+</div>","null","","fixation","","","","","","","","","","",""
"aa-learning-trial","89","460304","0.0-9.0-2.0-1.8","7653","1","20","Male","approach_avoid_spark_v1","""event"",""trial"",""time""
""fullscreenenter"",""1"",""5716""
","
","
","""event"",""trial"",""time""
""fullscreenenter"",""1"",""5716""
","
","","","","","","1555.0999999940395","images/rabbit3.png","","","learning","-2","0","0","0","rabbit","pets","1","0","","neutral","0"
"html-keyboard-response","90","460805","0.0-9.0-2.0-0.9","7653","1","20","Male","approach_avoid_spark_v1","""event"",""trial"",""time""
""fullscreenenter"",""1"",""5716""
","
","
","""event"",""trial"",""time""
""fullscreenenter"",""1"",""5716""
","
","","","","","","null","<div style=""font-size:60px;"">+</div>","null","","fixation","","","","","","","","","","",""
"aa-learning-trial","91","463808","0.0-9.0-2.0-1.9","7653","1","20","Male","approach_avoid_spark_v1","""event"",""trial"",""time""
""fullscreenenter"",""1"",""5716""
","
","
","""event"",""trial"",""time""
""fullscreenenter"",""1"",""5716""
","
","","","","","","1332","images/cat1.png","","","learning","4","0","0","0","cat","pets","1","0","","good","[5]"
"html-keyboard-response","92","464309","0.0-9.0-2.0-0.10","7653","1","20","Male","approach_avoid_spark_v1","""event"",""trial"",""time""
""fullscreenenter"",""1"",""5716""
","
","
","""event"",""trial"",""time""
""fullscreenenter"",""1"",""5716""
","
","","","","","","null","<div style=""font-size:60px;"">+</div>","null","","fixation","","","","","","","","","","",""
"aa-learning-trial","93","467311","0.0-9.0-2.0-1.10","7653","1","20","Male","approach_avoid_spark_v1","""event"",""trial"",""time""
""fullscreenenter"",""1"",""5716""
","
","
","""event"",""trial"",""time""
""fullscreenenter"",""1"",""5716""
","
","","","","","","943.1999999880791","images/dog2.png","","","learning","-4","0","0","0","dog","pets","1","0","","bad","[-4]"
"html-keyboard-response","94","467813","0.0-9.0-2.0-0.11","7653","1","20","Male","approach_avoid_spark_v1","""event"",""trial"",""time""
""fullscreenenter"",""1"",""5716""
","
","
","""event"",""trial"",""time""
""fullscreenenter"",""1"",""5716""
","
","","","","","","null","<div style=""font-size:60px;"">+</div>","null","","fixation","","","","","","","","","","",""
"aa-learning-trial","95","470816","0.0-9.0-2.0-1.11","7653","1","20","Male","approach_avoid_spark_v1","""event"",""trial"",""time""
""fullscreenenter"",""1"",""5716""
","
","
","""event"",""trial"",""time""
""fullscreenenter"",""1"",""5716""
","
","","","","","","691.5999999940395","images/dog8.png","","","learning","-5","-5","1","1","dog","pets","1","0","","bad","[-4]"
"html-keyboard-response","96","471318","0.0-9.0-2.0-0.12","7653","1","20","Male","approach_avoid_spark_v1","""event"",""trial"",""time""
""fullscreenenter"",""1"",""5716""
","
","
","""event"",""trial"",""time""
""fullscreenenter"",""1"",""5716""
","
","","","","","","null","<div style=""font-size:60px;"">+</div>","null","","fixation","","","","","","","","","","",""
"aa-learning-trial","97","474321","0.0-9.0-2.0-1.12","7653","1","20","Male","approach_avoid_spark_v1","""event"",""trial"",""time""
""fullscreenenter"",""1"",""5716""
","
","
","""event"",""trial"",""time""
""fullscreenenter"",""1"",""5716""
","
","","","","","","1035.7999999821186","images/dog7.png","","","learning","-7","-7","1","1","dog","pets","1","0","","bad","[-4]"
"html-keyboard-response","98","474823","0.0-9.0-2.0-0.13","7653","1","20","Male","approach_avoid_spark_v1","""event"",""trial"",""time""
""fullscreenenter"",""1"",""5716""
","
","
","""event"",""trial"",""time""
""fullscreenenter"",""1"",""5716""
","
","","","","","","null","<div style=""font-size:60px;"">+</div>","null","","fixation","","","","","","","","","","",""
"aa-learning-trial","99","477825","0.0-9.0-2.0-1.13","7653","1","20","Male","approach_avoid_spark_v1","""event"",""trial"",""time""
""fullscreenenter"",""1"",""5716""
","
","
","""event"",""trial"",""time""
""fullscreenenter"",""1"",""5716""
","
","","","","","","1059.800000011921","images/cat5.png","","","learning","4","4","1","1","cat","pets","1","0","","good","[5]"
"html-keyboard-response","100","478327","0.0-9.0-2.0-0.14","7653","1","20","Male","approach_avoid_spark_v1","""event"",""trial"",""time""
""fullscreenenter"",""1"",""5716""
","
","
","""event"",""trial"",""time""
""fullscreenenter"",""1"",""5716""
","
","","","","","","null","<div style=""font-size:60px;"">+</div>","null","","fixation","","","","","","","","","","",""
"aa-learning-trial","101","481331","0.0-9.0-2.0-1.14","7653","1","20","Male","approach_avoid_spark_v1","""event"",""trial"",""time""
""fullscreenenter"",""1"",""5716""
","
","
","""event"",""trial"",""time""
""fullscreenenter"",""1"",""5716""
","
","","","","","","1021.3000000119209","images/dog7.png","","","learning","-3","0","0","0","dog","pets","1","0","","bad","[-4]"
"html-keyboard-response","102","481832","0.0-9.0-2.0-0.15","7653","1","20","Male","approach_avoid_spark_v1","""event"",""trial"",""time""
""fullscreenenter"",""1"",""5716""
","
","
","""event"",""trial"",""time""
""fullscreenenter"",""1"",""5716""
","
","","","","","","null","<div style=""font-size:60px;"">+</div>","null","","fixation","","","","","","","","","","",""
"aa-learning-trial","103","484836","0.0-9.0-2.0-1.15","7653","1","20","Male","approach_avoid_spark_v1","""event"",""trial"",""time""
""fullscreenenter"",""1"",""5716""
","
","
","""event"",""trial"",""time""
""fullscreenenter"",""1"",""5716""
","
","","","","","","1040.5","images/dog5.png","","","learning","-6","-6","1","1","dog","pets","1","0","","bad","[-4]"
"html-keyboard-response","104","485338","0.0-9.0-2.0-0.16","7653","1","20","Male","approach_avoid_spark_v1","""event"",""trial"",""time""
""fullscreenenter"",""1"",""5716""
","
","
","""event"",""trial"",""time""
""fullscreenenter"",""1"",""5716""
","
","","","","","","null","<div style=""font-size:60px;"">+</div>","null","","fixation","","","","","","","","","","",""
"aa-learning-trial","105","488341","0.0-9.0-2.0-1.16","7653","1","20","Male","approach_avoid_spark_v1","""event"",""trial"",""time""
""fullscreenenter"",""1"",""5716""
","
","
","""event"",""trial"",""time""
""fullscreenenter"",""1"",""5716""
","
","","","","","","902.0999999940395","images/dog7.png","","","learning","-5","0","0","0","dog","pets","1","0","","bad","[-4]"
"html-keyboard-response","106","488843","0.0-9.0-2.0-0.17","7653","1","20","Male","approach_avoid_spark_v1","""event"",""trial"",""time""
""fullscreenenter"",""1"",""5716""
","
","
","""event"",""trial"",""time""
""fullscreenenter"",""1"",""5716""
","
","","","","","","null","<div style=""font-size:60px;"">+</div>","null","","fixation","","","","","","","","","","",""
"aa-learning-trial","107","491858","0.0-9.0-2.0-1.17","7653","1","20","Male","approach_avoid_spark_v1","""event"",""trial"",""time""
""fullscreenenter"",""1"",""5716""
","
","
","""event"",""trial"",""time""
""fullscreenenter"",""1"",""5716""
","
","","","","","","1457.800000011921","images/rabbit2.png","","","learning","1","0","0","0","rabbit","pets","1","0","","neutral","0"
"html-keyboard-response","108","492372","0.0-9.0-2.0-0.18","7653","1","20","Male","approach_avoid_spark_v1","""event"",""trial"",""time""
""fullscreenenter"",""1"",""5716""
","
","
","""event"",""trial"",""time""
""fullscreenenter"",""1"",""5716""
","
","","","","","","null","<div style=""font-size:60px;"">+</div>","null","","fixation","","","","","","","","","","",""
"aa-learning-trial","109","495374","0.0-9.0-2.0-1.18","7653","1","20","Male","approach_avoid_spark_v1","""event"",""trial"",""time""
""fullscreenenter"",""1"",""5716""
","
","
","""event"",""trial"",""time""
""fullscreenenter"",""1"",""5716""
","
","","","","","","868.1999999880791","images/dog2.png","","","learning","-5","0","0","0","dog","pets","1","0","","bad","[-4]"
"html-keyboard-response","110","495875","0.0-9.0-2.0-0.19","7653","1","20","Male","approach_avoid_spark_v1","""event"",""trial"",""time""
""fullscreenenter"",""1"",""5716""
","
","
","""event"",""trial"",""time""
""fullscreenenter"",""1"",""5716""
","
","","","","","","null","<div style=""font-size:60px;"">+</div>","null","","fixation","","","","","","","","","","",""
"aa-learning-trial","111","498878","0.0-9.0-2.0-1.19","7653","1","20","Male","approach_avoid_spark_v1","""event"",""trial"",""time""
""fullscreenenter"",""1"",""5716""
","
","
","""event"",""trial"",""time""
""fullscreenenter"",""1"",""5716""
","
","","","","","","1047.2999999821186","images/rabbit5.png","","","learning","[-1]","0","0","0","rabbit","pets","1","0","","neutral","0"
"html-keyboard-response","112","499379","0.0-9.0-2.0-0.20","7653","1","20","Male","approach_avoid_spark_v1","""event"",""trial"",""time""
""fullscreenenter"",""1"",""5716""
","
","
","""event"",""trial"",""time""
""fullscreenenter"",""1"",""5716""
","
","","","","","","null","<div style=""font-size:60px;"">+</div>","null","","fixation","","","","","","","","","","",""
"aa-learning-trial","113","502382","0.0-9.0-2.0-1.20","7653","1","20","Male","approach_avoid_spark_v1","""event"",""trial"",""time""
""fullscreenenter"",""1"",""5716""
","
","
","""event"",""trial"",""time""
""fullscreenenter"",""1"",""5716""
","
","","","","","","2002.0999999940395","images/cat1.png","","","learning","4","0","0","0","cat","pets","1","0","","good","[5]"
"html-keyboard-response","114","502884","0.0-9.0-2.0-0.21","7653","1","20","Male","approach_avoid_spark_v1","""event"",""trial"",""time""
""fullscreenenter"",""1"",""5716""
","
","
","""event"",""trial"",""time""
""fullscreenenter"",""1"",""5716""
","
","","","","","","null","<div style=""font-size:60px;"">+</div>","null","","fixation","","","","","","","","","","",""
"aa-learning-trial","115","505886","0.0-9.0-2.0-1.21","7653","1","20","Male","approach_avoid_spark_v1","""event"",""trial"",""time""
""fullscreenenter"",""1"",""5716""
","
","
","""event"",""trial"",""time""
""fullscreenenter"",""1"",""5716""
","
","","","","","","624.7999999821186","images/cat1.png","","","learning","6","6","1","1","cat","pets","1","0","","good","[5]"
"html-keyboard-response","116","506388","0.0-9.0-2.0-0.22","7653","1","20","Male","approach_avoid_spark_v1","""event"",""trial"",""time""
""fullscreenenter"",""1"",""5716""
","
","
","""event"",""trial"",""time""
""fullscreenenter"",""1"",""5716""
","
","","","","","","null","<div style=""font-size:60px;"">+</div>","null","","fixation","","","","","","","","","","",""
"aa-learning-trial","117","509391","0.0-9.0-2.0-1.22","7653","1","20","Male","approach_avoid_spark_v1","""event"",""trial"",""time""
""fullscreenenter"",""1"",""5716""
","
","
","""event"",""trial"",""time""
""fullscreenenter"",""1"",""5716""
","
","","","","","","1430.199999988079","images/dog8.png","","","learning","-5","0","0","0","dog","pets","1","0","","bad","[-4]"
"html-keyboard-response","118","509892","0.0-9.0-2.0-0.23","7653","1","20","Male","approach_avoid_spark_v1","""event"",""trial"",""time""
""fullscreenenter"",""1"",""5716""
","
","
","""event"",""trial"",""time""
""fullscreenenter"",""1"",""5716""
","
","","","","","","null","<div style=""font-size:60px;"">+</div>","null","","fixation","","","","","","","","","","",""
"aa-learning-trial","119","512896","0.0-9.0-2.0-1.23","7653","1","20","Male","approach_avoid_spark_v1","""event"",""trial"",""time""
""fullscreenenter"",""1"",""5716""
","
","
","""event"",""trial"",""time""
""fullscreenenter"",""1"",""5716""
","
","","","","","","1512.5","images/cat5.png","","","learning","4","0","0","0","cat","pets","1","0","","good","[5]"
"html-keyboard-response","120","513397","0.0-9.0-2.0-0.24","7653","1","20","Male","approach_avoid_spark_v1","""event"",""trial"",""time""
""fullscreenenter"",""1"",""5716""
","
","
","""event"",""trial"",""time""
""fullscreenenter"",""1"",""5716""
","
","","","","","","null","<div style=""font-size:60px;"">+</div>","null","","fixation","","","","","","","","","","",""
"aa-learning-trial","121","516401","0.0-9.0-2.0-1.24","7653","1","20","Male","approach_avoid_spark_v1","""event"",""trial"",""time""
""fullscreenenter"",""1"",""5716""
","
","
","""event"",""trial"",""time""
""fullscreenenter"",""1"",""5716""
","
","","","","","","1506","images/rabbit3.png","","","learning","2","0","0","0","rabbit","pets","1","0","","neutral","0"
"html-keyboard-response","122","516902","0.0-9.0-2.0-0.25","7653","1","20","Male","approach_avoid_spark_v1","""event"",""trial"",""time""
""fullscreenenter"",""1"",""5716""
","
","
","""event"",""trial"",""time""
""fullscreenenter"",""1"",""5716""
","
","","","","","","null","<div style=""font-size:60px;"">+</div>","null","","fixation","","","","","","","","","","",""
"aa-learning-trial","123","519905","0.0-9.0-2.0-1.25","7653","1","20","Male","approach_avoid_spark_v1","""event"",""trial"",""time""
""fullscreenenter"",""1"",""5716""
","
","
","""event"",""trial"",""time""
""fullscreenenter"",""1"",""5716""
","
","","","","","","1540.300000011921","images/cat1.png","","","learning","5","5","1","1","cat","pets","1","0","","good","[5]"
"html-keyboard-response","124","520406","0.0-9.0-2.0-0.26","7653","1","20","Male","approach_avoid_spark_v1","""event"",""trial"",""time""
""fullscreenenter"",""1"",""5716""
","
","
","""event"",""trial"",""time""
""fullscreenenter"",""1"",""5716""
","
","","","","","","null","<div style=""font-size:60px;"">+</div>","null","","fixation","","","","","","","","","","",""
"aa-learning-trial","125","523409","0.0-9.0-2.0-1.26","7653","1","20","Male","approach_avoid_spark_v1","""event"",""trial"",""time""
""fullscreenenter"",""1"",""5716""
","
","
","""event"",""trial"",""time""
""fullscreenenter"",""1"",""5716""
","
","","","","","","828","images/dog8.png","","","learning","-5","0","0","0","dog","pets","1","0","","bad","[-4]"
"html-keyboard-response","126","523910","0.0-9.0-2.0-0.27","7653","1","20","Male","approach_avoid_spark_v1","""event"",""trial"",""time""
""fullscreenenter"",""1"",""5716""
","
","
","""event"",""trial"",""time""
""fullscreenenter"",""1"",""5716""
","
","","","","","","null","<div style=""font-size:60px;"">+</div>","null","","fixation","","","","","","","","","","",""
"aa-learning-trial","127","526913","0.0-9.0-2.0-1.27","7653","1","20","Male","approach_avoid_spark_v1","""event"",""trial"",""time""
""fullscreenenter"",""1"",""5716""
","
","
","""event"",""trial"",""time""
""fullscreenenter"",""1"",""5716""
","
","","","","","","1038.2000000178814","images/dog7.png","","","learning","-3","0","0","0","dog","pets","1","0","","bad","[-4]"
"html-keyboard-response","128","527414","0.0-9.0-2.0-0.28","7653","1","20","Male","approach_avoid_spark_v1","""event"",""trial"",""time""
""fullscreenenter"",""1"",""5716""
","
","
","""event"",""trial"",""time""
""fullscreenenter"",""1"",""5716""
","
","","","","","","null","<div style=""font-size:60px;"">+</div>","null","","fixation","","","","","","","","","","",""
"aa-learning-trial","129","530417","0.0-9.0-2.0-1.28","7653","1","20","Male","approach_avoid_spark_v1","""event"",""trial"",""time""
""fullscreenenter"",""1"",""5716""
","
","
","""event"",""trial"",""time""
""fullscreenenter"",""1"",""5716""
","
","","","","","","1346.300000011921","images/cat4.png","","","learning","3","3","1","1","cat","pets","1","0","","good","[5]"
"html-keyboard-response","130","530919","0.0-9.0-2.0-0.29","7653","1","20","Male","approach_avoid_spark_v1","""event"",""trial"",""time""
""fullscreenenter"",""1"",""5716""
","
","
","""event"",""trial"",""time""
""fullscreenenter"",""1"",""5716""
","
","","","","","","null","<div style=""font-size:60px;"">+</div>","null","","fixation","","","","","","","","","","",""
"aa-learning-trial","131","533921","0.0-9.0-2.0-1.29","7653","1","20","Male","approach_avoid_spark_v1","""event"",""trial"",""time""
""fullscreenenter"",""1"",""5716""
","
","
","""event"",""trial"",""time""
""fullscreenenter"",""1"",""5716""
","
","","","","","","1600.800000011921","images/dog4.png","","","learning","-4","0","0","0","dog","pets","1","0","","bad","[-4]"
"html-keyboard-response","132","534422","0.0-9.0-2.0-0.30","7653","1","20","Male","approach_avoid_spark_v1","""event"",""trial"",""time""
""fullscreenenter"",""1"",""5716""
","
","
","""event"",""trial"",""time""
""fullscreenenter"",""1"",""5716""
","
","","","","","","null","<div style=""font-size:60px;"">+</div>","null","","fixation","","","","","","","","","","",""
"aa-learning-trial","133","537425","0.0-9.0-2.0-1.30","7653","1","20","Male","approach_avoid_spark_v1","""event"",""trial"",""time""
""fullscreenenter"",""1"",""5716""
","
","
","""event"",""trial"",""time""
""fullscreenenter"",""1"",""5716""
","
","","","","","","1287.4000000059605","images/cat5.png","","","learning","5","5","1","1","cat","pets","1","0","","good","[5]"
"html-keyboard-response","134","537927","0.0-9.0-2.0-0.31","7653","1","20","Male","approach_avoid_spark_v1","""event"",""trial"",""time""
""fullscreenenter"",""1"",""5716""
","
","
","""event"",""trial"",""time""
""fullscreenenter"",""1"",""5716""
","
","","","","","","null","<div style=""font-size:60px;"">+</div>","null","","fixation","","","","","","","","","","",""
"aa-learning-trial","135","540930","0.0-9.0-2.0-1.31","7653","1","20","Male","approach_avoid_spark_v1","""event"",""trial"",""time""
""fullscreenenter"",""1"",""5716""
","
","
","""event"",""trial"",""time""
""fullscreenenter"",""1"",""5716""
","
","","","","","","733.2000000178814","images/dog2.png","","","learning","-1","0","0","0","dog","pets","1","0","","bad","[-4]"
"html-keyboard-response","136","541430","0.0-9.0-2.0-0.32","7653","1","20","Male","approach_avoid_spark_v1","""event"",""trial"",""time""
""fullscreenenter"",""1"",""5716""
","
","
","""event"",""trial"",""time""
""fullscreenenter"",""1"",""5716""
","
","","","","","","null","<div style=""font-size:60px;"">+</div>","null","","fixation","","","","","","","","","","",""
"aa-learning-trial","137","544434","0.0-9.0-2.0-1.32","7653","1","20","Male","approach_avoid_spark_v1","""event"",""trial"",""time""
""fullscreenenter"",""1"",""5716""
","
","
","""event"",""trial"",""time""
""fullscreenenter"",""1"",""5716""
","
","","","","","","1260.5","images/rabbit3.png","","","learning","[-1]","0","0","0","rabbit","pets","1","0","","neutral","0"
"html-keyboard-response","138","544935","0.0-9.0-2.0-0.33","7653","1","20","Male","approach_avoid_spark_v1","""event"",""trial"",""time""
""fullscreenenter"",""1"",""5716""
","
","
","""event"",""trial"",""time""
""fullscreenenter"",""1"",""5716""
","
","","","","","","null","<div style=""font-size:60px;"">+</div>","null","","fixation","","","","","","","","","","",""
"aa-learning-trial","139","547938","0.0-9.0-2.0-1.33","7653","1","20","Male","approach_avoid_spark_v1","""event"",""trial"",""time""
""fullscreenenter"",""1"",""5716""
","
","
","""event"",""trial"",""time""
""fullscreenenter"",""1"",""5716""
","
","","","","","","1772","images/cat7.png","","","learning","7","7","1","1","cat","pets","1","0","","good","[5]"
"html-keyboard-response","140","548439","0.0-9.0-2.0-0.34","7653","1","20","Male","approach_avoid_spark_v1","""event"",""trial"",""time""
""fullscreenenter"",""1"",""5716""
","
","
","""event"",""trial"",""time""
""fullscreenenter"",""1"",""5716""
","
","","","","","","null","<div style=""font-size:60px;"">+</div>","null","","fixation","","","","","","","","","","",""
"aa-learning-trial","141","551442","0.0-9.0-2.0-1.34","7653","1","20","Male","approach_avoid_spark_v1","""event"",""trial"",""time""
""fullscreenenter"",""1"",""5716""
","
","
","""event"",""trial"",""time""
""fullscreenenter"",""1"",""5716""
","
","","","","","","1076.0999999940395","images/rabbit5.png","","","learning","[-1]","0","0","0","rabbit","pets","1","0","","neutral","0"
"html-keyboard-response","142","551943","0.0-9.0-2.0-0.35","7653","1","20","Male","approach_avoid_spark_v1","""event"",""trial"",""time""
""fullscreenenter"",""1"",""5716""
","
","
","""event"",""trial"",""time""
""fullscreenenter"",""1"",""5716""
","
","","","","","","null","<div style=""font-size:60px;"">+</div>","null","","fixation","","","","","","","","","","",""
"aa-learning-trial","143","554947","0.0-9.0-2.0-1.35","7653","1","20","Male","approach_avoid_spark_v1","""event"",""trial"",""time""
""fullscreenenter"",""1"",""5716""
","
","
","""event"",""trial"",""time""
""fullscreenenter"",""1"",""5716""
","
","","","","","","889.5","images/cat8.png","","","learning","4","4","1","1","cat","pets","1","0","","good","[5]"
"html-keyboard-response","144","555449","0.0-9.0-2.0-0.36","7653","1","20","Male","approach_avoid_spark_v1","""event"",""trial"",""time""
""fullscreenenter"",""1"",""5716""
","
","
","""event"",""trial"",""time""
""fullscreenenter"",""1"",""5716""
","
","","","","","","null","<div style=""font-size:60px;"">+</div>","null","","fixation","","","","","","","","","","",""
"aa-learning-trial","145","558452","0.0-9.0-2.0-1.36","7653","1","20","Male","approach_avoid_spark_v1","""event"",""trial"",""time""
""fullscreenenter"",""1"",""5716""
","
","
","""event"",""trial"",""time""
""fullscreenenter"",""1"",""5716""
","
","","","","","","1278.5","images/rabbit8.png","","","learning","[-1]","-1","1","1","rabbit","pets","1","0","","neutral","0"
"html-keyboard-response","146","558958","0.0-9.0-2.0-0.37","7653","1","20","Male","approach_avoid_spark_v1","""event"",""trial"",""time""
""fullscreenenter"",""1"",""5716""
","
","
","""event"",""trial"",""time""
""fullscreenenter"",""1"",""5716""
","
","","","","","","null","<div style=""font-size:60px;"">+</div>","null","","fixation","","","","","","","","","","",""
"aa-learning-trial","147","561960","0.0-9.0-2.0-1.37","7653","1","20","Male","approach_avoid_spark_v1","""event"",""trial"",""time""
""fullscreenenter"",""1"",""5716""
","
","
","""event"",""trial"",""time""
""fullscreenenter"",""1"",""5716""
","
","","","","","","701","images/cat5.png","","","learning","5","5","1","1","cat","pets","1","0","","good","[5]"
"html-keyboard-response","148","562461","0.0-9.0-2.0-0.38","7653","1","20","Male","approach_avoid_spark_v1","""event"",""trial"",""time""
""fullscreenenter"",""1"",""5716""
","
","
","""event"",""trial"",""time""
""fullscreenenter"",""1"",""5716""
","
","","","","","","null","<div style=""font-size:60px;"">+</div>","null","","fixation","","","","","","","","","","",""
"aa-learning-trial","149","565465","0.0-9.0-2.0-1.38","7653","1","20","Male","approach_avoid_spark_v1","""event"",""trial"",""time""
""fullscreenenter"",""1"",""5716""
","
","
","""event"",""trial"",""time""
""fullscreenenter"",""1"",""5716""
","
","","","","","","847.8000000119209","images/dog2.png","","","learning","-2","0","0","0","dog","pets","1","0","","bad","[-4]"
"html-keyboard-response","150","565967","0.0-9.0-2.0-0.39","7653","1","20","Male","approach_avoid_spark_v1","""event"",""trial"",""time""
""fullscreenenter"",""1"",""5716""
","
","
","""event"",""trial"",""time""
""fullscreenenter"",""1"",""5716""
","
","","","","","","null","<div style=""font-size:60px;"">+</div>","null","","fixation","","","","","","","","","","",""
"aa-learning-trial","151","568971","0.0-9.0-2.0-1.39","7653","1","20","Male","approach_avoid_spark_v1","""event"",""trial"",""time""
""fullscreenenter"",""1"",""5716""
","
","
","""event"",""trial"",""time""
""fullscreenenter"",""1"",""5716""
","
","","","","","","1400.4000000059605","images/rabbit4.png","","","learning","[1]","1","1","1","rabbit","pets","1","0","","neutral","0"
"html-keyboard-response","152","569473","0.0-9.0-2.0-0.40","7653","1","20","Male","approach_avoid_spark_v1","""event"",""trial"",""time""
""fullscreenenter"",""1"",""5716""
","
","
","""event"",""trial"",""time""
""fullscreenenter"",""1"",""5716""
","
","","","","","","null","<div style=""font-size:60px;"">+</div>","null","","fixation","","","","","","","","","","",""
"aa-learning-trial","153","572475","0.0-9.0-2.0-1.40","7653","1","20","Male","approach_avoid_spark_v1","""event"",""trial"",""time""
""fullscreenenter"",""1"",""5716""
","
","
","""event"",""trial"",""time""
""fullscreenenter"",""1"",""5716""
","
","","","","","","797.5","images/dog7.png","","","learning","-3","0","0","0","dog","pets","1","0","","bad","[-4]"
"html-keyboard-response","154","572977","0.0-9.0-2.0-0.41","7653","1","20","Male","approach_avoid_spark_v1","""event"",""trial"",""time""
""fullscreenenter"",""1"",""5716""
","
","
","""event"",""trial"",""time""
""fullscreenenter"",""1"",""5716""
","
","","","","","","null","<div style=""font-size:60px;"">+</div>","null","","fixation","","","","","","","","","","",""
"aa-learning-trial","155","575980","0.0-9.0-2.0-1.41","7653","1","20","Male","approach_avoid_spark_v1","""event"",""trial"",""time""
""fullscreenenter"",""1"",""5716""
","
","
","""event"",""trial"",""time""
""fullscreenenter"",""1"",""5716""
","
","","","","","","1014.4000000059605","images/rabbit3.png","","","learning","-1","-1","1","1","rabbit","pets","1","0","","neutral","0"
"html-keyboard-response","156","576481","0.0-9.0-2.0-0.42","7653","1","20","Male","approach_avoid_spark_v1","""event"",""trial"",""time""
""fullscreenenter"",""1"",""5716""
","
","
","""event"",""trial"",""time""
""fullscreenenter"",""1"",""5716""
","
","","","","","","null","<div style=""font-size:60px;"">+</div>","null","","fixation","","","","","","","","","","",""
"aa-learning-trial","157","579484","0.0-9.0-2.0-1.42","7653","1","20","Male","approach_avoid_spark_v1","""event"",""trial"",""time""
""fullscreenenter"",""1"",""5716""
","
","
","""event"",""trial"",""time""
""fullscreenenter"",""1"",""5716""
","
","","","","","","717.4000000059605","images/dog7.png","","","learning","-5","0","0","0","dog","pets","1","0","","bad","[-4]"
"html-keyboard-response","158","579985","0.0-9.0-2.0-0.43","7653","1","20","Male","approach_avoid_spark_v1","""event"",""trial"",""time""
""fullscreenenter"",""1"",""5716""
","
","
","""event"",""trial"",""time""
""fullscreenenter"",""1"",""5716""
","
","","","","","","null","<div style=""font-size:60px;"">+</div>","null","","fixation","","","","","","","","","","",""
"aa-learning-trial","159","582988","0.0-9.0-2.0-1.43","7653","1","20","Male","approach_avoid_spark_v1","""event"",""trial"",""time""
""fullscreenenter"",""1"",""5716""
","
","
","""event"",""trial"",""time""
""fullscreenenter"",""1"",""5716""
","
","","","","","","1049.800000011921","images/rabbit5.png","","","learning","1","1","1","1","rabbit","pets","1","0","","neutral","0"
"html-keyboard-response","160","583489","0.0-9.0-2.0-0.44","7653","1","20","Male","approach_avoid_spark_v1","""event"",""trial"",""time""
""fullscreenenter"",""1"",""5716""
","
","
","""event"",""trial"",""time""
""fullscreenenter"",""1"",""5716""
","
","","","","","","null","<div style=""font-size:60px;"">+</div>","null","","fixation","","","","","","","","","","",""
"aa-learning-trial","161","586491","0.0-9.0-2.0-1.44","7653","1","20","Male","approach_avoid_spark_v1","""event"",""trial"",""time""
""fullscreenenter"",""1"",""5716""
","
","
","""event"",""trial"",""time""
""fullscreenenter"",""1"",""5716""
","
","","","","","","808.6999999880791","images/rabbit3.png","","","learning","[-1]","0","0","0","rabbit","pets","1","0","","neutral","0"
"html-keyboard-response","162","586992","0.0-9.0-2.0-0.45","7653","1","20","Male","approach_avoid_spark_v1","""event"",""trial"",""time""
""fullscreenenter"",""1"",""5716""
","
","
","""event"",""trial"",""time""
""fullscreenenter"",""1"",""5716""
","
","","","","","","null","<div style=""font-size:60px;"">+</div>","null","","fixation","","","","","","","","","","",""
"aa-learning-trial","163","589994","0.0-9.0-2.0-1.45","7653","1","20","Male","approach_avoid_spark_v1","""event"",""trial"",""time""
""fullscreenenter"",""1"",""5716""
","
","
","""event"",""trial"",""time""
""fullscreenenter"",""1"",""5716""
","
","","","","","","1054","images/cat7.png","","","learning","1","1","1","1","cat","pets","1","0","","good","[5]"
"html-keyboard-response","164","590497","0.0-9.0-2.0-0.46","7653","1","20","Male","approach_avoid_spark_v1","""event"",""trial"",""time""
""fullscreenenter"",""1"",""5716""
","
","
","""event"",""trial"",""time""
""fullscreenenter"",""1"",""5716""
","
","","","","","","null","<div style=""font-size:60px;"">+</div>","null","","fixation","","","","","","","","","","",""
"aa-learning-trial","165","593499","0.0-9.0-2.0-1.46","7653","1","20","Male","approach_avoid_spark_v1","""event"",""trial"",""time""
""fullscreenenter"",""1"",""5716""
","
","
","""event"",""trial"",""time""
""fullscreenenter"",""1"",""5716""
","
","","","","","","701.4000000059605","images/dog2.png","","","learning","-3","0","0","0","dog","pets","1","0","","bad","[-4]"
"html-keyboard-response","166","594001","0.0-9.0-2.0-0.47","7653","1","20","Male","approach_avoid_spark_v1","""event"",""trial"",""time""
""fullscreenenter"",""1"",""5716""
","
","
","""event"",""trial"",""time""
""fullscreenenter"",""1"",""5716""
","
","","","","","","null","<div style=""font-size:60px;"">+</div>","null","","fixation","","","","","","","","","","",""
"aa-learning-trial","167","597003","0.0-9.0-2.0-1.47","7653","1","20","Male","approach_avoid_spark_v1","""event"",""trial"",""time""
""fullscreenenter"",""1"",""5716""
","
","
","""event"",""trial"",""time""
""fullscreenenter"",""1"",""5716""
","
","","","","","","1544.7000000178814","images/cat1.png","","","learning","2","2","1","1","cat","pets","1","0","","good","[5]"
"html-keyboard-response","168","597505","0.0-9.0-2.0-0.48","7653","1","20","Male","approach_avoid_spark_v1","""event"",""trial"",""time""
""fullscreenenter"",""1"",""5716""
","
","
","""event"",""trial"",""time""
""fullscreenenter"",""1"",""5716""
","
","","","","","","null","<div style=""font-size:60px;"">+</div>","null","","fixation","","","","","","","","","","",""
"aa-learning-trial","169","600508","0.0-9.0-2.0-1.48","7653","1","20","Male","approach_avoid_spark_v1","""event"",""trial"",""time""
""fullscreenenter"",""1"",""5716""
","
","
","""event"",""trial"",""time""
""fullscreenenter"",""1"",""5716""
","
","","","","","","634.7000000178814","images/cat5.png","","","learning","3","3","1","1","cat","pets","1","0","","good","[5]"
"html-keyboard-response","170","601009","0.0-9.0-2.0-0.49","7653","1","20","Male","approach_avoid_spark_v1","""event"",""trial"",""time""
""fullscreenenter"",""1"",""5716""
","
","
","""event"",""trial"",""time""
""fullscreenenter"",""1"",""5716""
","
","","","","","","null","<div style=""font-size:60px;"">+</div>","null","","fixation","","","","","","","","","","",""
"aa-learning-trial","171","604012","0.0-9.0-2.0-1.49","7653","1","20","Male","approach_avoid_spark_v1","""event"",""trial"",""time""
""fullscreenenter"",""1"",""5716""
","
","
","""event"",""trial"",""time""
""fullscreenenter"",""1"",""5716""
","
","","","","","","1422.199999988079","images/rabbit5.png","","","learning","1","1","1","1","rabbit","pets","1","0","","neutral","0"
"html-keyboard-response","172","604513","0.0-9.0-2.0-0.50","7653","1","20","Male","approach_avoid_spark_v1","""event"",""trial"",""time""
""fullscreenenter"",""1"",""5716""
","
","
","""event"",""trial"",""time""
""fullscreenenter"",""1"",""5716""
","
","","","","","","null","<div style=""font-size:60px;"">+</div>","null","","fixation","","","","","","","","","","",""
"aa-learning-trial","173","607518","0.0-9.0-2.0-1.50","7653","1","20","Male","approach_avoid_spark_v1","""event"",""trial"",""time""
""fullscreenenter"",""1"",""5716""
","
","
","""event"",""trial"",""time""
""fullscreenenter"",""1"",""5716""
","
","","","","","","625.5999999940395","images/rabbit8.png","","","learning","-1","0","0","0","rabbit","pets","1","0","","neutral","0"
"html-button-response","174","609874","0.0-9.0-3.0","7653","1","20","Male","approach_avoid_spark_v1","""event"",""trial"",""time""
""fullscreenenter"",""1"",""5716""
","
","
","""event"",""trial"",""time""
""fullscreenenter"",""1"",""5716""
","
","","","","","","2354.7999999821186","<p> You have completed the round! <p> In this round, you earned 31 points! </p>","0","","break","","","","","","","","","","",""
"html-button-response","175","610616","0.0-10.0","7653","1","20","Male","approach_avoid_spark_v1","""event"",""trial"",""time""
""fullscreenenter"",""1"",""5716""
","
","
","""event"",""trial"",""time""
""fullscreenenter"",""1"",""5716""
","
","","","","","","741.5999999940395","<p> Now it's time to play another round. </p>","0","","transition_screen","","","","","","","","","","",""
"preload","176","610727","0.0-11.0-0.0","7653","1","20","Male","approach_avoid_spark_v1","""event"",""trial"",""time""
""fullscreenenter"",""1"",""5716""
","
","
","""event"",""trial"",""time""
""fullscreenenter"",""1"",""5716""
","
","true","false","[]","[]","[]","","","","","","","","","","","","","","","",""
"learning-instructions","177","620202","0.0-11.0-1.0-0.0","7653","1","20","Male","approach_avoid_spark_v1","""event"",""trial"",""time""
""fullscreenenter"",""1"",""5716""
","
","
","""event"",""trial"",""time""
""fullscreenenter"",""1"",""5716""
","
","","","","","","4169.199999988079","<p> Your goal in this round is to decorate your friend's new house with furniture. </p></div>","","0","instructions","","","","","","","","","","",""
"learning-instructions","178","633343","0.0-11.0-1.0-0.1","7653","1","20","Male","approach_avoid_spark_v1","""event"",""trial"",""time""
""fullscreenenter"",""1"",""5716""
","
","
","""event"",""trial"",""time""
""fullscreenenter"",""1"",""5716""
","
","","","","","","3330.4000000059605","<p> Your friend likes some pieces of furniture but not others.  </p><p> On each turn, you will see a piece of furniture.   </p><p> You need to decide whether to put it in your friend's house or not.  </p>","","0","instructions","","","","","","","","","","",""
"learning-instructions","179","642657","0.0-11.0-1.0-0.2","7653","1","20","Male","approach_avoid_spark_v1","""event"",""trial"",""time""
""fullscreenenter"",""1"",""5716""
","
","
","""event"",""trial"",""time""
""fullscreenenter"",""1"",""5716""
","
","","","","","","3612.699999988079","<p> You can put the furniture in her house by pressing 1 and deliver it elsewhere by pressing 0. </p><br><div class=""choice-instructions-grid""> <div class=""choice-option""><img src=""images/approach.png"" class=""choice-option-img"" stage=""instructions"" position=""0"" ><div class=""choice-option-text""> Press ""1."" </div></div><div class=""choice-option""><img src=""images/avoid.png"" class=""choice-option-img"" stage=""instructions"" position=""1"" ><div class=""choice-option-text""> Press ""0."" </div></div>","","0","instructions","","","","","","","","","","",""
"learning-instructions","180","652557","0.0-11.0-1.0-0.3","7653","1","20","Male","approach_avoid_spark_v1","""event"",""trial"",""time""
""fullscreenenter"",""1"",""5716""
","
","
","""event"",""trial"",""time""
""fullscreenenter"",""1"",""5716""
","
","","","","","","1133.300000011921","<p> If you decorate your friend's house with furniture she likes, she will be happy! </p><p> But if you give her furniture that she does not like, she will be annoyed. </p>","","0","instructions","","","","","","","","","","",""
"learning-instructions","181","665910","0.0-11.0-1.0-0.4","7653","1","20","Male","approach_avoid_spark_v1","""event"",""trial"",""time""
""fullscreenenter"",""1"",""5716""
","
","
","""event"",""trial"",""time""
""fullscreenenter"",""1"",""5716""
","
","","","","","","1217.7999999821186","<p> You will earn points based on how you made your friend feel. </p><p> If you made her happy, you will WIN anywhere from 1 - 9 points, </p><p> but if you made her annoyed you will LOSE anywhere from 1 - 9 points. </p>","","0","instructions","","","","","","","","","","",""
"learning-instructions","182","674337","0.0-11.0-1.0-0.5","7653","1","20","Male","approach_avoid_spark_v1","""event"",""trial"",""time""
""fullscreenenter"",""1"",""5716""
","
","
","""event"",""trial"",""time""
""fullscreenenter"",""1"",""5716""
","
","","","","","","1773.300000011921","<p> You will see how many points you won or lost in the center of the screen. </p><p> Here is what you would see if you won 5 points: </p><p style=""color:green;font-size:50px;font-weight:bolder"">5</p>","","0","instructions","","","","","","","","","","",""
"learning-instructions","183","679039","0.0-11.0-1.0-0.6","7653","1","20","Male","approach_avoid_spark_v1","""event"",""trial"",""time""
""fullscreenenter"",""1"",""5716""
","
","
","""event"",""trial"",""time""
""fullscreenenter"",""1"",""5716""
","
","","","","","","1867.199999988079","<p> And here is what you would see if you lost 3 points: </p><p style=""color:red;font-size:50px;font-weight:bolder"">-3</p>","","0","instructions","","","","","","","","","","",""
"learning-instructions","184","697343","0.0-11.0-1.0-0.7","7653","1","20","Male","approach_avoid_spark_v1","""event"",""trial"",""time""
""fullscreenenter"",""1"",""5716""
","
","
","""event"",""trial"",""time""
""fullscreenenter"",""1"",""5716""
","
","","","","","","1070.800000011921","<p> Some pieces of furniture will make her feel very happy or very annoyed. </p><p> These pieces of furniture will make you win or lose LOTS of points. </p><p> Other pieces of furniture will only make her feel a little happy or a little annoyed. </p><p> These pieces of furniture will make you win or lose small amounts of points. </p>","","0","instructions","","","","","","","","","","",""
"learning-instructions","185","711215","0.0-11.0-1.0-0.8","7653","1","20","Male","approach_avoid_spark_v1","""event"",""trial"",""time""
""fullscreenenter"",""1"",""5716""
","
","
","""event"",""trial"",""time""
""fullscreenenter"",""1"",""5716""
","
","","","","","","1130.5","<p> If you choose to deliver a piece of furniture elsewhere, you will not win or lose any points. </p><p>  However, in the center of the screen, you will see the number of points you WOULD HAVE won or lost if you had given the furniture to your friend. </p>","","0","instructions","","","","","","","","","","",""
"learning-instructions","186","723803","0.0-11.0-1.0-0.9","7653","1","20","Male","approach_avoid_spark_v1","""event"",""trial"",""time""
""fullscreenenter"",""1"",""5716""
","
","
","""event"",""trial"",""time""
""fullscreenenter"",""1"",""5716""
","
","","","","","","1200","<p> Here is what you might see if you did not give a piece of furniture to your friend that would have made her happy: </p><p style=""color:grey; font-size:50px; display: inline-block; border-spacing: 15px; border-width:3px; border-style:solid; border-color:red"">  &nbsp; 6 &nbsp; </p><p> Remember, in this case, you would not win or lose ANY points because you did not give her the furniture.  </p>","","0","instructions","","","","","","","","","","",""
"learning-instructions","187","735280","0.0-11.0-1.0-0.10","7653","1","20","Male","approach_avoid_spark_v1","""event"",""trial"",""time""
""fullscreenenter"",""1"",""5716""
","
","
","""event"",""trial"",""time""
""fullscreenenter"",""1"",""5716""
","
","","","","","","3877.2999999821186","<p> Try to make the best choice for each piece of furniture because </p><p> at the end of the game, you will earn bonus money based on how many points you earned. </p>","","0","instructions","","","","","","","","","","",""
"learning-instructions","188","744606","0.0-11.0-1.0-0.11","7653","1","20","Male","approach_avoid_spark_v1","""event"",""trial"",""time""
""fullscreenenter"",""1"",""5716""
","
","
","""event"",""trial"",""time""
""fullscreenenter"",""1"",""5716""
","
","","","","","","1131.9000000059605","<p> You will have 3 seconds to make each choice. Try to respond before time runs out! </p><p> You will lose 5 points each time you do not make a response. </p>","","0","instructions","","","","","","","","","","",""
"html-keyboard-response","189","745229","0.0-11.0-2.0-0.0","7653","1","20","Male","approach_avoid_spark_v1","""event"",""trial"",""time""
""fullscreenenter"",""1"",""5716""
","
","
","""event"",""trial"",""time""
""fullscreenenter"",""1"",""5716""
","
","","","","","","null","<div style=""font-size:60px;"">+</div>","null","","fixation","","","","","","","","","","",""
"aa-learning-trial","190","748235","0.0-11.0-2.0-1.0","7653","1","20","Male","approach_avoid_spark_v1","""event"",""trial"",""time""
""fullscreenenter"",""1"",""5716""
","
","
","""event"",""trial"",""time""
""fullscreenenter"",""1"",""5716""
","
","","","","","","1243.800000011921","images/sofa4.png","","","learning","3","3","1","1","sofa","furniture","2","1","","good","[4]"
"html-keyboard-response","191","748739","0.0-11.0-2.0-0.1","7653","1","20","Male","approach_avoid_spark_v1","""event"",""trial"",""time""
""fullscreenenter"",""1"",""5716""
","
","
","""event"",""trial"",""time""
""fullscreenenter"",""1"",""5716""
","
","","","","","","null","<div style=""font-size:60px;"">+</div>","null","","fixation","","","","","","","","","","",""
"aa-learning-trial","192","751747","0.0-11.0-2.0-1.1","7653","1","20","Male","approach_avoid_spark_v1","""event"",""trial"",""time""
""fullscreenenter"",""1"",""5716""
","
","
","""event"",""trial"",""time""
""fullscreenenter"",""1"",""5716""
","
","","","","","","1120","images/sofa2.png","","","learning","-3","-3","1","1","sofa","furniture","2","1","","good","[4]"
"html-keyboard-response","193","752251","0.0-11.0-2.0-0.2","7653","1","20","Male","approach_avoid_spark_v1","""event"",""trial"",""time""
""fullscreenenter"",""1"",""5716""
","
","
","""event"",""trial"",""time""
""fullscreenenter"",""1"",""5716""
","
","","","","","","null","<div style=""font-size:60px;"">+</div>","null","","fixation","","","","","","","","","","",""
"aa-learning-trial","194","755255","0.0-11.0-2.0-1.2","7653","1","20","Male","approach_avoid_spark_v1","""event"",""trial"",""time""
""fullscreenenter"",""1"",""5716""
","
","
","""event"",""trial"",""time""
""fullscreenenter"",""1"",""5716""
","
","","","","","","826.5999999940395","images/table8.png","","","learning","-5","-5","1","1","table","furniture","2","1","","bad","[-4]"
"html-keyboard-response","195","755758","0.0-11.0-2.0-0.3","7653","1","20","Male","approach_avoid_spark_v1","""event"",""trial"",""time""
""fullscreenenter"",""1"",""5716""
","
","
","""event"",""trial"",""time""
""fullscreenenter"",""1"",""5716""
","
","","","","","","null","<div style=""font-size:60px;"">+</div>","null","","fixation","","","","","","","","","","",""
"aa-learning-trial","196","758763","0.0-11.0-2.0-1.3","7653","1","20","Male","approach_avoid_spark_v1","""event"",""trial"",""time""
""fullscreenenter"",""1"",""5716""
","
","
","""event"",""trial"",""time""
""fullscreenenter"",""1"",""5716""
","
","","","","","","924.4000000059605","images/bed8.png","","","learning","-6","-6","1","1","bed","furniture","2","1","","neutral","0"
"html-keyboard-response","197","759267","0.0-11.0-2.0-0.4","7653","1","20","Male","approach_avoid_spark_v1","""event"",""trial"",""time""
""fullscreenenter"",""1"",""5716""
","
","
","""event"",""trial"",""time""
""fullscreenenter"",""1"",""5716""
","
","","","","","","null","<div style=""font-size:60px;"">+</div>","null","","fixation","","","","","","","","","","",""
"aa-learning-trial","198","762279","0.0-11.0-2.0-1.4","7653","1","20","Male","approach_avoid_spark_v1","""event"",""trial"",""time""
""fullscreenenter"",""1"",""5716""
","
","
","""event"",""trial"",""time""
""fullscreenenter"",""1"",""5716""
","
","","","","","","943.5999999940395","images/bed6.png","","","learning","-4","-4","1","1","bed","furniture","2","1","","neutral","0"
"html-keyboard-response","199","762796","0.0-11.0-2.0-0.5","7653","1","20","Male","approach_avoid_spark_v1","""event"",""trial"",""time""
""fullscreenenter"",""1"",""5716""
","
","
","""event"",""trial"",""time""
""fullscreenenter"",""1"",""5716""
","
","","","","","","null","<div style=""font-size:60px;"">+</div>","null","","fixation","","","","","","","","","","",""
"aa-learning-trial","200","765803","0.0-11.0-2.0-1.5","7653","1","20","Male","approach_avoid_spark_v1","""event"",""trial"",""time""
""fullscreenenter"",""1"",""5716""
","
","
","""event"",""trial"",""time""
""fullscreenenter"",""1"",""5716""
","
","","","","","","2649.800000011921","images/table5.png","","","learning","-8","-8","1","1","table","furniture","2","1","","bad","[-4]"
"html-keyboard-response","201","766305","0.0-11.0-2.0-0.6","7653","1","20","Male","approach_avoid_spark_v1","""event"",""trial"",""time""
""fullscreenenter"",""1"",""5716""
","
","
","""event"",""trial"",""time""
""fullscreenenter"",""1"",""5716""
","
","","","","","","null","<div style=""font-size:60px;"">+</div>","null","","fixation","","","","","","","","","","",""
"aa-learning-trial","202","769319","0.0-11.0-2.0-1.6","7653","1","20","Male","approach_avoid_spark_v1","""event"",""trial"",""time""
""fullscreenenter"",""1"",""5716""
","
","
","""event"",""trial"",""time""
""fullscreenenter"",""1"",""5716""
","
","","","","","","1299.2000000178814","images/table5.png","","","learning","-8","-8","1","1","table","furniture","2","1","","bad","[-4]"
"html-keyboard-response","203","769822","0.0-11.0-2.0-0.7","7653","1","20","Male","approach_avoid_spark_v1","""event"",""trial"",""time""
""fullscreenenter"",""1"",""5716""
","
","
","""event"",""trial"",""time""
""fullscreenenter"",""1"",""5716""
","
","","","","","","null","<div style=""font-size:60px;"">+</div>","null","","fixation","","","","","","","","","","",""
"aa-learning-trial","204","772829","0.0-11.0-2.0-1.7","7653","1","20","Male","approach_avoid_spark_v1","""event"",""trial"",""time""
""fullscreenenter"",""1"",""5716""
","
","
","""event"",""trial"",""time""
""fullscreenenter"",""1"",""5716""
","
","","","","","","824","images/table3.png","","","learning","4","4","1","1","table","furniture","2","1","","bad","[-4]"
"html-keyboard-response","205","773332","0.0-11.0-2.0-0.8","7653","1","20","Male","approach_avoid_spark_v1","""event"",""trial"",""time""
""fullscreenenter"",""1"",""5716""
","
","
","""event"",""trial"",""time""
""fullscreenenter"",""1"",""5716""
","
","","","","","","null","<div style=""font-size:60px;"">+</div>","null","","fixation","","","","","","","","","","",""
"aa-learning-trial","206","776335","0.0-11.0-2.0-1.8","7653","1","20","Male","approach_avoid_spark_v1","""event"",""trial"",""time""
""fullscreenenter"",""1"",""5716""
","
","
","""event"",""trial"",""time""
""fullscreenenter"",""1"",""5716""
","
","","","","","","1435.5999999940395","images/bed2.png","","","learning","5","0","0","0","bed","furniture","2","1","","neutral","0"
"html-keyboard-response","207","776837","0.0-11.0-2.0-0.9","7653","1","20","Male","approach_avoid_spark_v1","""event"",""trial"",""time""
""fullscreenenter"",""1"",""5716""
","
","
","""event"",""trial"",""time""
""fullscreenenter"",""1"",""5716""
","
","","","","","","null","<div style=""font-size:60px;"">+</div>","null","","fixation","","","","","","","","","","",""
"aa-learning-trial","208","779840","0.0-11.0-2.0-1.9","7653","1","20","Male","approach_avoid_spark_v1","""event"",""trial"",""time""
""fullscreenenter"",""1"",""5716""
","
","
","""event"",""trial"",""time""
""fullscreenenter"",""1"",""5716""
","
","","","","","","1140.0999999940395","images/sofa6.png","","","learning","7","7","1","1","sofa","furniture","2","1","","good","[4]"
"html-keyboard-response","209","780342","0.0-11.0-2.0-0.10","7653","1","20","Male","approach_avoid_spark_v1","""event"",""trial"",""time""
""fullscreenenter"",""1"",""5716""
","
","
","""event"",""trial"",""time""
""fullscreenenter"",""1"",""5716""
","
","","","","","","null","<div style=""font-size:60px;"">+</div>","null","","fixation","","","","","","","","","","",""
"aa-learning-trial","210","783345","0.0-11.0-2.0-1.10","7653","1","20","Male","approach_avoid_spark_v1","""event"",""trial"",""time""
""fullscreenenter"",""1"",""5716""
","
","
","""event"",""trial"",""time""
""fullscreenenter"",""1"",""5716""
","
","","","","","","1218.2999999821186","images/bed2.png","","","learning","5","5","1","1","bed","furniture","2","1","","neutral","0"
"html-keyboard-response","211","783846","0.0-11.0-2.0-0.11","7653","1","20","Male","approach_avoid_spark_v1","""event"",""trial"",""time""
""fullscreenenter"",""1"",""5716""
","
","
","""event"",""trial"",""time""
""fullscreenenter"",""1"",""5716""
","
","","","","","","null","<div style=""font-size:60px;"">+</div>","null","","fixation","","","","","","","","","","",""
"aa-learning-trial","212","786850","0.0-11.0-2.0-1.11","7653","1","20","Male","approach_avoid_spark_v1","""event"",""trial"",""time""
""fullscreenenter"",""1"",""5716""
","
","
","""event"",""trial"",""time""
""fullscreenenter"",""1"",""5716""
","
","","","","","","801.6999999880791","images/table8.png","","","learning","-5","0","0","0","table","furniture","2","1","","bad","[-4]"
"html-keyboard-response","213","787351","0.0-11.0-2.0-0.12","7653","1","20","Male","approach_avoid_spark_v1","""event"",""trial"",""time""
""fullscreenenter"",""1"",""5716""
","
","
","""event"",""trial"",""time""
""fullscreenenter"",""1"",""5716""
","
","","","","","","null","<div style=""font-size:60px;"">+</div>","null","","fixation","","","","","","","","","","",""
"aa-learning-trial","214","790355","0.0-11.0-2.0-1.12","7653","1","20","Male","approach_avoid_spark_v1","""event"",""trial"",""time""
""fullscreenenter"",""1"",""5716""
","
","
","""event"",""trial"",""time""
""fullscreenenter"",""1"",""5716""
","
","","","","","","868.5","images/sofa2.png","","","learning","-3","0","0","0","sofa","furniture","2","1","","good","[4]"
"html-keyboard-response","215","790856","0.0-11.0-2.0-0.13","7653","1","20","Male","approach_avoid_spark_v1","""event"",""trial"",""time""
""fullscreenenter"",""1"",""5716""
","
","
","""event"",""trial"",""time""
""fullscreenenter"",""1"",""5716""
","
","","","","","","null","<div style=""font-size:60px;"">+</div>","null","","fixation","","","","","","","","","","",""
"aa-learning-trial","216","793859","0.0-11.0-2.0-1.13","7653","1","20","Male","approach_avoid_spark_v1","""event"",""trial"",""time""
""fullscreenenter"",""1"",""5716""
","
","
","""event"",""trial"",""time""
""fullscreenenter"",""1"",""5716""
","
","","","","","","1199.699999988079","images/bed6.png","","","learning","-4","0","0","0","bed","furniture","2","1","","neutral","0"
"html-keyboard-response","217","794360","0.0-11.0-2.0-0.14","7653","1","20","Male","approach_avoid_spark_v1","""event"",""trial"",""time""
""fullscreenenter"",""1"",""5716""
","
","
","""event"",""trial"",""time""
""fullscreenenter"",""1"",""5716""
","
","","","","","","null","<div style=""font-size:60px;"">+</div>","null","","fixation","","","","","","","","","","",""
"aa-learning-trial","218","797363","0.0-11.0-2.0-1.14","7653","1","20","Male","approach_avoid_spark_v1","""event"",""trial"",""time""
""fullscreenenter"",""1"",""5716""
","
","
","""event"",""trial"",""time""
""fullscreenenter"",""1"",""5716""
","
","","","","","","838.5","images/sofa4.png","","","learning","3","3","1","1","sofa","furniture","2","1","","good","[4]"
"html-keyboard-response","219","797865","0.0-11.0-2.0-0.15","7653","1","20","Male","approach_avoid_spark_v1","""event"",""trial"",""time""
""fullscreenenter"",""1"",""5716""
","
","
","""event"",""trial"",""time""
""fullscreenenter"",""1"",""5716""
","
","","","","","","null","<div style=""font-size:60px;"">+</div>","null","","fixation","","","","","","","","","","",""
"aa-learning-trial","220","800869","0.0-11.0-2.0-1.15","7653","1","20","Male","approach_avoid_spark_v1","""event"",""trial"",""time""
""fullscreenenter"",""1"",""5716""
","
","
","""event"",""trial"",""time""
""fullscreenenter"",""1"",""5716""
","
","","","","","","729.5999999940395","images/table8.png","","","learning","-5","0","0","0","table","furniture","2","1","","bad","[-4]"
"html-keyboard-response","221","801370","0.0-11.0-2.0-0.16","7653","1","20","Male","approach_avoid_spark_v1","""event"",""trial"",""time""
""fullscreenenter"",""1"",""5716""
","
","
","""event"",""trial"",""time""
""fullscreenenter"",""1"",""5716""
","
","","","","","","null","<div style=""font-size:60px;"">+</div>","null","","fixation","","","","","","","","","","",""
"aa-learning-trial","222","804373","0.0-11.0-2.0-1.16","7653","1","20","Male","approach_avoid_spark_v1","""event"",""trial"",""time""
""fullscreenenter"",""1"",""5716""
","
","
","""event"",""trial"",""time""
""fullscreenenter"",""1"",""5716""
","
","","","","","","2170.7999999821186","images/bed6.png","","","learning","-4","0","0","0","bed","furniture","2","1","","neutral","0"
"html-keyboard-response","223","804875","0.0-11.0-2.0-0.17","7653","1","20","Male","approach_avoid_spark_v1","""event"",""trial"",""time""
""fullscreenenter"",""1"",""5716""
","
","
","""event"",""trial"",""time""
""fullscreenenter"",""1"",""5716""
","
","","","","","","null","<div style=""font-size:60px;"">+</div>","null","","fixation","","","","","","","","","","",""
"aa-learning-trial","224","807878","0.0-11.0-2.0-1.17","7653","1","20","Male","approach_avoid_spark_v1","""event"",""trial"",""time""
""fullscreenenter"",""1"",""5716""
","
","
","""event"",""trial"",""time""
""fullscreenenter"",""1"",""5716""
","
","","","","","","1756.300000011921","images/bed8.png","","","learning","-6","0","0","0","bed","furniture","2","1","","neutral","0"
"html-keyboard-response","225","808380","0.0-11.0-2.0-0.18","7653","1","20","Male","approach_avoid_spark_v1","""event"",""trial"",""time""
""fullscreenenter"",""1"",""5716""
","
","
","""event"",""trial"",""time""
""fullscreenenter"",""1"",""5716""
","
","","","","","","null","<div style=""font-size:60px;"">+</div>","null","","fixation","","","","","","","","","","",""
"aa-learning-trial","226","811391","0.0-11.0-2.0-1.18","7653","1","20","Male","approach_avoid_spark_v1","""event"",""trial"",""time""
""fullscreenenter"",""1"",""5716""
","
","
","""event"",""trial"",""time""
""fullscreenenter"",""1"",""5716""
","
","","","","","","1651.800000011921","images/sofa6.png","","","learning","7","7","1","1","sofa","furniture","2","1","","good","[4]"
"html-keyboard-response","227","811893","0.0-11.0-2.0-0.19","7653","1","20","Male","approach_avoid_spark_v1","""event"",""trial"",""time""
""fullscreenenter"",""1"",""5716""
","
","
","""event"",""trial"",""time""
""fullscreenenter"",""1"",""5716""
","
","","","","","","null","<div style=""font-size:60px;"">+</div>","null","","fixation","","","","","","","","","","",""
"aa-learning-trial","228","814894","0.0-11.0-2.0-1.19","7653","1","20","Male","approach_avoid_spark_v1","""event"",""trial"",""time""
""fullscreenenter"",""1"",""5716""
","
","
","""event"",""trial"",""time""
""fullscreenenter"",""1"",""5716""
","
","","","","","","845.8999999761581","images/bed6.png","","","learning","-4","0","0","0","bed","furniture","2","1","","neutral","0"
"html-keyboard-response","229","815397","0.0-11.0-2.0-0.20","7653","1","20","Male","approach_avoid_spark_v1","""event"",""trial"",""time""
""fullscreenenter"",""1"",""5716""
","
","
","""event"",""trial"",""time""
""fullscreenenter"",""1"",""5716""
","
","","","","","","null","<div style=""font-size:60px;"">+</div>","null","","fixation","","","","","","","","","","",""
"aa-learning-trial","230","818400","0.0-11.0-2.0-1.20","7653","1","20","Male","approach_avoid_spark_v1","""event"",""trial"",""time""
""fullscreenenter"",""1"",""5716""
","
","
","""event"",""trial"",""time""
""fullscreenenter"",""1"",""5716""
","
","","","","","","830.7000000178814","images/table3.png","","","learning","4","4","1","1","table","furniture","2","1","","bad","[-4]"
"html-keyboard-response","231","818901","0.0-11.0-2.0-0.21","7653","1","20","Male","approach_avoid_spark_v1","""event"",""trial"",""time""
""fullscreenenter"",""1"",""5716""
","
","
","""event"",""trial"",""time""
""fullscreenenter"",""1"",""5716""
","
","","","","","","null","<div style=""font-size:60px;"">+</div>","null","","fixation","","","","","","","","","","",""
"aa-learning-trial","232","821903","0.0-11.0-2.0-1.21","7653","1","20","Male","approach_avoid_spark_v1","""event"",""trial"",""time""
""fullscreenenter"",""1"",""5716""
","
","
","""event"",""trial"",""time""
""fullscreenenter"",""1"",""5716""
","
","","","","","","1832.5","images/bed7.png","","","learning","-2","0","0","0","bed","furniture","2","1","","neutral","0"
"html-keyboard-response","233","822406","0.0-11.0-2.0-0.22","7653","1","20","Male","approach_avoid_spark_v1","""event"",""trial"",""time""
""fullscreenenter"",""1"",""5716""
","
","
","""event"",""trial"",""time""
""fullscreenenter"",""1"",""5716""
","
","","","","","","null","<div style=""font-size:60px;"">+</div>","null","","fixation","","","","","","","","","","",""
"aa-learning-trial","234","825409","0.0-11.0-2.0-1.22","7653","1","20","Male","approach_avoid_spark_v1","""event"",""trial"",""time""
""fullscreenenter"",""1"",""5716""
","
","
","""event"",""trial"",""time""
""fullscreenenter"",""1"",""5716""
","
","","","","","","1381.800000011921","images/bed2.png","","","learning","5","0","0","0","bed","furniture","2","1","","neutral","0"
"html-keyboard-response","235","825910","0.0-11.0-2.0-0.23","7653","1","20","Male","approach_avoid_spark_v1","""event"",""trial"",""time""
""fullscreenenter"",""1"",""5716""
","
","
","""event"",""trial"",""time""
""fullscreenenter"",""1"",""5716""
","
","","","","","","null","<div style=""font-size:60px;"">+</div>","null","","fixation","","","","","","","","","","",""
"aa-learning-trial","236","828913","0.0-11.0-2.0-1.23","7653","1","20","Male","approach_avoid_spark_v1","""event"",""trial"",""time""
""fullscreenenter"",""1"",""5716""
","
","
","""event"",""trial"",""time""
""fullscreenenter"",""1"",""5716""
","
","","","","","","697.3000000119209","images/bed8.png","","","learning","-6","0","0","0","bed","furniture","2","1","","neutral","0"
"html-keyboard-response","237","829414","0.0-11.0-2.0-0.24","7653","1","20","Male","approach_avoid_spark_v1","""event"",""trial"",""time""
""fullscreenenter"",""1"",""5716""
","
","
","""event"",""trial"",""time""
""fullscreenenter"",""1"",""5716""
","
","","","","","","null","<div style=""font-size:60px;"">+</div>","null","","fixation","","","","","","","","","","",""
