"trial_type","trial_index","time_elapsed","internal_node_id","subject_id","task_condition","age","gender","task_version","interactions","blur_events","focus_events","fullscreenenter_events","fullscreenexit_events","success","timeout","failed_images","failed_audio","failed_video","rt","stimulus","response","button_pressed","task_part","approach_reward","points","key_press","option_selected","stim_cat","task_block","block_condition","block_number","correct","cat_type","mean_cat_reward"
"pavlovia","0","2","0.0-0.0","4281","2","15","Female","approach_avoid_spark_v1","""event"",""trial"",""time""
""fullscreenenter"",""1"",""5492""
","
","
","""event"",""trial"",""time""
""fullscreenenter"",""1"",""5492""
","
","","","","","","","","","","","","","","","","","","","","",""
"fullscreen","1","6453","0.0-1.0","4281","2","15","Female","approach_avoid_spark_v1","""event"",""trial"",""time""
""fullscreenenter"",""1"",""5492""
""fullscreenexit"",""2"",""7167""
","
","
","""event"",""trial"",""time""
""fullscreenenter"",""1"",""5492""
","""event"",""trial"",""time""
""fullscreenexit"",""2"",""7167""
","true","","","","","","","","","","","","","","","","","","","",""
"preload","2","9011","0.0-2.0","4281","2","15","Female","approach_avoid_spark_v1","""event"",""trial"",""time""
""fullscreenenter"",""1"",""5492""
""fullscreenexit"",""2"",""7167""
""blur"",""3"",""9500""
""focus"",""3"",""11979""
","""event"",""trial"",""time""
""blur"",""3"",""9500""
","""event"",""trial"",""time""
""focus"",""3"",""11979""
","""event"",""trial"",""time""
""fullscreenenter"",""1"",""5492""
","""event"",""trial"",""time""
""fullscreenexit"",""2"",""7167""
","true","false","[]","[]","[]","","","","","","","","","","","","","","","",""
"audio-keyboard-response","3","21087","0.0-3.0","4281","2","15","Female","approach_avoid_spark_v1","""event"",""trial"",""time""
""fullscreenenter"",""1"",""5492""
""fullscreenexit"",""2"",""7167""
""blur"",""3"",""9500""
""focus"",""3"",""11979""
","""event"",""trial"",""time""
""blur"",""3"",""9500""
","""event"",""trial"",""time""
""focus"",""3"",""11979""
","""event"",""trial"",""time""
""fullscreenenter"",""1"",""5492""
","""event"",""trial"",""time""
""fullscreenexit"",""2"",""7167""
","","","","","","12080","audio/beep_loop.wav"," ","","","","","","","","","","","","",""
"audio-button-response","4","25227","0.0-4.0","4281","2","15","Female","approach_avoid_spark_v1","""event"",""trial"",""time""
""fullscreenenter"",""1"",""5492""
""fullscreenexit"",""2"",""7167""
""blur"",""3"",""9500""
""focus"",""3"",""11979""
","""event"",""trial"",""time""
""blur"",""3"",""9500""
","""event"",""trial"",""time""
""focus"",""3"",""11979""
","""event"",""trial"",""time""
""fullscreenenter"",""1"",""5492""
","""event"",""trial"",""time""
""fullscreenexit"",""2"",""7167""
","","","","","","4141","audio/shark.wav","0","","","","","","","","","","","","",""
"audio-button-response","5","27148","0.0-5.0","4281","2","15","Female","approach_avoid_spark_v1","""event"",""trial"",""time""
""fullscreenenter"",""1"",""5492""
""fullscreenexit"",""2"",""7167""
""blur"",""3"",""9500""
""focus"",""3"",""11979""
","""event"",""trial"",""time""
""blur"",""3"",""9500""
","""event"",""trial"",""time""
""focus"",""3"",""11979""
","""event"",""trial"",""time""
""fullscreenenter"",""1"",""5492""
","""event"",""trial"",""time""
""fullscreenexit"",""2"",""7167""
","","","","","","920","audio/turtle.wav","1","","","","","","","","","","","","",""
"preload","6","32879","0.0-6.0","4281","2","15","Female","approach_avoid_spark_v1","""event"",""trial"",""time""
""fullscreenenter"",""1"",""5492""
""fullscreenexit"",""2"",""7167""
""blur"",""3"",""9500""
""focus"",""3"",""11979""
","""event"",""trial"",""time""
""blur"",""3"",""9500""
","""event"",""trial"",""time""
""focus"",""3"",""11979""
","""event"",""trial"",""time""
""fullscreenenter"",""1"",""5492""
","""event"",""trial"",""time""
""fullscreenexit"",""2"",""7167""
","true","false","[]","[]","[]","","","","","","","","","","","","","","","",""
"html-keyboard-response","7","50056","0.0-7.0","4281","2","15","Female","approach_avoid_spark_v1","""event"",""trial"",""time""
""fullscreenenter"",""1"",""5492""
""fullscreenexit"",""2"",""7167""
""blur"",""3"",""9500""
""focus"",""3"",""11979""
","""event"",""trial"",""time""
""blur"",""3"",""9500""
","""event"",""trial"",""time""
""focus"",""3"",""11979""
","""event"",""trial"",""time""
""fullscreenenter"",""1"",""5492""
","""event"",""trial"",""time""
""fullscreenexit"",""2"",""7167""
","","","","","","17175.89999961853","Welcome to the experiment. Press any key to begin and to advance the instructions."," ","","","","","","","","","","","","",""
"learning-instructions","8","58053","0.0-8.0-0.0-0.0","4281","2","15","Female","approach_avoid_spark_v1","""event"",""trial"",""time""
""fullscreenenter"",""1"",""5492""
""fullscreenexit"",""2"",""7167""
""blur"",""3"",""9500""
""focus"",""3"",""11979""
","""event"",""trial"",""time""
""blur"",""3"",""9500""
","""event"",""trial"",""time""
""focus"",""3"",""11979""
","""event"",""trial"",""time""
""fullscreenenter"",""1"",""5492""
","""event"",""trial"",""time""
""fullscreenexit"",""2"",""7167""
","","","","","","1035.5","<p> Welcome! Today you are going to play 6 different rounds of a decision-making game. </p><p> Use the mouse to click next to continue. </p>","","0","instructions","","","","","","","","","","",""
"learning-instructions","9","61196","0.0-8.0-0.0-0.1","4281","2","15","Female","approach_avoid_spark_v1","""event"",""trial"",""time""
""fullscreenenter"",""1"",""5492""
""fullscreenexit"",""2"",""7167""
""blur"",""3"",""9500""
""focus"",""3"",""11979""
","""event"",""trial"",""time""
""blur"",""3"",""9500""
","""event"",""trial"",""time""
""focus"",""3"",""11979""
","""event"",""trial"",""time""
""fullscreenenter"",""1"",""5492""
","""event"",""trial"",""time""
""fullscreenexit"",""2"",""7167""
","","","","","","389.59999990463257","<p> You will start with a practice round to learn the rules. </p>","","0","instructions","","","","","","","","","","",""
"learning-instructions","10","65077","0.0-8.0-0.0-0.2","4281","2","15","Female","approach_avoid_spark_v1","""event"",""trial"",""time""
""fullscreenenter"",""1"",""5492""
""fullscreenexit"",""2"",""7167""
""blur"",""3"",""9500""
""focus"",""3"",""11979""
","""event"",""trial"",""time""
""blur"",""3"",""9500""
","""event"",""trial"",""time""
""focus"",""3"",""11979""
","""event"",""trial"",""time""
""fullscreenenter"",""1"",""5492""
","""event"",""trial"",""time""
""fullscreenexit"",""2"",""7167""
","","","","","","428.80000019073486","<p> Your goal in this round is to give out sports equipment to kids. </p></div>","","0","instructions","","","","","","","","","","",""
"learning-instructions","11","73021","0.0-8.0-0.0-0.3","4281","2","15","Female","approach_avoid_spark_v1","""event"",""trial"",""time""
""fullscreenenter"",""1"",""5492""
""fullscreenexit"",""2"",""7167""
""blur"",""3"",""9500""
""focus"",""3"",""11979""
","""event"",""trial"",""time""
""blur"",""3"",""9500""
","""event"",""trial"",""time""
""focus"",""3"",""11979""
","""event"",""trial"",""time""
""fullscreenenter"",""1"",""5492""
","""event"",""trial"",""time""
""fullscreenexit"",""2"",""7167""
","","","","","","383.40000009536743","<p> The kids only like some of the equipment.  </p><p> On each turn, you will see a piece of sports equipment.   </p><p> You need to decide whether to give it to the kids or not.  </p>","","0","instructions","","","","","","","","","","",""
"learning-instructions","12","79101","0.0-8.0-0.0-0.4","4281","2","15","Female","approach_avoid_spark_v1","""event"",""trial"",""time""
""fullscreenenter"",""1"",""5492""
""fullscreenexit"",""2"",""7167""
""blur"",""3"",""9500""
""focus"",""3"",""11979""
","""event"",""trial"",""time""
""blur"",""3"",""9500""
","""event"",""trial"",""time""
""focus"",""3"",""11979""
","""event"",""trial"",""time""
""fullscreenenter"",""1"",""5492""
","""event"",""trial"",""time""
""fullscreenexit"",""2"",""7167""
","","","","","","1313.2999997138977","<p> You can give them the equipment by pressing 1 and choose not to give it to them by pressing 0. </p><br><div class=""choice-instructions-grid""> <div class=""choice-option""><img src=""images/approach.png"" class=""choice-option-img"" stage=""instructions"" position=""0"" ><div class=""choice-option-text""> Press ""1."" </div></div><div class=""choice-option""><img src=""images/avoid.png"" class=""choice-option-img"" stage=""instructions"" position=""1"" ><div class=""choice-option-text""> Press ""0."" </div></div>","","0","instructions","","","","","","","","","","",""
"learning-instructions","13","87996","0.0-8.0-0.0-0.5","4281","2","15","Female","approach_avoid_spark_v1","""event"",""trial"",""time""
""fullscreenenter"",""1"",""5492""
""fullscreenexit"",""2"",""7167""
""blur"",""3"",""9500""
""focus"",""3"",""11979""
","""event"",""trial"",""time""
""blur"",""3"",""9500""
","""event"",""trial"",""time""
""focus"",""3"",""11979""
","""event"",""trial"",""time""
""fullscreenenter"",""1"",""5492""
","""event"",""trial"",""time""
""fullscreenexit"",""2"",""7167""
","","","","","","1499.5","<p> If you give them a piece of equipment they like, they will be happy! </p><p> But if you give them a piece of equipment they do not like, they will be sad. </p>","","0","instructions","","","","","","","","","","",""
"learning-instructions","14","99085","0.0-8.0-0.0-0.6","4281","2","15","Female","approach_avoid_spark_v1","""event"",""trial"",""time""
""fullscreenenter"",""1"",""5492""
""fullscreenexit"",""2"",""7167""
""blur"",""3"",""9500""
""focus"",""3"",""11979""
","""event"",""trial"",""time""
""blur"",""3"",""9500""
","""event"",""trial"",""time""
""focus"",""3"",""11979""
","""event"",""trial"",""time""
""fullscreenenter"",""1"",""5492""
","""event"",""trial"",""time""
""fullscreenexit"",""2"",""7167""
","","","","","","557.5","<p> You will earn points based on how you make kids feel. </p><p> If you make them happy, you will WIN anywhere from 1 - 9 points, </p><p> but if you make them sad, you will LOSE anywhere from 1 - 9 points. </p>","","0","instructions","","","","","","","","","","",""
"learning-instructions","15","110173","0.0-8.0-0.0-0.7","4281","2","15","Female","approach_avoid_spark_v1","""event"",""trial"",""time""
""fullscreenenter"",""1"",""5492""
""fullscreenexit"",""2"",""7167""
""blur"",""3"",""9500""
""focus"",""3"",""11979""
","""event"",""trial"",""time""
""blur"",""3"",""9500""
","""event"",""trial"",""time""
""focus"",""3"",""11979""
","""event"",""trial"",""time""
""fullscreenenter"",""1"",""5492""
","""event"",""trial"",""time""
""fullscreenexit"",""2"",""7167""
","","","","","","1516.0999999046326","<p> You will see how many points you won or lost in the center of the screen. </p><p> Here is what you would see if you won 6 points: </p><p style=""color:green;font-size:50px;font-weight:bolder"">6</p><p style=""color:green"">The text is GREEN because you WON points.</p>","","0","instructions","","","","","","","","","","",""
"learning-instructions","16","116565","0.0-8.0-0.0-0.8","4281","2","15","Female","approach_avoid_spark_v1","""event"",""trial"",""time""
""fullscreenenter"",""1"",""5492""
""fullscreenexit"",""2"",""7167""
""blur"",""3"",""9500""
""focus"",""3"",""11979""
""blur"",""17"",""125364""
""focus"",""17"",""138042""
","""event"",""trial"",""time""
""blur"",""3"",""9500""
""blur"",""17"",""125364""
","""event"",""trial"",""time""
""focus"",""3"",""11979""
""focus"",""17"",""138042""
","""event"",""trial"",""time""
""fullscreenenter"",""1"",""5492""
","""event"",""trial"",""time""
""fullscreenexit"",""2"",""7167""
","","","","","","877.3999996185303","<p> And here is what you would see if you lost 4 points: </p><p style=""color:red;font-size:50px;font-weight:bolder"">-4</p><p style=""color:red"">The text is RED because you LOST points. </p>","","0","instructions","","","","","","","","","","",""
"learning-instructions","17","139244","0.0-8.0-0.0-0.9","4281","2","15","Female","approach_avoid_spark_v1","""event"",""trial"",""time""
""fullscreenenter"",""1"",""5492""
""fullscreenexit"",""2"",""7167""
""blur"",""3"",""9500""
""focus"",""3"",""11979""
""blur"",""17"",""125364""
""focus"",""17"",""138042""
","""event"",""trial"",""time""
""blur"",""3"",""9500""
""blur"",""17"",""125364""
","""event"",""trial"",""time""
""focus"",""3"",""11979""
""focus"",""17"",""138042""
","""event"",""trial"",""time""
""fullscreenenter"",""1"",""5492""
","""event"",""trial"",""time""
""fullscreenexit"",""2"",""7167""
","","","","","","7947.599999904633","<p> Some of the equipment will make the kids VERY happy or sad. </p><p> These pieces of equipment will make you win or lose LOTS of points. </p><p> Other pieces of equipment will only make the kids a little happy or sad. </p><p> These pieces of equipment will make you win or lose small amounts of points. </p>","","0","instructions","","","","","","","","","","",""
"learning-instructions","18","151028","0.0-8.0-0.0-0.10","4281","2","15","Female","approach_avoid_spark_v1","""event"",""trial"",""time""
""fullscreenenter"",""1"",""5492""
""fullscreenexit"",""2"",""7167""
""blur"",""3"",""9500""
""focus"",""3"",""11979""
""blur"",""17"",""125364""
""focus"",""17"",""138042""
""blur"",""19"",""154286""
""focus"",""19"",""169577""
","""event"",""trial"",""time""
""blur"",""3"",""9500""
""blur"",""17"",""125364""
""blur"",""19"",""154286""
","""event"",""trial"",""time""
""focus"",""3"",""11979""
""focus"",""17"",""138042""
""focus"",""19"",""169577""
","""event"",""trial"",""time""
""fullscreenenter"",""1"",""5492""
","""event"",""trial"",""time""
""fullscreenexit"",""2"",""7167""
","","","","","","1141.1000003814697","<p> If you choose not to give them the equipment, you will not win or lose any points. </p><p>  However, in the center of the screen, you will see the number of points you WOULD HAVE won or lost if you had given them the equipment. </p>","","0","instructions","","","","","","","","","","",""
"learning-instructions","19","175532","0.0-8.0-0.0-0.11","4281","2","15","Female","approach_avoid_spark_v1","""event"",""trial"",""time""
""fullscreenenter"",""1"",""5492""
""fullscreenexit"",""2"",""7167""
""blur"",""3"",""9500""
""focus"",""3"",""11979""
""blur"",""17"",""125364""
""focus"",""17"",""138042""
""blur"",""19"",""154286""
""focus"",""19"",""169577""
","""event"",""trial"",""time""
""blur"",""3"",""9500""
""blur"",""17"",""125364""
""blur"",""19"",""154286""
","""event"",""trial"",""time""
""focus"",""3"",""11979""
""focus"",""17"",""138042""
""focus"",""19"",""169577""
","""event"",""trial"",""time""
""fullscreenenter"",""1"",""5492""
","""event"",""trial"",""time""
""fullscreenexit"",""2"",""7167""
","","","","","","2955.0999999046326","<p> Here is what you might see if you did not give the equipment to the kids but it would have made them happy: </p><p style=""color:grey; font-size:50px; display: inline-block; border-spacing: 15px; border-width:3px; border-style:solid; border-color:red"">  &nbsp; 7 &nbsp; </p><p> Remember, in this case, you would not win or lose ANY points because you did not give them the equipment.  </p><p style=""color:grey"">The text is GREY because you earned ZERO points. </p><p style=""color:red"">However, choosing to give the kids the equipment would have made you win points. The box around the text is RED because you chose the worse option. </p>","","0","instructions","","","","","","","","","","",""
"learning-instructions","20","198669","0.0-8.0-0.0-0.12","4281","2","15","Female","approach_avoid_spark_v1","""event"",""trial"",""time""
""fullscreenenter"",""1"",""5492""
""fullscreenexit"",""2"",""7167""
""blur"",""3"",""9500""
""focus"",""3"",""11979""
""blur"",""17"",""125364""
""focus"",""17"",""138042""
""blur"",""19"",""154286""
""focus"",""19"",""169577""
","""event"",""trial"",""time""
""blur"",""3"",""9500""
""blur"",""17"",""125364""
""blur"",""19"",""154286""
","""event"",""trial"",""time""
""focus"",""3"",""11979""
""focus"",""17"",""138042""
""focus"",""19"",""169577""
","""event"",""trial"",""time""
""fullscreenenter"",""1"",""5492""
","""event"",""trial"",""time""
""fullscreenexit"",""2"",""7167""
","","","","","","2060.9000000953674","<p> Here is what you might see if you did not give the equipment to the kids but it would have made them sad: </p><p style=""color:grey;font-size:50px; display: inline-block; border-spacing: 15px; border-width:3px; border-style:solid; border-color:green"">  &nbsp; -8 &nbsp; </p><p> Remember, in this case, you would not win or lose ANY points because you did not give them the equipment.  </p><p style=""color:grey"">The text is GREY because you earned ZERO points. </p><p  style=""color:green""> Choosing to give the kids the equipment would have made you lose points. The box around the text is GREEN because you chose the better option.</p>","","0","instructions","","","","","","","","","","",""
"learning-instructions","21","209941","0.0-8.0-0.0-0.13","4281","2","15","Female","approach_avoid_spark_v1","""event"",""trial"",""time""
""fullscreenenter"",""1"",""5492""
""fullscreenexit"",""2"",""7167""
""blur"",""3"",""9500""
""focus"",""3"",""11979""
""blur"",""17"",""125364""
""focus"",""17"",""138042""
""blur"",""19"",""154286""
""focus"",""19"",""169577""
","""event"",""trial"",""time""
""blur"",""3"",""9500""
""blur"",""17"",""125364""
""blur"",""19"",""154286""
","""event"",""trial"",""time""
""focus"",""3"",""11979""
""focus"",""17"",""138042""
""focus"",""19"",""169577""
","""event"",""trial"",""time""
""fullscreenenter"",""1"",""5492""
","""event"",""trial"",""time""
""fullscreenexit"",""2"",""7167""
","","","","","","1874.1999998092651","<p> You will have 3 seconds to make each choice. Try to respond before time runs out! </p><p> You will lose 5 points each time you do not make a response. </p>","","0","instructions","","","","","","","","","","",""
"learning-instructions","22","216373","0.0-8.0-0.0-0.14","4281","2","15","Female","approach_avoid_spark_v1","""event"",""trial"",""time""
""fullscreenenter"",""1"",""5492""
""fullscreenexit"",""2"",""7167""
""blur"",""3"",""9500""
""focus"",""3"",""11979""
""blur"",""17"",""125364""
""focus"",""17"",""138042""
""blur"",""19"",""154286""
""focus"",""19"",""169577""
","""event"",""trial"",""time""
""blur"",""3"",""9500""
""blur"",""17"",""125364""
""blur"",""19"",""154286""
","""event"",""trial"",""time""
""focus"",""3"",""11979""
""focus"",""17"",""138042""
""focus"",""19"",""169577""
","""event"",""trial"",""time""
""fullscreenenter"",""1"",""5492""
","""event"",""trial"",""time""
""fullscreenexit"",""2"",""7167""
","","","","","","1005.9000000953674","<p> This is just a practice round, but in the real game, your bonus payment will depend on your total number of points.","","0","instructions","","","","","","","","","","",""
"learning-instructions","23","225245","0.0-8.0-0.0-0.15","4281","2","15","Female","approach_avoid_spark_v1","""event"",""trial"",""time""
""fullscreenenter"",""1"",""5492""
""fullscreenexit"",""2"",""7167""
""blur"",""3"",""9500""
""focus"",""3"",""11979""
""blur"",""17"",""125364""
""focus"",""17"",""138042""
""blur"",""19"",""154286""
""focus"",""19"",""169577""
","""event"",""trial"",""time""
""blur"",""3"",""9500""
""blur"",""17"",""125364""
""blur"",""19"",""154286""
","""event"",""trial"",""time""
""focus"",""3"",""11979""
""focus"",""17"",""138042""
""focus"",""19"",""169577""
","""event"",""trial"",""time""
""fullscreenenter"",""1"",""5492""
","""event"",""trial"",""time""
""fullscreenexit"",""2"",""7167""
","","","","","","3088","<p> Remember, you can give them the equipment by pressing 1 and choose not to give it to them by pressing 0. </p><br><div class=""choice-instructions-grid""> <div class=""choice-option""><img src=""images/approach.png"" class=""choice-option-img"" stage=""instructions"" position=""0"" ><div class=""choice-option-text""> Press ""1."" </div></div><div class=""choice-option""><img src=""images/avoid.png"" class=""choice-option-img"" stage=""instructions"" position=""1"" ><div class=""choice-option-text""> Press ""0."" </div></div>","","0","instructions","","","","","","","","","","",""
"html-button-response","24","228293","0.0-8.0-1.0","4281","2","15","Female","approach_avoid_spark_v1","""event"",""trial"",""time""
""fullscreenenter"",""1"",""5492""
""fullscreenexit"",""2"",""7167""
""blur"",""3"",""9500""
""focus"",""3"",""11979""
""blur"",""17"",""125364""
""focus"",""17"",""138042""
""blur"",""19"",""154286""
""focus"",""19"",""169577""
","""event"",""trial"",""time""
""blur"",""3"",""9500""
""blur"",""17"",""125364""
""blur"",""19"",""154286""
","""event"",""trial"",""time""
""focus"",""3"",""11979""
""focus"",""17"",""138042""
""focus"",""19"",""169577""
","""event"",""trial"",""time""
""fullscreenenter"",""1"",""5492""
","""event"",""trial"",""time""
""fullscreenexit"",""2"",""7167""
","","","","","","2936.4000000953674","<p> Ready to practice? </p>","0","","","","","","","","","","","","",""
"html-keyboard-response","25","228925","0.0-8.0-2.0-0.0","4281","2","15","Female","approach_avoid_spark_v1","""event"",""trial"",""time""
""fullscreenenter"",""1"",""5492""
""fullscreenexit"",""2"",""7167""
""blur"",""3"",""9500""
""focus"",""3"",""11979""
""blur"",""17"",""125364""
""focus"",""17"",""138042""
""blur"",""19"",""154286""
""focus"",""19"",""169577""
","""event"",""trial"",""time""
""blur"",""3"",""9500""
""blur"",""17"",""125364""
""blur"",""19"",""154286""
","""event"",""trial"",""time""
""focus"",""3"",""11979""
""focus"",""17"",""138042""
""focus"",""19"",""169577""
","""event"",""trial"",""time""
""fullscreenenter"",""1"",""5492""
","""event"",""trial"",""time""
""fullscreenexit"",""2"",""7167""
","","","","","","null","<div style=""font-size:60px;"">+</div>","null","","fixation","","","","","","","","","","",""
"aa-learning-trial","26","231946","0.0-8.0-2.0-1.0","4281","2","15","Female","approach_avoid_spark_v1","""event"",""trial"",""time""
""fullscreenenter"",""1"",""5492""
""fullscreenexit"",""2"",""7167""
""blur"",""3"",""9500""
""focus"",""3"",""11979""
""blur"",""17"",""125364""
""focus"",""17"",""138042""
""blur"",""19"",""154286""
""focus"",""19"",""169577""
","""event"",""trial"",""time""
""blur"",""3"",""9500""
""blur"",""17"",""125364""
""blur"",""19"",""154286""
","""event"",""trial"",""time""
""focus"",""3"",""11979""
""focus"",""17"",""138042""
""focus"",""19"",""169577""
","""event"",""trial"",""time""
""fullscreenenter"",""1"",""5492""
","""event"",""trial"",""time""
""fullscreenexit"",""2"",""7167""
","","","","","","1331.9000000953674","images/racket4.png","","","learning","-3","-3","1","1","practice","practice","practice","-1","","",""
"html-keyboard-response","27","232466","0.0-8.0-2.0-0.1","4281","2","15","Female","approach_avoid_spark_v1","""event"",""trial"",""time""
""fullscreenenter"",""1"",""5492""
""fullscreenexit"",""2"",""7167""
""blur"",""3"",""9500""
""focus"",""3"",""11979""
""blur"",""17"",""125364""
""focus"",""17"",""138042""
""blur"",""19"",""154286""
""focus"",""19"",""169577""
","""event"",""trial"",""time""
""blur"",""3"",""9500""
""blur"",""17"",""125364""
""blur"",""19"",""154286""
","""event"",""trial"",""time""
""focus"",""3"",""11979""
""focus"",""17"",""138042""
""focus"",""19"",""169577""
","""event"",""trial"",""time""
""fullscreenenter"",""1"",""5492""
","""event"",""trial"",""time""
""fullscreenexit"",""2"",""7167""
","","","","","","null","<div style=""font-size:60px;"">+</div>","null","","fixation","","","","","","","","","","",""
"aa-learning-trial","28","235476","0.0-8.0-2.0-1.1","4281","2","15","Female","approach_avoid_spark_v1","""event"",""trial"",""time""
""fullscreenenter"",""1"",""5492""
""fullscreenexit"",""2"",""7167""
""blur"",""3"",""9500""
""focus"",""3"",""11979""
""blur"",""17"",""125364""
""focus"",""17"",""138042""
""blur"",""19"",""154286""
""focus"",""19"",""169577""
","""event"",""trial"",""time""
""blur"",""3"",""9500""
""blur"",""17"",""125364""
""blur"",""19"",""154286""
","""event"",""trial"",""time""
""focus"",""3"",""11979""
""focus"",""17"",""138042""
""focus"",""19"",""169577""
","""event"",""trial"",""time""
""fullscreenenter"",""1"",""5492""
","""event"",""trial"",""time""
""fullscreenexit"",""2"",""7167""
","","","","","","535.0999999046326","images/ball1.png","","","learning","2","0","0","0","practice","practice","practice","-1","","",""
"html-keyboard-response","29","235996","0.0-8.0-2.0-0.2","4281","2","15","Female","approach_avoid_spark_v1","""event"",""trial"",""time""
""fullscreenenter"",""1"",""5492""
""fullscreenexit"",""2"",""7167""
""blur"",""3"",""9500""
""focus"",""3"",""11979""
""blur"",""17"",""125364""
""focus"",""17"",""138042""
""blur"",""19"",""154286""
""focus"",""19"",""169577""
","""event"",""trial"",""time""
""blur"",""3"",""9500""
""blur"",""17"",""125364""
""blur"",""19"",""154286""
","""event"",""trial"",""time""
""focus"",""3"",""11979""
""focus"",""17"",""138042""
""focus"",""19"",""169577""
","""event"",""trial"",""time""
""fullscreenenter"",""1"",""5492""
","""event"",""trial"",""time""
""fullscreenexit"",""2"",""7167""
","","","","","","null","<div style=""font-size:60px;"">+</div>","null","","fixation","","","","","","","","","","",""
"aa-learning-trial","30","239006","0.0-8.0-2.0-1.2","4281","2","15","Female","approach_avoid_spark_v1","""event"",""trial"",""time""
""fullscreenenter"",""1"",""5492""
""fullscreenexit"",""2"",""7167""
""blur"",""3"",""9500""
""focus"",""3"",""11979""
""blur"",""17"",""125364""
""focus"",""17"",""138042""
""blur"",""19"",""154286""
""focus"",""19"",""169577""
","""event"",""trial"",""time""
""blur"",""3"",""9500""
""blur"",""17"",""125364""
""blur"",""19"",""154286""
","""event"",""trial"",""time""
""focus"",""3"",""11979""
""focus"",""17"",""138042""
""focus"",""19"",""169577""
","""event"",""trial"",""time""
""fullscreenenter"",""1"",""5492""
","""event"",""trial"",""time""
""fullscreenexit"",""2"",""7167""
","","","","","","389.7999997138977","images/racket3.png","","","learning","1","0","0","0","practice","practice","practice","-1","","",""
"html-keyboard-response","31","239526","0.0-8.0-2.0-0.3","4281","2","15","Female","approach_avoid_spark_v1","""event"",""trial"",""time""
""fullscreenenter"",""1"",""5492""
""fullscreenexit"",""2"",""7167""
""blur"",""3"",""9500""
""focus"",""3"",""11979""
""blur"",""17"",""125364""
""focus"",""17"",""138042""
""blur"",""19"",""154286""
""focus"",""19"",""169577""
","""event"",""trial"",""time""
""blur"",""3"",""9500""
""blur"",""17"",""125364""
""blur"",""19"",""154286""
","""event"",""trial"",""time""
""focus"",""3"",""11979""
""focus"",""17"",""138042""
""focus"",""19"",""169577""
","""event"",""trial"",""time""
""fullscreenenter"",""1"",""5492""
","""event"",""trial"",""time""
""fullscreenexit"",""2"",""7167""
","","","","","","null","<div style=""font-size:60px;"">+</div>","null","","fixation","","","","","","","","","","",""
"aa-learning-trial","32","242546","0.0-8.0-2.0-1.3","4281","2","15","Female","approach_avoid_spark_v1","""event"",""trial"",""time""
""fullscreenenter"",""1"",""5492""
""fullscreenexit"",""2"",""7167""
""blur"",""3"",""9500""
""focus"",""3"",""11979""
""blur"",""17"",""125364""
""focus"",""17"",""138042""
""blur"",""19"",""154286""
""focus"",""19"",""169577""
","""event"",""trial"",""time""
""blur"",""3"",""9500""
""blur"",""17"",""125364""
""blur"",""19"",""154286""
","""event"",""trial"",""time""
""focus"",""3"",""11979""
""focus"",""17"",""138042""
""focus"",""19"",""169577""
","""event"",""trial"",""time""
""fullscreenenter"",""1"",""5492""
","""event"",""trial"",""time""
""fullscreenexit"",""2"",""7167""
","","","","","","546.6000003814697","images/ball4.png","","","learning","3","0","0","0","practice","practice","practice","-1","","",""
"html-keyboard-response","33","243066","0.0-8.0-2.0-0.4","4281","2","15","Female","approach_avoid_spark_v1","""event"",""trial"",""time""
""fullscreenenter"",""1"",""5492""
""fullscreenexit"",""2"",""7167""
""blur"",""3"",""9500""
""focus"",""3"",""11979""
""blur"",""17"",""125364""
""focus"",""17"",""138042""
""blur"",""19"",""154286""
""focus"",""19"",""169577""
","""event"",""trial"",""time""
""blur"",""3"",""9500""
""blur"",""17"",""125364""
""blur"",""19"",""154286""
","""event"",""trial"",""time""
""focus"",""3"",""11979""
""focus"",""17"",""138042""
""focus"",""19"",""169577""
","""event"",""trial"",""time""
""fullscreenenter"",""1"",""5492""
","""event"",""trial"",""time""
""fullscreenexit"",""2"",""7167""
","","","","","","null","<div style=""font-size:60px;"">+</div>","null","","fixation","","","","","","","","","","",""
"aa-learning-trial","34","246075","0.0-8.0-2.0-1.4","4281","2","15","Female","approach_avoid_spark_v1","""event"",""trial"",""time""
""fullscreenenter"",""1"",""5492""
""fullscreenexit"",""2"",""7167""
""blur"",""3"",""9500""
""focus"",""3"",""11979""
""blur"",""17"",""125364""
""focus"",""17"",""138042""
""blur"",""19"",""154286""
""focus"",""19"",""169577""
","""event"",""trial"",""time""
""blur"",""3"",""9500""
""blur"",""17"",""125364""
""blur"",""19"",""154286""
","""event"",""trial"",""time""
""focus"",""3"",""11979""
""focus"",""17"",""138042""
""focus"",""19"",""169577""
","""event"",""trial"",""time""
""fullscreenenter"",""1"",""5492""
","""event"",""trial"",""time""
""fullscreenexit"",""2"",""7167""
","","","","","","415.59999990463257","images/racket1.png","","","learning","4","0","0","0","practice","practice","practice","-1","","",""
"html-keyboard-response","35","246596","0.0-8.0-2.0-0.5","4281","2","15","Female","approach_avoid_spark_v1","""event"",""trial"",""time""
""fullscreenenter"",""1"",""5492""
""fullscreenexit"",""2"",""7167""
""blur"",""3"",""9500""
""focus"",""3"",""11979""
""blur"",""17"",""125364""
""focus"",""17"",""138042""
""blur"",""19"",""154286""
""focus"",""19"",""169577""
","""event"",""trial"",""time""
""blur"",""3"",""9500""
""blur"",""17"",""125364""
""blur"",""19"",""154286""
","""event"",""trial"",""time""
""focus"",""3"",""11979""
""focus"",""17"",""138042""
""focus"",""19"",""169577""
","""event"",""trial"",""time""
""fullscreenenter"",""1"",""5492""
","""event"",""trial"",""time""
""fullscreenexit"",""2"",""7167""
","","","","","","null","<div style=""font-size:60px;"">+</div>","null","","fixation","","","","","","","","","","",""
"aa-learning-trial","36","249605","0.0-8.0-2.0-1.5","4281","2","15","Female","approach_avoid_spark_v1","""event"",""trial"",""time""
""fullscreenenter"",""1"",""5492""
""fullscreenexit"",""2"",""7167""
""blur"",""3"",""9500""
""focus"",""3"",""11979""
""blur"",""17"",""125364""
""focus"",""17"",""138042""
""blur"",""19"",""154286""
""focus"",""19"",""169577""
","""event"",""trial"",""time""
""blur"",""3"",""9500""
""blur"",""17"",""125364""
""blur"",""19"",""154286""
","""event"",""trial"",""time""
""focus"",""3"",""11979""
""focus"",""17"",""138042""
""focus"",""19"",""169577""
","""event"",""trial"",""time""
""fullscreenenter"",""1"",""5492""
","""event"",""trial"",""time""
""fullscreenexit"",""2"",""7167""
","","","","","","542.7999997138977","images/ball4.png","","","learning","8","0","0","0","practice","practice","practice","-1","","",""
"html-keyboard-response","37","250126","0.0-8.0-2.0-0.6","4281","2","15","Female","approach_avoid_spark_v1","""event"",""trial"",""time""
""fullscreenenter"",""1"",""5492""
""fullscreenexit"",""2"",""7167""
""blur"",""3"",""9500""
""focus"",""3"",""11979""
""blur"",""17"",""125364""
""focus"",""17"",""138042""
""blur"",""19"",""154286""
""focus"",""19"",""169577""
","""event"",""trial"",""time""
""blur"",""3"",""9500""
""blur"",""17"",""125364""
""blur"",""19"",""154286""
","""event"",""trial"",""time""
""focus"",""3"",""11979""
""focus"",""17"",""138042""
""focus"",""19"",""169577""
","""event"",""trial"",""time""
""fullscreenenter"",""1"",""5492""
","""event"",""trial"",""time""
""fullscreenexit"",""2"",""7167""
","","","","","","null","<div style=""font-size:60px;"">+</div>","null","","fixation","","","","","","","","","","",""
"aa-learning-trial","38","253134","0.0-8.0-2.0-1.6","4281","2","15","Female","approach_avoid_spark_v1","""event"",""trial"",""time""
""fullscreenenter"",""1"",""5492""
""fullscreenexit"",""2"",""7167""
""blur"",""3"",""9500""
""focus"",""3"",""11979""
""blur"",""17"",""125364""
""focus"",""17"",""138042""
""blur"",""19"",""154286""
""focus"",""19"",""169577""
","""event"",""trial"",""time""
""blur"",""3"",""9500""
""blur"",""17"",""125364""
""blur"",""19"",""154286""
","""event"",""trial"",""time""
""focus"",""3"",""11979""
""focus"",""17"",""138042""
""focus"",""19"",""169577""
","""event"",""trial"",""time""
""fullscreenenter"",""1"",""5492""
","""event"",""trial"",""time""
""fullscreenexit"",""2"",""7167""
","","","","","","413.5","images/ball1.png","","","learning","-9","0","0","0","practice","practice","practice","-1","","",""
"html-keyboard-response","39","253638","0.0-8.0-2.0-0.7","4281","2","15","Female","approach_avoid_spark_v1","""event"",""trial"",""time""
""fullscreenenter"",""1"",""5492""
""fullscreenexit"",""2"",""7167""
""blur"",""3"",""9500""
""focus"",""3"",""11979""
""blur"",""17"",""125364""
""focus"",""17"",""138042""
""blur"",""19"",""154286""
""focus"",""19"",""169577""
","""event"",""trial"",""time""
""blur"",""3"",""9500""
""blur"",""17"",""125364""
""blur"",""19"",""154286""
","""event"",""trial"",""time""
""focus"",""3"",""11979""
""focus"",""17"",""138042""
""focus"",""19"",""169577""
","""event"",""trial"",""time""
""fullscreenenter"",""1"",""5492""
","""event"",""trial"",""time""
""fullscreenexit"",""2"",""7167""
","","","","","","null","<div style=""font-size:60px;"">+</div>","null","","fixation","","","","","","","","","","",""
"aa-learning-trial","40","256646","0.0-8.0-2.0-1.7","4281","2","15","Female","approach_avoid_spark_v1","""event"",""trial"",""time""
""fullscreenenter"",""1"",""5492""
""fullscreenexit"",""2"",""7167""
""blur"",""3"",""9500""
""focus"",""3"",""11979""
""blur"",""17"",""125364""
""focus"",""17"",""138042""
""blur"",""19"",""154286""
""focus"",""19"",""169577""
","""event"",""trial"",""time""
""blur"",""3"",""9500""
""blur"",""17"",""125364""
""blur"",""19"",""154286""
","""event"",""trial"",""time""
""focus"",""3"",""11979""
""focus"",""17"",""138042""
""focus"",""19"",""169577""
","""event"",""trial"",""time""
""fullscreenenter"",""1"",""5492""
","""event"",""trial"",""time""
""fullscreenexit"",""2"",""7167""
","","","","","","462.1000003814697","images/racket3.png","","","learning","3","3","1","1","practice","practice","practice","-1","","",""
"html-keyboard-response","41","257160","0.0-8.0-2.0-0.8","4281","2","15","Female","approach_avoid_spark_v1","""event"",""trial"",""time""
""fullscreenenter"",""1"",""5492""
""fullscreenexit"",""2"",""7167""
""blur"",""3"",""9500""
""focus"",""3"",""11979""
""blur"",""17"",""125364""
""focus"",""17"",""138042""
""blur"",""19"",""154286""
""focus"",""19"",""169577""
","""event"",""trial"",""time""
""blur"",""3"",""9500""
""blur"",""17"",""125364""
""blur"",""19"",""154286""
","""event"",""trial"",""time""
""focus"",""3"",""11979""
""focus"",""17"",""138042""
""focus"",""19"",""169577""
","""event"",""trial"",""time""
""fullscreenenter"",""1"",""5492""
","""event"",""trial"",""time""
""fullscreenexit"",""2"",""7167""
","","","","","","null","<div style=""font-size:60px;"">+</div>","null","","fixation","","","","","","","","","","",""
"aa-learning-trial","42","260166","0.0-8.0-2.0-1.8","4281","2","15","Female","approach_avoid_spark_v1","""event"",""trial"",""time""
""fullscreenenter"",""1"",""5492""
""fullscreenexit"",""2"",""7167""
""blur"",""3"",""9500""
""focus"",""3"",""11979""
""blur"",""17"",""125364""
""focus"",""17"",""138042""
""blur"",""19"",""154286""
""focus"",""19"",""169577""
","""event"",""trial"",""time""
""blur"",""3"",""9500""
""blur"",""17"",""125364""
""blur"",""19"",""154286""
","""event"",""trial"",""time""
""focus"",""3"",""11979""
""focus"",""17"",""138042""
""focus"",""19"",""169577""
","""event"",""trial"",""time""
""fullscreenenter"",""1"",""5492""
","""event"",""trial"",""time""
""fullscreenexit"",""2"",""7167""
","","","","","","293.69999980926514","images/ball1.png","","","learning","2","2","1","1","practice","practice","practice","-1","","",""
"html-keyboard-response","43","260670","0.0-8.0-2.0-0.9","4281","2","15","Female","approach_avoid_spark_v1","""event"",""trial"",""time""
""fullscreenenter"",""1"",""5492""
""fullscreenexit"",""2"",""7167""
""blur"",""3"",""9500""
""focus"",""3"",""11979""
""blur"",""17"",""125364""
""focus"",""17"",""138042""
""blur"",""19"",""154286""
""focus"",""19"",""169577""
","""event"",""trial"",""time""
""blur"",""3"",""9500""
""blur"",""17"",""125364""
""blur"",""19"",""154286""
","""event"",""trial"",""time""
""focus"",""3"",""11979""
""focus"",""17"",""138042""
""focus"",""19"",""169577""
","""event"",""trial"",""time""
""fullscreenenter"",""1"",""5492""
","""event"",""trial"",""time""
""fullscreenexit"",""2"",""7167""
","","","","","","null","<div style=""font-size:60px;"">+</div>","null","","fixation","","","","","","","","","","",""
"aa-learning-trial","44","263679","0.0-8.0-2.0-1.9","4281","2","15","Female","approach_avoid_spark_v1","""event"",""trial"",""time""
""fullscreenenter"",""1"",""5492""
""fullscreenexit"",""2"",""7167""
""blur"",""3"",""9500""
""focus"",""3"",""11979""
""blur"",""17"",""125364""
""focus"",""17"",""138042""
""blur"",""19"",""154286""
""focus"",""19"",""169577""
","""event"",""trial"",""time""
""blur"",""3"",""9500""
""blur"",""17"",""125364""
""blur"",""19"",""154286""
","""event"",""trial"",""time""
""focus"",""3"",""11979""
""focus"",""17"",""138042""
""focus"",""19"",""169577""
","""event"",""trial"",""time""
""fullscreenenter"",""1"",""5492""
","""event"",""trial"",""time""
""fullscreenexit"",""2"",""7167""
","","","","","","222.69999980926514","images/ball4.png","","","learning","5","5","1","1","practice","practice","practice","-1","","",""
"html-keyboard-response","45","264183","0.0-8.0-2.0-0.10","4281","2","15","Female","approach_avoid_spark_v1","""event"",""trial"",""time""
""fullscreenenter"",""1"",""5492""
""fullscreenexit"",""2"",""7167""
""blur"",""3"",""9500""
""focus"",""3"",""11979""
""blur"",""17"",""125364""
""focus"",""17"",""138042""
""blur"",""19"",""154286""
""focus"",""19"",""169577""
","""event"",""trial"",""time""
""blur"",""3"",""9500""
""blur"",""17"",""125364""
""blur"",""19"",""154286""
","""event"",""trial"",""time""
""focus"",""3"",""11979""
""focus"",""17"",""138042""
""focus"",""19"",""169577""
","""event"",""trial"",""time""
""fullscreenenter"",""1"",""5492""
","""event"",""trial"",""time""
""fullscreenexit"",""2"",""7167""
","","","","","","null","<div style=""font-size:60px;"">+</div>","null","","fixation","","","","","","","","","","",""
"aa-learning-trial","46","267190","0.0-8.0-2.0-1.10","4281","2","15","Female","approach_avoid_spark_v1","""event"",""trial"",""time""
""fullscreenenter"",""1"",""5492""
""fullscreenexit"",""2"",""7167""
""blur"",""3"",""9500""
""focus"",""3"",""11979""
""blur"",""17"",""125364""
""focus"",""17"",""138042""
""blur"",""19"",""154286""
""focus"",""19"",""169577""
","""event"",""trial"",""time""
""blur"",""3"",""9500""
""blur"",""17"",""125364""
""blur"",""19"",""154286""
","""event"",""trial"",""time""
""focus"",""3"",""11979""
""focus"",""17"",""138042""
""focus"",""19"",""169577""
","""event"",""trial"",""time""
""fullscreenenter"",""1"",""5492""
","""event"",""trial"",""time""
""fullscreenexit"",""2"",""7167""
","","","","","","334.90000009536743","images/racket2.png","","","learning","7","7","1","1","practice","practice","practice","-1","","",""
"html-keyboard-response","47","267697","0.0-8.0-2.0-0.11","4281","2","15","Female","approach_avoid_spark_v1","""event"",""trial"",""time""
""fullscreenenter"",""1"",""5492""
""fullscreenexit"",""2"",""7167""
""blur"",""3"",""9500""
""focus"",""3"",""11979""
""blur"",""17"",""125364""
""focus"",""17"",""138042""
""blur"",""19"",""154286""
""focus"",""19"",""169577""
","""event"",""trial"",""time""
""blur"",""3"",""9500""
""blur"",""17"",""125364""
""blur"",""19"",""154286""
","""event"",""trial"",""time""
""focus"",""3"",""11979""
""focus"",""17"",""138042""
""focus"",""19"",""169577""
","""event"",""trial"",""time""
""fullscreenenter"",""1"",""5492""
","""event"",""trial"",""time""
""fullscreenexit"",""2"",""7167""
","","","","","","null","<div style=""font-size:60px;"">+</div>","null","","fixation","","","","","","","","","","",""
"aa-learning-trial","48","270706","0.0-8.0-2.0-1.11","4281","2","15","Female","approach_avoid_spark_v1","""event"",""trial"",""time""
""fullscreenenter"",""1"",""5492""
""fullscreenexit"",""2"",""7167""
""blur"",""3"",""9500""
""focus"",""3"",""11979""
""blur"",""17"",""125364""
""focus"",""17"",""138042""
""blur"",""19"",""154286""
""focus"",""19"",""169577""
","""event"",""trial"",""time""
""blur"",""3"",""9500""
""blur"",""17"",""125364""
""blur"",""19"",""154286""
","""event"",""trial"",""time""
""focus"",""3"",""11979""
""focus"",""17"",""138042""
""focus"",""19"",""169577""
","""event"",""trial"",""time""
""fullscreenenter"",""1"",""5492""
","""event"",""trial"",""time""
""fullscreenexit"",""2"",""7167""
","","","","","","611.6000003814697","images/racket1.png","","","learning","6","6","1","1","practice","practice","practice","-1","","",""
"html-button-response","49","274669","0.0-8.0-3.0","4281","2","15","Female","approach_avoid_spark_v1","""event"",""trial"",""time""
""fullscreenenter"",""1"",""5492""
""fullscreenexit"",""2"",""7167""
""blur"",""3"",""9500""
""focus"",""3"",""11979""
""blur"",""17"",""125364""
""focus"",""17"",""138042""
""blur"",""19"",""154286""
""focus"",""19"",""169577""
","""event"",""trial"",""time""
""blur"",""3"",""9500""
""blur"",""17"",""125364""
""blur"",""19"",""154286""
","""event"",""trial"",""time""
""focus"",""3"",""11979""
""focus"",""17"",""138042""
""focus"",""19"",""169577""
","""event"",""trial"",""time""
""fullscreenenter"",""1"",""5492""
","""event"",""trial"",""time""
""fullscreenexit"",""2"",""7167""
","","","","","","3961.4000000953674","<p> You earned 20 points in the practice round! </p>","0","","break","","","","","","","","","","",""
"learning-instructions","50","281837","0.0-8.0-4.0-0.0","4281","2","15","Female","approach_avoid_spark_v1","""event"",""trial"",""time""
""fullscreenenter"",""1"",""5492""
""fullscreenexit"",""2"",""7167""
""blur"",""3"",""9500""
""focus"",""3"",""11979""
""blur"",""17"",""125364""
""focus"",""17"",""138042""
""blur"",""19"",""154286""
""focus"",""19"",""169577""
","""event"",""trial"",""time""
""blur"",""3"",""9500""
""blur"",""17"",""125364""
""blur"",""19"",""154286""
","""event"",""trial"",""time""
""focus"",""3"",""11979""
""focus"",""17"",""138042""
""focus"",""19"",""169577""
","""event"",""trial"",""time""
""fullscreenenter"",""1"",""5492""
","""event"",""trial"",""time""
""fullscreenexit"",""2"",""7167""
","","","","","","1168.0999999046326","<p> It's almost time to start the real game. </p><p> Before you start, we're going to ask you a few questions about how the game works. </p>","","0","instructions","","","","","","","","","","",""
"preload","51","290685","0.0-8.0-5.0","4281","2","15","Female","approach_avoid_spark_v1","""event"",""trial"",""time""
""fullscreenenter"",""1"",""5492""
""fullscreenexit"",""2"",""7167""
""blur"",""3"",""9500""
""focus"",""3"",""11979""
""blur"",""17"",""125364""
""focus"",""17"",""138042""
""blur"",""19"",""154286""
""focus"",""19"",""169577""
","""event"",""trial"",""time""
""blur"",""3"",""9500""
""blur"",""17"",""125364""
""blur"",""19"",""154286""
","""event"",""trial"",""time""
""focus"",""3"",""11979""
""focus"",""17"",""138042""
""focus"",""19"",""169577""
","""event"",""trial"",""time""
""fullscreenenter"",""1"",""5492""
","""event"",""trial"",""time""
""fullscreenexit"",""2"",""7167""
","true","false","[]","[]","[]","","","","","","","","","","","","","","","",""
"comp-q","52","296429","0.0-8.0-6.0-0.0","4281","2","15","Female","approach_avoid_spark_v1","""event"",""trial"",""time""
""fullscreenenter"",""1"",""5492""
""fullscreenexit"",""2"",""7167""
""blur"",""3"",""9500""
""focus"",""3"",""11979""
""blur"",""17"",""125364""
""focus"",""17"",""138042""
""blur"",""19"",""154286""
""focus"",""19"",""169577""
","""event"",""trial"",""time""
""blur"",""3"",""9500""
""blur"",""17"",""125364""
""blur"",""19"",""154286""
","""event"",""trial"",""time""
""focus"",""3"",""11979""
""focus"",""17"",""138042""
""focus"",""19"",""169577""
","""event"",""trial"",""time""
""fullscreenenter"",""1"",""5492""
","""event"",""trial"",""time""
""fullscreenexit"",""2"",""7167""
","","","","","","750.1999998092651","<p> <b> True or False? </b> </p><p> If you see a number in GREY, that means you earned that many points. </p>","","1","comp_question","","","","","","","","","true","",""
"comp-q","53","305589","0.0-8.0-6.0-1.0","4281","2","15","Female","approach_avoid_spark_v1","""event"",""trial"",""time""
""fullscreenenter"",""1"",""5492""
""fullscreenexit"",""2"",""7167""
""blur"",""3"",""9500""
""focus"",""3"",""11979""
""blur"",""17"",""125364""
""focus"",""17"",""138042""
""blur"",""19"",""154286""
""focus"",""19"",""169577""
","""event"",""trial"",""time""
""blur"",""3"",""9500""
""blur"",""17"",""125364""
""blur"",""19"",""154286""
","""event"",""trial"",""time""
""focus"",""3"",""11979""
""focus"",""17"",""138042""
""focus"",""19"",""169577""
","""event"",""trial"",""time""
""fullscreenenter"",""1"",""5492""
","""event"",""trial"",""time""
""fullscreenexit"",""2"",""7167""
","","","","","","780.5999999046326","<p><b> That's right! </b> If you see a grey number, it means you earned ZERO points. <br> The grey numbers show the points you WOULD HAVE earned if you had made the other choice. </p>","","0","comp_answer","","","","","","","","","","",""
"comp-q","54","310996","0.0-8.0-7.0-0.0","4281","2","15","Female","approach_avoid_spark_v1","""event"",""trial"",""time""
""fullscreenenter"",""1"",""5492""
""fullscreenexit"",""2"",""7167""
""blur"",""3"",""9500""
""focus"",""3"",""11979""
""blur"",""17"",""125364""
""focus"",""17"",""138042""
""blur"",""19"",""154286""
""focus"",""19"",""169577""
","""event"",""trial"",""time""
""blur"",""3"",""9500""
""blur"",""17"",""125364""
""blur"",""19"",""154286""
","""event"",""trial"",""time""
""focus"",""3"",""11979""
""focus"",""17"",""138042""
""focus"",""19"",""169577""
","""event"",""trial"",""time""
""fullscreenenter"",""1"",""5492""
","""event"",""trial"",""time""
""fullscreenexit"",""2"",""7167""
","","","","","","707.2000002861023","<p> <b> True or False? </b> </p><p> You will have as much time as you want to make each choice. </p>","","1","comp_question","","","","","","","","","true","",""
"comp-q","55","317245","0.0-8.0-7.0-1.0","4281","2","15","Female","approach_avoid_spark_v1","""event"",""trial"",""time""
""fullscreenenter"",""1"",""5492""
""fullscreenexit"",""2"",""7167""
""blur"",""3"",""9500""
""focus"",""3"",""11979""
""blur"",""17"",""125364""
""focus"",""17"",""138042""
""blur"",""19"",""154286""
""focus"",""19"",""169577""
","""event"",""trial"",""time""
""blur"",""3"",""9500""
""blur"",""17"",""125364""
""blur"",""19"",""154286""
","""event"",""trial"",""time""
""focus"",""3"",""11979""
""focus"",""17"",""138042""
""focus"",""19"",""169577""
","""event"",""trial"",""time""
""fullscreenenter"",""1"",""5492""
","""event"",""trial"",""time""
""fullscreenexit"",""2"",""7167""
","","","","","","2195.5999999046326","<p> <b> That's right! </b> You will only have 3 seconds to make each choice. </p>","","0","comp_answer","","","","","","","","","","",""
"comp-q","56","322564","0.0-8.0-8.0-0.0","4281","2","15","Female","approach_avoid_spark_v1","""event"",""trial"",""time""
""fullscreenenter"",""1"",""5492""
""fullscreenexit"",""2"",""7167""
""blur"",""3"",""9500""
""focus"",""3"",""11979""
""blur"",""17"",""125364""
""focus"",""17"",""138042""
""blur"",""19"",""154286""
""focus"",""19"",""169577""
","""event"",""trial"",""time""
""blur"",""3"",""9500""
""blur"",""17"",""125364""
""blur"",""19"",""154286""
","""event"",""trial"",""time""
""focus"",""3"",""11979""
""focus"",""17"",""138042""
""focus"",""19"",""169577""
","""event"",""trial"",""time""
""fullscreenenter"",""1"",""5492""
","""event"",""trial"",""time""
""fullscreenexit"",""2"",""7167""
","","","","","","655.9000000953674","<p> <b> True or False? </b> </p><p> You should use the '1' and '0' keys to make your choices. </p>","","0","comp_question","","","","","","","","","true","",""
"comp-q","57","329284","0.0-8.0-8.0-1.0","4281","2","15","Female","approach_avoid_spark_v1","""event"",""trial"",""time""
""fullscreenenter"",""1"",""5492""
""fullscreenexit"",""2"",""7167""
""blur"",""3"",""9500""
""focus"",""3"",""11979""
""blur"",""17"",""125364""
""focus"",""17"",""138042""
""blur"",""19"",""154286""
""focus"",""19"",""169577""
","""event"",""trial"",""time""
""blur"",""3"",""9500""
""blur"",""17"",""125364""
""blur"",""19"",""154286""
","""event"",""trial"",""time""
""focus"",""3"",""11979""
""focus"",""17"",""138042""
""focus"",""19"",""169577""
","""event"",""trial"",""time""
""fullscreenenter"",""1"",""5492""
","""event"",""trial"",""time""
""fullscreenexit"",""2"",""7167""
","","","","","","2095.7999997138977","<p> <b> That's right! </b> You should use the '1' and '0' keys to make each choice. </p>","","0","comp_answer","","","","","","","","","","",""
"learning-instructions","58","336676","0.0-8.0-9.0-0.0","4281","2","15","Female","approach_avoid_spark_v1","""event"",""trial"",""time""
""fullscreenenter"",""1"",""5492""
""fullscreenexit"",""2"",""7167""
""blur"",""3"",""9500""
""focus"",""3"",""11979""
""blur"",""17"",""125364""
""focus"",""17"",""138042""
""blur"",""19"",""154286""
""focus"",""19"",""169577""
","""event"",""trial"",""time""
""blur"",""3"",""9500""
""blur"",""17"",""125364""
""blur"",""19"",""154286""
","""event"",""trial"",""time""
""focus"",""3"",""11979""
""focus"",""17"",""138042""
""focus"",""19"",""169577""
","""event"",""trial"",""time""
""fullscreenenter"",""1"",""5492""
","""event"",""trial"",""time""
""fullscreenexit"",""2"",""7167""
","","","","","","1097.6999998092651","<p> It's now time to start the real game. </p>Do your best, because the points you earn in the next rounds will influence your bonus payment. </p>","","0","instructions","","","","","","","","","","",""
"preload","59","336802","0.0-9.0-0.0","4281","2","15","Female","approach_avoid_spark_v1","""event"",""trial"",""time""
""fullscreenenter"",""1"",""5492""
""fullscreenexit"",""2"",""7167""
""blur"",""3"",""9500""
""focus"",""3"",""11979""
""blur"",""17"",""125364""
""focus"",""17"",""138042""
""blur"",""19"",""154286""
""focus"",""19"",""169577""
","""event"",""trial"",""time""
""blur"",""3"",""9500""
""blur"",""17"",""125364""
""blur"",""19"",""154286""
","""event"",""trial"",""time""
""focus"",""3"",""11979""
""focus"",""17"",""138042""
""focus"",""19"",""169577""
","""event"",""trial"",""time""
""fullscreenenter"",""1"",""5492""
","""event"",""trial"",""time""
""fullscreenexit"",""2"",""7167""
","true","false","[]","[]","[]","","","","","","","","","","","","","","","",""
"learning-instructions","60","342396","0.0-9.0-1.0-0.0","4281","2","15","Female","approach_avoid_spark_v1","""event"",""trial"",""time""
""fullscreenenter"",""1"",""5492""
""fullscreenexit"",""2"",""7167""
""blur"",""3"",""9500""
""focus"",""3"",""11979""
""blur"",""17"",""125364""
""focus"",""17"",""138042""
""blur"",""19"",""154286""
""focus"",""19"",""169577""
","""event"",""trial"",""time""
""blur"",""3"",""9500""
""blur"",""17"",""125364""
""blur"",""19"",""154286""
","""event"",""trial"",""time""
""focus"",""3"",""11979""
""focus"",""17"",""138042""
""focus"",""19"",""169577""
","""event"",""trial"",""time""
""fullscreenenter"",""1"",""5492""
","""event"",""trial"",""time""
""fullscreenexit"",""2"",""7167""
","","","","","","1047.5","<p> Your goal in this round is to decorate your friend's new house with furniture. </p></div>","","0","instructions","","","","","","","","","","",""
"learning-instructions","61","353284","0.0-9.0-1.0-0.1","4281","2","15","Female","approach_avoid_spark_v1","""event"",""trial"",""time""
""fullscreenenter"",""1"",""5492""
""fullscreenexit"",""2"",""7167""
""blur"",""3"",""9500""
""focus"",""3"",""11979""
""blur"",""17"",""125364""
""focus"",""17"",""138042""
""blur"",""19"",""154286""
""focus"",""19"",""169577""
","""event"",""trial"",""time""
""blur"",""3"",""9500""
""blur"",""17"",""125364""
""blur"",""19"",""154286""
","""event"",""trial"",""time""
""focus"",""3"",""11979""
""focus"",""17"",""138042""
""focus"",""19"",""169577""
","""event"",""trial"",""time""
""fullscreenenter"",""1"",""5492""
","""event"",""trial"",""time""
""fullscreenexit"",""2"",""7167""
","","","","","","936.2000002861023","<p> Your friend likes some pieces of furniture but not others.  </p><p> On each turn, you will see a piece of furniture.   </p><p> You need to decide whether to put it in your friend's house or not.  </p>","","0","instructions","","","","","","","","","","",""
"learning-instructions","62","360420","0.0-9.0-1.0-0.2","4281","2","15","Female","approach_avoid_spark_v1","""event"",""trial"",""time""
""fullscreenenter"",""1"",""5492""
""fullscreenexit"",""2"",""7167""
""blur"",""3"",""9500""
""focus"",""3"",""11979""
""blur"",""17"",""125364""
""focus"",""17"",""138042""
""blur"",""19"",""154286""
""focus"",""19"",""169577""
","""event"",""trial"",""time""
""blur"",""3"",""9500""
""blur"",""17"",""125364""
""blur"",""19"",""154286""
","""event"",""trial"",""time""
""focus"",""3"",""11979""
""focus"",""17"",""138042""
""focus"",""19"",""169577""
","""event"",""trial"",""time""
""fullscreenenter"",""1"",""5492""
","""event"",""trial"",""time""
""fullscreenexit"",""2"",""7167""
","","","","","","1501.3000001907349","<p> You can put the furniture in her house by pressing 1 and deliver it elsewhere by pressing 0. </p><br><div class=""choice-instructions-grid""> <div class=""choice-option""><img src=""images/approach.png"" class=""choice-option-img"" stage=""instructions"" position=""0"" ><div class=""choice-option-text""> Press ""1."" </div></div><div class=""choice-option""><img src=""images/avoid.png"" class=""choice-option-img"" stage=""instructions"" position=""1"" ><div class=""choice-option-text""> Press ""0."" </div></div>","","0","instructions","","","","","","","","","","",""
"learning-instructions","63","370268","0.0-9.0-1.0-0.3","4281","2","15","Female","approach_avoid_spark_v1","""event"",""trial"",""time""
""fullscreenenter"",""1"",""5492""
""fullscreenexit"",""2"",""7167""
""blur"",""3"",""9500""
""focus"",""3"",""11979""
""blur"",""17"",""125364""
""focus"",""17"",""138042""
""blur"",""19"",""154286""
""focus"",""19"",""169577""
","""event"",""trial"",""time""
""blur"",""3"",""9500""
""blur"",""17"",""125364""
""blur"",""19"",""154286""
","""event"",""trial"",""time""
""focus"",""3"",""11979""
""focus"",""17"",""138042""
""focus"",""19"",""169577""
","""event"",""trial"",""time""
""fullscreenenter"",""1"",""5492""
","""event"",""trial"",""time""
""fullscreenexit"",""2"",""7167""
","","","","","","929.3000001907349","<p> If you decorate your friend's house with furniture she likes, she will be happy! </p><p> But if you give her furniture that she does not like, she will be annoyed. </p>","","0","instructions","","","","","","","","","","",""
"learning-instructions","64","384580","0.0-9.0-1.0-0.4","4281","2","15","Female","approach_avoid_spark_v1","""event"",""trial"",""time""
""fullscreenenter"",""1"",""5492""
""fullscreenexit"",""2"",""7167""
""blur"",""3"",""9500""
""focus"",""3"",""11979""
""blur"",""17"",""125364""
""focus"",""17"",""138042""
""blur"",""19"",""154286""
""focus"",""19"",""169577""
","""event"",""trial"",""time""
""blur"",""3"",""9500""
""blur"",""17"",""125364""
""blur"",""19"",""154286""
","""event"",""trial"",""time""
""focus"",""3"",""11979""
""focus"",""17"",""138042""
""focus"",""19"",""169577""
","""event"",""trial"",""time""
""fullscreenenter"",""1"",""5492""
","""event"",""trial"",""time""
""fullscreenexit"",""2"",""7167""
","","","","","","961.7999997138977","<p> You will earn points based on how you made your friend feel. </p><p> If you made her happy, you will WIN anywhere from 1 - 9 points, </p><p> but if you made her annoyed you will LOSE anywhere from 1 - 9 points. </p>","","0","instructions","","","","","","","","","","",""
"learning-instructions","65","392693","0.0-9.0-1.0-0.5","4281","2","15","Female","approach_avoid_spark_v1","""event"",""trial"",""time""
""fullscreenenter"",""1"",""5492""
""fullscreenexit"",""2"",""7167""
""blur"",""3"",""9500""
""focus"",""3"",""11979""
""blur"",""17"",""125364""
""focus"",""17"",""138042""
""blur"",""19"",""154286""
""focus"",""19"",""169577""
","""event"",""trial"",""time""
""blur"",""3"",""9500""
""blur"",""17"",""125364""
""blur"",""19"",""154286""
","""event"",""trial"",""time""
""focus"",""3"",""11979""
""focus"",""17"",""138042""
""focus"",""19"",""169577""
","""event"",""trial"",""time""
""fullscreenenter"",""1"",""5492""
","""event"",""trial"",""time""
""fullscreenexit"",""2"",""7167""
","","","","","","534.4000000953674","<p> You will see how many points you won or lost in the center of the screen. </p><p> Here is what you would see if you won 5 points: </p><p style=""color:green;font-size:50px;font-weight:bolder"">5</p>","","0","instructions","","","","","","","","","","",""
"learning-instructions","66","396869","0.0-9.0-1.0-0.6","4281","2","15","Female","approach_avoid_spark_v1","""event"",""trial"",""time""
""fullscreenenter"",""1"",""5492""
""fullscreenexit"",""2"",""7167""
""blur"",""3"",""9500""
""focus"",""3"",""11979""
""blur"",""17"",""125364""
""focus"",""17"",""138042""
""blur"",""19"",""154286""
""focus"",""19"",""169577""
","""event"",""trial"",""time""
""blur"",""3"",""9500""
""blur"",""17"",""125364""
""blur"",""19"",""154286""
","""event"",""trial"",""time""
""focus"",""3"",""11979""
""focus"",""17"",""138042""
""focus"",""19"",""169577""
","""event"",""trial"",""time""
""fullscreenenter"",""1"",""5492""
","""event"",""trial"",""time""
""fullscreenexit"",""2"",""7167""
","","","","","","769.7000002861023","<p> And here is what you would see if you lost 3 points: </p><p style=""color:red;font-size:50px;font-weight:bolder"">-3</p>","","0","instructions","","","","","","","","","","",""
"learning-instructions","67","417653","0.0-9.0-1.0-0.7","4281","2","15","Female","approach_avoid_spark_v1","""event"",""trial"",""time""
""fullscreenenter"",""1"",""5492""
""fullscreenexit"",""2"",""7167""
""blur"",""3"",""9500""
""focus"",""3"",""11979""
""blur"",""17"",""125364""
""focus"",""17"",""138042""
""blur"",""19"",""154286""
""focus"",""19"",""169577""
","""event"",""trial"",""time""
""blur"",""3"",""9500""
""blur"",""17"",""125364""
""blur"",""19"",""154286""
","""event"",""trial"",""time""
""focus"",""3"",""11979""
""focus"",""17"",""138042""
""focus"",""19"",""169577""
","""event"",""trial"",""time""
""fullscreenenter"",""1"",""5492""
","""event"",""trial"",""time""
""fullscreenexit"",""2"",""7167""
","","","","","","2923.699999809265","<p> Some pieces of furniture will make her feel very happy or very annoyed. </p><p> These pieces of furniture will make you win or lose LOTS of points. </p><p> Other pieces of furniture will only make her feel a little happy or a little annoyed. </p><p> These pieces of furniture will make you win or lose small amounts of points. </p>","","0","instructions","","","","","","","","","","",""
"learning-instructions","68","432917","0.0-9.0-1.0-0.8","4281","2","15","Female","approach_avoid_spark_v1","""event"",""trial"",""time""
""fullscreenenter"",""1"",""5492""
""fullscreenexit"",""2"",""7167""
""blur"",""3"",""9500""
""focus"",""3"",""11979""
""blur"",""17"",""125364""
""focus"",""17"",""138042""
""blur"",""19"",""154286""
""focus"",""19"",""169577""
","""event"",""trial"",""time""
""blur"",""3"",""9500""
""blur"",""17"",""125364""
""blur"",""19"",""154286""
","""event"",""trial"",""time""
""focus"",""3"",""11979""
""focus"",""17"",""138042""
""focus"",""19"",""169577""
","""event"",""trial"",""time""
""fullscreenenter"",""1"",""5492""
","""event"",""trial"",""time""
""fullscreenexit"",""2"",""7167""
","","","","","","2317.7000002861023","<p> If you choose to deliver a piece of furniture elsewhere, you will not win or lose any points. </p><p>  However, in the center of the screen, you will see the number of points you WOULD HAVE won or lost if you had given the furniture to your friend. </p>","","0","instructions","","","","","","","","","","",""
"learning-instructions","69","452092","0.0-9.0-1.0-0.9","4281","2","15","Female","approach_avoid_spark_v1","""event"",""trial"",""time""
""fullscreenenter"",""1"",""5492""
""fullscreenexit"",""2"",""7167""
""blur"",""3"",""9500""
""focus"",""3"",""11979""
""blur"",""17"",""125364""
""focus"",""17"",""138042""
""blur"",""19"",""154286""
""focus"",""19"",""169577""
","""event"",""trial"",""time""
""blur"",""3"",""9500""
""blur"",""17"",""125364""
""blur"",""19"",""154286""
","""event"",""trial"",""time""
""focus"",""3"",""11979""
""focus"",""17"",""138042""
""focus"",""19"",""169577""
","""event"",""trial"",""time""
""fullscreenenter"",""1"",""5492""
","""event"",""trial"",""time""
""fullscreenexit"",""2"",""7167""
","","","","","","7773.700000286102","<p> Here is what you might see if you did not give a piece of furniture to your friend that would have made her happy: </p><p style=""color:grey; font-size:50px; display: inline-block; border-spacing: 15px; border-width:3px; border-style:solid; border-color:red"">  &nbsp; 6 &nbsp; </p><p> Remember, in this case, you would not win or lose ANY points because you did not give her the furniture.  </p>","","0","instructions","","","","","","","","","","",""
"learning-instructions","70","461140","0.0-9.0-1.0-0.10","4281","2","15","Female","approach_avoid_spark_v1","""event"",""trial"",""time""
""fullscreenenter"",""1"",""5492""
""fullscreenexit"",""2"",""7167""
""blur"",""3"",""9500""
""focus"",""3"",""11979""
""blur"",""17"",""125364""
""focus"",""17"",""138042""
""blur"",""19"",""154286""
""focus"",""19"",""169577""
","""event"",""trial"",""time""
""blur"",""3"",""9500""
""blur"",""17"",""125364""
""blur"",""19"",""154286""
","""event"",""trial"",""time""
""focus"",""3"",""11979""
""focus"",""17"",""138042""
""focus"",""19"",""169577""
","""event"",""trial"",""time""
""fullscreenenter"",""1"",""5492""
","""event"",""trial"",""time""
""fullscreenexit"",""2"",""7167""
","","","","","","1171.6999998092651","<p> Try to make the best choice for each piece of furniture because </p><p> at the end of the game, you will earn bonus money based on how many points you earned. </p>","","0","instructions","","","","","","","","","","",""
"learning-instructions","71","472228","0.0-9.0-1.0-0.11","4281","2","15","Female","approach_avoid_spark_v1","""event"",""trial"",""time""
""fullscreenenter"",""1"",""5492""
""fullscreenexit"",""2"",""7167""
""blur"",""3"",""9500""
""focus"",""3"",""11979""
""blur"",""17"",""125364""
""focus"",""17"",""138042""
""blur"",""19"",""154286""
""focus"",""19"",""169577""
","""event"",""trial"",""time""
""blur"",""3"",""9500""
""blur"",""17"",""125364""
""blur"",""19"",""154286""
","""event"",""trial"",""time""
""focus"",""3"",""11979""
""focus"",""17"",""138042""
""focus"",""19"",""169577""
","""event"",""trial"",""time""
""fullscreenenter"",""1"",""5492""
","""event"",""trial"",""time""
""fullscreenexit"",""2"",""7167""
","","","","","","2880.2999997138977","<p> You will have 3 seconds to make each choice. Try to respond before time runs out! </p><p> You will lose 5 points each time you do not make a response. </p>","","0","instructions","","","","","","","","","","",""
"html-keyboard-response","72","472847","0.0-9.0-2.0-0.0","4281","2","15","Female","approach_avoid_spark_v1","""event"",""trial"",""time""
""fullscreenenter"",""1"",""5492""
""fullscreenexit"",""2"",""7167""
""blur"",""3"",""9500""
""focus"",""3"",""11979""
""blur"",""17"",""125364""
""focus"",""17"",""138042""
""blur"",""19"",""154286""
""focus"",""19"",""169577""
","""event"",""trial"",""time""
""blur"",""3"",""9500""
""blur"",""17"",""125364""
""blur"",""19"",""154286""
","""event"",""trial"",""time""
""focus"",""3"",""11979""
""focus"",""17"",""138042""
""focus"",""19"",""169577""
","""event"",""trial"",""time""
""fullscreenenter"",""1"",""5492""
","""event"",""trial"",""time""
""fullscreenexit"",""2"",""7167""
","","","","","","null","<div style=""font-size:60px;"">+</div>","null","","fixation","","","","","","","","","","",""
"aa-learning-trial","73","475857","0.0-9.0-2.0-1.0","4281","2","15","Female","approach_avoid_spark_v1","""event"",""trial"",""time""
""fullscreenenter"",""1"",""5492""
""fullscreenexit"",""2"",""7167""
""blur"",""3"",""9500""
""focus"",""3"",""11979""
""blur"",""17"",""125364""
""focus"",""17"",""138042""
""blur"",""19"",""154286""
""focus"",""19"",""169577""
","""event"",""trial"",""time""
""blur"",""3"",""9500""
""blur"",""17"",""125364""
""blur"",""19"",""154286""
","""event"",""trial"",""time""
""focus"",""3"",""11979""
""focus"",""17"",""138042""
""focus"",""19"",""169577""
","""event"",""trial"",""time""
""fullscreenenter"",""1"",""5492""
","""event"",""trial"",""time""
""fullscreenexit"",""2"",""7167""
","","","","","","1074.7999997138977","images/table7.png","","","learning","-3","-3","1","1","table","furniture","2","0","","bad","[-3]"
"html-keyboard-response","74","476377","0.0-9.0-2.0-0.1","4281","2","15","Female","approach_avoid_spark_v1","""event"",""trial"",""time""
""fullscreenenter"",""1"",""5492""
""fullscreenexit"",""2"",""7167""
""blur"",""3"",""9500""
""focus"",""3"",""11979""
""blur"",""17"",""125364""
""focus"",""17"",""138042""
""blur"",""19"",""154286""
""focus"",""19"",""169577""
","""event"",""trial"",""time""
""blur"",""3"",""9500""
""blur"",""17"",""125364""
""blur"",""19"",""154286""
","""event"",""trial"",""time""
""focus"",""3"",""11979""
""focus"",""17"",""138042""
""focus"",""19"",""169577""
","""event"",""trial"",""time""
""fullscreenenter"",""1"",""5492""
","""event"",""trial"",""time""
""fullscreenexit"",""2"",""7167""
","","","","","","null","<div style=""font-size:60px;"">+</div>","null","","fixation","","","","","","","","","","",""
"aa-learning-trial","75","479387","0.0-9.0-2.0-1.1","4281","2","15","Female","approach_avoid_spark_v1","""event"",""trial"",""time""
""fullscreenenter"",""1"",""5492""
""fullscreenexit"",""2"",""7167""
""blur"",""3"",""9500""
""focus"",""3"",""11979""
""blur"",""17"",""125364""
""focus"",""17"",""138042""
""blur"",""19"",""154286""
""focus"",""19"",""169577""
","""event"",""trial"",""time""
""blur"",""3"",""9500""
""blur"",""17"",""125364""
""blur"",""19"",""154286""
","""event"",""trial"",""time""
""focus"",""3"",""11979""
""focus"",""17"",""138042""
""focus"",""19"",""169577""
","""event"",""trial"",""time""
""fullscreenenter"",""1"",""5492""
","""event"",""trial"",""time""
""fullscreenexit"",""2"",""7167""
","","","","","","1058.7999997138977","images/table7.png","","","learning","-3","0","0","0","table","furniture","2","0","","bad","[-3]"
"html-keyboard-response","76","479897","0.0-9.0-2.0-0.2","4281","2","15","Female","approach_avoid_spark_v1","""event"",""trial"",""time""
""fullscreenenter"",""1"",""5492""
""fullscreenexit"",""2"",""7167""
""blur"",""3"",""9500""
""focus"",""3"",""11979""
""blur"",""17"",""125364""
""focus"",""17"",""138042""
""blur"",""19"",""154286""
""focus"",""19"",""169577""
","""event"",""trial"",""time""
""blur"",""3"",""9500""
""blur"",""17"",""125364""
""blur"",""19"",""154286""
","""event"",""trial"",""time""
""focus"",""3"",""11979""
""focus"",""17"",""138042""
""focus"",""19"",""169577""
","""event"",""trial"",""time""
""fullscreenenter"",""1"",""5492""
","""event"",""trial"",""time""
""fullscreenexit"",""2"",""7167""
","","","","","","null","<div style=""font-size:60px;"">+</div>","null","","fixation","","","","","","","","","","",""
"aa-learning-trial","77","482917","0.0-9.0-2.0-1.2","4281","2","15","Female","approach_avoid_spark_v1","""event"",""trial"",""time""
""fullscreenenter"",""1"",""5492""
""fullscreenexit"",""2"",""7167""
""blur"",""3"",""9500""
""focus"",""3"",""11979""
""blur"",""17"",""125364""
""focus"",""17"",""138042""
""blur"",""19"",""154286""
""focus"",""19"",""169577""
","""event"",""trial"",""time""
""blur"",""3"",""9500""
""blur"",""17"",""125364""
""blur"",""19"",""154286""
","""event"",""trial"",""time""
""focus"",""3"",""11979""
""focus"",""17"",""138042""
""focus"",""19"",""169577""
","""event"",""trial"",""time""
""fullscreenenter"",""1"",""5492""
","""event"",""trial"",""time""
""fullscreenexit"",""2"",""7167""
","","","","","","370.19999980926514","images/sofa8.png","","","learning","-4","-4","1","1","sofa","furniture","2","0","","neutral","0"
"html-keyboard-response","78","483437","0.0-9.0-2.0-0.3","4281","2","15","Female","approach_avoid_spark_v1","""event"",""trial"",""time""
""fullscreenenter"",""1"",""5492""
""fullscreenexit"",""2"",""7167""
""blur"",""3"",""9500""
""focus"",""3"",""11979""
""blur"",""17"",""125364""
""focus"",""17"",""138042""
""blur"",""19"",""154286""
""focus"",""19"",""169577""
","""event"",""trial"",""time""
""blur"",""3"",""9500""
""blur"",""17"",""125364""
""blur"",""19"",""154286""
","""event"",""trial"",""time""
""focus"",""3"",""11979""
""focus"",""17"",""138042""
""focus"",""19"",""169577""
","""event"",""trial"",""time""
""fullscreenenter"",""1"",""5492""
","""event"",""trial"",""time""
""fullscreenexit"",""2"",""7167""
","","","","","","null","<div style=""font-size:60px;"">+</div>","null","","fixation","","","","","","","","","","",""
"aa-learning-trial","79","486457","0.0-9.0-2.0-1.3","4281","2","15","Female","approach_avoid_spark_v1","""event"",""trial"",""time""
""fullscreenenter"",""1"",""5492""
""fullscreenexit"",""2"",""7167""
""blur"",""3"",""9500""
""focus"",""3"",""11979""
""blur"",""17"",""125364""
""focus"",""17"",""138042""
""blur"",""19"",""154286""
""focus"",""19"",""169577""
","""event"",""trial"",""time""
""blur"",""3"",""9500""
""blur"",""17"",""125364""
""blur"",""19"",""154286""
","""event"",""trial"",""time""
""focus"",""3"",""11979""
""focus"",""17"",""138042""
""focus"",""19"",""169577""
","""event"",""trial"",""time""
""fullscreenenter"",""1"",""5492""
","""event"",""trial"",""time""
""fullscreenexit"",""2"",""7167""
","","","","","","350.19999980926514","images/sofa2.png","","","learning","-2","-2","1","1","sofa","furniture","2","0","","neutral","0"
"html-keyboard-response","80","486977","0.0-9.0-2.0-0.4","4281","2","15","Female","approach_avoid_spark_v1","""event"",""trial"",""time""
""fullscreenenter"",""1"",""5492""
""fullscreenexit"",""2"",""7167""
""blur"",""3"",""9500""
""focus"",""3"",""11979""
""blur"",""17"",""125364""
""focus"",""17"",""138042""
""blur"",""19"",""154286""
""focus"",""19"",""169577""
","""event"",""trial"",""time""
""blur"",""3"",""9500""
""blur"",""17"",""125364""
""blur"",""19"",""154286""
","""event"",""trial"",""time""
""focus"",""3"",""11979""
""focus"",""17"",""138042""
""focus"",""19"",""169577""
","""event"",""trial"",""time""
""fullscreenenter"",""1"",""5492""
","""event"",""trial"",""time""
""fullscreenexit"",""2"",""7167""
","","","","","","null","<div style=""font-size:60px;"">+</div>","null","","fixation","","","","","","","","","","",""
"aa-learning-trial","81","489997","0.0-9.0-2.0-1.4","4281","2","15","Female","approach_avoid_spark_v1","""event"",""trial"",""time""
""fullscreenenter"",""1"",""5492""
""fullscreenexit"",""2"",""7167""
""blur"",""3"",""9500""
""focus"",""3"",""11979""
""blur"",""17"",""125364""
""focus"",""17"",""138042""
""blur"",""19"",""154286""
""focus"",""19"",""169577""
","""event"",""trial"",""time""
""blur"",""3"",""9500""
""blur"",""17"",""125364""
""blur"",""19"",""154286""
","""event"",""trial"",""time""
""focus"",""3"",""11979""
""focus"",""17"",""138042""
""focus"",""19"",""169577""
","""event"",""trial"",""time""
""fullscreenenter"",""1"",""5492""
","""event"",""trial"",""time""
""fullscreenexit"",""2"",""7167""
","","","","","","322.09999990463257","images/table1.png","","","learning","5","0","0","0","table","furniture","2","0","","bad","[-3]"
"html-keyboard-response","82","490516","0.0-9.0-2.0-0.5","4281","2","15","Female","approach_avoid_spark_v1","""event"",""trial"",""time""
""fullscreenenter"",""1"",""5492""
""fullscreenexit"",""2"",""7167""
""blur"",""3"",""9500""
""focus"",""3"",""11979""
""blur"",""17"",""125364""
""focus"",""17"",""138042""
""blur"",""19"",""154286""
""focus"",""19"",""169577""
","""event"",""trial"",""time""
""blur"",""3"",""9500""
""blur"",""17"",""125364""
""blur"",""19"",""154286""
","""event"",""trial"",""time""
""focus"",""3"",""11979""
""focus"",""17"",""138042""
""focus"",""19"",""169577""
","""event"",""trial"",""time""
""fullscreenenter"",""1"",""5492""
","""event"",""trial"",""time""
""fullscreenexit"",""2"",""7167""
","","","","","","null","<div style=""font-size:60px;"">+</div>","null","","fixation","","","","","","","","","","",""
"aa-learning-trial","83","493527","0.0-9.0-2.0-1.5","4281","2","15","Female","approach_avoid_spark_v1","""event"",""trial"",""time""
""fullscreenenter"",""1"",""5492""
""fullscreenexit"",""2"",""7167""
""blur"",""3"",""9500""
""focus"",""3"",""11979""
""blur"",""17"",""125364""
""focus"",""17"",""138042""
""blur"",""19"",""154286""
""focus"",""19"",""169577""
","""event"",""trial"",""time""
""blur"",""3"",""9500""
""blur"",""17"",""125364""
""blur"",""19"",""154286""
","""event"",""trial"",""time""
""focus"",""3"",""11979""
""focus"",""17"",""138042""
""focus"",""19"",""169577""
","""event"",""trial"",""time""
""fullscreenenter"",""1"",""5492""
","""event"",""trial"",""time""
""fullscreenexit"",""2"",""7167""
","","","","","","335.2000002861023","images/table2.png","","","learning","1","0","0","0","table","furniture","2","0","","bad","[-3]"
"html-keyboard-response","84","494047","0.0-9.0-2.0-0.6","4281","2","15","Female","approach_avoid_spark_v1","""event"",""trial"",""time""
""fullscreenenter"",""1"",""5492""
""fullscreenexit"",""2"",""7167""
""blur"",""3"",""9500""
""focus"",""3"",""11979""
""blur"",""17"",""125364""
""focus"",""17"",""138042""
""blur"",""19"",""154286""
""focus"",""19"",""169577""
","""event"",""trial"",""time""
""blur"",""3"",""9500""
""blur"",""17"",""125364""
""blur"",""19"",""154286""
","""event"",""trial"",""time""
""focus"",""3"",""11979""
""focus"",""17"",""138042""
""focus"",""19"",""169577""
","""event"",""trial"",""time""
""fullscreenenter"",""1"",""5492""
","""event"",""trial"",""time""
""fullscreenexit"",""2"",""7167""
","","","","","","null","<div style=""font-size:60px;"">+</div>","null","","fixation","","","","","","","","","","",""
"aa-learning-trial","85","497067","0.0-9.0-2.0-1.6","4281","2","15","Female","approach_avoid_spark_v1","""event"",""trial"",""time""
""fullscreenenter"",""1"",""5492""
""fullscreenexit"",""2"",""7167""
""blur"",""3"",""9500""
""focus"",""3"",""11979""
""blur"",""17"",""125364""
""focus"",""17"",""138042""
""blur"",""19"",""154286""
""focus"",""19"",""169577""
","""event"",""trial"",""time""
""blur"",""3"",""9500""
""blur"",""17"",""125364""
""blur"",""19"",""154286""
","""event"",""trial"",""time""
""focus"",""3"",""11979""
""focus"",""17"",""138042""
""focus"",""19"",""169577""
","""event"",""trial"",""time""
""fullscreenenter"",""1"",""5492""
","""event"",""trial"",""time""
""fullscreenexit"",""2"",""7167""
","","","","","","655.5","images/sofa8.png","","","learning","-4","-4","1","1","sofa","furniture","2","0","","neutral","0"
"html-keyboard-response","86","497576","0.0-9.0-2.0-0.7","4281","2","15","Female","approach_avoid_spark_v1","""event"",""trial"",""time""
""fullscreenenter"",""1"",""5492""
""fullscreenexit"",""2"",""7167""
""blur"",""3"",""9500""
""focus"",""3"",""11979""
""blur"",""17"",""125364""
""focus"",""17"",""138042""
""blur"",""19"",""154286""
""focus"",""19"",""169577""
","""event"",""trial"",""time""
""blur"",""3"",""9500""
""blur"",""17"",""125364""
""blur"",""19"",""154286""
","""event"",""trial"",""time""
""focus"",""3"",""11979""
""focus"",""17"",""138042""
""focus"",""19"",""169577""
","""event"",""trial"",""time""
""fullscreenenter"",""1"",""5492""
","""event"",""trial"",""time""
""fullscreenexit"",""2"",""7167""
","","","","","","null","<div style=""font-size:60px;"">+</div>","null","","fixation","","","","","","","","","","",""
"aa-learning-trial","87","500581","0.0-9.0-2.0-1.7","4281","2","15","Female","approach_avoid_spark_v1","""event"",""trial"",""time""
""fullscreenenter"",""1"",""5492""
""fullscreenexit"",""2"",""7167""
""blur"",""3"",""9500""
""focus"",""3"",""11979""
""blur"",""17"",""125364""
""focus"",""17"",""138042""
""blur"",""19"",""154286""
""focus"",""19"",""169577""
","""event"",""trial"",""time""
""blur"",""3"",""9500""
""blur"",""17"",""125364""
""blur"",""19"",""154286""
","""event"",""trial"",""time""
""focus"",""3"",""11979""
""focus"",""17"",""138042""
""focus"",""19"",""169577""
","""event"",""trial"",""time""
""fullscreenenter"",""1"",""5492""
","""event"",""trial"",""time""
""fullscreenexit"",""2"",""7167""
","","","","","","253.2000002861023","images/bed3.png","","","learning","9","0","0","0","bed","furniture","2","0","","good","[6]"
"html-keyboard-response","88","501085","0.0-9.0-2.0-0.8","4281","2","15","Female","approach_avoid_spark_v1","""event"",""trial"",""time""
""fullscreenenter"",""1"",""5492""
""fullscreenexit"",""2"",""7167""
""blur"",""3"",""9500""
""focus"",""3"",""11979""
""blur"",""17"",""125364""
""focus"",""17"",""138042""
""blur"",""19"",""154286""
""focus"",""19"",""169577""
","""event"",""trial"",""time""
""blur"",""3"",""9500""
""blur"",""17"",""125364""
""blur"",""19"",""154286""
","""event"",""trial"",""time""
""focus"",""3"",""11979""
""focus"",""17"",""138042""
""focus"",""19"",""169577""
","""event"",""trial"",""time""
""fullscreenenter"",""1"",""5492""
","""event"",""trial"",""time""
""fullscreenexit"",""2"",""7167""
","","","","","","null","<div style=""font-size:60px;"">+</div>","null","","fixation","","","","","","","","","","",""
"aa-learning-trial","89","504093","0.0-9.0-2.0-1.8","4281","2","15","Female","approach_avoid_spark_v1","""event"",""trial"",""time""
""fullscreenenter"",""1"",""5492""
""fullscreenexit"",""2"",""7167""
""blur"",""3"",""9500""
""focus"",""3"",""11979""
""blur"",""17"",""125364""
""focus"",""17"",""138042""
""blur"",""19"",""154286""
""focus"",""19"",""169577""
","""event"",""trial"",""time""
""blur"",""3"",""9500""
""blur"",""17"",""125364""
""blur"",""19"",""154286""
","""event"",""trial"",""time""
""focus"",""3"",""11979""
""focus"",""17"",""138042""
""focus"",""19"",""169577""
","""event"",""trial"",""time""
""fullscreenenter"",""1"",""5492""
","""event"",""trial"",""time""
""fullscreenexit"",""2"",""7167""
","","","","","","345.30000019073486","images/bed1.png","","","learning","-1","0","0","0","bed","furniture","2","0","","good","[6]"
"html-keyboard-response","90","504601","0.0-9.0-2.0-0.9","4281","2","15","Female","approach_avoid_spark_v1","""event"",""trial"",""time""
""fullscreenenter"",""1"",""5492""
""fullscreenexit"",""2"",""7167""
""blur"",""3"",""9500""
""focus"",""3"",""11979""
""blur"",""17"",""125364""
""focus"",""17"",""138042""
""blur"",""19"",""154286""
""focus"",""19"",""169577""
","""event"",""trial"",""time""
""blur"",""3"",""9500""
""blur"",""17"",""125364""
""blur"",""19"",""154286""
","""event"",""trial"",""time""
""focus"",""3"",""11979""
""focus"",""17"",""138042""
""focus"",""19"",""169577""
","""event"",""trial"",""time""
""fullscreenenter"",""1"",""5492""
","""event"",""trial"",""time""
""fullscreenexit"",""2"",""7167""
","","","","","","null","<div style=""font-size:60px;"">+</div>","null","","fixation","","","","","","","","","","",""
"aa-learning-trial","91","507607","0.0-9.0-2.0-1.9","4281","2","15","Female","approach_avoid_spark_v1","""event"",""trial"",""time""
""fullscreenenter"",""1"",""5492""
""fullscreenexit"",""2"",""7167""
""blur"",""3"",""9500""
""focus"",""3"",""11979""
""blur"",""17"",""125364""
""focus"",""17"",""138042""
""blur"",""19"",""154286""
""focus"",""19"",""169577""
","""event"",""trial"",""time""
""blur"",""3"",""9500""
""blur"",""17"",""125364""
""blur"",""19"",""154286""
","""event"",""trial"",""time""
""focus"",""3"",""11979""
""focus"",""17"",""138042""
""focus"",""19"",""169577""
","""event"",""trial"",""time""
""fullscreenenter"",""1"",""5492""
","""event"",""trial"",""time""
""fullscreenexit"",""2"",""7167""
","","","","","","166.10000038146973","images/sofa5.png","","","learning","-6","0","0","0","sofa","furniture","2","0","","neutral","0"
"html-keyboard-response","92","508110","0.0-9.0-2.0-0.10","4281","2","15","Female","approach_avoid_spark_v1","""event"",""trial"",""time""
""fullscreenenter"",""1"",""5492""
""fullscreenexit"",""2"",""7167""
""blur"",""3"",""9500""
""focus"",""3"",""11979""
""blur"",""17"",""125364""
""focus"",""17"",""138042""
""blur"",""19"",""154286""
""focus"",""19"",""169577""
","""event"",""trial"",""time""
""blur"",""3"",""9500""
""blur"",""17"",""125364""
""blur"",""19"",""154286""
","""event"",""trial"",""time""
""focus"",""3"",""11979""
""focus"",""17"",""138042""
""focus"",""19"",""169577""
","""event"",""trial"",""time""
""fullscreenenter"",""1"",""5492""
","""event"",""trial"",""time""
""fullscreenexit"",""2"",""7167""
","","","","","","null","<div style=""font-size:60px;"">+</div>","null","","fixation","","","","","","","","","","",""
"aa-learning-trial","93","511118","0.0-9.0-2.0-1.10","4281","2","15","Female","approach_avoid_spark_v1","""event"",""trial"",""time""
""fullscreenenter"",""1"",""5492""
""fullscreenexit"",""2"",""7167""
""blur"",""3"",""9500""
""focus"",""3"",""11979""
""blur"",""17"",""125364""
""focus"",""17"",""138042""
""blur"",""19"",""154286""
""focus"",""19"",""169577""
","""event"",""trial"",""time""
""blur"",""3"",""9500""
""blur"",""17"",""125364""
""blur"",""19"",""154286""
","""event"",""trial"",""time""
""focus"",""3"",""11979""
""focus"",""17"",""138042""
""focus"",""19"",""169577""
","""event"",""trial"",""time""
""fullscreenenter"",""1"",""5492""
","""event"",""trial"",""time""
""fullscreenexit"",""2"",""7167""
","","","","","","833.2999997138977","images/table1.png","","","learning","5","5","1","1","table","furniture","2","0","","bad","[-3]"
"html-keyboard-response","94","511621","0.0-9.0-2.0-0.11","4281","2","15","Female","approach_avoid_spark_v1","""event"",""trial"",""time""
""fullscreenenter"",""1"",""5492""
""fullscreenexit"",""2"",""7167""
""blur"",""3"",""9500""
""focus"",""3"",""11979""
""blur"",""17"",""125364""
""focus"",""17"",""138042""
""blur"",""19"",""154286""
""focus"",""19"",""169577""
","""event"",""trial"",""time""
""blur"",""3"",""9500""
""blur"",""17"",""125364""
""blur"",""19"",""154286""
","""event"",""trial"",""time""
""focus"",""3"",""11979""
""focus"",""17"",""138042""
""focus"",""19"",""169577""
","""event"",""trial"",""time""
""fullscreenenter"",""1"",""5492""
","""event"",""trial"",""time""
""fullscreenexit"",""2"",""7167""
","","","","","","null","<div style=""font-size:60px;"">+</div>","null","","fixation","","","","","","","","","","",""
"aa-learning-trial","95","514629","0.0-9.0-2.0-1.11","4281","2","15","Female","approach_avoid_spark_v1","""event"",""trial"",""time""
""fullscreenenter"",""1"",""5492""
""fullscreenexit"",""2"",""7167""
""blur"",""3"",""9500""
""focus"",""3"",""11979""
""blur"",""17"",""125364""
""focus"",""17"",""138042""
""blur"",""19"",""154286""
""focus"",""19"",""169577""
","""event"",""trial"",""time""
""blur"",""3"",""9500""
""blur"",""17"",""125364""
""blur"",""19"",""154286""
","""event"",""trial"",""time""
""focus"",""3"",""11979""
""focus"",""17"",""138042""
""focus"",""19"",""169577""
","""event"",""trial"",""time""
""fullscreenenter"",""1"",""5492""
","""event"",""trial"",""time""
""fullscreenexit"",""2"",""7167""
","","","","","","353.5","images/bed1.png","","","learning","-1","-1","1","1","bed","furniture","2","0","","good","[6]"
"html-keyboard-response","96","515135","0.0-9.0-2.0-0.12","4281","2","15","Female","approach_avoid_spark_v1","""event"",""trial"",""time""
""fullscreenenter"",""1"",""5492""
""fullscreenexit"",""2"",""7167""
""blur"",""3"",""9500""
""focus"",""3"",""11979""
""blur"",""17"",""125364""
""focus"",""17"",""138042""
""blur"",""19"",""154286""
""focus"",""19"",""169577""
","""event"",""trial"",""time""
""blur"",""3"",""9500""
""blur"",""17"",""125364""
""blur"",""19"",""154286""
","""event"",""trial"",""time""
""focus"",""3"",""11979""
""focus"",""17"",""138042""
""focus"",""19"",""169577""
","""event"",""trial"",""time""
""fullscreenenter"",""1"",""5492""
","""event"",""trial"",""time""
""fullscreenexit"",""2"",""7167""
","","","","","","null","<div style=""font-size:60px;"">+</div>","null","","fixation","","","","","","","","","","",""
"aa-learning-trial","97","518142","0.0-9.0-2.0-1.12","4281","2","15","Female","approach_avoid_spark_v1","""event"",""trial"",""time""
""fullscreenenter"",""1"",""5492""
""fullscreenexit"",""2"",""7167""
""blur"",""3"",""9500""
""focus"",""3"",""11979""
""blur"",""17"",""125364""
""focus"",""17"",""138042""
""blur"",""19"",""154286""
""focus"",""19"",""169577""
","""event"",""trial"",""time""
""blur"",""3"",""9500""
""blur"",""17"",""125364""
""blur"",""19"",""154286""
","""event"",""trial"",""time""
""focus"",""3"",""11979""
""focus"",""17"",""138042""
""focus"",""19"",""169577""
","""event"",""trial"",""time""
""fullscreenenter"",""1"",""5492""
","""event"",""trial"",""time""
""fullscreenexit"",""2"",""7167""
","","","","","","313.59999990463257","images/bed6.png","","","learning","3","3","1","1","bed","furniture","2","0","","good","[6]"
"html-keyboard-response","98","518646","0.0-9.0-2.0-0.13","4281","2","15","Female","approach_avoid_spark_v1","""event"",""trial"",""time""
""fullscreenenter"",""1"",""5492""
""fullscreenexit"",""2"",""7167""
""blur"",""3"",""9500""
""focus"",""3"",""11979""
""blur"",""17"",""125364""
""focus"",""17"",""138042""
""blur"",""19"",""154286""
""focus"",""19"",""169577""
","""event"",""trial"",""time""
""blur"",""3"",""9500""
""blur"",""17"",""125364""
""blur"",""19"",""154286""
","""event"",""trial"",""time""
""focus"",""3"",""11979""
""focus"",""17"",""138042""
""focus"",""19"",""169577""
","""event"",""trial"",""time""
""fullscreenenter"",""1"",""5492""
","""event"",""trial"",""time""
""fullscreenexit"",""2"",""7167""
","","","","","","null","<div style=""font-size:60px;"">+</div>","null","","fixation","","","","","","","","","","",""
"aa-learning-trial","99","521654","0.0-9.0-2.0-1.13","4281","2","15","Female","approach_avoid_spark_v1","""event"",""trial"",""time""
""fullscreenenter"",""1"",""5492""
""fullscreenexit"",""2"",""7167""
""blur"",""3"",""9500""
""focus"",""3"",""11979""
""blur"",""17"",""125364""
""focus"",""17"",""138042""
""blur"",""19"",""154286""
""focus"",""19"",""169577""
","""event"",""trial"",""time""
""blur"",""3"",""9500""
""blur"",""17"",""125364""
""blur"",""19"",""154286""
","""event"",""trial"",""time""
""focus"",""3"",""11979""
""focus"",""17"",""138042""
""focus"",""19"",""169577""
","""event"",""trial"",""time""
""fullscreenenter"",""1"",""5492""
","""event"",""trial"",""time""
""fullscreenexit"",""2"",""7167""
","","","","","","339.1000003814697","images/sofa2.png","","","learning","-2","-2","1","1","sofa","furniture","2","0","","neutral","0"
"html-keyboard-response","100","522158","0.0-9.0-2.0-0.14","4281","2","15","Female","approach_avoid_spark_v1","""event"",""trial"",""time""
""fullscreenenter"",""1"",""5492""
""fullscreenexit"",""2"",""7167""
""blur"",""3"",""9500""
""focus"",""3"",""11979""
""blur"",""17"",""125364""
""focus"",""17"",""138042""
""blur"",""19"",""154286""
""focus"",""19"",""169577""
","""event"",""trial"",""time""
""blur"",""3"",""9500""
""blur"",""17"",""125364""
""blur"",""19"",""154286""
","""event"",""trial"",""time""
""focus"",""3"",""11979""
""focus"",""17"",""138042""
""focus"",""19"",""169577""
","""event"",""trial"",""time""
""fullscreenenter"",""1"",""5492""
","""event"",""trial"",""time""
""fullscreenexit"",""2"",""7167""
","","","","","","null","<div style=""font-size:60px;"">+</div>","null","","fixation","","","","","","","","","","",""
"aa-learning-trial","101","525166","0.0-9.0-2.0-1.14","4281","2","15","Female","approach_avoid_spark_v1","""event"",""trial"",""time""
""fullscreenenter"",""1"",""5492""
""fullscreenexit"",""2"",""7167""
""blur"",""3"",""9500""
""focus"",""3"",""11979""
""blur"",""17"",""125364""
""focus"",""17"",""138042""
""blur"",""19"",""154286""
""focus"",""19"",""169577""
","""event"",""trial"",""time""
""blur"",""3"",""9500""
""blur"",""17"",""125364""
""blur"",""19"",""154286""
","""event"",""trial"",""time""
""focus"",""3"",""11979""
""focus"",""17"",""138042""
""focus"",""19"",""169577""
","""event"",""trial"",""time""
""fullscreenenter"",""1"",""5492""
","""event"",""trial"",""time""
""fullscreenexit"",""2"",""7167""
","","","","","","451.59999990463257","images/bed6.png","","","learning","3","3","1","1","bed","furniture","2","0","","good","[6]"
"html-keyboard-response","102","525669","0.0-9.0-2.0-0.15","4281","2","15","Female","approach_avoid_spark_v1","""event"",""trial"",""time""
""fullscreenenter"",""1"",""5492""
""fullscreenexit"",""2"",""7167""
""blur"",""3"",""9500""
""focus"",""3"",""11979""
""blur"",""17"",""125364""
""focus"",""17"",""138042""
""blur"",""19"",""154286""
""focus"",""19"",""169577""
","""event"",""trial"",""time""
""blur"",""3"",""9500""
""blur"",""17"",""125364""
""blur"",""19"",""154286""
","""event"",""trial"",""time""
""focus"",""3"",""11979""
""focus"",""17"",""138042""
""focus"",""19"",""169577""
","""event"",""trial"",""time""
""fullscreenenter"",""1"",""5492""
","""event"",""trial"",""time""
""fullscreenexit"",""2"",""7167""
","","","","","","null","<div style=""font-size:60px;"">+</div>","null","","fixation","","","","","","","","","","",""
"aa-learning-trial","103","528690","0.0-9.0-2.0-1.15","4281","2","15","Female","approach_avoid_spark_v1","""event"",""trial"",""time""
""fullscreenenter"",""1"",""5492""
""fullscreenexit"",""2"",""7167""
""blur"",""3"",""9500""
""focus"",""3"",""11979""
""blur"",""17"",""125364""
""focus"",""17"",""138042""
""blur"",""19"",""154286""
""focus"",""19"",""169577""
","""event"",""trial"",""time""
""blur"",""3"",""9500""
""blur"",""17"",""125364""
""blur"",""19"",""154286""
","""event"",""trial"",""time""
""focus"",""3"",""11979""
""focus"",""17"",""138042""
""focus"",""19"",""169577""
","""event"",""trial"",""time""
""fullscreenenter"",""1"",""5492""
","""event"",""trial"",""time""
""fullscreenexit"",""2"",""7167""
","","","","","","484","images/sofa5.png","","","learning","-6","-6","1","1","sofa","furniture","2","0","","neutral","0"
"html-keyboard-response","104","529198","0.0-9.0-2.0-0.16","4281","2","15","Female","approach_avoid_spark_v1","""event"",""trial"",""time""
""fullscreenenter"",""1"",""5492""
""fullscreenexit"",""2"",""7167""
""blur"",""3"",""9500""
""focus"",""3"",""11979""
""blur"",""17"",""125364""
""focus"",""17"",""138042""
""blur"",""19"",""154286""
""focus"",""19"",""169577""
","""event"",""trial"",""time""
""blur"",""3"",""9500""
""blur"",""17"",""125364""
""blur"",""19"",""154286""
","""event"",""trial"",""time""
""focus"",""3"",""11979""
""focus"",""17"",""138042""
""focus"",""19"",""169577""
","""event"",""trial"",""time""
""fullscreenenter"",""1"",""5492""
","""event"",""trial"",""time""
""fullscreenexit"",""2"",""7167""
","","","","","","null","<div style=""font-size:60px;"">+</div>","null","","fixation","","","","","","","","","","",""
"aa-learning-trial","105","532205","0.0-9.0-2.0-1.16","4281","2","15","Female","approach_avoid_spark_v1","""event"",""trial"",""time""
""fullscreenenter"",""1"",""5492""
""fullscreenexit"",""2"",""7167""
""blur"",""3"",""9500""
""focus"",""3"",""11979""
""blur"",""17"",""125364""
""focus"",""17"",""138042""
""blur"",""19"",""154286""
""focus"",""19"",""169577""
","""event"",""trial"",""time""
""blur"",""3"",""9500""
""blur"",""17"",""125364""
""blur"",""19"",""154286""
","""event"",""trial"",""time""
""focus"",""3"",""11979""
""focus"",""17"",""138042""
""focus"",""19"",""169577""
","""event"",""trial"",""time""
""fullscreenenter"",""1"",""5492""
","""event"",""trial"",""time""
""fullscreenexit"",""2"",""7167""
","","","","","","492.69999980926514","images/sofa8.png","","","learning","-4","0","0","0","sofa","furniture","2","0","","neutral","0"
"html-keyboard-response","106","532710","0.0-9.0-2.0-0.17","4281","2","15","Female","approach_avoid_spark_v1","""event"",""trial"",""time""
""fullscreenenter"",""1"",""5492""
""fullscreenexit"",""2"",""7167""
""blur"",""3"",""9500""
""focus"",""3"",""11979""
""blur"",""17"",""125364""
""focus"",""17"",""138042""
""blur"",""19"",""154286""
""focus"",""19"",""169577""
","""event"",""trial"",""time""
""blur"",""3"",""9500""
""blur"",""17"",""125364""
""blur"",""19"",""154286""
","""event"",""trial"",""time""
""focus"",""3"",""11979""
""focus"",""17"",""138042""
""focus"",""19"",""169577""
","""event"",""trial"",""time""
""fullscreenenter"",""1"",""5492""
","""event"",""trial"",""time""
""fullscreenexit"",""2"",""7167""
","","","","","","null","<div style=""font-size:60px;"">+</div>","null","","fixation","","","","","","","","","","",""
"aa-learning-trial","107","535717","0.0-9.0-2.0-1.17","4281","2","15","Female","approach_avoid_spark_v1","""event"",""trial"",""time""
""fullscreenenter"",""1"",""5492""
""fullscreenexit"",""2"",""7167""
""blur"",""3"",""9500""
""focus"",""3"",""11979""
""blur"",""17"",""125364""
""focus"",""17"",""138042""
""blur"",""19"",""154286""
""focus"",""19"",""169577""
","""event"",""trial"",""time""
""blur"",""3"",""9500""
""blur"",""17"",""125364""
""blur"",""19"",""154286""
","""event"",""trial"",""time""
""focus"",""3"",""11979""
""focus"",""17"",""138042""
""focus"",""19"",""169577""
","""event"",""trial"",""time""
""fullscreenenter"",""1"",""5492""
","""event"",""trial"",""time""
""fullscreenexit"",""2"",""7167""
","","","","","","373.59999990463257","images/sofa2.png","","","learning","-2","0","0","0","sofa","furniture","2","0","","neutral","0"
"html-keyboard-response","108","536221","0.0-9.0-2.0-0.18","4281","2","15","Female","approach_avoid_spark_v1","""event"",""trial"",""time""
""fullscreenenter"",""1"",""5492""
""fullscreenexit"",""2"",""7167""
""blur"",""3"",""9500""
""focus"",""3"",""11979""
""blur"",""17"",""125364""
""focus"",""17"",""138042""
""blur"",""19"",""154286""
""focus"",""19"",""169577""
","""event"",""trial"",""time""
""blur"",""3"",""9500""
""blur"",""17"",""125364""
""blur"",""19"",""154286""
","""event"",""trial"",""time""
""focus"",""3"",""11979""
""focus"",""17"",""138042""
""focus"",""19"",""169577""
","""event"",""trial"",""time""
""fullscreenenter"",""1"",""5492""
","""event"",""trial"",""time""
""fullscreenexit"",""2"",""7167""
","","","","","","null","<div style=""font-size:60px;"">+</div>","null","","fixation","","","","","","","","","","",""
"aa-learning-trial","109","539229","0.0-9.0-2.0-1.18","4281","2","15","Female","approach_avoid_spark_v1","""event"",""trial"",""time""
""fullscreenenter"",""1"",""5492""
""fullscreenexit"",""2"",""7167""
""blur"",""3"",""9500""
""focus"",""3"",""11979""
""blur"",""17"",""125364""
""focus"",""17"",""138042""
""blur"",""19"",""154286""
""focus"",""19"",""169577""
","""event"",""trial"",""time""
""blur"",""3"",""9500""
""blur"",""17"",""125364""
""blur"",""19"",""154286""
","""event"",""trial"",""time""
""focus"",""3"",""11979""
""focus"",""17"",""138042""
""focus"",""19"",""169577""
","""event"",""trial"",""time""
""fullscreenenter"",""1"",""5492""
","""event"",""trial"",""time""
""fullscreenexit"",""2"",""7167""
","","","","","","318.59999990463257","images/bed1.png","","","learning","-1","-1","1","1","bed","furniture","2","0","","good","[6]"
"html-keyboard-response","110","539734","0.0-9.0-2.0-0.19","4281","2","15","Female","approach_avoid_spark_v1","""event"",""trial"",""time""
""fullscreenenter"",""1"",""5492""
""fullscreenexit"",""2"",""7167""
""blur"",""3"",""9500""
""focus"",""3"",""11979""
""blur"",""17"",""125364""
""focus"",""17"",""138042""
""blur"",""19"",""154286""
""focus"",""19"",""169577""
","""event"",""trial"",""time""
""blur"",""3"",""9500""
""blur"",""17"",""125364""
""blur"",""19"",""154286""
","""event"",""trial"",""time""
""focus"",""3"",""11979""
""focus"",""17"",""138042""
""focus"",""19"",""169577""
","""event"",""trial"",""time""
""fullscreenenter"",""1"",""5492""
","""event"",""trial"",""time""
""fullscreenexit"",""2"",""7167""
","","","","","","null","<div style=""font-size:60px;"">+</div>","null","","fixation","","","","","","","","","","",""
"aa-learning-trial","111","542745","0.0-9.0-2.0-1.19","4281","2","15","Female","approach_avoid_spark_v1","""event"",""trial"",""time""
""fullscreenenter"",""1"",""5492""
""fullscreenexit"",""2"",""7167""
""blur"",""3"",""9500""
""focus"",""3"",""11979""
""blur"",""17"",""125364""
""focus"",""17"",""138042""
""blur"",""19"",""154286""
""focus"",""19"",""169577""
","""event"",""trial"",""time""
""blur"",""3"",""9500""
""blur"",""17"",""125364""
""blur"",""19"",""154286""
","""event"",""trial"",""time""
""focus"",""3"",""11979""
""focus"",""17"",""138042""
""focus"",""19"",""169577""
","""event"",""trial"",""time""
""fullscreenenter"",""1"",""5492""
