"trial_type","trial_index","time_elapsed","internal_node_id","subject_id","task_condition","age","gender","task_version","interactions","blur_events","focus_events","fullscreenenter_events","fullscreenexit_events","success","timeout","failed_images","failed_audio","failed_video","rt","stimulus","response","button_pressed","task_part","approach_reward","points","key_press","option_selected","stim_cat","task_block","block_condition","block_number","correct","cat_type","mean_cat_reward"
"pavlovia","0","3","0.0-0.0","4000","2","11","Male","approach_avoid_spark_v1","""event"",""trial"",""time""
""fullscreenenter"",""1"",""3264""
","
","
","""event"",""trial"",""time""
""fullscreenenter"",""1"",""3264""
","
","","","","","","","","","","","","","","","","","","","","",""
"fullscreen","1","4257","0.0-1.0","4000","2","11","Male","approach_avoid_spark_v1","""event"",""trial"",""time""
""fullscreenenter"",""1"",""3264""
","
","
","""event"",""trial"",""time""
""fullscreenenter"",""1"",""3264""
","
","true","","","","","","","","","","","","","","","","","","","",""
"preload","2","10398","0.0-2.0","4000","2","11","Male","approach_avoid_spark_v1","""event"",""trial"",""time""
""fullscreenenter"",""1"",""3264""
","
","
","""event"",""trial"",""time""
""fullscreenenter"",""1"",""3264""
","
","true","false","[]","[]","[]","","","","","","","","","","","","","","","",""
"audio-keyboard-response","3","12489","0.0-3.0","4000","2","11","Male","approach_avoid_spark_v1","""event"",""trial"",""time""
""fullscreenenter"",""1"",""3264""
","
","
","""event"",""trial"",""time""
""fullscreenenter"",""1"",""3264""
","
","","","","","","2090.6666666666665","audio/beep_loop.wav"," ","","","","","","","","","","","","",""
"audio-button-response","4","14547","0.0-4.0","4000","2","11","Male","approach_avoid_spark_v1","""event"",""trial"",""time""
""fullscreenenter"",""1"",""3264""
","
","
","""event"",""trial"",""time""
""fullscreenenter"",""1"",""3264""
","
","","","","","","2048","audio/shark.wav","4","","","","","","","","","","","","",""
"audio-button-response","5","17187","0.0-5.0","4000","2","11","Male","approach_avoid_spark_v1","""event"",""trial"",""time""
""fullscreenenter"",""1"",""3264""
","
","
","""event"",""trial"",""time""
""fullscreenenter"",""1"",""3264""
","
","","","","","","1632","audio/turtle.wav","1","","","","","","","","","","","","",""
"preload","6","21180","0.0-6.0","4000","2","11","Male","approach_avoid_spark_v1","""event"",""trial"",""time""
""fullscreenenter"",""1"",""3264""
","
","
","""event"",""trial"",""time""
""fullscreenenter"",""1"",""3264""
","
","true","false","[]","[]","[]","","","","","","","","","","","","","","","",""
"html-keyboard-response","7","22612","0.0-7.0","4000","2","11","Male","approach_avoid_spark_v1","""event"",""trial"",""time""
""fullscreenenter"",""1"",""3264""
","
","
","""event"",""trial"",""time""
""fullscreenenter"",""1"",""3264""
","
","","","","","","1431.4000000000233","Welcome to the experiment. Press any key to begin and to advance the instructions."," ","","","","","","","","","","","","",""
"learning-instructions","8","30695","0.0-8.0-0.0-0.0","4000","2","11","Male","approach_avoid_spark_v1","""event"",""trial"",""time""
""fullscreenenter"",""1"",""3264""
","
","
","""event"",""trial"",""time""
""fullscreenenter"",""1"",""3264""
","
","","","","","","1130.1999999999825","<p> Welcome! Today you are going to play 6 different rounds of a decision-making game. </p><p> Use the mouse to click next to continue. </p>","","0","instructions","","","","","","","","","","",""
"learning-instructions","9","33877","0.0-8.0-0.0-0.1","4000","2","11","Male","approach_avoid_spark_v1","""event"",""trial"",""time""
""fullscreenenter"",""1"",""3264""
","
","
","""event"",""trial"",""time""
""fullscreenenter"",""1"",""3264""
","
","","","","","","449","<p> You will start with a practice round to learn the rules. </p>","","0","instructions","","","","","","","","","","",""
"learning-instructions","10","38247","0.0-8.0-0.0-0.2","4000","2","11","Male","approach_avoid_spark_v1","""event"",""trial"",""time""
""fullscreenenter"",""1"",""3264""
","
","
","""event"",""trial"",""time""
""fullscreenenter"",""1"",""3264""
","
","","","","","","913","<p> Your goal in this round is to give out sports equipment to kids. </p></div>","","0","instructions","","","","","","","","","","",""
"learning-instructions","11","46311","0.0-8.0-0.0-0.3","4000","2","11","Male","approach_avoid_spark_v1","""event"",""trial"",""time""
""fullscreenenter"",""1"",""3264""
","
","
","""event"",""trial"",""time""
""fullscreenenter"",""1"",""3264""
","
","","","","","","513.8999999999942","<p> The kids only like some of the equipment.  </p><p> On each turn, you will see a piece of sports equipment.   </p><p> You need to decide whether to give it to the kids or not.  </p>","","0","instructions","","","","","","","","","","",""
"learning-instructions","12","51519","0.0-8.0-0.0-0.4","4000","2","11","Male","approach_avoid_spark_v1","""event"",""trial"",""time""
""fullscreenenter"",""1"",""3264""
","
","
","""event"",""trial"",""time""
""fullscreenenter"",""1"",""3264""
","
","","","","","","450","<p> You can give them the equipment by pressing 1 and choose not to give it to them by pressing 0. </p><br><div class=""choice-instructions-grid""> <div class=""choice-option""><img src=""images/approach.png"" class=""choice-option-img"" stage=""instructions"" position=""0"" ><div class=""choice-option-text""> Press ""1."" </div></div><div class=""choice-option""><img src=""images/avoid.png"" class=""choice-option-img"" stage=""instructions"" position=""1"" ><div class=""choice-option-text""> Press ""0."" </div></div>","","0","instructions","","","","","","","","","","",""
"learning-instructions","13","60666","0.0-8.0-0.0-0.5","4000","2","11","Male","approach_avoid_spark_v1","""event"",""trial"",""time""
""fullscreenenter"",""1"",""3264""
","
","
","""event"",""trial"",""time""
""fullscreenenter"",""1"",""3264""
","
","","","","","","1752.4000000000233","<p> If you give them a piece of equipment they like, they will be happy! </p><p> But if you give them a piece of equipment they do not like, they will be sad. </p>","","0","instructions","","","","","","","","","","",""
"learning-instructions","14","71713","0.0-8.0-0.0-0.6","4000","2","11","Male","approach_avoid_spark_v1","""event"",""trial"",""time""
""fullscreenenter"",""1"",""3264""
","
","
","""event"",""trial"",""time""
""fullscreenenter"",""1"",""3264""
","
","","","","","","527.5","<p> You will earn points based on how you make kids feel. </p><p> If you make them happy, you will WIN anywhere from 1 - 9 points, </p><p> but if you make them sad, you will LOSE anywhere from 1 - 9 points. </p>","","0","instructions","","","","","","","","","","",""
"learning-instructions","15","83153","0.0-8.0-0.0-0.7","4000","2","11","Male","approach_avoid_spark_v1","""event"",""trial"",""time""
""fullscreenenter"",""1"",""3264""
","
","
","""event"",""trial"",""time""
""fullscreenenter"",""1"",""3264""
","
","","","","","","1881.7999999999884","<p> You will see how many points you won or lost in the center of the screen. </p><p> Here is what you would see if you won 6 points: </p><p style=""color:green;font-size:50px;font-weight:bolder"">6</p><p style=""color:green"">The text is GREEN because you WON points.</p>","","0","instructions","","","","","","","","","","",""
"learning-instructions","16","89394","0.0-8.0-0.0-0.8","4000","2","11","Male","approach_avoid_spark_v1","""event"",""trial"",""time""
""fullscreenenter"",""1"",""3264""
","
","
","""event"",""trial"",""time""
""fullscreenenter"",""1"",""3264""
","
","","","","","","727","<p> And here is what you would see if you lost 4 points: </p><p style=""color:red;font-size:50px;font-weight:bolder"">-4</p><p style=""color:red"">The text is RED because you LOST points. </p>","","0","instructions","","","","","","","","","","",""
"learning-instructions","17","104741","0.0-8.0-0.0-0.9","4000","2","11","Male","approach_avoid_spark_v1","""event"",""trial"",""time""
""fullscreenenter"",""1"",""3264""
","
","
","""event"",""trial"",""time""
""fullscreenenter"",""1"",""3264""
","
","","","","","","620.8000000000175","<p> Some of the equipment will make the kids VERY happy or sad. </p><p> These pieces of equipment will make you win or lose LOTS of points. </p><p> Other pieces of equipment will only make the kids a little happy or sad. </p><p> These pieces of equipment will make you win or lose small amounts of points. </p>","","0","instructions","","","","","","","","","","",""
"learning-instructions","18","115789","0.0-8.0-0.0-0.10","4000","2","11","Male","approach_avoid_spark_v1","""event"",""trial"",""time""
""fullscreenenter"",""1"",""3264""
","
","
","""event"",""trial"",""time""
""fullscreenenter"",""1"",""3264""
","
","","","","","","409.9000000000233","<p> If you choose not to give them the equipment, you will not win or lose any points. </p><p>  However, in the center of the screen, you will see the number of points you WOULD HAVE won or lost if you had given them the equipment. </p>","","0","instructions","","","","","","","","","","",""
"learning-instructions","19","138124","0.0-8.0-0.0-0.11","4000","2","11","Male","approach_avoid_spark_v1","""event"",""trial"",""time""
""fullscreenenter"",""1"",""3264""
","
","
","""event"",""trial"",""time""
""fullscreenenter"",""1"",""3264""
","
","","","","","","793.2000000000116","<p> Here is what you might see if you did not give the equipment to the kids but it would have made them happy: </p><p style=""color:grey; font-size:50px; display: inline-block; border-spacing: 15px; border-width:3px; border-style:solid; border-color:red"">  &nbsp; 7 &nbsp; </p><p> Remember, in this case, you would not win or lose ANY points because you did not give them the equipment.  </p><p style=""color:grey"">The text is GREY because you earned ZERO points. </p><p style=""color:red"">However, choosing to give the kids the equipment would have made you win points. The box around the text is RED because you chose the worse option. </p>","","0","instructions","","","","","","","","","","",""
"learning-instructions","20","159616","0.0-8.0-0.0-0.12","4000","2","11","Male","approach_avoid_spark_v1","""event"",""trial"",""time""
""fullscreenenter"",""1"",""3264""
","
","
","""event"",""trial"",""time""
""fullscreenenter"",""1"",""3264""
","
","","","","","","406.79999999998836","<p> Here is what you might see if you did not give the equipment to the kids but it would have made them sad: </p><p style=""color:grey;font-size:50px; display: inline-block; border-spacing: 15px; border-width:3px; border-style:solid; border-color:green"">  &nbsp; -8 &nbsp; </p><p> Remember, in this case, you would not win or lose ANY points because you did not give them the equipment.  </p><p style=""color:grey"">The text is GREY because you earned ZERO points. </p><p  style=""color:green""> Choosing to give the kids the equipment would have made you lose points. The box around the text is GREEN because you chose the better option.</p>","","0","instructions","","","","","","","","","","",""
"learning-instructions","21","169737","0.0-8.0-0.0-0.13","4000","2","11","Male","approach_avoid_spark_v1","""event"",""trial"",""time""
""fullscreenenter"",""1"",""3264""
","
","
","""event"",""trial"",""time""
""fullscreenenter"",""1"",""3264""
","
","","","","","","518.2000000000116","<p> You will have 3 seconds to make each choice. Try to respond before time runs out! </p><p> You will lose 5 points each time you do not make a response. </p>","","0","instructions","","","","","","","","","","",""
"learning-instructions","22","175615","0.0-8.0-0.0-0.14","4000","2","11","Male","approach_avoid_spark_v1","""event"",""trial"",""time""
""fullscreenenter"",""1"",""3264""
","
","
","""event"",""trial"",""time""
""fullscreenenter"",""1"",""3264""
","
","","","","","","461.8999999999651","<p> This is just a practice round, but in the real game, your bonus payment will depend on your total number of points.","","0","instructions","","","","","","","","","","",""
"learning-instructions","23","181551","0.0-8.0-0.0-0.15","4000","2","11","Male","approach_avoid_spark_v1","""event"",""trial"",""time""
""fullscreenenter"",""1"",""3264""
","
","
","""event"",""trial"",""time""
""fullscreenenter"",""1"",""3264""
","
","","","","","","165.59999999997672","<p> Remember, you can give them the equipment by pressing 1 and choose not to give it to them by pressing 0. </p><br><div class=""choice-instructions-grid""> <div class=""choice-option""><img src=""images/approach.png"" class=""choice-option-img"" stage=""instructions"" position=""0"" ><div class=""choice-option-text""> Press ""1."" </div></div><div class=""choice-option""><img src=""images/avoid.png"" class=""choice-option-img"" stage=""instructions"" position=""1"" ><div class=""choice-option-text""> Press ""0."" </div></div>","","0","instructions","","","","","","","","","","",""
"html-button-response","24","184240","0.0-8.0-1.0","4000","2","11","Male","approach_avoid_spark_v1","""event"",""trial"",""time""
""fullscreenenter"",""1"",""3264""
","
","
","""event"",""trial"",""time""
""fullscreenenter"",""1"",""3264""
","
","","","","","","2581.0999999999767","<p> Ready to practice? </p>","0","","","","","","","","","","","","",""
"html-keyboard-response","25","184849","0.0-8.0-2.0-0.0","4000","2","11","Male","approach_avoid_spark_v1","""event"",""trial"",""time""
""fullscreenenter"",""1"",""3264""
","
","
","""event"",""trial"",""time""
""fullscreenenter"",""1"",""3264""
","
","","","","","","null","<div style=""font-size:60px;"">+</div>","null","","fixation","","","","","","","","","","",""
"aa-learning-trial","26","187854","0.0-8.0-2.0-1.0","4000","2","11","Male","approach_avoid_spark_v1","""event"",""trial"",""time""
""fullscreenenter"",""1"",""3264""
","
","
","""event"",""trial"",""time""
""fullscreenenter"",""1"",""3264""
","
","","","","","","2097.2999999999884","images/racket2.png","","","learning","8","8","1","1","practice","practice","practice","-1","","",""
"html-keyboard-response","27","188361","0.0-8.0-2.0-0.1","4000","2","11","Male","approach_avoid_spark_v1","""event"",""trial"",""time""
""fullscreenenter"",""1"",""3264""
","
","
","""event"",""trial"",""time""
""fullscreenenter"",""1"",""3264""
","
","","","","","","null","<div style=""font-size:60px;"">+</div>","null","","fixation","","","","","","","","","","",""
"aa-learning-trial","28","191369","0.0-8.0-2.0-1.1","4000","2","11","Male","approach_avoid_spark_v1","""event"",""trial"",""time""
""fullscreenenter"",""1"",""3264""
","
","
","""event"",""trial"",""time""
""fullscreenenter"",""1"",""3264""
","
","","","","","","994.7999999999884","images/ball4.png","","","learning","-6","0","0","0","practice","practice","practice","-1","","",""
"html-keyboard-response","29","191873","0.0-8.0-2.0-0.2","4000","2","11","Male","approach_avoid_spark_v1","""event"",""trial"",""time""
""fullscreenenter"",""1"",""3264""
","
","
","""event"",""trial"",""time""
""fullscreenenter"",""1"",""3264""
","
","","","","","","null","<div style=""font-size:60px;"">+</div>","null","","fixation","","","","","","","","","","",""
"aa-learning-trial","30","194881","0.0-8.0-2.0-1.2","4000","2","11","Male","approach_avoid_spark_v1","""event"",""trial"",""time""
""fullscreenenter"",""1"",""3264""
","
","
","""event"",""trial"",""time""
""fullscreenenter"",""1"",""3264""
","
","","","","","","1137.0999999999767","images/ball1.png","","","learning","-1","-1","1","1","practice","practice","practice","-1","","",""
"html-keyboard-response","31","195385","0.0-8.0-2.0-0.3","4000","2","11","Male","approach_avoid_spark_v1","""event"",""trial"",""time""
""fullscreenenter"",""1"",""3264""
","
","
","""event"",""trial"",""time""
""fullscreenenter"",""1"",""3264""
","
","","","","","","null","<div style=""font-size:60px;"">+</div>","null","","fixation","","","","","","","","","","",""
"aa-learning-trial","32","198393","0.0-8.0-2.0-1.3","4000","2","11","Male","approach_avoid_spark_v1","""event"",""trial"",""time""
""fullscreenenter"",""1"",""3264""
","
","
","""event"",""trial"",""time""
""fullscreenenter"",""1"",""3264""
","
","","","","","","1244.7999999999884","images/racket4.png","","","learning","-7","-7","1","1","practice","practice","practice","-1","","",""
"html-keyboard-response","33","198897","0.0-8.0-2.0-0.4","4000","2","11","Male","approach_avoid_spark_v1","""event"",""trial"",""time""
""fullscreenenter"",""1"",""3264""
","
","
","""event"",""trial"",""time""
""fullscreenenter"",""1"",""3264""
","
","","","","","","null","<div style=""font-size:60px;"">+</div>","null","","fixation","","","","","","","","","","",""
"aa-learning-trial","34","201905","0.0-8.0-2.0-1.4","4000","2","11","Male","approach_avoid_spark_v1","""event"",""trial"",""time""
""fullscreenenter"",""1"",""3264""
","
","
","""event"",""trial"",""time""
""fullscreenenter"",""1"",""3264""
","
","","","","","","1383.3000000000466","images/racket2.png","","","learning","-6","0","0","0","practice","practice","practice","-1","","",""
"html-keyboard-response","35","202409","0.0-8.0-2.0-0.5","4000","2","11","Male","approach_avoid_spark_v1","""event"",""trial"",""time""
""fullscreenenter"",""1"",""3264""
","
","
","""event"",""trial"",""time""
""fullscreenenter"",""1"",""3264""
","
","","","","","","null","<div style=""font-size:60px;"">+</div>","null","","fixation","","","","","","","","","","",""
"aa-learning-trial","36","205417","0.0-8.0-2.0-1.5","4000","2","11","Male","approach_avoid_spark_v1","""event"",""trial"",""time""
""fullscreenenter"",""1"",""3264""
","
","
","""event"",""trial"",""time""
""fullscreenenter"",""1"",""3264""
","
","","","","","","1163","images/ball2.png","","","learning","-7","-7","1","1","practice","practice","practice","-1","","",""
"html-keyboard-response","37","205921","0.0-8.0-2.0-0.6","4000","2","11","Male","approach_avoid_spark_v1","""event"",""trial"",""time""
""fullscreenenter"",""1"",""3264""
","
","
","""event"",""trial"",""time""
""fullscreenenter"",""1"",""3264""
","
","","","","","","null","<div style=""font-size:60px;"">+</div>","null","","fixation","","","","","","","","","","",""
"aa-learning-trial","38","208929","0.0-8.0-2.0-1.6","4000","2","11","Male","approach_avoid_spark_v1","""event"",""trial"",""time""
""fullscreenenter"",""1"",""3264""
","
","
","""event"",""trial"",""time""
""fullscreenenter"",""1"",""3264""
","
","","","","","","1026.1999999999534","images/racket1.png","","","learning","3","0","0","0","practice","practice","practice","-1","","",""
"html-keyboard-response","39","209433","0.0-8.0-2.0-0.7","4000","2","11","Male","approach_avoid_spark_v1","""event"",""trial"",""time""
""fullscreenenter"",""1"",""3264""
","
","
","""event"",""trial"",""time""
""fullscreenenter"",""1"",""3264""
","
","","","","","","null","<div style=""font-size:60px;"">+</div>","null","","fixation","","","","","","","","","","",""
"aa-learning-trial","40","212441","0.0-8.0-2.0-1.7","4000","2","11","Male","approach_avoid_spark_v1","""event"",""trial"",""time""
""fullscreenenter"",""1"",""3264""
","
","
","""event"",""trial"",""time""
""fullscreenenter"",""1"",""3264""
","
","","","","","","1088.2000000000116","images/racket4.png","","","learning","5","5","1","1","practice","practice","practice","-1","","",""
"html-keyboard-response","41","212945","0.0-8.0-2.0-0.8","4000","2","11","Male","approach_avoid_spark_v1","""event"",""trial"",""time""
""fullscreenenter"",""1"",""3264""
","
","
","""event"",""trial"",""time""
""fullscreenenter"",""1"",""3264""
","
","","","","","","null","<div style=""font-size:60px;"">+</div>","null","","fixation","","","","","","","","","","",""
"aa-learning-trial","42","215951","0.0-8.0-2.0-1.8","4000","2","11","Male","approach_avoid_spark_v1","""event"",""trial"",""time""
""fullscreenenter"",""1"",""3264""
","
","
","""event"",""trial"",""time""
""fullscreenenter"",""1"",""3264""
","
","","","","","","2185.2000000000116","images/ball1.png","","","learning","-9","-9","1","1","practice","practice","practice","-1","","",""
"html-keyboard-response","43","216457","0.0-8.0-2.0-0.9","4000","2","11","Male","approach_avoid_spark_v1","""event"",""trial"",""time""
""fullscreenenter"",""1"",""3264""
","
","
","""event"",""trial"",""time""
""fullscreenenter"",""1"",""3264""
","
","","","","","","null","<div style=""font-size:60px;"">+</div>","null","","fixation","","","","","","","","","","",""
"aa-learning-trial","44","219465","0.0-8.0-2.0-1.9","4000","2","11","Male","approach_avoid_spark_v1","""event"",""trial"",""time""
""fullscreenenter"",""1"",""3264""
","
","
","""event"",""trial"",""time""
""fullscreenenter"",""1"",""3264""
","
","","","","","","1344.100000000035","images/racket1.png","","","learning","-5","-5","1","1","practice","practice","practice","-1","","",""
"html-keyboard-response","45","219969","0.0-8.0-2.0-0.10","4000","2","11","Male","approach_avoid_spark_v1","""event"",""trial"",""time""
""fullscreenenter"",""1"",""3264""
","
","
","""event"",""trial"",""time""
""fullscreenenter"",""1"",""3264""
","
","","","","","","null","<div style=""font-size:60px;"">+</div>","null","","fixation","","","","","","","","","","",""
"aa-learning-trial","46","222977","0.0-8.0-2.0-1.10","4000","2","11","Male","approach_avoid_spark_v1","""event"",""trial"",""time""
""fullscreenenter"",""1"",""3264""
","
","
","""event"",""trial"",""time""
""fullscreenenter"",""1"",""3264""
","
","","","","","","2179.899999999965","images/racket3.png","","","learning","-8","0","0","0","practice","practice","practice","-1","","",""
"html-keyboard-response","47","223481","0.0-8.0-2.0-0.11","4000","2","11","Male","approach_avoid_spark_v1","""event"",""trial"",""time""
""fullscreenenter"",""1"",""3264""
","
","
","""event"",""trial"",""time""
""fullscreenenter"",""1"",""3264""
","
","","","","","","null","<div style=""font-size:60px;"">+</div>","null","","fixation","","","","","","","","","","",""
"aa-learning-trial","48","226489","0.0-8.0-2.0-1.11","4000","2","11","Male","approach_avoid_spark_v1","""event"",""trial"",""time""
""fullscreenenter"",""1"",""3264""
","
","
","""event"",""trial"",""time""
""fullscreenenter"",""1"",""3264""
","
","","","","","","1660.7000000000116","images/racket3.png","","","learning","-8","-8","1","1","practice","practice","practice","-1","","",""
"html-button-response","49","228424","0.0-8.0-3.0","4000","2","11","Male","approach_avoid_spark_v1","""event"",""trial"",""time""
""fullscreenenter"",""1"",""3264""
","
","
","""event"",""trial"",""time""
""fullscreenenter"",""1"",""3264""
","
","","","","","","1931.4000000000233","<p> You earned -24 points in the practice round! </p>","0","","break","","","","","","","","","","",""
"learning-instructions","50","236528","0.0-8.0-4.0-0.0","4000","2","11","Male","approach_avoid_spark_v1","""event"",""trial"",""time""
""fullscreenenter"",""1"",""3264""
","
","
","""event"",""trial"",""time""
""fullscreenenter"",""1"",""3264""
","
","","","","","","1836.5999999999767","<p> It's almost time to start the real game. </p><p> Before you start, we're going to ask you a few questions about how the game works. </p>","","0","instructions","","","","","","","","","","",""
"preload","51","238253","0.0-8.0-5.0","4000","2","11","Male","approach_avoid_spark_v1","""event"",""trial"",""time""
""fullscreenenter"",""1"",""3264""
","
","
","""event"",""trial"",""time""
""fullscreenenter"",""1"",""3264""
","
","true","false","[]","[]","[]","","","","","","","","","","","","","","","",""
"comp-q","52","244669","0.0-8.0-6.0-0.0","4000","2","11","Male","approach_avoid_spark_v1","""event"",""trial"",""time""
""fullscreenenter"",""1"",""3264""
","
","
","""event"",""trial"",""time""
""fullscreenenter"",""1"",""3264""
","
","","","","","","1407.9000000000233","<p> <b> True or False? </b> </p><p> If you see a number in GREY, that means you earned that many points. </p>","","1","comp_question","","","","","","","","","true","",""
"comp-q","53","253706","0.0-8.0-6.0-1.0","4000","2","11","Male","approach_avoid_spark_v1","""event"",""trial"",""time""
""fullscreenenter"",""1"",""3264""
","
","
","""event"",""trial"",""time""
""fullscreenenter"",""1"",""3264""
","
","","","","","","669.5","<p><b> That's right! </b> If you see a grey number, it means you earned ZERO points. <br> The grey numbers show the points you WOULD HAVE earned if you had made the other choice. </p>","","0","comp_answer","","","","","","","","","","",""
"comp-q","54","262241","0.0-8.0-7.0-0.0","4000","2","11","Male","approach_avoid_spark_v1","""event"",""trial"",""time""
""fullscreenenter"",""1"",""3264""
","
","
","""event"",""trial"",""time""
""fullscreenenter"",""1"",""3264""
","
","","","","","","3847.2000000000116","<p> <b> True or False? </b> </p><p> You will have as much time as you want to make each choice. </p>","","1","comp_question","","","","","","","","","true","",""
"comp-q","55","270767","0.0-8.0-7.0-1.0","4000","2","11","Male","approach_avoid_spark_v1","""event"",""trial"",""time""
""fullscreenenter"",""1"",""3264""
","
","
","""event"",""trial"",""time""
""fullscreenenter"",""1"",""3264""
","
","","","","","","4486.599999999977","<p> <b> That's right! </b> You will only have 3 seconds to make each choice. </p>","","0","comp_answer","","","","","","","","","","",""
"comp-q","56","276024","0.0-8.0-8.0-0.0","4000","2","11","Male","approach_avoid_spark_v1","""event"",""trial"",""time""
""fullscreenenter"",""1"",""3264""
","
","
","""event"",""trial"",""time""
""fullscreenenter"",""1"",""3264""
","
","","","","","","597.5","<p> <b> True or False? </b> </p><p> You should use the '1' and '0' keys to make your choices. </p>","","0","comp_question","","","","","","","","","true","",""
"comp-q","57","281823","0.0-8.0-8.0-1.0","4000","2","11","Male","approach_avoid_spark_v1","""event"",""trial"",""time""
""fullscreenenter"",""1"",""3264""
","
","
","""event"",""trial"",""time""
""fullscreenenter"",""1"",""3264""
","
","","","","","","1178.2000000000116","<p> <b> That's right! </b> You should use the '1' and '0' keys to make each choice. </p>","","0","comp_answer","","","","","","","","","","",""
"learning-instructions","58","290259","0.0-8.0-9.0-0.0","4000","2","11","Male","approach_avoid_spark_v1","""event"",""trial"",""time""
""fullscreenenter"",""1"",""3264""
","
","
","""event"",""trial"",""time""
""fullscreenenter"",""1"",""3264""
","
","","","","","","2165.4000000000233","<p> It's now time to start the real game. </p>Do your best, because the points you earn in the next rounds will influence your bonus payment. </p>","","0","instructions","","","","","","","","","","",""
"preload","59","290384","0.0-9.0-0.0","4000","2","11","Male","approach_avoid_spark_v1","""event"",""trial"",""time""
""fullscreenenter"",""1"",""3264""
","
","
","""event"",""trial"",""time""
""fullscreenenter"",""1"",""3264""
","
","true","false","[]","[]","[]","","","","","","","","","","","","","","","",""
"learning-instructions","60","297032","0.0-9.0-1.0-0.0","4000","2","11","Male","approach_avoid_spark_v1","""event"",""trial"",""time""
""fullscreenenter"",""1"",""3264""
","
","
","""event"",""trial"",""time""
""fullscreenenter"",""1"",""3264""
","
","","","","","","1414.2999999999884","<p> Your goal in this round is to sell different plants to a picky customer. </p></div>","","0","instructions","","","","","","","","","","",""
"learning-instructions","61","306915","0.0-9.0-1.0-0.1","4000","2","11","Male","approach_avoid_spark_v1","""event"",""trial"",""time""
""fullscreenenter"",""1"",""3264""
","
","
","""event"",""trial"",""time""
""fullscreenenter"",""1"",""3264""
","
","","","","","","358.4000000000233","<p> The customer likes some plants and dislikes others.  </p><p> On each turn, you will see a plant.   </p><p> You need to decide whether to offer it to the customer or not.  </p>","","0","instructions","","","","","","","","","","",""
"learning-instructions","62","313451","0.0-9.0-1.0-0.2","4000","2","11","Male","approach_avoid_spark_v1","""event"",""trial"",""time""
""fullscreenenter"",""1"",""3264""
","
","
","""event"",""trial"",""time""
""fullscreenenter"",""1"",""3264""
","
","","","","","","693.4000000000233","<p> You can offer the plant by pressing 1 and decide to not offer it by pressing 0. </p><br><div class=""choice-instructions-grid""> <div class=""choice-option""><img src=""images/approach.png"" class=""choice-option-img"" stage=""instructions"" position=""0"" ><div class=""choice-option-text""> Press ""1."" </div></div><div class=""choice-option""><img src=""images/avoid.png"" class=""choice-option-img"" stage=""instructions"" position=""1"" ><div class=""choice-option-text""> Press ""0."" </div></div>","","0","instructions","","","","","","","","","","",""
"learning-instructions","63","322744","0.0-9.0-1.0-0.3","4000","2","11","Male","approach_avoid_spark_v1","""event"",""trial"",""time""
""fullscreenenter"",""1"",""3264""
","
","
","""event"",""trial"",""time""
""fullscreenenter"",""1"",""3264""
","
","","","","","","115.5","<p> If you offer a plant to the customer that she likes, she will be very pleased! </p><p> But if you offer a plant that she does NOT like, she will be annoyed. </p>","","0","instructions","","","","","","","","","","",""
"learning-instructions","64","335491","0.0-9.0-1.0-0.4","4000","2","11","Male","approach_avoid_spark_v1","""event"",""trial"",""time""
""fullscreenenter"",""1"",""3264""
","
","
","""event"",""trial"",""time""
""fullscreenenter"",""1"",""3264""
","
","","","","","","183.79999999998836","<p> You will earn points based on how you made the customer feel. </p><p> If you made her pleased, you will WIN anywhere from 1 - 9 points, </p><p> but if you made her annoyed, you will LOSE anywhere from 1 - 9 points. </p>","","0","instructions","","","","","","","","","","",""
"learning-instructions","65","343454","0.0-9.0-1.0-0.5","4000","2","11","Male","approach_avoid_spark_v1","""event"",""trial"",""time""
""fullscreenenter"",""1"",""3264""
","
","
","""event"",""trial"",""time""
""fullscreenenter"",""1"",""3264""
","
","","","","","","249.90000000002328","<p> You will see how many points you won or lost in the center of the screen. </p><p> Here is what you would see if you won 5 points: </p><p style=""color:green;font-size:50px;font-weight:bolder"">5</p>","","0","instructions","","","","","","","","","","",""
"learning-instructions","66","347539","0.0-9.0-1.0-0.6","4000","2","11","Male","approach_avoid_spark_v1","""event"",""trial"",""time""
""fullscreenenter"",""1"",""3264""
","
","
","""event"",""trial"",""time""
""fullscreenenter"",""1"",""3264""
","
","","","","","","418.4000000000233","<p> And here is what you would see if you lost 3 points: </p><p style=""color:red;font-size:50px;font-weight:bolder"">-3</p>","","0","instructions","","","","","","","","","","",""
"learning-instructions","67","362964","0.0-9.0-1.0-0.7","4000","2","11","Male","approach_avoid_spark_v1","""event"",""trial"",""time""
""fullscreenenter"",""1"",""3264""
","
","
","""event"",""trial"",""time""
""fullscreenenter"",""1"",""3264""
","
","","","","","","538.7000000000116","<p> Some plants will make the customer VERY pleased or annoyed. </p><p> These plants will make you win or lose LOTS of points. </p><p> The customer will have less strong feelings about other plants. </p><p> These plants will make you win or lose small amounts of points. </p>","","0","instructions","","","","","","","","","","",""
"learning-instructions","68","379545","0.0-9.0-1.0-0.8","4000","2","11","Male","approach_avoid_spark_v1","""event"",""trial"",""time""
""fullscreenenter"",""1"",""3264""
","
","
","""event"",""trial"",""time""
""fullscreenenter"",""1"",""3264""
","
","","","","","","1634.7000000000698","<p> If you choose to not offer the plant to the customer, you will not win or lose any points. </p><p>  However, in the center of the screen, you will see the number of points you WOULD HAVE won or lost if you had offered the plant. </p>","","0","instructions","","","","","","","","","","",""
"learning-instructions","69","392876","0.0-9.0-1.0-0.9","4000","2","11","Male","approach_avoid_spark_v1","""event"",""trial"",""time""
""fullscreenenter"",""1"",""3264""
","
","
","""event"",""trial"",""time""
""fullscreenenter"",""1"",""3264""
","
","","","","","","1509.6999999999534","<p> Here is what you might see if you did not offer the plant but the customer would have liked it: </p><p style=""color:grey; font-size:50px; display: inline-block; border-spacing: 15px; border-width:3px; border-style:solid; border-color:red"">  &nbsp; 6 &nbsp; </p><p> Remember, in this case, you would not win or lose ANY points because you did not offer the plant.  </p>","","0","instructions","","","","","","","","","","",""
"learning-instructions","70","401241","0.0-9.0-1.0-0.10","4000","2","11","Male","approach_avoid_spark_v1","""event"",""trial"",""time""
""fullscreenenter"",""1"",""3264""
","
","
","""event"",""trial"",""time""
""fullscreenenter"",""1"",""3264""
","
","","","","","","493.4000000000233","<p> Try to make the best choice for each plant because </p><p> at the end of the game, you will earn bonus money based on how many points you earned. </p>","","0","instructions","","","","","","","","","","",""
"learning-instructions","71","413507","0.0-9.0-1.0-0.11","4000","2","11","Male","approach_avoid_spark_v1","""event"",""trial"",""time""
""fullscreenenter"",""1"",""3264""
","
","
","""event"",""trial"",""time""
""fullscreenenter"",""1"",""3264""
","
","","","","","","4072.9000000000233","<p> You will have 3 seconds to make each choice. Try to respond before time runs out! </p><p> You will lose 5 points each time you do not make a response. </p>","","0","instructions","","","","","","","","","","",""
"html-keyboard-response","72","414113","0.0-9.0-2.0-0.0","4000","2","11","Male","approach_avoid_spark_v1","""event"",""trial"",""time""
""fullscreenenter"",""1"",""3264""
","
","
","""event"",""trial"",""time""
""fullscreenenter"",""1"",""3264""
","
","","","","","","null","<div style=""font-size:60px;"">+</div>","null","","fixation","","","","","","","","","","",""
"aa-learning-trial","73","417121","0.0-9.0-2.0-1.0","4000","2","11","Male","approach_avoid_spark_v1","""event"",""trial"",""time""
""fullscreenenter"",""1"",""3264""
","
","
","""event"",""trial"",""time""
""fullscreenenter"",""1"",""3264""
","
","","","","","","2408.8000000000466","images/cactus3.png","","","learning","5","5","1","1","cactus","plants","2","0","","good","[6]"
"html-keyboard-response","74","417625","0.0-9.0-2.0-0.1","4000","2","11","Male","approach_avoid_spark_v1","""event"",""trial"",""time""
""fullscreenenter"",""1"",""3264""
","
","
","""event"",""trial"",""time""
""fullscreenenter"",""1"",""3264""
","
","","","","","","null","<div style=""font-size:60px;"">+</div>","null","","fixation","","","","","","","","","","",""
"aa-learning-trial","75","420633","0.0-9.0-2.0-1.1","4000","2","11","Male","approach_avoid_spark_v1","""event"",""trial"",""time""
""fullscreenenter"",""1"",""3264""
","
","
","""event"",""trial"",""time""
""fullscreenenter"",""1"",""3264""
","
","","","","","","1337.6000000000931","images/bush7.png","","","learning","-7","0","0","0","bush","plants","2","0","","bad","[-3]"
"html-keyboard-response","76","421137","0.0-9.0-2.0-0.2","4000","2","11","Male","approach_avoid_spark_v1","""event"",""trial"",""time""
""fullscreenenter"",""1"",""3264""
","
","
","""event"",""trial"",""time""
""fullscreenenter"",""1"",""3264""
","
","","","","","","null","<div style=""font-size:60px;"">+</div>","null","","fixation","","","","","","","","","","",""
"aa-learning-trial","77","424145","0.0-9.0-2.0-1.2","4000","2","11","Male","approach_avoid_spark_v1","""event"",""trial"",""time""
""fullscreenenter"",""1"",""3264""
","
","
","""event"",""trial"",""time""
""fullscreenenter"",""1"",""3264""
","
","","","","","","1631.5999999999767","images/cactus7.png","","","learning","8","8","1","1","cactus","plants","2","0","","good","[6]"
"html-keyboard-response","78","424649","0.0-9.0-2.0-0.3","4000","2","11","Male","approach_avoid_spark_v1","""event"",""trial"",""time""
""fullscreenenter"",""1"",""3264""
","
","
","""event"",""trial"",""time""
""fullscreenenter"",""1"",""3264""
","
","","","","","","null","<div style=""font-size:60px;"">+</div>","null","","fixation","","","","","","","","","","",""
"aa-learning-trial","79","427657","0.0-9.0-2.0-1.3","4000","2","11","Male","approach_avoid_spark_v1","""event"",""trial"",""time""
""fullscreenenter"",""1"",""3264""
","
","
","""event"",""trial"",""time""
""fullscreenenter"",""1"",""3264""
","
","","","","","","713.7999999999302","images/bush4.png","","","learning","7","0","0","0","bush","plants","2","0","","bad","[-3]"
"html-keyboard-response","80","428161","0.0-9.0-2.0-0.4","4000","2","11","Male","approach_avoid_spark_v1","""event"",""trial"",""time""
""fullscreenenter"",""1"",""3264""
","
","
","""event"",""trial"",""time""
""fullscreenenter"",""1"",""3264""
","
","","","","","","null","<div style=""font-size:60px;"">+</div>","null","","fixation","","","","","","","","","","",""
"aa-learning-trial","81","431169","0.0-9.0-2.0-1.4","4000","2","11","Male","approach_avoid_spark_v1","""event"",""trial"",""time""
""fullscreenenter"",""1"",""3264""
","
","
","""event"",""trial"",""time""
""fullscreenenter"",""1"",""3264""
","
","","","","","","1343.6000000000931","images/bush6.png","","","learning","-4","-4","1","1","bush","plants","2","0","","bad","[-3]"
"html-keyboard-response","82","431673","0.0-9.0-2.0-0.5","4000","2","11","Male","approach_avoid_spark_v1","""event"",""trial"",""time""
""fullscreenenter"",""1"",""3264""
","
","
","""event"",""trial"",""time""
""fullscreenenter"",""1"",""3264""
","
","","","","","","null","<div style=""font-size:60px;"">+</div>","null","","fixation","","","","","","","","","","",""
"aa-learning-trial","83","434681","0.0-9.0-2.0-1.5","4000","2","11","Male","approach_avoid_spark_v1","""event"",""trial"",""time""
""fullscreenenter"",""1"",""3264""
","
","
","""event"",""trial"",""time""
""fullscreenenter"",""1"",""3264""
","
","","","","","","2337.899999999907","images/tree2.png","","","learning","4","0","0","0","tree","plants","2","0","","neutral","0"
"html-keyboard-response","84","435185","0.0-9.0-2.0-0.6","4000","2","11","Male","approach_avoid_spark_v1","""event"",""trial"",""time""
""fullscreenenter"",""1"",""3264""
","
","
","""event"",""trial"",""time""
""fullscreenenter"",""1"",""3264""
","
","","","","","","null","<div style=""font-size:60px;"">+</div>","null","","fixation","","","","","","","","","","",""
"aa-learning-trial","85","438192","0.0-9.0-2.0-1.6","4000","2","11","Male","approach_avoid_spark_v1","""event"",""trial"",""time""
""fullscreenenter"",""1"",""3264""
","
","
","""event"",""trial"",""time""
""fullscreenenter"",""1"",""3264""
","
","","","","","","1612.5","images/bush4.png","","","learning","7","7","1","1","bush","plants","2","0","","bad","[-3]"
"html-keyboard-response","86","438697","0.0-9.0-2.0-0.7","4000","2","11","Male","approach_avoid_spark_v1","""event"",""trial"",""time""
""fullscreenenter"",""1"",""3264""
","
","
","""event"",""trial"",""time""
""fullscreenenter"",""1"",""3264""
","
","","","","","","null","<div style=""font-size:60px;"">+</div>","null","","fixation","","","","","","","","","","",""
"aa-learning-trial","87","441705","0.0-9.0-2.0-1.7","4000","2","11","Male","approach_avoid_spark_v1","""event"",""trial"",""time""
""fullscreenenter"",""1"",""3264""
","
","
","""event"",""trial"",""time""
""fullscreenenter"",""1"",""3264""
","
","","","","","","2128.899999999907","images/bush7.png","","","learning","-7","0","0","0","bush","plants","2","0","","bad","[-3]"
"html-keyboard-response","88","442209","0.0-9.0-2.0-0.8","4000","2","11","Male","approach_avoid_spark_v1","""event"",""trial"",""time""
""fullscreenenter"",""1"",""3264""
","
","
","""event"",""trial"",""time""
""fullscreenenter"",""1"",""3264""
","
","","","","","","null","<div style=""font-size:60px;"">+</div>","null","","fixation","","","","","","","","","","",""
"aa-learning-trial","89","445211","0.0-9.0-2.0-1.8","4000","2","11","Male","approach_avoid_spark_v1","""event"",""trial"",""time""
""fullscreenenter"",""1"",""3264""
","
","
","""event"",""trial"",""time""
""fullscreenenter"",""1"",""3264""
","
","","","","","","2585.6999999999534","images/cactus4.png","","","learning","-8","-8","1","1","cactus","plants","2","0","","good","[6]"
"html-keyboard-response","90","445713","0.0-9.0-2.0-0.9","4000","2","11","Male","approach_avoid_spark_v1","""event"",""trial"",""time""
""fullscreenenter"",""1"",""3264""
","
","
","""event"",""trial"",""time""
""fullscreenenter"",""1"",""3264""
","
","","","","","","null","<div style=""font-size:60px;"">+</div>","null","","fixation","","","","","","","","","","",""
"aa-learning-trial","91","448721","0.0-9.0-2.0-1.9","4000","2","11","Male","approach_avoid_spark_v1","""event"",""trial"",""time""
""fullscreenenter"",""1"",""3264""
","
","
","""event"",""trial"",""time""
""fullscreenenter"",""1"",""3264""
","
","","","","","","null","images/tree3.png","","","learning","6","-5","","null","tree","plants","2","0","","neutral","0"
"html-keyboard-response","92","449225","0.0-9.0-2.0-0.10","4000","2","11","Male","approach_avoid_spark_v1","""event"",""trial"",""time""
""fullscreenenter"",""1"",""3264""
","
","
","""event"",""trial"",""time""
""fullscreenenter"",""1"",""3264""
","
","","","","","","null","<div style=""font-size:60px;"">+</div>","null","","fixation","","","","","","","","","","",""
"aa-learning-trial","93","452231","0.0-9.0-2.0-1.10","4000","2","11","Male","approach_avoid_spark_v1","""event"",""trial"",""time""
""fullscreenenter"",""1"",""3264""
","
","
","""event"",""trial"",""time""
""fullscreenenter"",""1"",""3264""
","
","","","","","","1707.1999999999534","images/cactus7.png","","","learning","8","8","1","1","cactus","plants","2","0","","good","[6]"
"html-keyboard-response","94","452737","0.0-9.0-2.0-0.11","4000","2","11","Male","approach_avoid_spark_v1","""event"",""trial"",""time""
""fullscreenenter"",""1"",""3264""
","
","
","""event"",""trial"",""time""
""fullscreenenter"",""1"",""3264""
","
","","","","","","null","<div style=""font-size:60px;"">+</div>","null","","fixation","","","","","","","","","","",""
"aa-learning-trial","95","455745","0.0-9.0-2.0-1.11","4000","2","11","Male","approach_avoid_spark_v1","""event"",""trial"",""time""
""fullscreenenter"",""1"",""3264""
","
","
","""event"",""trial"",""time""
""fullscreenenter"",""1"",""3264""
","
","","","","","","1085.9000000000233","images/tree5.png","","","learning","2","0","0","0","tree","plants","2","0","","neutral","0"
"html-keyboard-response","96","456249","0.0-9.0-2.0-0.12","4000","2","11","Male","approach_avoid_spark_v1","""event"",""trial"",""time""
""fullscreenenter"",""1"",""3264""
","
","
","""event"",""trial"",""time""
""fullscreenenter"",""1"",""3264""
","
","","","","","","null","<div style=""font-size:60px;"">+</div>","null","","fixation","","","","","","","","","","",""
"aa-learning-trial","97","459257","0.0-9.0-2.0-1.12","4000","2","11","Male","approach_avoid_spark_v1","""event"",""trial"",""time""
""fullscreenenter"",""1"",""3264""
","
","
","""event"",""trial"",""time""
""fullscreenenter"",""1"",""3264""
","
","","","","","","1095.6999999999534","images/tree2.png","","","learning","4","4","1","1","tree","plants","2","0","","neutral","0"
"html-keyboard-response","98","459761","0.0-9.0-2.0-0.13","4000","2","11","Male","approach_avoid_spark_v1","""event"",""trial"",""time""
""fullscreenenter"",""1"",""3264""
""fullscreenexit"",""99"",""462022""
","
","
","""event"",""trial"",""time""
""fullscreenenter"",""1"",""3264""
","""event"",""trial"",""time""
""fullscreenexit"",""99"",""462022""
","","","","","","null","<div style=""font-size:60px;"">+</div>","null","","fixation","","","","","","","","","","",""
"aa-learning-trial","99","462769","0.0-9.0-2.0-1.13","4000","2","11","Male","approach_avoid_spark_v1","""event"",""trial"",""time""
""fullscreenenter"",""1"",""3264""
""fullscreenexit"",""99"",""462022""
","
","
","""event"",""trial"",""time""
""fullscreenenter"",""1"",""3264""
","""event"",""trial"",""time""
""fullscreenexit"",""99"",""462022""
","","","","","","1753.1999999999534","images/tree3.png","","","learning","6","6","1","1","tree","plants","2","0","","neutral","0"
"html-keyboard-response","100","463273","0.0-9.0-2.0-0.14","4000","2","11","Male","approach_avoid_spark_v1","""event"",""trial"",""time""
""fullscreenenter"",""1"",""3264""
""fullscreenexit"",""99"",""462022""
","
","
","""event"",""trial"",""time""
""fullscreenenter"",""1"",""3264""
","""event"",""trial"",""time""
""fullscreenexit"",""99"",""462022""
","","","","","","null","<div style=""font-size:60px;"">+</div>","null","","fixation","","","","","","","","","","",""
"aa-learning-trial","101","466281","0.0-9.0-2.0-1.14","4000","2","11","Male","approach_avoid_spark_v1","""event"",""trial"",""time""
""fullscreenenter"",""1"",""3264""
""fullscreenexit"",""99"",""462022""
","
","
","""event"",""trial"",""time""
""fullscreenenter"",""1"",""3264""
","""event"",""trial"",""time""
""fullscreenexit"",""99"",""462022""
","","","","","","1431.5","images/cactus3.png","","","learning","5","5","1","1","cactus","plants","2","0","","good","[6]"
"html-keyboard-response","102","466785","0.0-9.0-2.0-0.15","4000","2","11","Male","approach_avoid_spark_v1","""event"",""trial"",""time""
""fullscreenenter"",""1"",""3264""
""fullscreenexit"",""99"",""462022""
","
","
","""event"",""trial"",""time""
""fullscreenenter"",""1"",""3264""
","""event"",""trial"",""time""
""fullscreenexit"",""99"",""462022""
","","","","","","null","<div style=""font-size:60px;"">+</div>","null","","fixation","","","","","","","","","","",""
"aa-learning-trial","103","469793","0.0-9.0-2.0-1.15","4000","2","11","Male","approach_avoid_spark_v1","""event"",""trial"",""time""
""fullscreenenter"",""1"",""3264""
""fullscreenexit"",""99"",""462022""
","
","
","""event"",""trial"",""time""
""fullscreenenter"",""1"",""3264""
","""event"",""trial"",""time""
""fullscreenexit"",""99"",""462022""
","","","","","","1096.3999999999069","images/bush4.png","","","learning","7","7","1","1","bush","plants","2","0","","bad","[-3]"
"html-keyboard-response","104","470297","0.0-9.0-2.0-0.16","4000","2","11","Male","approach_avoid_spark_v1","""event"",""trial"",""time""
""fullscreenenter"",""1"",""3264""
""fullscreenexit"",""99"",""462022""
","
","
","""event"",""trial"",""time""
""fullscreenenter"",""1"",""3264""
","""event"",""trial"",""time""
""fullscreenexit"",""99"",""462022""
","","","","","","null","<div style=""font-size:60px;"">+</div>","null","","fixation","","","","","","","","","","",""
"aa-learning-trial","105","473305","0.0-9.0-2.0-1.16","4000","2","11","Male","approach_avoid_spark_v1","""event"",""trial"",""time""
""fullscreenenter"",""1"",""3264""
""fullscreenexit"",""99"",""462022""
","
","
","""event"",""trial"",""time""
""fullscreenenter"",""1"",""3264""
","""event"",""trial"",""time""
""fullscreenexit"",""99"",""462022""
","","","","","","887.3000000000466","images/cactus7.png","","","learning","8","8","1","1","cactus","plants","2","0","","good","[6]"
"html-keyboard-response","106","473809","0.0-9.0-2.0-0.17","4000","2","11","Male","approach_avoid_spark_v1","""event"",""trial"",""time""
""fullscreenenter"",""1"",""3264""
""fullscreenexit"",""99"",""462022""
","
","
","""event"",""trial"",""time""
""fullscreenenter"",""1"",""3264""
","""event"",""trial"",""time""
""fullscreenexit"",""99"",""462022""
","","","","","","null","<div style=""font-size:60px;"">+</div>","null","","fixation","","","","","","","","","","",""
"aa-learning-trial","107","476817","0.0-9.0-2.0-1.17","4000","2","11","Male","approach_avoid_spark_v1","""event"",""trial"",""time""
""fullscreenenter"",""1"",""3264""
""fullscreenexit"",""99"",""462022""
","
","
","""event"",""trial"",""time""
""fullscreenenter"",""1"",""3264""
","""event"",""trial"",""time""
""fullscreenexit"",""99"",""462022""
","","","","","","671.8000000000466","images/tree3.png","","","learning","6","6","1","1","tree","plants","2","0","","neutral","0"
"html-keyboard-response","108","477321","0.0-9.0-2.0-0.18","4000","2","11","Male","approach_avoid_spark_v1","""event"",""trial"",""time""
""fullscreenenter"",""1"",""3264""
""fullscreenexit"",""99"",""462022""
","
","
","""event"",""trial"",""time""
""fullscreenenter"",""1"",""3264""
","""event"",""trial"",""time""
""fullscreenexit"",""99"",""462022""
","","","","","","null","<div style=""font-size:60px;"">+</div>","null","","fixation","","","","","","","","","","",""
"aa-learning-trial","109","480329","0.0-9.0-2.0-1.18","4000","2","11","Male","approach_avoid_spark_v1","""event"",""trial"",""time""
""fullscreenenter"",""1"",""3264""
""fullscreenexit"",""99"",""462022""
","
","
","""event"",""trial"",""time""
""fullscreenenter"",""1"",""3264""
","""event"",""trial"",""time""
""fullscreenexit"",""99"",""462022""
","","","","","","1375.7000000000698","images/cactus3.png","","","learning","5","5","1","1","cactus","plants","2","0","","good","[6]"
"html-keyboard-response","110","480833","0.0-9.0-2.0-0.19","4000","2","11","Male","approach_avoid_spark_v1","""event"",""trial"",""time""
""fullscreenenter"",""1"",""3264""
""fullscreenexit"",""99"",""462022""
","
","
","""event"",""trial"",""time""
""fullscreenenter"",""1"",""3264""
","""event"",""trial"",""time""
""fullscreenexit"",""99"",""462022""
","","","","","","null","<div style=""font-size:60px;"">+</div>","null","","fixation","","","","","","","","","","",""
"aa-learning-trial","111","483841","0.0-9.0-2.0-1.19","4000","2","11","Male","approach_avoid_spark_v1","""event"",""trial"",""time""
""fullscreenenter"",""1"",""3264""
""fullscreenexit"",""99"",""462022""
","
","
","""event"",""trial"",""time""
""fullscreenenter"",""1"",""3264""
","""event"",""trial"",""time""
""fullscreenexit"",""99"",""462022""
","","","","","","739.6000000000931","images/cactus7.png","","","learning","8","8","1","1","cactus","plants","2","0","","good","[6]"
"html-keyboard-response","112","484345","0.0-9.0-2.0-0.20","4000","2","11","Male","approach_avoid_spark_v1","""event"",""trial"",""time""
""fullscreenenter"",""1"",""3264""
""fullscreenexit"",""99"",""462022""
","
","
","""event"",""trial"",""time""
""fullscreenenter"",""1"",""3264""
","""event"",""trial"",""time""
""fullscreenexit"",""99"",""462022""
","","","","","","null","<div style=""font-size:60px;"">+</div>","null","","fixation","","","","","","","","","","",""
"aa-learning-trial","113","487348","0.0-9.0-2.0-1.20","4000","2","11","Male","approach_avoid_spark_v1","""event"",""trial"",""time""
""fullscreenenter"",""1"",""3264""
""fullscreenexit"",""99"",""462022""
","
","
","""event"",""trial"",""time""
""fullscreenenter"",""1"",""3264""
","""event"",""trial"",""time""
""fullscreenexit"",""99"",""462022""
","","","","","","1395.6999999999534","images/tree7.png","","","learning","-5","-5","1","1","tree","plants","2","0","","neutral","0"
"html-keyboard-response","114","487857","0.0-9.0-2.0-0.21","4000","2","11","Male","approach_avoid_spark_v1","""event"",""trial"",""time""
""fullscreenenter"",""1"",""3264""
""fullscreenexit"",""99"",""462022""
","
","
","""event"",""trial"",""time""
""fullscreenenter"",""1"",""3264""
","""event"",""trial"",""time""
""fullscreenexit"",""99"",""462022""
","","","","","","null","<div style=""font-size:60px;"">+</div>","null","","fixation","","","","","","","","","","",""
"aa-learning-trial","115","490865","0.0-9.0-2.0-1.21","4000","2","11","Male","approach_avoid_spark_v1","""event"",""trial"",""time""
""fullscreenenter"",""1"",""3264""
""fullscreenexit"",""99"",""462022""
","
","
","""event"",""trial"",""time""
""fullscreenenter"",""1"",""3264""
","""event"",""trial"",""time""
""fullscreenexit"",""99"",""462022""
","","","","","","1316.4000000000233","images/bush2.png","","","learning","-1","0","0","0","bush","plants","2","0","","bad","[-3]"
"html-keyboard-response","116","491369","0.0-9.0-2.0-0.22","4000","2","11","Male","approach_avoid_spark_v1","""event"",""trial"",""time""
""fullscreenenter"",""1"",""3264""
""fullscreenexit"",""99"",""462022""
","
","
","""event"",""trial"",""time""
""fullscreenenter"",""1"",""3264""
","""event"",""trial"",""time""
""fullscreenexit"",""99"",""462022""
","","","","","","null","<div style=""font-size:60px;"">+</div>","null","","fixation","","","","","","","","","","",""
"aa-learning-trial","117","494377","0.0-9.0-2.0-1.22","4000","2","11","Male","approach_avoid_spark_v1","""event"",""trial"",""time""
""fullscreenenter"",""1"",""3264""
""fullscreenexit"",""99"",""462022""
","
","
","""event"",""trial"",""time""
""fullscreenenter"",""1"",""3264""
","""event"",""trial"",""time""
""fullscreenexit"",""99"",""462022""
","","","","","","1413.0999999999767","images/tree3.png","","","learning","6","6","1","1","tree","plants","2","0","","neutral","0"
"html-keyboard-response","118","494881","0.0-9.0-2.0-0.23","4000","2","11","Male","approach_avoid_spark_v1","""event"",""trial"",""time""
""fullscreenenter"",""1"",""3264""
""fullscreenexit"",""99"",""462022""
","
","
","""event"",""trial"",""time""
""fullscreenenter"",""1"",""3264""
","""event"",""trial"",""time""
""fullscreenexit"",""99"",""462022""
","","","","","","null","<div style=""font-size:60px;"">+</div>","null","","fixation","","","","","","","","","","",""
"aa-learning-trial","119","497889","0.0-9.0-2.0-1.23","4000","2","11","Male","approach_avoid_spark_v1","""event"",""trial"",""time""
""fullscreenenter"",""1"",""3264""
""fullscreenexit"",""99"",""462022""
","
","
","""event"",""trial"",""time""
""fullscreenenter"",""1"",""3264""
","""event"",""trial"",""time""
""fullscreenexit"",""99"",""462022""
","","","","","","785.5","images/tree8.png","","","learning","-9","-9","1","1","tree","plants","2","0","","neutral","0"
"html-keyboard-response","120","498393","0.0-9.0-2.0-0.24","4000","2","11","Male","approach_avoid_spark_v1","""event"",""trial"",""time""
""fullscreenenter"",""1"",""3264""
""fullscreenexit"",""99"",""462022""
","
","
","""event"",""trial"",""time""
""fullscreenenter"",""1"",""3264""
","""event"",""trial"",""time""
""fullscreenexit"",""99"",""462022""
","","","","","","null","<div style=""font-size:60px;"">+</div>","null","","fixation","","","","","","","","","","",""
"aa-learning-trial","121","501401","0.0-9.0-2.0-1.24","4000","2","11","Male","approach_avoid_spark_v1","""event"",""trial"",""time""
""fullscreenenter"",""1"",""3264""
""fullscreenexit"",""99"",""462022""
","
","
","""event"",""trial"",""time""
""fullscreenenter"",""1"",""3264""
","""event"",""trial"",""time""
""fullscreenexit"",""99"",""462022""
","","","","","","754.5999999999767","images/cactus7.png","","","learning","8","8","1","1","cactus","plants","2","0","","good","[6]"
"html-keyboard-response","122","501905","0.0-9.0-2.0-0.25","4000","2","11","Male","approach_avoid_spark_v1","""event"",""trial"",""time""
""fullscreenenter"",""1"",""3264""
""fullscreenexit"",""99"",""462022""
","
","
","""event"",""trial"",""time""
""fullscreenenter"",""1"",""3264""
","""event"",""trial"",""time""
""fullscreenexit"",""99"",""462022""
","","","","","","null","<div style=""font-size:60px;"">+</div>","null","","fixation","","","","","","","","","","",""
"aa-learning-trial","123","504913","0.0-9.0-2.0-1.25","4000","2","11","Male","approach_avoid_spark_v1","""event"",""trial"",""time""
""fullscreenenter"",""1"",""3264""
""fullscreenexit"",""99"",""462022""
","
","
","""event"",""trial"",""time""
""fullscreenenter"",""1"",""3264""
","""event"",""trial"",""time""
""fullscreenexit"",""99"",""462022""
","","","","","","1134.2999999999302","images/cactus3.png","","","learning","5","5","1","1","cactus","plants","2","0","","good","[6]"
"html-keyboard-response","124","505417","0.0-9.0-2.0-0.26","4000","2","11","Male","approach_avoid_spark_v1","""event"",""trial"",""time""
""fullscreenenter"",""1"",""3264""
""fullscreenexit"",""99"",""462022""
","
","
","""event"",""trial"",""time""
""fullscreenenter"",""1"",""3264""
","""event"",""trial"",""time""
""fullscreenexit"",""99"",""462022""
","","","","","","null","<div style=""font-size:60px;"">+</div>","null","","fixation","","","","","","","","","","",""
"aa-learning-trial","125","508425","0.0-9.0-2.0-1.26","4000","2","11","Male","approach_avoid_spark_v1","""event"",""trial"",""time""
""fullscreenenter"",""1"",""3264""
""fullscreenexit"",""99"",""462022""
","
","
","""event"",""trial"",""time""
""fullscreenenter"",""1"",""3264""
","""event"",""trial"",""time""
""fullscreenexit"",""99"",""462022""
","","","","","","1687.2000000000698","images/tree2.png","","","learning","4","4","1","1","tree","plants","2","0","","neutral","0"
"html-keyboard-response","126","508929","0.0-9.0-2.0-0.27","4000","2","11","Male","approach_avoid_spark_v1","""event"",""trial"",""time""
""fullscreenenter"",""1"",""3264""
""fullscreenexit"",""99"",""462022""
","
","
","""event"",""trial"",""time""
""fullscreenenter"",""1"",""3264""
","""event"",""trial"",""time""
""fullscreenexit"",""99"",""462022""
","","","","","","null","<div style=""font-size:60px;"">+</div>","null","","fixation","","","","","","","","","","",""
"aa-learning-trial","127","511937","0.0-9.0-2.0-1.27","4000","2","11","Male","approach_avoid_spark_v1","""event"",""trial"",""time""
""fullscreenenter"",""1"",""3264""
""fullscreenexit"",""99"",""462022""
","
","
","""event"",""trial"",""time""
""fullscreenenter"",""1"",""3264""
","""event"",""trial"",""time""
""fullscreenexit"",""99"",""462022""
","","","","","","2067.8000000000466","images/cactus4.png","","","learning","-8","0","0","0","cactus","plants","2","0","","good","[6]"
"html-keyboard-response","128","512441","0.0-9.0-2.0-0.28","4000","2","11","Male","approach_avoid_spark_v1","""event"",""trial"",""time""
""fullscreenenter"",""1"",""3264""
""fullscreenexit"",""99"",""462022""
","
","
","""event"",""trial"",""time""
""fullscreenenter"",""1"",""3264""
","""event"",""trial"",""time""
""fullscreenexit"",""99"",""462022""
","","","","","","null","<div style=""font-size:60px;"">+</div>","null","","fixation","","","","","","","","","","",""
"aa-learning-trial","129","515449","0.0-9.0-2.0-1.28","4000","2","11","Male","approach_avoid_spark_v1","""event"",""trial"",""time""
""fullscreenenter"",""1"",""3264""
""fullscreenexit"",""99"",""462022""
","
","
","""event"",""trial"",""time""
""fullscreenenter"",""1"",""3264""
","""event"",""trial"",""time""
""fullscreenexit"",""99"",""462022""
","","","","","","751.1999999999534","images/cactus3.png","","","learning","5","5","1","1","cactus","plants","2","0","","good","[6]"
"html-keyboard-response","130","515953","0.0-9.0-2.0-0.29","4000","2","11","Male","approach_avoid_spark_v1","""event"",""trial"",""time""
""fullscreenenter"",""1"",""3264""
""fullscreenexit"",""99"",""462022""
","
","
","""event"",""trial"",""time""
""fullscreenenter"",""1"",""3264""
","""event"",""trial"",""time""
""fullscreenexit"",""99"",""462022""
","","","","","","null","<div style=""font-size:60px;"">+</div>","null","","fixation","","","","","","","","","","",""
"aa-learning-trial","131","518961","0.0-9.0-2.0-1.29","4000","2","11","Male","approach_avoid_spark_v1","""event"",""trial"",""time""
""fullscreenenter"",""1"",""3264""
""fullscreenexit"",""99"",""462022""
","
","
","""event"",""trial"",""time""
""fullscreenenter"",""1"",""3264""
","""event"",""trial"",""time""
""fullscreenexit"",""99"",""462022""
","","","","","","1767.4000000000233","images/tree5.png","","","learning","2","2","1","1","tree","plants","2","0","","neutral","0"
"html-keyboard-response","132","519465","0.0-9.0-2.0-0.30","4000","2","11","Male","approach_avoid_spark_v1","""event"",""trial"",""time""
""fullscreenenter"",""1"",""3264""
""fullscreenexit"",""99"",""462022""
","
","
","""event"",""trial"",""time""
""fullscreenenter"",""1"",""3264""
","""event"",""trial"",""time""
""fullscreenexit"",""99"",""462022""
","","","","","","null","<div style=""font-size:60px;"">+</div>","null","","fixation","","","","","","","","","","",""
"aa-learning-trial","133","522473","0.0-9.0-2.0-1.30","4000","2","11","Male","approach_avoid_spark_v1","""event"",""trial"",""time""
""fullscreenenter"",""1"",""3264""
""fullscreenexit"",""99"",""462022""
","
","
","""event"",""trial"",""time""
""fullscreenenter"",""1"",""3264""
","""event"",""trial"",""time""
""fullscreenexit"",""99"",""462022""
","","","","","","1103.1999999999534","images/tree2.png","","","learning","4","4","1","1","tree","plants","2","0","","neutral","0"
"html-keyboard-response","134","522977","0.0-9.0-2.0-0.31","4000","2","11","Male","approach_avoid_spark_v1","""event"",""trial"",""time""
""fullscreenenter"",""1"",""3264""
""fullscreenexit"",""99"",""462022""
","
","
","""event"",""trial"",""time""
""fullscreenenter"",""1"",""3264""
","""event"",""trial"",""time""
""fullscreenexit"",""99"",""462022""
","","","","","","null","<div style=""font-size:60px;"">+</div>","null","","fixation","","","","","","","","","","",""
"aa-learning-trial","135","525985","0.0-9.0-2.0-1.31","4000","2","11","Male","approach_avoid_spark_v1","""event"",""trial"",""time""
""fullscreenenter"",""1"",""3264""
""fullscreenexit"",""99"",""462022""
","
","
","""event"",""trial"",""time""
""fullscreenenter"",""1"",""3264""
","""event"",""trial"",""time""
""fullscreenexit"",""99"",""462022""
","","","","","","1013.8000000000466","images/bush4.png","","","learning","7","7","1","1","bush","plants","2","0","","bad","[-3]"
"html-keyboard-response","136","526489","0.0-9.0-2.0-0.32","4000","2","11","Male","approach_avoid_spark_v1","""event"",""trial"",""time""
""fullscreenenter"",""1"",""3264""
""fullscreenexit"",""99"",""462022""
","
","
","""event"",""trial"",""time""
""fullscreenenter"",""1"",""3264""
","""event"",""trial"",""time""
""fullscreenexit"",""99"",""462022""
","","","","","","null","<div style=""font-size:60px;"">+</div>","null","","fixation","","","","","","","","","","",""
"aa-learning-trial","137","529497","0.0-9.0-2.0-1.32","4000","2","11","Male","approach_avoid_spark_v1","""event"",""trial"",""time""
""fullscreenenter"",""1"",""3264""
""fullscreenexit"",""99"",""462022""
","
","
","""event"",""trial"",""time""
""fullscreenenter"",""1"",""3264""
","""event"",""trial"",""time""
""fullscreenexit"",""99"",""462022""
","","","","","","1511.7000000000698","images/cactus2.png","","","learning","-2","0","0","0","cactus","plants","2","0","","good","[6]"
"html-keyboard-response","138","530001","0.0-9.0-2.0-0.33","4000","2","11","Male","approach_avoid_spark_v1","""event"",""trial"",""time""
""fullscreenenter"",""1"",""3264""
""fullscreenexit"",""99"",""462022""
","
","
","""event"",""trial"",""time""
""fullscreenenter"",""1"",""3264""
","""event"",""trial"",""time""
""fullscreenexit"",""99"",""462022""
","","","","","","null","<div style=""font-size:60px;"">+</div>","null","","fixation","","","","","","","","","","",""
"aa-learning-trial","139","533009","0.0-9.0-2.0-1.33","4000","2","11","Male","approach_avoid_spark_v1","""event"",""trial"",""time""
""fullscreenenter"",""1"",""3264""
""fullscreenexit"",""99"",""462022""
","
","
","""event"",""trial"",""time""
""fullscreenenter"",""1"",""3264""
","""event"",""trial"",""time""
""fullscreenexit"",""99"",""462022""
","","","","","","1463.5","images/tree3.png","","","learning","6","6","1","1","tree","plants","2","0","","neutral","0"
"html-keyboard-response","140","533513","0.0-9.0-2.0-0.34","4000","2","11","Male","approach_avoid_spark_v1","""event"",""trial"",""time""
""fullscreenenter"",""1"",""3264""
""fullscreenexit"",""99"",""462022""
","
","
","""event"",""trial"",""time""
""fullscreenenter"",""1"",""3264""
","""event"",""trial"",""time""
""fullscreenexit"",""99"",""462022""
","","","","","","null","<div style=""font-size:60px;"">+</div>","null","","fixation","","","","","","","","","","",""
"aa-learning-trial","141","536521","0.0-9.0-2.0-1.34","4000","2","11","Male","approach_avoid_spark_v1","""event"",""trial"",""time""
""fullscreenenter"",""1"",""3264""
""fullscreenexit"",""99"",""462022""
","
","
","""event"",""trial"",""time""
""fullscreenenter"",""1"",""3264""
","""event"",""trial"",""time""
""fullscreenexit"",""99"",""462022""
","","","","","","925.3999999999069","images/bush4.png","","","learning","7","7","1","1","bush","plants","2","0","","bad","[-3]"
"html-keyboard-response","142","537025","0.0-9.0-2.0-0.35","4000","2","11","Male","approach_avoid_spark_v1","""event"",""trial"",""time""
""fullscreenenter"",""1"",""3264""
""fullscreenexit"",""99"",""462022""
","
","
","""event"",""trial"",""time""
""fullscreenenter"",""1"",""3264""
","""event"",""trial"",""time""
""fullscreenexit"",""99"",""462022""
","","","","","","null","<div style=""font-size:60px;"">+</div>","null","","fixation","","","","","","","","","","",""
"aa-learning-trial","143","540033","0.0-9.0-2.0-1.35","4000","2","11","Male","approach_avoid_spark_v1","""event"",""trial"",""time""
""fullscreenenter"",""1"",""3264""
""fullscreenexit"",""99"",""462022""
","
","
","""event"",""trial"",""time""
""fullscreenenter"",""1"",""3264""
","""event"",""trial"",""time""
""fullscreenexit"",""99"",""462022""
","","","","","","1278.6999999999534","images/cactus8.png","","","learning","-3","0","0","0","cactus","plants","2","0","","good","[6]"
"html-keyboard-response","144","540537","0.0-9.0-2.0-0.36","4000","2","11","Male","approach_avoid_spark_v1","""event"",""trial"",""time""
""fullscreenenter"",""1"",""3264""
""fullscreenexit"",""99"",""462022""
","
","
","""event"",""trial"",""time""
""fullscreenenter"",""1"",""3264""
","""event"",""trial"",""time""
""fullscreenexit"",""99"",""462022""
","","","","","","null","<div style=""font-size:60px;"">+</div>","null","","fixation","","","","","","","","","","",""
"aa-learning-trial","145","543545","0.0-9.0-2.0-1.36","4000","2","11","Male","approach_avoid_spark_v1","""event"",""trial"",""time""
""fullscreenenter"",""1"",""3264""
""fullscreenexit"",""99"",""462022""
","
","
","""event"",""trial"",""time""
""fullscreenenter"",""1"",""3264""
","""event"",""trial"",""time""
""fullscreenexit"",""99"",""462022""
","","","","","","1187.6999999999534","images/tree3.png","","","learning","6","6","1","1","tree","plants","2","0","","neutral","0"
"html-keyboard-response","146","544049","0.0-9.0-2.0-0.37","4000","2","11","Male","approach_avoid_spark_v1","""event"",""trial"",""time""
""fullscreenenter"",""1"",""3264""
""fullscreenexit"",""99"",""462022""
","
","
","""event"",""trial"",""time""
""fullscreenenter"",""1"",""3264""
","""event"",""trial"",""time""
""fullscreenexit"",""99"",""462022""
","","","","","","null","<div style=""font-size:60px;"">+</div>","null","","fixation","","","","","","","","","","",""
"aa-learning-trial","147","547057","0.0-9.0-2.0-1.37","4000","2","11","Male","approach_avoid_spark_v1","""event"",""trial"",""time""
""fullscreenenter"",""1"",""3264""
""fullscreenexit"",""99"",""462022""
","
","
","""event"",""trial"",""time""
""fullscreenenter"",""1"",""3264""
","""event"",""trial"",""time""
""fullscreenexit"",""99"",""462022""
","","","","","","810.1999999999534","images/cactus7.png","","","learning","8","8","1","1","cactus","plants","2","0","","good","[6]"
"html-keyboard-response","148","547561","0.0-9.0-2.0-0.38","4000","2","11","Male","approach_avoid_spark_v1","""event"",""trial"",""time""
""fullscreenenter"",""1"",""3264""
""fullscreenexit"",""99"",""462022""
","
","
","""event"",""trial"",""time""
""fullscreenenter"",""1"",""3264""
","""event"",""trial"",""time""
""fullscreenexit"",""99"",""462022""
","","","","","","null","<div style=""font-size:60px;"">+</div>","null","","fixation","","","","","","","","","","",""
"aa-learning-trial","149","550569","0.0-9.0-2.0-1.38","4000","2","11","Male","approach_avoid_spark_v1","""event"",""trial"",""time""
""fullscreenenter"",""1"",""3264""
""fullscreenexit"",""99"",""462022""
","
","
","""event"",""trial"",""time""
""fullscreenenter"",""1"",""3264""
","""event"",""trial"",""time""
""fullscreenexit"",""99"",""462022""
","","","","","","948.2000000000698","images/cactus4.png","","","learning","-8","0","0","0","cactus","plants","2","0","","good","[6]"
"html-keyboard-response","150","551073","0.0-9.0-2.0-0.39","4000","2","11","Male","approach_avoid_spark_v1","""event"",""trial"",""time""
""fullscreenenter"",""1"",""3264""
""fullscreenexit"",""99"",""462022""
","
","
","""event"",""trial"",""time""
""fullscreenenter"",""1"",""3264""
","""event"",""trial"",""time""
""fullscreenexit"",""99"",""462022""
","","","","","","null","<div style=""font-size:60px;"">+</div>","null","","fixation","","","","","","","","","","",""
"aa-learning-trial","151","554081","0.0-9.0-2.0-1.39","4000","2","11","Male","approach_avoid_spark_v1","""event"",""trial"",""time""
""fullscreenenter"",""1"",""3264""
""fullscreenexit"",""99"",""462022""
","
","
","""event"",""trial"",""time""
""fullscreenenter"",""1"",""3264""
","""event"",""trial"",""time""
""fullscreenexit"",""99"",""462022""
","","","","","","1687.4000000000233","images/bush1.png","","","learning","3","3","1","1","bush","plants","2","0","","bad","[-3]"
"html-keyboard-response","152","554585","0.0-9.0-2.0-0.40","4000","2","11","Male","approach_avoid_spark_v1","""event"",""trial"",""time""
""fullscreenenter"",""1"",""3264""
""fullscreenexit"",""99"",""462022""
","
","
","""event"",""trial"",""time""
""fullscreenenter"",""1"",""3264""
","""event"",""trial"",""time""
""fullscreenexit"",""99"",""462022""
","","","","","","null","<div style=""font-size:60px;"">+</div>","null","","fixation","","","","","","","","","","",""
"aa-learning-trial","153","557593","0.0-9.0-2.0-1.40","4000","2","11","Male","approach_avoid_spark_v1","""event"",""trial"",""time""
""fullscreenenter"",""1"",""3264""
""fullscreenexit"",""99"",""462022""
","
","
","""event"",""trial"",""time""
""fullscreenenter"",""1"",""3264""
","""event"",""trial"",""time""
""fullscreenexit"",""99"",""462022""
","","","","","","1004.5","images/bush6.png","","","learning","-4","0","0","0","bush","plants","2","0","","bad","[-3]"
"html-keyboard-response","154","558097","0.0-9.0-2.0-0.41","4000","2","11","Male","approach_avoid_spark_v1","""event"",""trial"",""time""
""fullscreenenter"",""1"",""3264""
""fullscreenexit"",""99"",""462022""
","
","
","""event"",""trial"",""time""
""fullscreenenter"",""1"",""3264""
","""event"",""trial"",""time""
""fullscreenexit"",""99"",""462022""
","","","","","","null","<div style=""font-size:60px;"">+</div>","null","","fixation","","","","","","","","","","",""
"aa-learning-trial","155","561100","0.0-9.0-2.0-1.41","4000","2","11","Male","approach_avoid_spark_v1","""event"",""trial"",""time""
""fullscreenenter"",""1"",""3264""
""fullscreenexit"",""99"",""462022""
","
","
","""event"",""trial"",""time""
""fullscreenenter"",""1"",""3264""
","""event"",""trial"",""time""
""fullscreenexit"",""99"",""462022""
","","","","","","1404.8000000000466","images/bush7.png","","","learning","-7","-7","1","1","bush","plants","2","0","","bad","[-3]"
"html-keyboard-response","156","561609","0.0-9.0-2.0-0.42","4000","2","11","Male","approach_avoid_spark_v1","""event"",""trial"",""time""
""fullscreenenter"",""1"",""3264""
""fullscreenexit"",""99"",""462022""
","
","
","""event"",""trial"",""time""
""fullscreenenter"",""1"",""3264""
","""event"",""trial"",""time""
""fullscreenexit"",""99"",""462022""
","","","","","","null","<div style=""font-size:60px;"">+</div>","null","","fixation","","","","","","","","","","",""
"aa-learning-trial","157","564617","0.0-9.0-2.0-1.42","4000","2","11","Male","approach_avoid_spark_v1","""event"",""trial"",""time""
""fullscreenenter"",""1"",""3264""
""fullscreenexit"",""99"",""462022""
","
","
","""event"",""trial"",""time""
""fullscreenenter"",""1"",""3264""
","""event"",""trial"",""time""
""fullscreenexit"",""99"",""462022""
","","","","","","723.1999999999534","images/tree2.png","","","learning","4","4","1","1","tree","plants","2","0","","neutral","0"
"html-keyboard-response","158","565121","0.0-9.0-2.0-0.43","4000","2","11","Male","approach_avoid_spark_v1","""event"",""trial"",""time""
""fullscreenenter"",""1"",""3264""
""fullscreenexit"",""99"",""462022""
","
","
","""event"",""trial"",""time""
""fullscreenenter"",""1"",""3264""
","""event"",""trial"",""time""
""fullscreenexit"",""99"",""462022""
","","","","","","null","<div style=""font-size:60px;"">+</div>","null","","fixation","","","","","","","","","","",""
"aa-learning-trial","159","568129","0.0-9.0-2.0-1.43","4000","2","11","Male","approach_avoid_spark_v1","""event"",""trial"",""time""
""fullscreenenter"",""1"",""3264""
""fullscreenexit"",""99"",""462022""
","
","
","""event"",""trial"",""time""
""fullscreenenter"",""1"",""3264""
","""event"",""trial"",""time""
""fullscreenexit"",""99"",""462022""
","","","","","","1077.5999999999767","images/tree2.png","","","learning","4","4","1","1","tree","plants","2","0","","neutral","0"
"html-keyboard-response","160","568633","0.0-9.0-2.0-0.44","4000","2","11","Male","approach_avoid_spark_v1","""event"",""trial"",""time""
""fullscreenenter"",""1"",""3264""
""fullscreenexit"",""99"",""462022""
","
","
","""event"",""trial"",""time""
""fullscreenenter"",""1"",""3264""
","""event"",""trial"",""time""
""fullscreenexit"",""99"",""462022""
","","","","","","null","<div style=""font-size:60px;"">+</div>","null","","fixation","","","","","","","","","","",""
"aa-learning-trial","161","571641","0.0-9.0-2.0-1.44","4000","2","11","Male","approach_avoid_spark_v1","""event"",""trial"",""time""
""fullscreenenter"",""1"",""3264""
""fullscreenexit"",""99"",""462022""
","
","
","""event"",""trial"",""time""
""fullscreenenter"",""1"",""3264""
","""event"",""trial"",""time""
""fullscreenexit"",""99"",""462022""
","","","","","","1507.7000000000698","images/bush7.png","","","learning","-7","0","0","0","bush","plants","2","0","","bad","[-3]"
"html-keyboard-response","162","572145","0.0-9.0-2.0-0.45","4000","2","11","Male","approach_avoid_spark_v1","""event"",""trial"",""time""
""fullscreenenter"",""1"",""3264""
""fullscreenexit"",""99"",""462022""
","
","
","""event"",""trial"",""time""
""fullscreenenter"",""1"",""3264""
","""event"",""trial"",""time""
""fullscreenexit"",""99"",""462022""
","","","","","","null","<div style=""font-size:60px;"">+</div>","null","","fixation","","","","","","","","","","",""
"aa-learning-trial","163","575153","0.0-9.0-2.0-1.45","4000","2","11","Male","approach_avoid_spark_v1","""event"",""trial"",""time""
""fullscreenenter"",""1"",""3264""
""fullscreenexit"",""99"",""462022""
","
","
","""event"",""trial"",""time""
""fullscreenenter"",""1"",""3264""
","""event"",""trial"",""time""
""fullscreenexit"",""99"",""462022""
","","","","","","1517.4000000000233","images/bush7.png","","","learning","-7","0","0","0","bush","plants","2","0","","bad","[-3]"
"html-keyboard-response","164","575657","0.0-9.0-2.0-0.46","4000","2","11","Male","approach_avoid_spark_v1","""event"",""trial"",""time""
""fullscreenenter"",""1"",""3264""
""fullscreenexit"",""99"",""462022""
","
","
","""event"",""trial"",""time""
""fullscreenenter"",""1"",""3264""
","""event"",""trial"",""time""
""fullscreenexit"",""99"",""462022""
","","","","","","null","<div style=""font-size:60px;"">+</div>","null","","fixation","","","","","","","","","","",""
"aa-learning-trial","165","578665","0.0-9.0-2.0-1.46","4000","2","11","Male","approach_avoid_spark_v1","""event"",""trial"",""time""
""fullscreenenter"",""1"",""3264""
""fullscreenexit"",""99"",""462022""
","
","
","""event"",""trial"",""time""
""fullscreenenter"",""1"",""3264""
","""event"",""trial"",""time""
""fullscreenexit"",""99"",""462022""
","","","","","","1319.5999999999767","images/bush6.png","","","learning","-4","0","0","0","bush","plants","2","0","","bad","[-3]"
"html-keyboard-response","166","579169","0.0-9.0-2.0-0.47","4000","2","11","Male","approach_avoid_spark_v1","""event"",""trial"",""time""
""fullscreenenter"",""1"",""3264""
""fullscreenexit"",""99"",""462022""
","
","
","""event"",""trial"",""time""
""fullscreenenter"",""1"",""3264""
","""event"",""trial"",""time""
""fullscreenexit"",""99"",""462022""
","","","","","","null","<div style=""font-size:60px;"">+</div>","null","","fixation","","","","","","","","","","",""
"aa-learning-trial","167","582177","0.0-9.0-2.0-1.47","4000","2","11","Male","approach_avoid_spark_v1","""event"",""trial"",""time""
""fullscreenenter"",""1"",""3264""
""fullscreenexit"",""99"",""462022""
","
","
","""event"",""trial"",""time""
""fullscreenenter"",""1"",""3264""
","""event"",""trial"",""time""
""fullscreenexit"",""99"",""462022""
","","","","","","723.6999999999534","images/bush4.png","","","learning","7","7","1","1","bush","plants","2","0","","bad","[-3]"
"html-keyboard-response","168","582681","0.0-9.0-2.0-0.48","4000","2","11","Male","approach_avoid_spark_v1","""event"",""trial"",""time""
""fullscreenenter"",""1"",""3264""
""fullscreenexit"",""99"",""462022""
","
","
","""event"",""trial"",""time""
""fullscreenenter"",""1"",""3264""
","""event"",""trial"",""time""
""fullscreenexit"",""99"",""462022""
","","","","","","null","<div style=""font-size:60px;"">+</div>","null","","fixation","","","","","","","","","","",""
"aa-learning-trial","169","585689","0.0-9.0-2.0-1.48","4000","2","11","Male","approach_avoid_spark_v1","""event"",""trial"",""time""
""fullscreenenter"",""1"",""3264""
""fullscreenexit"",""99"",""462022""
","
","
","""event"",""trial"",""time""
""fullscreenenter"",""1"",""3264""
","""event"",""trial"",""time""
""fullscreenexit"",""99"",""462022""
","","","","","","2546.70000000007","images/tree5.png","","","learning","2","2","1","1","tree","plants","2","0","","neutral","0"
"html-keyboard-response","170","586193","0.0-9.0-2.0-0.49","4000","2","11","Male","approach_avoid_spark_v1","""event"",""trial"",""time""
""fullscreenenter"",""1"",""3264""
""fullscreenexit"",""99"",""462022""
","
","
","""event"",""trial"",""time""
""fullscreenenter"",""1"",""3264""
","""event"",""trial"",""time""
""fullscreenexit"",""99"",""462022""
","","","","","","null","<div style=""font-size:60px;"">+</div>","null","","fixation","","","","","","","","","","",""
"aa-learning-trial","171","589201","0.0-9.0-2.0-1.49","4000","2","11","Male","approach_avoid_spark_v1","""event"",""trial"",""time""
""fullscreenenter"",""1"",""3264""
""fullscreenexit"",""99"",""462022""
","
","
","""event"",""trial"",""time""
""fullscreenenter"",""1"",""3264""
","""event"",""trial"",""time""
""fullscreenexit"",""99"",""462022""
","","","","","","null","images/cactus3.png","","","learning","5","-5","","null","cactus","plants","2","0","","good","[6]"
"html-keyboard-response","172","589705","0.0-9.0-2.0-0.50","4000","2","11","Male","approach_avoid_spark_v1","""event"",""trial"",""time""
""fullscreenenter"",""1"",""3264""
""fullscreenexit"",""99"",""462022""
","
","
","""event"",""trial"",""time""
""fullscreenenter"",""1"",""3264""
","""event"",""trial"",""time""
""fullscreenexit"",""99"",""462022""
","","","","","","null","<div style=""font-size:60px;"">+</div>","null","","fixation","","","","","","","","","","",""
"aa-learning-trial","173","592713","0.0-9.0-2.0-1.50","4000","2","11","Male","approach_avoid_spark_v1","""event"",""trial"",""time""
""fullscreenenter"",""1"",""3264""
""fullscreenexit"",""99"",""462022""
","
","
","""event"",""trial"",""time""
""fullscreenenter"",""1"",""3264""
","""event"",""trial"",""time""
""fullscreenexit"",""99"",""462022""
","","","","","","799.6999999999534","images/bush7.png","","","learning","-7","-7","1","1","bush","plants","2","0","","bad","[-3]"
"html-button-response","174","595389","0.0-9.0-3.0","4000","2","11","Male","approach_avoid_spark_v1","""event"",""trial"",""time""
""fullscreenenter"",""1"",""3264""
""fullscreenexit"",""99"",""462022""
","
","
","""event"",""trial"",""time""
""fullscreenenter"",""1"",""3264""
","""event"",""trial"",""time""
""fullscreenexit"",""99"",""462022""
","","","","","","2673.6999999999534","<p> You have completed the round! <p> In this round, you earned 115 points! </p>","0","","break","","","","","","","","","","",""
"html-button-response","175","596993","0.0-10.0","4000","2","11","Male","approach_avoid_spark_v1","""event"",""trial"",""time""
""fullscreenenter"",""1"",""3264""
""fullscreenexit"",""99"",""462022""
","
","
","""event"",""trial"",""time""
""fullscreenenter"",""1"",""3264""
","""event"",""trial"",""time""
""fullscreenexit"",""99"",""462022""
","","","","","","1602.0999999999767","<p> Now it's time to play another round. </p>","0","","transition_screen","","","","","","","","","","",""
"preload","176","597119","0.0-11.0-0.0","4000","2","11","Male","approach_avoid_spark_v1","""event"",""trial"",""time""
""fullscreenenter"",""1"",""3264""
""fullscreenexit"",""99"",""462022""
","
","
","""event"",""trial"",""time""
""fullscreenenter"",""1"",""3264""
","""event"",""trial"",""time""
""fullscreenexit"",""99"",""462022""
","true","false","[]","[]","[]","","","","","","","","","","","","","","","",""
"learning-instructions","177","603550","0.0-11.0-1.0-0.0","4000","2","11","Male","approach_avoid_spark_v1","""event"",""trial"",""time""
""fullscreenenter"",""1"",""3264""
""fullscreenexit"",""99"",""462022""
","
","
","""event"",""trial"",""time""
""fullscreenenter"",""1"",""3264""
","""event"",""trial"",""time""
""fullscreenexit"",""99"",""462022""
","","","","","","1073.1999999999534","<p> Your goal in this round is to take care of lots of farm animals. </p></div>","","0","instructions","","","","","","","","","","",""
"learning-instructions","178","614293","0.0-11.0-1.0-0.1","4000","2","11","Male","approach_avoid_spark_v1","""event"",""trial"",""time""
""fullscreenenter"",""1"",""3264""
""fullscreenexit"",""99"",""462022""
","
","
","""event"",""trial"",""time""
""fullscreenenter"",""1"",""3264""
","""event"",""trial"",""time""
""fullscreenexit"",""99"",""462022""
","","","","","","418.4000000000233","<p> Some farm animals are hungry, while other farm animals are already full.  </p><p> On each turn, you will see a farm animal.   </p><p> You need to decide whether to feed it or not.  </p>","","0","instructions","","","","","","","","","","",""
"learning-instructions","179","620591","0.0-11.0-1.0-0.2","4000","2","11","Male","approach_avoid_spark_v1","""event"",""trial"",""time""
""fullscreenenter"",""1"",""3264""
""fullscreenexit"",""99"",""462022""
","
","
","""event"",""trial"",""time""
""fullscreenenter"",""1"",""3264""
","""event"",""trial"",""time""
""fullscreenexit"",""99"",""462022""
","","","","","","163.80000000004657","<p> You can feed the farm animal by pressing 1 and leave the farm animal alone by pressing 0. </p><br><div class=""choice-instructions-grid""> <div class=""choice-option""><img src=""images/approach.png"" class=""choice-option-img"" stage=""instructions"" position=""0"" ><div class=""choice-option-text""> Press ""1."" </div></div><div class=""choice-option""><img src=""images/avoid.png"" class=""choice-option-img"" stage=""instructions"" position=""1"" ><div class=""choice-option-text""> Press ""0."" </div></div>","","0","instructions","","","","","","","","","","",""
"learning-instructions","180","630828","0.0-11.0-1.0-0.3","4000","2","11","Male","approach_avoid_spark_v1","""event"",""trial"",""time""
""fullscreenenter"",""1"",""3264""
""fullscreenexit"",""99"",""462022""
","
","
","""event"",""trial"",""time""
""fullscreenenter"",""1"",""3264""
","""event"",""trial"",""time""
""fullscreenexit"",""99"",""462022""
","","","","","","336.69999999995343","<p> If you feed a hungry farm animal, you will make it feel satisfied! </p><p> But if you feed the farm animal and it was already full, you will make it feel sick. </p>","","0","instructions","","","","","","","","","","",""
"learning-instructions","181","643415","0.0-11.0-1.0-0.4","4000","2","11","Male","approach_avoid_spark_v1","""event"",""trial"",""time""
""fullscreenenter"",""1"",""3264""
""fullscreenexit"",""99"",""462022""
","
","
","""event"",""trial"",""time""
""fullscreenenter"",""1"",""3264""
","""event"",""trial"",""time""
""fullscreenexit"",""99"",""462022""
","","","","","","11","<p> You will earn points based on how you made the farm animal feel. </p><p> If you made it satisfied, you will WIN anywhere from 1 - 9 points, </p><p> but if you made it sick, you will LOSE anywhere from 1 - 9 points. </p>","","0","instructions","","","","","","","","","","",""
"learning-instructions","182","650255","0.0-11.0-1.0-0.5","4000","2","11","Male","approach_avoid_spark_v1","""event"",""trial"",""time""
""fullscreenenter"",""1"",""3264""
""fullscreenexit"",""99"",""462022""
","
","
","""event"",""trial"",""time""
""fullscreenenter"",""1"",""3264""
","""event"",""trial"",""time""
""fullscreenexit"",""99"",""462022""
","","","","","","181.09999999997672","<p> You will see how many points you won or lost in the center of the screen. </p><p> Here is what you would see if you won 5 points: </p><p style=""color:green;font-size:50px;font-weight:bolder"">5</p>","","0","instructions","","","","","","","","","","",""
"learning-instructions","183","653179","0.0-11.0-1.0-0.6","4000","2","11","Male","approach_avoid_spark_v1","""event"",""trial"",""time""
""fullscreenenter"",""1"",""3264""
""fullscreenexit"",""99"",""462022""
","
","
","""event"",""trial"",""time""
""fullscreenenter"",""1"",""3264""
","""event"",""trial"",""time""
""fullscreenexit"",""99"",""462022""
","","","","","","84","<p> And here is what you would see if you lost 3 points: </p><p style=""color:red;font-size:50px;font-weight:bolder"">-3</p>","","0","instructions","","","","","","","","","","",""
"learning-instructions","184","669123","0.0-11.0-1.0-0.7","4000","2","11","Male","approach_avoid_spark_v1","""event"",""trial"",""time""
""fullscreenenter"",""1"",""3264""
""fullscreenexit"",""99"",""462022""
","
","
","""event"",""trial"",""time""
""fullscreenenter"",""1"",""3264""
","""event"",""trial"",""time""
""fullscreenexit"",""99"",""462022""
","","","","","","148","<p> Some farm animals will become very satisfied or very sick. </p><p> These farm animals will make you win or lose LOTS of points. </p><p> Other farm animals have less strong feelings. </p><p> These farm animals will make you win or lose small amounts of points. </p>","","0","instructions","","","","","","","","","","",""
"learning-instructions","185","682016","0.0-11.0-1.0-0.8","4000","2","11","Male","approach_avoid_spark_v1","""event"",""trial"",""time""
""fullscreenenter"",""1"",""3264""
""fullscreenexit"",""99"",""462022""
","
","
","""event"",""trial"",""time""
""fullscreenenter"",""1"",""3264""
","""event"",""trial"",""time""
""fullscreenexit"",""99"",""462022""
","","","","","","480.9000000000233","<p> If you choose to leave the farm animal alone, you will not win or lose any points. </p><p>  However, in the center of the screen, you will see the number of points you WOULD HAVE won or lost if you had fed the farm animal. </p>","","0","instructions","","","","","","","","","","",""
"learning-instructions","186","693797","0.0-11.0-1.0-0.9","4000","2","11","Male","approach_avoid_spark_v1","""event"",""trial"",""time""
""fullscreenenter"",""1"",""3264""
""fullscreenexit"",""99"",""462022""
","
","
","""event"",""trial"",""time""
""fullscreenenter"",""1"",""3264""
","""event"",""trial"",""time""
""fullscreenexit"",""99"",""462022""
","","","","","","106","<p> Here is what you might see if you did not feed the farm animal but the animal was hungry: </p><p style=""color:grey; font-size:50px; display: inline-block; border-spacing: 15px; border-width:3px; border-style:solid; border-color:red"">  &nbsp; 6 &nbsp; </p><p> Remember, in this case, you would not win or lose ANY points because you did not feed the farm animal.  </p>","","0","instructions","","","","","","","","","","",""
"learning-instructions","187","702447","0.0-11.0-1.0-0.10","4000","2","11","Male","approach_avoid_spark_v1","""event"",""trial"",""time""
""fullscreenenter"",""1"",""3264""
""fullscreenexit"",""99"",""462022""
","
","
","""event"",""trial"",""time""
""fullscreenenter"",""1"",""3264""
","""event"",""trial"",""time""
""fullscreenexit"",""99"",""462022""
","","","","","","495.79999999993015","<p> Try to make the best choice for each farm animal because </p><p> at the end of the game, you will earn bonus money based on how many points you earned. </p>","","0","instructions","","","","","","","","","","",""
"learning-instructions","188","711284","0.0-11.0-1.0-0.11","4000","2","11","Male","approach_avoid_spark_v1","""event"",""trial"",""time""
""fullscreenenter"",""1"",""3264""
""fullscreenexit"",""99"",""462022""
","
","
","""event"",""trial"",""time""
""fullscreenenter"",""1"",""3264""
","""event"",""trial"",""time""
""fullscreenexit"",""99"",""462022""
","","","","","","646.9000000000233","<p> You will have 3 seconds to make each choice. Try to respond before time runs out! </p><p> You will lose 5 points each time you do not make a response. </p>","","0","instructions","","","","","","","","","","",""
"html-keyboard-response","189","711889","0.0-11.0-2.0-0.0","4000","2","11","Male","approach_avoid_spark_v1","""event"",""trial"",""time""
""fullscreenenter"",""1"",""3264""
""fullscreenexit"",""99"",""462022""
","
","
","""event"",""trial"",""time""
""fullscreenenter"",""1"",""3264""
","""event"",""trial"",""time""
""fullscreenexit"",""99"",""462022""
","","","","","","null","<div style=""font-size:60px;"">+</div>","null","","fixation","","","","","","","","","","",""
"aa-learning-trial","190","714897","0.0-11.0-2.0-1.0","4000","2","11","Male","approach_avoid_spark_v1","""event"",""trial"",""time""
""fullscreenenter"",""1"",""3264""
""fullscreenexit"",""99"",""462022""
","
","
","""event"",""trial"",""time""
""fullscreenenter"",""1"",""3264""
","""event"",""trial"",""time""
""fullscreenexit"",""99"",""462022""
","","","","","","1763.9000000000233","images/cow3.png","","","learning","4","0","0","0","cow","animals","1","1","","good","[3]"
"html-keyboard-response","191","715401","0.0-11.0-2.0-0.1","4000","2","11","Male","approach_avoid_spark_v1","""event"",""trial"",""time""
""fullscreenenter"",""1"",""3264""
""fullscreenexit"",""99"",""462022""
","
","
","""event"",""trial"",""time""
""fullscreenenter"",""1"",""3264""
","""event"",""trial"",""time""
""fullscreenexit"",""99"",""462022""
","","","","","","null","<div style=""font-size:60px;"">+</div>","null","","fixation","","","","","","","","","","",""
"aa-learning-trial","192","718409","0.0-11.0-2.0-1.1","4000","2","11","Male","approach_avoid_spark_v1","""event"",""trial"",""time""
""fullscreenenter"",""1"",""3264""
""fullscreenexit"",""99"",""462022""
","
","
","""event"",""trial"",""time""
""fullscreenenter"",""1"",""3264""
","""event"",""trial"",""time""
""fullscreenexit"",""99"",""462022""
","","","","","","1004.9000000000233","images/sheep5.png","","","learning","-4","0","0","0","sheep","animals","1","1","","bad","[-4]"
"html-keyboard-response","193","718913","0.0-11.0-2.0-0.2","4000","2","11","Male","approach_avoid_spark_v1","""event"",""trial"",""time""
""fullscreenenter"",""1"",""3264""
""fullscreenexit"",""99"",""462022""
","
","
","""event"",""trial"",""time""
""fullscreenenter"",""1"",""3264""
","""event"",""trial"",""time""
""fullscreenexit"",""99"",""462022""
","","","","","","null","<div style=""font-size:60px;"">+</div>","null","","fixation","","","","","","","","","","",""
"aa-learning-trial","194","721921","0.0-11.0-2.0-1.2","4000","2","11","Male","approach_avoid_spark_v1","""event"",""trial"",""time""
""fullscreenenter"",""1"",""3264""
""fullscreenexit"",""99"",""462022""
","
","
","""event"",""trial"",""time""
""fullscreenenter"",""1"",""3264""
","""event"",""trial"",""time""
""fullscreenexit"",""99"",""462022""
","","","","","","907.9000000000233","images/sheep8.png","","","learning","-7","0","0","0","sheep","animals","1","1","","bad","[-4]"
"html-keyboard-response","195","722425","0.0-11.0-2.0-0.3","4000","2","11","Male","approach_avoid_spark_v1","""event"",""trial"",""time""
""fullscreenenter"",""1"",""3264""
""fullscreenexit"",""99"",""462022""
","
","
","""event"",""trial"",""time""
""fullscreenenter"",""1"",""3264""
","""event"",""trial"",""time""
""fullscreenexit"",""99"",""462022""
","","","","","","null","<div style=""font-size:60px;"">+</div>","null","","fixation","","","","","","","","","","",""
"aa-learning-trial","196","725433","0.0-11.0-2.0-1.3","4000","2","11","Male","approach_avoid_spark_v1","""event"",""trial"",""time""
""fullscreenenter"",""1"",""3264""
""fullscreenexit"",""99"",""462022""
","
","
","""event"",""trial"",""time""
""fullscreenenter"",""1"",""3264""
","""event"",""trial"",""time""
""fullscreenexit"",""99"",""462022""
","","","","","","1041.5999999999767","images/cow4.png","","","learning","2","2","1","1","cow","animals","1","1","","good","[3]"
"html-keyboard-response","197","725937","0.0-11.0-2.0-0.4","4000","2","11","Male","approach_avoid_spark_v1","""event"",""trial"",""time""
""fullscreenenter"",""1"",""3264""
""fullscreenexit"",""99"",""462022""
","
","
","""event"",""trial"",""time""
""fullscreenenter"",""1"",""3264""
","""event"",""trial"",""time""
""fullscreenexit"",""99"",""462022""
","","","","","","null","<div style=""font-size:60px;"">+</div>","null","","fixation","","","","","","","","","","",""
"aa-learning-trial","198","728945","0.0-11.0-2.0-1.4","4000","2","11","Male","approach_avoid_spark_v1","""event"",""trial"",""time""
""fullscreenenter"",""1"",""3264""
""fullscreenexit"",""99"",""462022""
","
","
","""event"",""trial"",""time""
""fullscreenenter"",""1"",""3264""
","""event"",""trial"",""time""
""fullscreenexit"",""99"",""462022""
","","","","","","1009","images/horse3.png","","","learning","-1","0","0","0","horse","animals","1","1","","neutral","0"
"html-keyboard-response","199","729449","0.0-11.0-2.0-0.5","4000","2","11","Male","approach_avoid_spark_v1","""event"",""trial"",""time""
""fullscreenenter"",""1"",""3264""
""fullscreenexit"",""99"",""462022""
","
","
","""event"",""trial"",""time""
""fullscreenenter"",""1"",""3264""
","""event"",""trial"",""time""
""fullscreenexit"",""99"",""462022""
","","","","","","null","<div style=""font-size:60px;"">+</div>","null","","fixation","","","","","","","","","","",""
"aa-learning-trial","200","732457","0.0-11.0-2.0-1.5","4000","2","11","Male","approach_avoid_spark_v1","""event"",""trial"",""time""
""fullscreenenter"",""1"",""3264""
""fullscreenexit"",""99"",""462022""
","
","
","""event"",""trial"",""time""
""fullscreenenter"",""1"",""3264""
","""event"",""trial"",""time""
""fullscreenexit"",""99"",""462022""
","","","","","","816.7000000000698","images/cow3.png","","","learning","3","3","1","1","cow","animals","1","1","","good","[3]"
"html-keyboard-response","201","732961","0.0-11.0-2.0-0.6","4000","2","11","Male","approach_avoid_spark_v1","""event"",""trial"",""time""
""fullscreenenter"",""1"",""3264""
""fullscreenexit"",""99"",""462022""
","
","
","""event"",""trial"",""time""
""fullscreenenter"",""1"",""3264""
","""event"",""trial"",""time""
""fullscreenexit"",""99"",""462022""
","","","","","","null","<div style=""font-size:60px;"">+</div>","null","","fixation","","","","","","","","","","",""
"aa-learning-trial","202","735969","0.0-11.0-2.0-1.6","4000","2","11","Male","approach_avoid_spark_v1","""event"",""trial"",""time""
""fullscreenenter"",""1"",""3264""
""fullscreenexit"",""99"",""462022""
","
","
","""event"",""trial"",""time""
""fullscreenenter"",""1"",""3264""
","""event"",""trial"",""time""
""fullscreenexit"",""99"",""462022""
","","","","","","864.8000000000466","images/horse3.png","","","learning","[1]","0","0","0","horse","animals","1","1","","neutral","0"
"html-keyboard-response","203","736473","0.0-11.0-2.0-0.7","4000","2","11","Male","approach_avoid_spark_v1","""event"",""trial"",""time""
""fullscreenenter"",""1"",""3264""
""fullscreenexit"",""99"",""462022""
","
","
","""event"",""trial"",""time""
""fullscreenenter"",""1"",""3264""
","""event"",""trial"",""time""
""fullscreenexit"",""99"",""462022""
","","","","","","null","<div style=""font-size:60px;"">+</div>","null","","fixation","","","","","","","","","","",""
"aa-learning-trial","204","739481","0.0-11.0-2.0-1.7","4000","2","11","Male","approach_avoid_spark_v1","""event"",""trial"",""time""
""fullscreenenter"",""1"",""3264""
""fullscreenexit"",""99"",""462022""
","
","
","""event"",""trial"",""time""
""fullscreenenter"",""1"",""3264""
","""event"",""trial"",""time""
""fullscreenexit"",""99"",""462022""
","","","","","","1780.0999999999767","images/cow1.png","","","learning","1","1","1","1","cow","animals","1","1","","good","[3]"
"html-keyboard-response","205","739985","0.0-11.0-2.0-0.8","4000","2","11","Male","approach_avoid_spark_v1","""event"",""trial"",""time""
""fullscreenenter"",""1"",""3264""
""fullscreenexit"",""99"",""462022""
","
","
","""event"",""trial"",""time""
""fullscreenenter"",""1"",""3264""
","""event"",""trial"",""time""
""fullscreenexit"",""99"",""462022""
","","","","","","null","<div style=""font-size:60px;"">+</div>","null","","fixation","","","","","","","","","","",""
"aa-learning-trial","206","742993","0.0-11.0-2.0-1.8","4000","2","11","Male","approach_avoid_spark_v1","""event"",""trial"",""time""
""fullscreenenter"",""1"",""3264""
""fullscreenexit"",""99"",""462022""
","
","
","""event"",""trial"",""time""
""fullscreenenter"",""1"",""3264""
","""event"",""trial"",""time""
""fullscreenexit"",""99"",""462022""
","","","","","","1128.6999999999534","images/sheep8.png","","","learning","-5","0","0","0","sheep","animals","1","1","","bad","[-4]"
"html-keyboard-response","207","743497","0.0-11.0-2.0-0.9","4000","2","11","Male","approach_avoid_spark_v1","""event"",""trial"",""time""
""fullscreenenter"",""1"",""3264""
""fullscreenexit"",""99"",""462022""
","
","
","""event"",""trial"",""time""
""fullscreenenter"",""1"",""3264""
","""event"",""trial"",""time""
""fullscreenexit"",""99"",""462022""
