"trial_type","trial_index","time_elapsed","internal_node_id","subject_id","task_condition","age","gender","task_version","interactions","blur_events","focus_events","fullscreenenter_events","fullscreenexit_events","success","timeout","failed_images","failed_audio","failed_video","rt","stimulus","response","button_pressed","task_part","approach_reward","points","key_press","option_selected","stim_cat","task_block","block_condition","block_number","correct","cat_type","mean_cat_reward"
"pavlovia","0","4","0.0-0.0","6135","1","22","Female","approach_avoid_spark_v1","""event"",""trial"",""time""
""fullscreenenter"",""1"",""3481""
","
","
","""event"",""trial"",""time""
""fullscreenenter"",""1"",""3481""
","
","","","","","","","","","","","","","","","","","","","","",""
"fullscreen","1","4480","0.0-1.0","6135","1","22","Female","approach_avoid_spark_v1","""event"",""trial"",""time""
""fullscreenenter"",""1"",""3481""
","
","
","""event"",""trial"",""time""
""fullscreenenter"",""1"",""3481""
","
","true","","","","","","","","","","","","","","","","","","","",""
"preload","2","9998","0.0-2.0","6135","1","22","Female","approach_avoid_spark_v1","""event"",""trial"",""time""
""fullscreenenter"",""1"",""3481""
","
","
","""event"",""trial"",""time""
""fullscreenenter"",""1"",""3481""
","
","true","false","[]","[]","[]","","","","","","","","","","","","","","","",""
"audio-keyboard-response","3","14372","0.0-3.0","6135","1","22","Female","approach_avoid_spark_v1","""event"",""trial"",""time""
""fullscreenenter"",""1"",""3481""
","
","
","""event"",""trial"",""time""
""fullscreenenter"",""1"",""3481""
","
","","","","","","4367.999999999999","audio/beep_loop.wav"," ","","","","","","","","","","","","",""
"audio-button-response","4","25658","0.0-4.0","6135","1","22","Female","approach_avoid_spark_v1","""event"",""trial"",""time""
""fullscreenenter"",""1"",""3481""
","
","
","""event"",""trial"",""time""
""fullscreenenter"",""1"",""3481""
","
","","","","","","11280","audio/shark.wav","4","","","","","","","","","","","","",""
"audio-button-response","5","28525","0.0-5.0","6135","1","22","Female","approach_avoid_spark_v1","""event"",""trial"",""time""
""fullscreenenter"",""1"",""3481""
","
","
","""event"",""trial"",""time""
""fullscreenenter"",""1"",""3481""
","
","","","","","","1848","audio/turtle.wav","1","","","","","","","","","","","","",""
"preload","6","31871","0.0-6.0","6135","1","22","Female","approach_avoid_spark_v1","""event"",""trial"",""time""
""fullscreenenter"",""1"",""3481""
","
","
","""event"",""trial"",""time""
""fullscreenenter"",""1"",""3481""
","
","true","false","[]","[]","[]","","","","","","","","","","","","","","","",""
"html-keyboard-response","7","33783","0.0-7.0","6135","1","22","Female","approach_avoid_spark_v1","""event"",""trial"",""time""
""fullscreenenter"",""1"",""3481""
","
","
","""event"",""trial"",""time""
""fullscreenenter"",""1"",""3481""
","
","","","","","","1912","Welcome to the experiment. Press any key to begin and to advance the instructions."," ","","","","","","","","","","","","",""
"learning-instructions","8","42392","0.0-8.0-0.0-0.0","6135","1","22","Female","approach_avoid_spark_v1","""event"",""trial"",""time""
""fullscreenenter"",""1"",""3481""
","
","
","""event"",""trial"",""time""
""fullscreenenter"",""1"",""3481""
","
","","","","","","1648.2999992370605","<p> Welcome! Today you are going to play 6 different rounds of a decision-making game. </p><p> Use the mouse to click next to continue. </p>","","0","instructions","","","","","","","","","","",""
"learning-instructions","9","46320","0.0-8.0-0.0-0.1","6135","1","22","Female","approach_avoid_spark_v1","""event"",""trial"",""time""
""fullscreenenter"",""1"",""3481""
","
","
","""event"",""trial"",""time""
""fullscreenenter"",""1"",""3481""
","
","","","","","","1186.3000011444092","<p> You will start with a practice round to learn the rules. </p>","","0","instructions","","","","","","","","","","",""
"learning-instructions","10","50847","0.0-8.0-0.0-0.2","6135","1","22","Female","approach_avoid_spark_v1","""event"",""trial"",""time""
""fullscreenenter"",""1"",""3481""
","
","
","""event"",""trial"",""time""
""fullscreenenter"",""1"",""3481""
","
","","","","","","1062.3000011444092","<p> Your goal in this round is to give out sports equipment to kids. </p></div>","","0","instructions","","","","","","","","","","",""
"learning-instructions","11","59033","0.0-8.0-0.0-0.3","6135","1","22","Female","approach_avoid_spark_v1","""event"",""trial"",""time""
""fullscreenenter"",""1"",""3481""
","
","
","""event"",""trial"",""time""
""fullscreenenter"",""1"",""3481""
","
","","","","","","628.5","<p> The kids only like some of the equipment.  </p><p> On each turn, you will see a piece of sports equipment.   </p><p> You need to decide whether to give it to the kids or not.  </p>","","0","instructions","","","","","","","","","","",""
"learning-instructions","12","64756","0.0-8.0-0.0-0.4","6135","1","22","Female","approach_avoid_spark_v1","""event"",""trial"",""time""
""fullscreenenter"",""1"",""3481""
","
","
","""event"",""trial"",""time""
""fullscreenenter"",""1"",""3481""
","
","","","","","","960.8999996185303","<p> You can give them the equipment by pressing 1 and choose not to give it to them by pressing 0. </p><br><div class=""choice-instructions-grid""> <div class=""choice-option""><img src=""images/approach.png"" class=""choice-option-img"" stage=""instructions"" position=""0"" ><div class=""choice-option-text""> Press ""1."" </div></div><div class=""choice-option""><img src=""images/avoid.png"" class=""choice-option-img"" stage=""instructions"" position=""1"" ><div class=""choice-option-text""> Press ""0."" </div></div>","","0","instructions","","","","","","","","","","",""
"learning-instructions","13","72867","0.0-8.0-0.0-0.5","6135","1","22","Female","approach_avoid_spark_v1","""event"",""trial"",""time""
""fullscreenenter"",""1"",""3481""
","
","
","""event"",""trial"",""time""
""fullscreenenter"",""1"",""3481""
","
","","","","","","732.9000015258789","<p> If you give them a piece of equipment they like, they will be happy! </p><p> But if you give them a piece of equipment they do not like, they will be sad. </p>","","0","instructions","","","","","","","","","","",""
"learning-instructions","14","84026","0.0-8.0-0.0-0.6","6135","1","22","Female","approach_avoid_spark_v1","""event"",""trial"",""time""
""fullscreenenter"",""1"",""3481""
","
","
","""event"",""trial"",""time""
""fullscreenenter"",""1"",""3481""
","
","","","","","","641.8999996185303","<p> You will earn points based on how you make kids feel. </p><p> If you make them happy, you will WIN anywhere from 1 - 9 points, </p><p> but if you make them sad, you will LOSE anywhere from 1 - 9 points. </p>","","0","instructions","","","","","","","","","","",""
"learning-instructions","15","94457","0.0-8.0-0.0-0.7","6135","1","22","Female","approach_avoid_spark_v1","""event"",""trial"",""time""
""fullscreenenter"",""1"",""3481""
","
","
","""event"",""trial"",""time""
""fullscreenenter"",""1"",""3481""
","
","","","","","","871.6999988555908","<p> You will see how many points you won or lost in the center of the screen. </p><p> Here is what you would see if you won 6 points: </p><p style=""color:green;font-size:50px;font-weight:bolder"">6</p><p style=""color:green"">The text is GREEN because you WON points.</p>","","0","instructions","","","","","","","","","","",""
"learning-instructions","16","100783","0.0-8.0-0.0-0.8","6135","1","22","Female","approach_avoid_spark_v1","""event"",""trial"",""time""
""fullscreenenter"",""1"",""3481""
","
","
","""event"",""trial"",""time""
""fullscreenenter"",""1"",""3481""
","
","","","","","","818.6999988555908","<p> And here is what you would see if you lost 4 points: </p><p style=""color:red;font-size:50px;font-weight:bolder"">-4</p><p style=""color:red"">The text is RED because you LOST points. </p>","","0","instructions","","","","","","","","","","",""
"learning-instructions","17","116538","0.0-8.0-0.0-0.9","6135","1","22","Female","approach_avoid_spark_v1","""event"",""trial"",""time""
""fullscreenenter"",""1"",""3481""
","
","
","""event"",""trial"",""time""
""fullscreenenter"",""1"",""3481""
","
","","","","","","1033.5","<p> Some of the equipment will make the kids VERY happy or sad. </p><p> These pieces of equipment will make you win or lose LOTS of points. </p><p> Other pieces of equipment will only make the kids a little happy or sad. </p><p> These pieces of equipment will make you win or lose small amounts of points. </p>","","0","instructions","","","","","","","","","","",""
"learning-instructions","18","128117","0.0-8.0-0.0-0.10","6135","1","22","Female","approach_avoid_spark_v1","""event"",""trial"",""time""
""fullscreenenter"",""1"",""3481""
","
","
","""event"",""trial"",""time""
""fullscreenenter"",""1"",""3481""
","
","","","","","","952.2999992370605","<p> If you choose not to give them the equipment, you will not win or lose any points. </p><p>  However, in the center of the screen, you will see the number of points you WOULD HAVE won or lost if you had given them the equipment. </p>","","0","instructions","","","","","","","","","","",""
"learning-instructions","19","150586","0.0-8.0-0.0-0.11","6135","1","22","Female","approach_avoid_spark_v1","""event"",""trial"",""time""
""fullscreenenter"",""1"",""3481""
","
","
","""event"",""trial"",""time""
""fullscreenenter"",""1"",""3481""
","
","","","","","","931.5","<p> Here is what you might see if you did not give the equipment to the kids but it would have made them happy: </p><p style=""color:grey; font-size:50px; display: inline-block; border-spacing: 15px; border-width:3px; border-style:solid; border-color:red"">  &nbsp; 7 &nbsp; </p><p> Remember, in this case, you would not win or lose ANY points because you did not give them the equipment.  </p><p style=""color:grey"">The text is GREY because you earned ZERO points. </p><p style=""color:red"">However, choosing to give the kids the equipment would have made you win points. The box around the text is RED because you chose the worse option. </p>","","0","instructions","","","","","","","","","","",""
"learning-instructions","20","172552","0.0-8.0-0.0-0.12","6135","1","22","Female","approach_avoid_spark_v1","""event"",""trial"",""time""
""fullscreenenter"",""1"",""3481""
","
","
","""event"",""trial"",""time""
""fullscreenenter"",""1"",""3481""
","
","","","","","","887.3999996185303","<p> Here is what you might see if you did not give the equipment to the kids but it would have made them sad: </p><p style=""color:grey;font-size:50px; display: inline-block; border-spacing: 15px; border-width:3px; border-style:solid; border-color:green"">  &nbsp; -8 &nbsp; </p><p> Remember, in this case, you would not win or lose ANY points because you did not give them the equipment.  </p><p style=""color:grey"">The text is GREY because you earned ZERO points. </p><p  style=""color:green""> Choosing to give the kids the equipment would have made you lose points. The box around the text is GREEN because you chose the better option.</p>","","0","instructions","","","","","","","","","","",""
"learning-instructions","21","183387","0.0-8.0-0.0-0.13","6135","1","22","Female","approach_avoid_spark_v1","""event"",""trial"",""time""
""fullscreenenter"",""1"",""3481""
","
","
","""event"",""trial"",""time""
""fullscreenenter"",""1"",""3481""
","
","","","","","","655.5","<p> You will have 3 seconds to make each choice. Try to respond before time runs out! </p><p> You will lose 5 points each time you do not make a response. </p>","","0","instructions","","","","","","","","","","",""
"learning-instructions","22","195973","0.0-8.0-0.0-0.14","6135","1","22","Female","approach_avoid_spark_v1","""event"",""trial"",""time""
""fullscreenenter"",""1"",""3481""
","
","
","""event"",""trial"",""time""
""fullscreenenter"",""1"",""3481""
","
","","","","","","7161.299999237061","<p> This is just a practice round, but in the real game, your bonus payment will depend on your total number of points.","","0","instructions","","","","","","","","","","",""
"learning-instructions","23","203163","0.0-8.0-0.0-0.15","6135","1","22","Female","approach_avoid_spark_v1","""event"",""trial"",""time""
""fullscreenenter"",""1"",""3481""
","
","
","""event"",""trial"",""time""
""fullscreenenter"",""1"",""3481""
","
","","","","","","1411","<p> Remember, you can give them the equipment by pressing 1 and choose not to give it to them by pressing 0. </p><br><div class=""choice-instructions-grid""> <div class=""choice-option""><img src=""images/approach.png"" class=""choice-option-img"" stage=""instructions"" position=""0"" ><div class=""choice-option-text""> Press ""1."" </div></div><div class=""choice-option""><img src=""images/avoid.png"" class=""choice-option-img"" stage=""instructions"" position=""1"" ><div class=""choice-option-text""> Press ""0."" </div></div>","","0","instructions","","","","","","","","","","",""
"html-button-response","24","204984","0.0-8.0-1.0","6135","1","22","Female","approach_avoid_spark_v1","""event"",""trial"",""time""
""fullscreenenter"",""1"",""3481""
","
","
","""event"",""trial"",""time""
""fullscreenenter"",""1"",""3481""
","
","","","","","","1709.2000007629395","<p> Ready to practice? </p>","0","","","","","","","","","","","","",""
"html-keyboard-response","25","205601","0.0-8.0-2.0-0.0","6135","1","22","Female","approach_avoid_spark_v1","""event"",""trial"",""time""
""fullscreenenter"",""1"",""3481""
","
","
","""event"",""trial"",""time""
""fullscreenenter"",""1"",""3481""
","
","","","","","","null","<div style=""font-size:60px;"">+</div>","null","","fixation","","","","","","","","","","",""
"aa-learning-trial","26","208612","0.0-8.0-2.0-1.0","6135","1","22","Female","approach_avoid_spark_v1","""event"",""trial"",""time""
""fullscreenenter"",""1"",""3481""
","
","
","""event"",""trial"",""time""
""fullscreenenter"",""1"",""3481""
","
","","","","","","1465.7999992370605","images/ball3.png","","","learning","4","4","1","1","practice","practice","practice","-1","","",""
"html-keyboard-response","27","209123","0.0-8.0-2.0-0.1","6135","1","22","Female","approach_avoid_spark_v1","""event"",""trial"",""time""
""fullscreenenter"",""1"",""3481""
","
","
","""event"",""trial"",""time""
""fullscreenenter"",""1"",""3481""
","
","","","","","","null","<div style=""font-size:60px;"">+</div>","null","","fixation","","","","","","","","","","",""
"aa-learning-trial","28","212131","0.0-8.0-2.0-1.1","6135","1","22","Female","approach_avoid_spark_v1","""event"",""trial"",""time""
""fullscreenenter"",""1"",""3481""
","
","
","""event"",""trial"",""time""
""fullscreenenter"",""1"",""3481""
","
","","","","","","2516.2000007629395","images/ball1.png","","","learning","6","6","1","1","practice","practice","practice","-1","","",""
"html-keyboard-response","29","212642","0.0-8.0-2.0-0.2","6135","1","22","Female","approach_avoid_spark_v1","""event"",""trial"",""time""
""fullscreenenter"",""1"",""3481""
","
","
","""event"",""trial"",""time""
""fullscreenenter"",""1"",""3481""
","
","","","","","","null","<div style=""font-size:60px;"">+</div>","null","","fixation","","","","","","","","","","",""
"aa-learning-trial","30","215649","0.0-8.0-2.0-1.2","6135","1","22","Female","approach_avoid_spark_v1","""event"",""trial"",""time""
""fullscreenenter"",""1"",""3481""
","
","
","""event"",""trial"",""time""
""fullscreenenter"",""1"",""3481""
","
","","","","","","2707","images/ball1.png","","","learning","-8","-8","1","1","practice","practice","practice","-1","","",""
"html-keyboard-response","31","216163","0.0-8.0-2.0-0.3","6135","1","22","Female","approach_avoid_spark_v1","""event"",""trial"",""time""
""fullscreenenter"",""1"",""3481""
","
","
","""event"",""trial"",""time""
""fullscreenenter"",""1"",""3481""
","
","","","","","","null","<div style=""font-size:60px;"">+</div>","null","","fixation","","","","","","","","","","",""
"aa-learning-trial","32","219177","0.0-8.0-2.0-1.3","6135","1","22","Female","approach_avoid_spark_v1","""event"",""trial"",""time""
""fullscreenenter"",""1"",""3481""
","
","
","""event"",""trial"",""time""
""fullscreenenter"",""1"",""3481""
","
","","","","","","null","images/ball3.png","","","learning","-5","-5","","null","practice","practice","practice","-1","","",""
"html-keyboard-response","33","219700","0.0-8.0-2.0-0.4","6135","1","22","Female","approach_avoid_spark_v1","""event"",""trial"",""time""
""fullscreenenter"",""1"",""3481""
","
","
","""event"",""trial"",""time""
""fullscreenenter"",""1"",""3481""
","
","","","","","","null","<div style=""font-size:60px;"">+</div>","null","","fixation","","","","","","","","","","",""
"aa-learning-trial","34","222713","0.0-8.0-2.0-1.4","6135","1","22","Female","approach_avoid_spark_v1","""event"",""trial"",""time""
""fullscreenenter"",""1"",""3481""
","
","
","""event"",""trial"",""time""
""fullscreenenter"",""1"",""3481""
","
","","","","","","1718.599998474121","images/ball1.png","","","learning","1","0","0","0","practice","practice","practice","-1","","",""
"html-keyboard-response","35","223240","0.0-8.0-2.0-0.5","6135","1","22","Female","approach_avoid_spark_v1","""event"",""trial"",""time""
""fullscreenenter"",""1"",""3481""
","
","
","""event"",""trial"",""time""
""fullscreenenter"",""1"",""3481""
","
","","","","","","null","<div style=""font-size:60px;"">+</div>","null","","fixation","","","","","","","","","","",""
"aa-learning-trial","36","226250","0.0-8.0-2.0-1.5","6135","1","22","Female","approach_avoid_spark_v1","""event"",""trial"",""time""
""fullscreenenter"",""1"",""3481""
","
","
","""event"",""trial"",""time""
""fullscreenenter"",""1"",""3481""
","
","","","","","","1387.8000011444092","images/ball3.png","","","learning","-7","-7","1","1","practice","practice","practice","-1","","",""
"html-keyboard-response","37","226770","0.0-8.0-2.0-0.6","6135","1","22","Female","approach_avoid_spark_v1","""event"",""trial"",""time""
""fullscreenenter"",""1"",""3481""
","
","
","""event"",""trial"",""time""
""fullscreenenter"",""1"",""3481""
","
","","","","","","null","<div style=""font-size:60px;"">+</div>","null","","fixation","","","","","","","","","","",""
"aa-learning-trial","38","229776","0.0-8.0-2.0-1.6","6135","1","22","Female","approach_avoid_spark_v1","""event"",""trial"",""time""
""fullscreenenter"",""1"",""3481""
","
","
","""event"",""trial"",""time""
""fullscreenenter"",""1"",""3481""
","
","","","","","","2519.2999992370605","images/racket3.png","","","learning","-7","-7","1","1","practice","practice","practice","-1","","",""
"html-keyboard-response","39","230280","0.0-8.0-2.0-0.7","6135","1","22","Female","approach_avoid_spark_v1","""event"",""trial"",""time""
""fullscreenenter"",""1"",""3481""
","
","
","""event"",""trial"",""time""
""fullscreenenter"",""1"",""3481""
","
","","","","","","null","<div style=""font-size:60px;"">+</div>","null","","fixation","","","","","","","","","","",""
"aa-learning-trial","40","233286","0.0-8.0-2.0-1.7","6135","1","22","Female","approach_avoid_spark_v1","""event"",""trial"",""time""
""fullscreenenter"",""1"",""3481""
","
","
","""event"",""trial"",""time""
""fullscreenenter"",""1"",""3481""
","
","","","","","","1258.8000011444092","images/racket2.png","","","learning","-3","-3","1","1","practice","practice","practice","-1","","",""
"html-keyboard-response","41","233790","0.0-8.0-2.0-0.8","6135","1","22","Female","approach_avoid_spark_v1","""event"",""trial"",""time""
""fullscreenenter"",""1"",""3481""
","
","
","""event"",""trial"",""time""
""fullscreenenter"",""1"",""3481""
","
","","","","","","null","<div style=""font-size:60px;"">+</div>","null","","fixation","","","","","","","","","","",""
"aa-learning-trial","42","236796","0.0-8.0-2.0-1.8","6135","1","22","Female","approach_avoid_spark_v1","""event"",""trial"",""time""
""fullscreenenter"",""1"",""3481""
","
","
","""event"",""trial"",""time""
""fullscreenenter"",""1"",""3481""
","
","","","","","","2747.2999992370605","images/ball3.png","","","learning","6","6","1","1","practice","practice","practice","-1","","",""
"html-keyboard-response","43","237304","0.0-8.0-2.0-0.9","6135","1","22","Female","approach_avoid_spark_v1","""event"",""trial"",""time""
""fullscreenenter"",""1"",""3481""
","
","
","""event"",""trial"",""time""
""fullscreenenter"",""1"",""3481""
","
","","","","","","null","<div style=""font-size:60px;"">+</div>","null","","fixation","","","","","","","","","","",""
"aa-learning-trial","44","240311","0.0-8.0-2.0-1.9","6135","1","22","Female","approach_avoid_spark_v1","""event"",""trial"",""time""
""fullscreenenter"",""1"",""3481""
","
","
","""event"",""trial"",""time""
""fullscreenenter"",""1"",""3481""
","
","","","","","","1414.8000011444092","images/ball1.png","","","learning","1","1","1","1","practice","practice","practice","-1","","",""
"html-keyboard-response","45","240815","0.0-8.0-2.0-0.10","6135","1","22","Female","approach_avoid_spark_v1","""event"",""trial"",""time""
""fullscreenenter"",""1"",""3481""
","
","
","""event"",""trial"",""time""
""fullscreenenter"",""1"",""3481""
","
","","","","","","null","<div style=""font-size:60px;"">+</div>","null","","fixation","","","","","","","","","","",""
"aa-learning-trial","46","243825","0.0-8.0-2.0-1.10","6135","1","22","Female","approach_avoid_spark_v1","""event"",""trial"",""time""
""fullscreenenter"",""1"",""3481""
","
","
","""event"",""trial"",""time""
""fullscreenenter"",""1"",""3481""
","
","","","","","","1874.2999992370605","images/racket4.png","","","learning","7","7","1","1","practice","practice","practice","-1","","",""
"html-keyboard-response","47","244329","0.0-8.0-2.0-0.11","6135","1","22","Female","approach_avoid_spark_v1","""event"",""trial"",""time""
""fullscreenenter"",""1"",""3481""
","
","
","""event"",""trial"",""time""
""fullscreenenter"",""1"",""3481""
","
","","","","","","null","<div style=""font-size:60px;"">+</div>","null","","fixation","","","","","","","","","","",""
"aa-learning-trial","48","247337","0.0-8.0-2.0-1.11","6135","1","22","Female","approach_avoid_spark_v1","""event"",""trial"",""time""
""fullscreenenter"",""1"",""3481""
","
","
","""event"",""trial"",""time""
""fullscreenenter"",""1"",""3481""
","
","","","","","","1632.6000003814697","images/racket3.png","","","learning","2","0","0","0","practice","practice","practice","-1","","",""
"html-button-response","49","253074","0.0-8.0-3.0","6135","1","22","Female","approach_avoid_spark_v1","""event"",""trial"",""time""
""fullscreenenter"",""1"",""3481""
","
","
","""event"",""trial"",""time""
""fullscreenenter"",""1"",""3481""
","
","","","","","","5735.60000038147","<p> You earned -6 points in the practice round! </p>","0","","break","","","","","","","","","","",""
"learning-instructions","50","268636","0.0-8.0-4.0-0.0","6135","1","22","Female","approach_avoid_spark_v1","""event"",""trial"",""time""
""fullscreenenter"",""1"",""3481""
","
","
","""event"",""trial"",""time""
""fullscreenenter"",""1"",""3481""
","
","","","","","","4566.299999237061","<p> It's almost time to start the real game. </p><p> Before you start, we're going to ask you a few questions about how the game works. </p>","","0","instructions","","","","","","","","","","",""
"preload","51","269897","0.0-8.0-5.0","6135","1","22","Female","approach_avoid_spark_v1","""event"",""trial"",""time""
""fullscreenenter"",""1"",""3481""
","
","
","""event"",""trial"",""time""
""fullscreenenter"",""1"",""3481""
","
","true","false","[]","[]","[]","","","","","","","","","","","","","","","",""
"comp-q","52","276031","0.0-8.0-6.0-0.0","6135","1","22","Female","approach_avoid_spark_v1","""event"",""trial"",""time""
""fullscreenenter"",""1"",""3481""
","
","
","""event"",""trial"",""time""
""fullscreenenter"",""1"",""3481""
","
","","","","","","1140.7999992370605","<p> <b> True or False? </b> </p><p> If you see a number in GREY, that means you earned that many points. </p>","","1","comp_question","","","","","","","","","true","",""
"comp-q","53","285279","0.0-8.0-6.0-1.0","6135","1","22","Female","approach_avoid_spark_v1","""event"",""trial"",""time""
""fullscreenenter"",""1"",""3481""
","
","
","""event"",""trial"",""time""
""fullscreenenter"",""1"",""3481""
","
","","","","","","879.7000007629395","<p><b> That's right! </b> If you see a grey number, it means you earned ZERO points. <br> The grey numbers show the points you WOULD HAVE earned if you had made the other choice. </p>","","0","comp_answer","","","","","","","","","","",""
"comp-q","54","290547","0.0-8.0-7.0-0.0","6135","1","22","Female","approach_avoid_spark_v1","""event"",""trial"",""time""
""fullscreenenter"",""1"",""3481""
","
","
","""event"",""trial"",""time""
""fullscreenenter"",""1"",""3481""
","
","","","","","","566.8999996185303","<p> <b> True or False? </b> </p><p> You will have as much time as you want to make each choice. </p>","","1","comp_question","","","","","","","","","true","",""
"comp-q","55","295668","0.0-8.0-7.0-1.0","6135","1","22","Female","approach_avoid_spark_v1","""event"",""trial"",""time""
""fullscreenenter"",""1"",""3481""
","
","
","""event"",""trial"",""time""
""fullscreenenter"",""1"",""3481""
","
","","","","","","1067.6000003814697","<p> <b> That's right! </b> You will only have 3 seconds to make each choice. </p>","","0","comp_answer","","","","","","","","","","",""
"comp-q","56","301201","0.0-8.0-8.0-0.0","6135","1","22","Female","approach_avoid_spark_v1","""event"",""trial"",""time""
""fullscreenenter"",""1"",""3481""
","
","
","""event"",""trial"",""time""
""fullscreenenter"",""1"",""3481""
","
","","","","","","861.6000003814697","<p> <b> True or False? </b> </p><p> You should use the '1' and '0' keys to make your choices. </p>","","0","comp_question","","","","","","","","","true","",""
"comp-q","57","307341","0.0-8.0-8.0-1.0","6135","1","22","Female","approach_avoid_spark_v1","""event"",""trial"",""time""
""fullscreenenter"",""1"",""3481""
","
","
","""event"",""trial"",""time""
""fullscreenenter"",""1"",""3481""
","
","","","","","","1521.2000007629395","<p> <b> That's right! </b> You should use the '1' and '0' keys to make each choice. </p>","","0","comp_answer","","","","","","","","","","",""
"learning-instructions","58","314882","0.0-8.0-9.0-0.0","6135","1","22","Female","approach_avoid_spark_v1","""event"",""trial"",""time""
""fullscreenenter"",""1"",""3481""
","
","
","""event"",""trial"",""time""
""fullscreenenter"",""1"",""3481""
","
","","","","","","1242","<p> It's now time to start the real game. </p>Do your best, because the points you earn in the next rounds will influence your bonus payment. </p>","","0","instructions","","","","","","","","","","",""
"preload","59","315023","0.0-9.0-0.0","6135","1","22","Female","approach_avoid_spark_v1","""event"",""trial"",""time""
""fullscreenenter"",""1"",""3481""
","
","
","""event"",""trial"",""time""
""fullscreenenter"",""1"",""3481""
","
","true","false","[]","[]","[]","","","","","","","","","","","","","","","",""
"learning-instructions","60","320191","0.0-9.0-1.0-0.0","6135","1","22","Female","approach_avoid_spark_v1","""event"",""trial"",""time""
""fullscreenenter"",""1"",""3481""
","
","
","""event"",""trial"",""time""
""fullscreenenter"",""1"",""3481""
","
","","","","","","1451.7999992370605","<p> Your goal in this round is to take care of lots of animals. </p></div>","","0","instructions","","","","","","","","","","",""
"learning-instructions","61","330393","0.0-9.0-1.0-0.1","6135","1","22","Female","approach_avoid_spark_v1","""event"",""trial"",""time""
""fullscreenenter"",""1"",""3481""
","
","
","""event"",""trial"",""time""
""fullscreenenter"",""1"",""3481""
","
","","","","","","893.4000015258789","<p> Some animals want to be pet, while other animals want to be left alone.  </p><p> On each turn, you will see an animal.   </p><p> You need to decide whether to pet it or not.  </p>","","0","instructions","","","","","","","","","","",""
"learning-instructions","62","336304","0.0-9.0-1.0-0.2","6135","1","22","Female","approach_avoid_spark_v1","""event"",""trial"",""time""
""fullscreenenter"",""1"",""3481""
","
","
","""event"",""trial"",""time""
""fullscreenenter"",""1"",""3481""
","
","","","","","","863.7999992370605","<p> You can pet the animal by pressing 1 and leave the animal alone by pressing 0. </p><br><div class=""choice-instructions-grid""> <div class=""choice-option""><img src=""images/approach.png"" class=""choice-option-img"" stage=""instructions"" position=""0"" ><div class=""choice-option-text""> Press ""1."" </div></div><div class=""choice-option""><img src=""images/avoid.png"" class=""choice-option-img"" stage=""instructions"" position=""1"" ><div class=""choice-option-text""> Press ""0."" </div></div>","","0","instructions","","","","","","","","","","",""
"learning-instructions","63","347808","0.0-9.0-1.0-0.3","6135","1","22","Female","approach_avoid_spark_v1","""event"",""trial"",""time""
""fullscreenenter"",""1"",""3481""
","
","
","""event"",""trial"",""time""
""fullscreenenter"",""1"",""3481""
","
","","","","","","617.7999992370605","<p> If you pet an animal that wants to be pet, you will make it feel happy! </p><p> But if you pet an animal that wants to be left alone, you will make it feel angry. </p>","","0","instructions","","","","","","","","","","",""
"learning-instructions","64","376270","0.0-9.0-1.0-0.4","6135","1","22","Female","approach_avoid_spark_v1","""event"",""trial"",""time""
""fullscreenenter"",""1"",""3481""
","
","
","""event"",""trial"",""time""
""fullscreenenter"",""1"",""3481""
","
","","","","","","16329.69999885559","<p> You will earn points based on how you made the animal feel. </p><p> If you made it feel happy, you will WIN anywhere from 1 - 9 points, </p><p> but if you made it feel angry, you will LOSE anywhere from 1 - 9 points. </p>","","0","instructions","","","","","","","","","","",""
"learning-instructions","65","384831","0.0-9.0-1.0-0.5","6135","1","22","Female","approach_avoid_spark_v1","""event"",""trial"",""time""
""fullscreenenter"",""1"",""3481""
","
","
","""event"",""trial"",""time""
""fullscreenenter"",""1"",""3481""
","
","","","","","","1071.7000007629395","<p> You will see how many points you won or lost in the center of the screen. </p><p> Here is what you would see if you won 5 points: </p><p style=""color:green;font-size:50px;font-weight:bolder"">5</p>","","0","instructions","","","","","","","","","","",""
"learning-instructions","66","389262","0.0-9.0-1.0-0.6","6135","1","22","Female","approach_avoid_spark_v1","""event"",""trial"",""time""
""fullscreenenter"",""1"",""3481""
","
","
","""event"",""trial"",""time""
""fullscreenenter"",""1"",""3481""
","
","","","","","","821.6999988555908","<p> And here is what you would see if you lost 3 points: </p><p style=""color:red;font-size:50px;font-weight:bolder"">-3</p>","","0","instructions","","","","","","","","","","",""
"learning-instructions","67","403927","0.0-9.0-1.0-0.7","6135","1","22","Female","approach_avoid_spark_v1","""event"",""trial"",""time""
""fullscreenenter"",""1"",""3481""
","
","
","""event"",""trial"",""time""
""fullscreenenter"",""1"",""3481""
","
","","","","","","786.6000003814697","<p> Some animals will become very happy or very angry. </p><p> These animals will make you win or lose LOTS of points. </p><p> Other animals have less strong feelings. </p><p> These animals will make you win or lose small amounts of points. </p>","","0","instructions","","","","","","","","","","",""
"learning-instructions","68","415631","0.0-9.0-1.0-0.8","6135","1","22","Female","approach_avoid_spark_v1","""event"",""trial"",""time""
""fullscreenenter"",""1"",""3481""
","
","
","""event"",""trial"",""time""
""fullscreenenter"",""1"",""3481""
","
","","","","","","710.8999996185303","<p> If you choose to leave the animal alone, you will not win or lose any points. </p><p>  However, in the center of the screen, you will see the number of points you WOULD HAVE won or lost if you had pet the animal. </p>","","0","instructions","","","","","","","","","","",""
"learning-instructions","69","427732","0.0-9.0-1.0-0.9","6135","1","22","Female","approach_avoid_spark_v1","""event"",""trial"",""time""
""fullscreenenter"",""1"",""3481""
","
","
","""event"",""trial"",""time""
""fullscreenenter"",""1"",""3481""
","
","","","","","","742.1000003814697","<p> Here is what you might see if you did not pet the animal but the animal wanted to be pet: </p><p style=""color:grey; font-size:50px; display: inline-block; border-spacing: 15px; border-width:3px; border-style:solid; border-color:red"">  &nbsp; 6 &nbsp; </p><p> Remember, in this case, you would not win or lose ANY points because you did not pet the animal.  </p>","","0","instructions","","","","","","","","","","",""
"learning-instructions","70","435257","0.0-9.0-1.0-0.10","6135","1","22","Female","approach_avoid_spark_v1","""event"",""trial"",""time""
""fullscreenenter"",""1"",""3481""
","
","
","""event"",""trial"",""time""
""fullscreenenter"",""1"",""3481""
","
","","","","","","617.7000007629395","<p> Try to make the best choice for each animal because </p><p> at the end of the game, you will earn bonus money based on how many points you earned. </p>","","0","instructions","","","","","","","","","","",""
"learning-instructions","71","443994","0.0-9.0-1.0-0.11","6135","1","22","Female","approach_avoid_spark_v1","""event"",""trial"",""time""
""fullscreenenter"",""1"",""3481""
","
","
","""event"",""trial"",""time""
""fullscreenenter"",""1"",""3481""
","
","","","","","","534.3999996185303","<p> You will have 3 seconds to make each choice. Try to respond before time runs out! </p><p> You will lose 5 points each time you do not make a response. </p>","","0","instructions","","","","","","","","","","",""
"html-keyboard-response","72","444622","0.0-9.0-2.0-0.0","6135","1","22","Female","approach_avoid_spark_v1","""event"",""trial"",""time""
""fullscreenenter"",""1"",""3481""
","
","
","""event"",""trial"",""time""
""fullscreenenter"",""1"",""3481""
","
","","","","","","null","<div style=""font-size:60px;"">+</div>","null","","fixation","","","","","","","","","","",""
"aa-learning-trial","73","447648","0.0-9.0-2.0-1.0","6135","1","22","Female","approach_avoid_spark_v1","""event"",""trial"",""time""
""fullscreenenter"",""1"",""3481""
","
","
","""event"",""trial"",""time""
""fullscreenenter"",""1"",""3481""
","
","","","","","","1309","images/dog6.png","","","learning","-2","-2","1","1","dog","pets","1","0","","neutral","0"
"html-keyboard-response","74","448154","0.0-9.0-2.0-0.1","6135","1","22","Female","approach_avoid_spark_v1","""event"",""trial"",""time""
""fullscreenenter"",""1"",""3481""
","
","
","""event"",""trial"",""time""
""fullscreenenter"",""1"",""3481""
","
","","","","","","null","<div style=""font-size:60px;"">+</div>","null","","fixation","","","","","","","","","","",""
"aa-learning-trial","75","451168","0.0-9.0-2.0-1.1","6135","1","22","Female","approach_avoid_spark_v1","""event"",""trial"",""time""
""fullscreenenter"",""1"",""3481""
","
","
","""event"",""trial"",""time""
""fullscreenenter"",""1"",""3481""
","
","","","","","","1887.900001525879","images/dog6.png","","","learning","[-1]","-1","1","1","dog","pets","1","0","","neutral","0"
"html-keyboard-response","76","451674","0.0-9.0-2.0-0.2","6135","1","22","Female","approach_avoid_spark_v1","""event"",""trial"",""time""
""fullscreenenter"",""1"",""3481""
","
","
","""event"",""trial"",""time""
""fullscreenenter"",""1"",""3481""
","
","","","","","","null","<div style=""font-size:60px;"">+</div>","null","","fixation","","","","","","","","","","",""
"aa-learning-trial","77","454688","0.0-9.0-2.0-1.2","6135","1","22","Female","approach_avoid_spark_v1","""event"",""trial"",""time""
""fullscreenenter"",""1"",""3481""
","
","
","""event"",""trial"",""time""
""fullscreenenter"",""1"",""3481""
","
","","","","","","2077.8999996185303","images/dog8.png","","","learning","3","0","0","0","dog","pets","1","0","","neutral","0"
"html-keyboard-response","78","455194","0.0-9.0-2.0-0.3","6135","1","22","Female","approach_avoid_spark_v1","""event"",""trial"",""time""
""fullscreenenter"",""1"",""3481""
","
","
","""event"",""trial"",""time""
""fullscreenenter"",""1"",""3481""
","
","","","","","","null","<div style=""font-size:60px;"">+</div>","null","","fixation","","","","","","","","","","",""
"aa-learning-trial","79","458208","0.0-9.0-2.0-1.3","6135","1","22","Female","approach_avoid_spark_v1","""event"",""trial"",""time""
""fullscreenenter"",""1"",""3481""
","
","
","""event"",""trial"",""time""
""fullscreenenter"",""1"",""3481""
","
","","","","","","1578.1000003814697","images/cat3.png","","","learning","-5","-5","1","1","cat","pets","1","0","","bad","[-5]"
"html-keyboard-response","80","458728","0.0-9.0-2.0-0.4","6135","1","22","Female","approach_avoid_spark_v1","""event"",""trial"",""time""
""fullscreenenter"",""1"",""3481""
","
","
","""event"",""trial"",""time""
""fullscreenenter"",""1"",""3481""
","
","","","","","","null","<div style=""font-size:60px;"">+</div>","null","","fixation","","","","","","","","","","",""
"aa-learning-trial","81","461738","0.0-9.0-2.0-1.4","6135","1","22","Female","approach_avoid_spark_v1","""event"",""trial"",""time""
""fullscreenenter"",""1"",""3481""
","
","
","""event"",""trial"",""time""
""fullscreenenter"",""1"",""3481""
","
","","","","","","1493.7000007629395","images/rodent1.png","","","learning","5","5","1","1","rodent","pets","1","0","","good","[5]"
"html-keyboard-response","82","462250","0.0-9.0-2.0-0.5","6135","1","22","Female","approach_avoid_spark_v1","""event"",""trial"",""time""
""fullscreenenter"",""1"",""3481""
","
","
","""event"",""trial"",""time""
""fullscreenenter"",""1"",""3481""
","
","","","","","","null","<div style=""font-size:60px;"">+</div>","null","","fixation","","","","","","","","","","",""
"aa-learning-trial","83","465258","0.0-9.0-2.0-1.5","6135","1","22","Female","approach_avoid_spark_v1","""event"",""trial"",""time""
""fullscreenenter"",""1"",""3481""
","
","
","""event"",""trial"",""time""
""fullscreenenter"",""1"",""3481""
","
","","","","","","1042.099998474121","images/dog3.png","","","learning","-1","-1","1","1","dog","pets","1","0","","neutral","0"
"html-keyboard-response","84","465770","0.0-9.0-2.0-0.6","6135","1","22","Female","approach_avoid_spark_v1","""event"",""trial"",""time""
""fullscreenenter"",""1"",""3481""
","
","
","""event"",""trial"",""time""
""fullscreenenter"",""1"",""3481""
","
","","","","","","null","<div style=""font-size:60px;"">+</div>","null","","fixation","","","","","","","","","","",""
"aa-learning-trial","85","468784","0.0-9.0-2.0-1.6","6135","1","22","Female","approach_avoid_spark_v1","""event"",""trial"",""time""
""fullscreenenter"",""1"",""3481""
","
","
","""event"",""trial"",""time""
""fullscreenenter"",""1"",""3481""
","
","","","","","","1002.2999992370605","images/rodent8.png","","","learning","2","2","1","1","rodent","pets","1","0","","good","[5]"
"html-keyboard-response","86","469294","0.0-9.0-2.0-0.7","6135","1","22","Female","approach_avoid_spark_v1","""event"",""trial"",""time""
""fullscreenenter"",""1"",""3481""
","
","
","""event"",""trial"",""time""
""fullscreenenter"",""1"",""3481""
","
","","","","","","null","<div style=""font-size:60px;"">+</div>","null","","fixation","","","","","","","","","","",""
"aa-learning-trial","87","472319","0.0-9.0-2.0-1.7","6135","1","22","Female","approach_avoid_spark_v1","""event"",""trial"",""time""
""fullscreenenter"",""1"",""3481""
","
","
","""event"",""trial"",""time""
""fullscreenenter"",""1"",""3481""
","
","","","","","","888.6000003814697","images/cat4.png","","","learning","-5","0","0","0","cat","pets","1","0","","bad","[-5]"
"html-keyboard-response","88","472828","0.0-9.0-2.0-0.8","6135","1","22","Female","approach_avoid_spark_v1","""event"",""trial"",""time""
""fullscreenenter"",""1"",""3481""
","
","
","""event"",""trial"",""time""
""fullscreenenter"",""1"",""3481""
","
","","","","","","null","<div style=""font-size:60px;"">+</div>","null","","fixation","","","","","","","","","","",""
"aa-learning-trial","89","475834","0.0-9.0-2.0-1.8","6135","1","22","Female","approach_avoid_spark_v1","""event"",""trial"",""time""
""fullscreenenter"",""1"",""3481""
","
","
","""event"",""trial"",""time""
""fullscreenenter"",""1"",""3481""
","
","","","","","","1363.8999996185303","images/rodent3.png","","","learning","6","6","1","1","rodent","pets","1","0","","good","[5]"
"html-keyboard-response","90","476337","0.0-9.0-2.0-0.9","6135","1","22","Female","approach_avoid_spark_v1","""event"",""trial"",""time""
""fullscreenenter"",""1"",""3481""
","
","
","""event"",""trial"",""time""
""fullscreenenter"",""1"",""3481""
","
","","","","","","null","<div style=""font-size:60px;"">+</div>","null","","fixation","","","","","","","","","","",""
"aa-learning-trial","91","479345","0.0-9.0-2.0-1.9","6135","1","22","Female","approach_avoid_spark_v1","""event"",""trial"",""time""
""fullscreenenter"",""1"",""3481""
","
","
","""event"",""trial"",""time""
""fullscreenenter"",""1"",""3481""
","
","","","","","","855.8999996185303","images/cat3.png","","","learning","-5","-5","1","1","cat","pets","1","0","","bad","[-5]"
"html-keyboard-response","92","479849","0.0-9.0-2.0-0.10","6135","1","22","Female","approach_avoid_spark_v1","""event"",""trial"",""time""
""fullscreenenter"",""1"",""3481""
","
","
","""event"",""trial"",""time""
""fullscreenenter"",""1"",""3481""
","
","","","","","","null","<div style=""font-size:60px;"">+</div>","null","","fixation","","","","","","","","","","",""
"aa-learning-trial","93","482857","0.0-9.0-2.0-1.10","6135","1","22","Female","approach_avoid_spark_v1","""event"",""trial"",""time""
""fullscreenenter"",""1"",""3481""
","
","
","""event"",""trial"",""time""
""fullscreenenter"",""1"",""3481""
","
","","","","","","1593.5","images/cat5.png","","","learning","-5","0","0","0","cat","pets","1","0","","bad","[-5]"
"html-keyboard-response","94","483361","0.0-9.0-2.0-0.11","6135","1","22","Female","approach_avoid_spark_v1","""event"",""trial"",""time""
""fullscreenenter"",""1"",""3481""
","
","
","""event"",""trial"",""time""
""fullscreenenter"",""1"",""3481""
","
","","","","","","null","<div style=""font-size:60px;"">+</div>","null","","fixation","","","","","","","","","","",""
"aa-learning-trial","95","486369","0.0-9.0-2.0-1.11","6135","1","22","Female","approach_avoid_spark_v1","""event"",""trial"",""time""
""fullscreenenter"",""1"",""3481""
","
","
","""event"",""trial"",""time""
""fullscreenenter"",""1"",""3481""
","
","","","","","","2410.599998474121","images/dog3.png","","","learning","-3","-3","1","1","dog","pets","1","0","","neutral","0"
"html-keyboard-response","96","486875","0.0-9.0-2.0-0.12","6135","1","22","Female","approach_avoid_spark_v1","""event"",""trial"",""time""
""fullscreenenter"",""1"",""3481""
","
","
","""event"",""trial"",""time""
""fullscreenenter"",""1"",""3481""
","
","","","","","","null","<div style=""font-size:60px;"">+</div>","null","","fixation","","","","","","","","","","",""
"aa-learning-trial","97","489881","0.0-9.0-2.0-1.12","6135","1","22","Female","approach_avoid_spark_v1","""event"",""trial"",""time""
""fullscreenenter"",""1"",""3481""
","
","
","""event"",""trial"",""time""
""fullscreenenter"",""1"",""3481""
","
","","","","","","1476.599998474121","images/rodent8.png","","","learning","2","2","1","1","rodent","pets","1","0","","good","[5]"
"html-keyboard-response","98","490385","0.0-9.0-2.0-0.13","6135","1","22","Female","approach_avoid_spark_v1","""event"",""trial"",""time""
""fullscreenenter"",""1"",""3481""
","
","
","""event"",""trial"",""time""
""fullscreenenter"",""1"",""3481""
","
","","","","","","null","<div style=""font-size:60px;"">+</div>","null","","fixation","","","","","","","","","","",""
"aa-learning-trial","99","493392","0.0-9.0-2.0-1.13","6135","1","22","Female","approach_avoid_spark_v1","""event"",""trial"",""time""
""fullscreenenter"",""1"",""3481""
","
","
","""event"",""trial"",""time""
""fullscreenenter"",""1"",""3481""
","
","","","","","","1959.2000007629395","images/rodent1.png","","","learning","4","0","0","0","rodent","pets","1","0","","good","[5]"
"html-keyboard-response","100","493897","0.0-9.0-2.0-0.14","6135","1","22","Female","approach_avoid_spark_v1","""event"",""trial"",""time""
""fullscreenenter"",""1"",""3481""
","
","
","""event"",""trial"",""time""
""fullscreenenter"",""1"",""3481""
","
","","","","","","null","<div style=""font-size:60px;"">+</div>","null","","fixation","","","","","","","","","","",""
"aa-learning-trial","101","496905","0.0-9.0-2.0-1.14","6135","1","22","Female","approach_avoid_spark_v1","""event"",""trial"",""time""
""fullscreenenter"",""1"",""3481""
","
","
","""event"",""trial"",""time""
""fullscreenenter"",""1"",""3481""
","
","","","","","","1184.5","images/cat5.png","","","learning","-5","0","0","0","cat","pets","1","0","","bad","[-5]"
"html-keyboard-response","102","497409","0.0-9.0-2.0-0.15","6135","1","22","Female","approach_avoid_spark_v1","""event"",""trial"",""time""
""fullscreenenter"",""1"",""3481""
","
","
","""event"",""trial"",""time""
""fullscreenenter"",""1"",""3481""
","
","","","","","","null","<div style=""font-size:60px;"">+</div>","null","","fixation","","","","","","","","","","",""
"aa-learning-trial","103","500417","0.0-9.0-2.0-1.15","6135","1","22","Female","approach_avoid_spark_v1","""event"",""trial"",""time""
""fullscreenenter"",""1"",""3481""
","
","
","""event"",""trial"",""time""
""fullscreenenter"",""1"",""3481""
","
","","","","","","873.3000011444092","images/rodent1.png","","","learning","5","5","1","1","rodent","pets","1","0","","good","[5]"
"html-keyboard-response","104","500921","0.0-9.0-2.0-0.16","6135","1","22","Female","approach_avoid_spark_v1","""event"",""trial"",""time""
""fullscreenenter"",""1"",""3481""
","
","
","""event"",""trial"",""time""
""fullscreenenter"",""1"",""3481""
","
","","","","","","null","<div style=""font-size:60px;"">+</div>","null","","fixation","","","","","","","","","","",""
"aa-learning-trial","105","503929","0.0-9.0-2.0-1.16","6135","1","22","Female","approach_avoid_spark_v1","""event"",""trial"",""time""
""fullscreenenter"",""1"",""3481""
","
","
","""event"",""trial"",""time""
""fullscreenenter"",""1"",""3481""
","
","","","","","","880.7000007629395","images/dog6.png","","","learning","[-1]","0","0","0","dog","pets","1","0","","neutral","0"
"html-keyboard-response","106","504433","0.0-9.0-2.0-0.17","6135","1","22","Female","approach_avoid_spark_v1","""event"",""trial"",""time""
""fullscreenenter"",""1"",""3481""
","
","
","""event"",""trial"",""time""
""fullscreenenter"",""1"",""3481""
","
","","","","","","null","<div style=""font-size:60px;"">+</div>","null","","fixation","","","","","","","","","","",""
"aa-learning-trial","107","507441","0.0-9.0-2.0-1.17","6135","1","22","Female","approach_avoid_spark_v1","""event"",""trial"",""time""
""fullscreenenter"",""1"",""3481""
","
","
","""event"",""trial"",""time""
""fullscreenenter"",""1"",""3481""
","
","","","","","","1170.3999996185303","images/rodent8.png","","","learning","8","8","1","1","rodent","pets","1","0","","good","[5]"
"html-keyboard-response","108","507945","0.0-9.0-2.0-0.18","6135","1","22","Female","approach_avoid_spark_v1","""event"",""trial"",""time""
""fullscreenenter"",""1"",""3481""
","
","
","""event"",""trial"",""time""
""fullscreenenter"",""1"",""3481""
","
","","","","","","null","<div style=""font-size:60px;"">+</div>","null","","fixation","","","","","","","","","","",""
"aa-learning-trial","109","510953","0.0-9.0-2.0-1.18","6135","1","22","Female","approach_avoid_spark_v1","""event"",""trial"",""time""
""fullscreenenter"",""1"",""3481""
","
","
","""event"",""trial"",""time""
""fullscreenenter"",""1"",""3481""
","
","","","","","","1376.8000011444092","images/cat5.png","","","learning","-4","0","0","0","cat","pets","1","0","","bad","[-5]"
"html-keyboard-response","110","511457","0.0-9.0-2.0-0.19","6135","1","22","Female","approach_avoid_spark_v1","""event"",""trial"",""time""
""fullscreenenter"",""1"",""3481""
","
","
","""event"",""trial"",""time""
""fullscreenenter"",""1"",""3481""
","
","","","","","","null","<div style=""font-size:60px;"">+</div>","null","","fixation","","","","","","","","","","",""
"aa-learning-trial","111","514461","0.0-9.0-2.0-1.19","6135","1","22","Female","approach_avoid_spark_v1","""event"",""trial"",""time""
""fullscreenenter"",""1"",""3481""
","
","
","""event"",""trial"",""time""
""fullscreenenter"",""1"",""3481""
","
","","","","","","2495.6000003814697","images/cat7.png","","","learning","-4","0","0","0","cat","pets","1","0","","bad","[-5]"
"html-keyboard-response","112","514969","0.0-9.0-2.0-0.20","6135","1","22","Female","approach_avoid_spark_v1","""event"",""trial"",""time""
""fullscreenenter"",""1"",""3481""
","
","
","""event"",""trial"",""time""
""fullscreenenter"",""1"",""3481""
","
","","","","","","null","<div style=""font-size:60px;"">+</div>","null","","fixation","","","","","","","","","","",""
"aa-learning-trial","113","517977","0.0-9.0-2.0-1.20","6135","1","22","Female","approach_avoid_spark_v1","""event"",""trial"",""time""
""fullscreenenter"",""1"",""3481""
","
","
","""event"",""trial"",""time""
""fullscreenenter"",""1"",""3481""
","
","","","","","","1454.1000003814697","images/cat5.png","","","learning","-4","-4","1","1","cat","pets","1","0","","bad","[-5]"
"html-keyboard-response","114","518481","0.0-9.0-2.0-0.21","6135","1","22","Female","approach_avoid_spark_v1","""event"",""trial"",""time""
""fullscreenenter"",""1"",""3481""
","
","
","""event"",""trial"",""time""
""fullscreenenter"",""1"",""3481""
","
","","","","","","null","<div style=""font-size:60px;"">+</div>","null","","fixation","","","","","","","","","","",""
"aa-learning-trial","115","521489","0.0-9.0-2.0-1.21","6135","1","22","Female","approach_avoid_spark_v1","""event"",""trial"",""time""
""fullscreenenter"",""1"",""3481""
","
","
","""event"",""trial"",""time""
""fullscreenenter"",""1"",""3481""
","
","","","","","","2061.7000007629395","images/dog2.png","","","learning","1","1","1","1","dog","pets","1","0","","neutral","0"
"html-keyboard-response","116","521993","0.0-9.0-2.0-0.22","6135","1","22","Female","approach_avoid_spark_v1","""event"",""trial"",""time""
""fullscreenenter"",""1"",""3481""
","
","
","""event"",""trial"",""time""
""fullscreenenter"",""1"",""3481""
","
","","","","","","null","<div style=""font-size:60px;"">+</div>","null","","fixation","","","","","","","","","","",""
"aa-learning-trial","117","525000","0.0-9.0-2.0-1.22","6135","1","22","Female","approach_avoid_spark_v1","""event"",""trial"",""time""
""fullscreenenter"",""1"",""3481""
","
","
","""event"",""trial"",""time""
""fullscreenenter"",""1"",""3481""
","
","","","","","","629.5","images/cat5.png","","","learning","-4","0","0","0","cat","pets","1","0","","bad","[-5]"
"html-keyboard-response","118","525505","0.0-9.0-2.0-0.23","6135","1","22","Female","approach_avoid_spark_v1","""event"",""trial"",""time""
""fullscreenenter"",""1"",""3481""
","
","
","""event"",""trial"",""time""
""fullscreenenter"",""1"",""3481""
","
","","","","","","null","<div style=""font-size:60px;"">+</div>","null","","fixation","","","","","","","","","","",""
"aa-learning-trial","119","528513","0.0-9.0-2.0-1.23","6135","1","22","Female","approach_avoid_spark_v1","""event"",""trial"",""time""
""fullscreenenter"",""1"",""3481""
","
","
","""event"",""trial"",""time""
""fullscreenenter"",""1"",""3481""
","
","","","","","","1038","images/cat3.png","","","learning","-5","-5","1","1","cat","pets","1","0","","bad","[-5]"
"html-keyboard-response","120","529016","0.0-9.0-2.0-0.24","6135","1","22","Female","approach_avoid_spark_v1","""event"",""trial"",""time""
""fullscreenenter"",""1"",""3481""
","
","
","""event"",""trial"",""time""
""fullscreenenter"",""1"",""3481""
","
","","","","","","null","<div style=""font-size:60px;"">+</div>","null","","fixation","","","","","","","","","","",""
"aa-learning-trial","121","532025","0.0-9.0-2.0-1.24","6135","1","22","Female","approach_avoid_spark_v1","""event"",""trial"",""time""
""fullscreenenter"",""1"",""3481""
","
","
","""event"",""trial"",""time""
""fullscreenenter"",""1"",""3481""
","
","","","","","","1184.8999996185303","images/dog3.png","","","learning","-3","0","0","0","dog","pets","1","0","","neutral","0"
"html-keyboard-response","122","532528","0.0-9.0-2.0-0.25","6135","1","22","Female","approach_avoid_spark_v1","""event"",""trial"",""time""
""fullscreenenter"",""1"",""3481""
","
","
","""event"",""trial"",""time""
""fullscreenenter"",""1"",""3481""
","
","","","","","","null","<div style=""font-size:60px;"">+</div>","null","","fixation","","","","","","","","","","",""
"aa-learning-trial","123","535537","0.0-9.0-2.0-1.25","6135","1","22","Female","approach_avoid_spark_v1","""event"",""trial"",""time""
""fullscreenenter"",""1"",""3481""
","
","
","""event"",""trial"",""time""
""fullscreenenter"",""1"",""3481""
","
","","","","","","924.1000003814697","images/rodent1.png","","","learning","6","6","1","1","rodent","pets","1","0","","good","[5]"
"html-keyboard-response","124","536042","0.0-9.0-2.0-0.26","6135","1","22","Female","approach_avoid_spark_v1","""event"",""trial"",""time""
""fullscreenenter"",""1"",""3481""
","
","
","""event"",""trial"",""time""
""fullscreenenter"",""1"",""3481""
","
","","","","","","null","<div style=""font-size:60px;"">+</div>","null","","fixation","","","","","","","","","","",""
"aa-learning-trial","125","539049","0.0-9.0-2.0-1.26","6135","1","22","Female","approach_avoid_spark_v1","""event"",""trial"",""time""
""fullscreenenter"",""1"",""3481""
","
","
","""event"",""trial"",""time""
""fullscreenenter"",""1"",""3481""
","
","","","","","","1821.7999992370605","images/rodent4.png","","","learning","4","4","1","1","rodent","pets","1","0","","good","[5]"
"html-keyboard-response","126","539552","0.0-9.0-2.0-0.27","6135","1","22","Female","approach_avoid_spark_v1","""event"",""trial"",""time""
""fullscreenenter"",""1"",""3481""
","
","
","""event"",""trial"",""time""
""fullscreenenter"",""1"",""3481""
","
","","","","","","null","<div style=""font-size:60px;"">+</div>","null","","fixation","","","","","","","","","","",""
"aa-learning-trial","127","542562","0.0-9.0-2.0-1.27","6135","1","22","Female","approach_avoid_spark_v1","""event"",""trial"",""time""
""fullscreenenter"",""1"",""3481""
","
","
","""event"",""trial"",""time""
""fullscreenenter"",""1"",""3481""
","
","","","","","","729.8000011444092","images/rodent8.png","","","learning","6","6","1","1","rodent","pets","1","0","","good","[5]"
"html-keyboard-response","128","543065","0.0-9.0-2.0-0.28","6135","1","22","Female","approach_avoid_spark_v1","""event"",""trial"",""time""
""fullscreenenter"",""1"",""3481""
","
","
","""event"",""trial"",""time""
""fullscreenenter"",""1"",""3481""
","
","","","","","","null","<div style=""font-size:60px;"">+</div>","null","","fixation","","","","","","","","","","",""
"aa-learning-trial","129","546073","0.0-9.0-2.0-1.28","6135","1","22","Female","approach_avoid_spark_v1","""event"",""trial"",""time""
""fullscreenenter"",""1"",""3481""
","
","
","""event"",""trial"",""time""
""fullscreenenter"",""1"",""3481""
","
","","","","","","1238.8999996185303","images/rodent3.png","","","learning","5","5","1","1","rodent","pets","1","0","","good","[5]"
"html-keyboard-response","130","546576","0.0-9.0-2.0-0.29","6135","1","22","Female","approach_avoid_spark_v1","""event"",""trial"",""time""
""fullscreenenter"",""1"",""3481""
","
","
","""event"",""trial"",""time""
""fullscreenenter"",""1"",""3481""
","
","","","","","","null","<div style=""font-size:60px;"">+</div>","null","","fixation","","","","","","","","","","",""
"aa-learning-trial","131","549586","0.0-9.0-2.0-1.29","6135","1","22","Female","approach_avoid_spark_v1","""event"",""trial"",""time""
""fullscreenenter"",""1"",""3481""
","
","
","""event"",""trial"",""time""
""fullscreenenter"",""1"",""3481""
","
","","","","","","937.7999992370605","images/cat4.png","","","learning","-4","0","0","0","cat","pets","1","0","","bad","[-5]"
"html-keyboard-response","132","550089","0.0-9.0-2.0-0.30","6135","1","22","Female","approach_avoid_spark_v1","""event"",""trial"",""time""
""fullscreenenter"",""1"",""3481""
","
","
","""event"",""trial"",""time""
""fullscreenenter"",""1"",""3481""
","
","","","","","","null","<div style=""font-size:60px;"">+</div>","null","","fixation","","","","","","","","","","",""
"aa-learning-trial","133","553097","0.0-9.0-2.0-1.30","6135","1","22","Female","approach_avoid_spark_v1","""event"",""trial"",""time""
""fullscreenenter"",""1"",""3481""
","
","
","""event"",""trial"",""time""
""fullscreenenter"",""1"",""3481""
","
","","","","","","843.8000011444092","images/cat8.png","","","learning","-2","0","0","0","cat","pets","1","0","","bad","[-5]"
"html-keyboard-response","134","553601","0.0-9.0-2.0-0.31","6135","1","22","Female","approach_avoid_spark_v1","""event"",""trial"",""time""
""fullscreenenter"",""1"",""3481""
","
","
","""event"",""trial"",""time""
""fullscreenenter"",""1"",""3481""
","
","","","","","","null","<div style=""font-size:60px;"">+</div>","null","","fixation","","","","","","","","","","",""
"aa-learning-trial","135","556609","0.0-9.0-2.0-1.31","6135","1","22","Female","approach_avoid_spark_v1","""event"",""trial"",""time""
""fullscreenenter"",""1"",""3481""
","
","
","""event"",""trial"",""time""
""fullscreenenter"",""1"",""3481""
","
","","","","","","782.6999988555908","images/rodent3.png","","","learning","6","6","1","1","rodent","pets","1","0","","good","[5]"
"html-keyboard-response","136","557113","0.0-9.0-2.0-0.32","6135","1","22","Female","approach_avoid_spark_v1","""event"",""trial"",""time""
""fullscreenenter"",""1"",""3481""
","
","
","""event"",""trial"",""time""
""fullscreenenter"",""1"",""3481""
","
","","","","","","null","<div style=""font-size:60px;"">+</div>","null","","fixation","","","","","","","","","","",""
"aa-learning-trial","137","560121","0.0-9.0-2.0-1.32","6135","1","22","Female","approach_avoid_spark_v1","""event"",""trial"",""time""
""fullscreenenter"",""1"",""3481""
","
","
","""event"",""trial"",""time""
""fullscreenenter"",""1"",""3481""
","
","","","","","","2719.199998855591","images/cat5.png","","","learning","-6","0","0","0","cat","pets","1","0","","bad","[-5]"
"html-keyboard-response","138","560626","0.0-9.0-2.0-0.33","6135","1","22","Female","approach_avoid_spark_v1","""event"",""trial"",""time""
""fullscreenenter"",""1"",""3481""
","
","
","""event"",""trial"",""time""
""fullscreenenter"",""1"",""3481""
","
","","","","","","null","<div style=""font-size:60px;"">+</div>","null","","fixation","","","","","","","","","","",""
"aa-learning-trial","139","563633","0.0-9.0-2.0-1.33","6135","1","22","Female","approach_avoid_spark_v1","""event"",""trial"",""time""
""fullscreenenter"",""1"",""3481""
","
","
","""event"",""trial"",""time""
""fullscreenenter"",""1"",""3481""
","
","","","","","","899.1000003814697","images/dog3.png","","","learning","2","2","1","1","dog","pets","1","0","","neutral","0"
"html-keyboard-response","140","564137","0.0-9.0-2.0-0.34","6135","1","22","Female","approach_avoid_spark_v1","""event"",""trial"",""time""
""fullscreenenter"",""1"",""3481""
","
","
","""event"",""trial"",""time""
""fullscreenenter"",""1"",""3481""
","
","","","","","","null","<div style=""font-size:60px;"">+</div>","null","","fixation","","","","","","","","","","",""
"aa-learning-trial","141","567145","0.0-9.0-2.0-1.34","6135","1","22","Female","approach_avoid_spark_v1","""event"",""trial"",""time""
""fullscreenenter"",""1"",""3481""
","
","
","""event"",""trial"",""time""
""fullscreenenter"",""1"",""3481""
","
","","","","","","1396.7999992370605","images/dog1.png","","","learning","[-1]","0","0","0","dog","pets","1","0","","neutral","0"
"html-keyboard-response","142","567650","0.0-9.0-2.0-0.35","6135","1","22","Female","approach_avoid_spark_v1","""event"",""trial"",""time""
""fullscreenenter"",""1"",""3481""
","
","
","""event"",""trial"",""time""
""fullscreenenter"",""1"",""3481""
","
","","","","","","null","<div style=""font-size:60px;"">+</div>","null","","fixation","","","","","","","","","","",""
"aa-learning-trial","143","570657","0.0-9.0-2.0-1.35","6135","1","22","Female","approach_avoid_spark_v1","""event"",""trial"",""time""
""fullscreenenter"",""1"",""3481""
","
","
","""event"",""trial"",""time""
""fullscreenenter"",""1"",""3481""
","
","","","","","","1243.7999992370605","images/cat3.png","","","learning","-3","0","0","0","cat","pets","1","0","","bad","[-5]"
"html-keyboard-response","144","571162","0.0-9.0-2.0-0.36","6135","1","22","Female","approach_avoid_spark_v1","""event"",""trial"",""time""
""fullscreenenter"",""1"",""3481""
","
","
","""event"",""trial"",""time""
""fullscreenenter"",""1"",""3481""
","
","","","","","","null","<div style=""font-size:60px;"">+</div>","null","","fixation","","","","","","","","","","",""
"aa-learning-trial","145","574170","0.0-9.0-2.0-1.36","6135","1","22","Female","approach_avoid_spark_v1","""event"",""trial"",""time""
""fullscreenenter"",""1"",""3481""
","
","
","""event"",""trial"",""time""
""fullscreenenter"",""1"",""3481""
","
","","","","","","843.3999996185303","images/rodent1.png","","","learning","4","4","1","1","rodent","pets","1","0","","good","[5]"
"html-keyboard-response","146","574673","0.0-9.0-2.0-0.37","6135","1","22","Female","approach_avoid_spark_v1","""event"",""trial"",""time""
""fullscreenenter"",""1"",""3481""
","
","
","""event"",""trial"",""time""
""fullscreenenter"",""1"",""3481""
","
","","","","","","null","<div style=""font-size:60px;"">+</div>","null","","fixation","","","","","","","","","","",""
"aa-learning-trial","147","577682","0.0-9.0-2.0-1.37","6135","1","22","Female","approach_avoid_spark_v1","""event"",""trial"",""time""
""fullscreenenter"",""1"",""3481""
","
","
","""event"",""trial"",""time""
""fullscreenenter"",""1"",""3481""
","
","","","","","","1061.1000003814697","images/dog6.png","","","learning","3","0","0","0","dog","pets","1","0","","neutral","0"
"html-keyboard-response","148","578185","0.0-9.0-2.0-0.38","6135","1","22","Female","approach_avoid_spark_v1","""event"",""trial"",""time""
""fullscreenenter"",""1"",""3481""
","
","
","""event"",""trial"",""time""
""fullscreenenter"",""1"",""3481""
","
","","","","","","null","<div style=""font-size:60px;"">+</div>","null","","fixation","","","","","","","","","","",""
"aa-learning-trial","149","581193","0.0-9.0-2.0-1.38","6135","1","22","Female","approach_avoid_spark_v1","""event"",""trial"",""time""
""fullscreenenter"",""1"",""3481""
","
","
","""event"",""trial"",""time""
""fullscreenenter"",""1"",""3481""
","
","","","","","","658.3999996185303","images/dog6.png","","","learning","[1]","1","1","1","dog","pets","1","0","","neutral","0"
"html-keyboard-response","150","581697","0.0-9.0-2.0-0.39","6135","1","22","Female","approach_avoid_spark_v1","""event"",""trial"",""time""
""fullscreenenter"",""1"",""3481""
","
","
","""event"",""trial"",""time""
""fullscreenenter"",""1"",""3481""
","
","","","","","","null","<div style=""font-size:60px;"">+</div>","null","","fixation","","","","","","","","","","",""
"aa-learning-trial","151","584705","0.0-9.0-2.0-1.39","6135","1","22","Female","approach_avoid_spark_v1","""event"",""trial"",""time""
""fullscreenenter"",""1"",""3481""
","
","
","""event"",""trial"",""time""
""fullscreenenter"",""1"",""3481""
","
","","","","","","1228","images/dog8.png","","","learning","-1","0","0","0","dog","pets","1","0","","neutral","0"
"html-keyboard-response","152","585209","0.0-9.0-2.0-0.40","6135","1","22","Female","approach_avoid_spark_v1","""event"",""trial"",""time""
""fullscreenenter"",""1"",""3481""
","
","
","""event"",""trial"",""time""
""fullscreenenter"",""1"",""3481""
","
","","","","","","null","<div style=""font-size:60px;"">+</div>","null","","fixation","","","","","","","","","","",""
"aa-learning-trial","153","588217","0.0-9.0-2.0-1.40","6135","1","22","Female","approach_avoid_spark_v1","""event"",""trial"",""time""
""fullscreenenter"",""1"",""3481""
","
","
","""event"",""trial"",""time""
""fullscreenenter"",""1"",""3481""
","
","","","","","","1186.2999992370605","images/cat3.png","","","learning","-6","0","0","0","cat","pets","1","0","","bad","[-5]"
"html-keyboard-response","154","588722","0.0-9.0-2.0-0.41","6135","1","22","Female","approach_avoid_spark_v1","""event"",""trial"",""time""
""fullscreenenter"",""1"",""3481""
","
","
","""event"",""trial"",""time""
""fullscreenenter"",""1"",""3481""
","
","","","","","","null","<div style=""font-size:60px;"">+</div>","null","","fixation","","","","","","","","","","",""
"aa-learning-trial","155","591729","0.0-9.0-2.0-1.41","6135","1","22","Female","approach_avoid_spark_v1","""event"",""trial"",""time""
""fullscreenenter"",""1"",""3481""
","
","
","""event"",""trial"",""time""
""fullscreenenter"",""1"",""3481""
","
","","","","","","632.8999996185303","images/rodent8.png","","","learning","6","6","1","1","rodent","pets","1","0","","good","[5]"
"html-keyboard-response","156","592233","0.0-9.0-2.0-0.42","6135","1","22","Female","approach_avoid_spark_v1","""event"",""trial"",""time""
""fullscreenenter"",""1"",""3481""
","
","
","""event"",""trial"",""time""
""fullscreenenter"",""1"",""3481""
","
","","","","","","null","<div style=""font-size:60px;"">+</div>","null","","fixation","","","","","","","","","","",""
"aa-learning-trial","157","595241","0.0-9.0-2.0-1.42","6135","1","22","Female","approach_avoid_spark_v1","""event"",""trial"",""time""
""fullscreenenter"",""1"",""3481""
","
","
","""event"",""trial"",""time""
""fullscreenenter"",""1"",""3481""
","
","","","","","","801.8999996185303","images/cat4.png","","","learning","-4","0","0","0","cat","pets","1","0","","bad","[-5]"
"html-keyboard-response","158","595745","0.0-9.0-2.0-0.43","6135","1","22","Female","approach_avoid_spark_v1","""event"",""trial"",""time""
""fullscreenenter"",""1"",""3481""
","
","
","""event"",""trial"",""time""
""fullscreenenter"",""1"",""3481""
","
","","","","","","null","<div style=""font-size:60px;"">+</div>","null","","fixation","","","","","","","","","","",""
"aa-learning-trial","159","598751","0.0-9.0-2.0-1.43","6135","1","22","Female","approach_avoid_spark_v1","""event"",""trial"",""time""
""fullscreenenter"",""1"",""3481""
","
","
","""event"",""trial"",""time""
""fullscreenenter"",""1"",""3481""
","
","","","","","","2689.3999996185303","images/dog3.png","","","learning","1","0","0","0","dog","pets","1","0","","neutral","0"
"html-keyboard-response","160","599257","0.0-9.0-2.0-0.44","6135","1","22","Female","approach_avoid_spark_v1","""event"",""trial"",""time""
""fullscreenenter"",""1"",""3481""
","
","
","""event"",""trial"",""time""
""fullscreenenter"",""1"",""3481""
","
","","","","","","null","<div style=""font-size:60px;"">+</div>","null","","fixation","","","","","","","","","","",""
"aa-learning-trial","161","602260","0.0-9.0-2.0-1.44","6135","1","22","Female","approach_avoid_spark_v1","""event"",""trial"",""time""
""fullscreenenter"",""1"",""3481""
","
","
","""event"",""trial"",""time""
""fullscreenenter"",""1"",""3481""
","
","","","","","","1767.3999996185303","images/dog8.png","","","learning","-1","0","0","0","dog","pets","1","0","","neutral","0"
"html-keyboard-response","162","602769","0.0-9.0-2.0-0.45","6135","1","22","Female","approach_avoid_spark_v1","""event"",""trial"",""time""
""fullscreenenter"",""1"",""3481""
","
","
","""event"",""trial"",""time""
""fullscreenenter"",""1"",""3481""
","
","","","","","","null","<div style=""font-size:60px;"">+</div>","null","","fixation","","","","","","","","","","",""
"aa-learning-trial","163","605777","0.0-9.0-2.0-1.45","6135","1","22","Female","approach_avoid_spark_v1","""event"",""trial"",""time""
""fullscreenenter"",""1"",""3481""
","
","
","""event"",""trial"",""time""
""fullscreenenter"",""1"",""3481""
","
","","","","","","616.3000011444092","images/rodent1.png","","","learning","4","4","1","1","rodent","pets","1","0","","good","[5]"
"html-keyboard-response","164","606282","0.0-9.0-2.0-0.46","6135","1","22","Female","approach_avoid_spark_v1","""event"",""trial"",""time""
""fullscreenenter"",""1"",""3481""
","
","
","""event"",""trial"",""time""
""fullscreenenter"",""1"",""3481""
","
","","","","","","null","<div style=""font-size:60px;"">+</div>","null","","fixation","","","","","","","","","","",""
"aa-learning-trial","165","609289","0.0-9.0-2.0-1.46","6135","1","22","Female","approach_avoid_spark_v1","""event"",""trial"",""time""
""fullscreenenter"",""1"",""3481""
","
","
","""event"",""trial"",""time""
""fullscreenenter"",""1"",""3481""
","
","","","","","","882.3999996185303","images/dog3.png","","","learning","-1","-1","1","1","dog","pets","1","0","","neutral","0"
"html-keyboard-response","166","609793","0.0-9.0-2.0-0.47","6135","1","22","Female","approach_avoid_spark_v1","""event"",""trial"",""time""
""fullscreenenter"",""1"",""3481""
","
","
","""event"",""trial"",""time""
""fullscreenenter"",""1"",""3481""
","
","","","","","","null","<div style=""font-size:60px;"">+</div>","null","","fixation","","","","","","","","","","",""
"aa-learning-trial","167","612801","0.0-9.0-2.0-1.47","6135","1","22","Female","approach_avoid_spark_v1","""event"",""trial"",""time""
""fullscreenenter"",""1"",""3481""
","
","
","""event"",""trial"",""time""
""fullscreenenter"",""1"",""3481""
","
","","","","","","940.7999992370605","images/rodent7.png","","","learning","6","0","0","0","rodent","pets","1","0","","good","[5]"
"html-keyboard-response","168","613305","0.0-9.0-2.0-0.48","6135","1","22","Female","approach_avoid_spark_v1","""event"",""trial"",""time""
""fullscreenenter"",""1"",""3481""
","
","
","""event"",""trial"",""time""
""fullscreenenter"",""1"",""3481""
","
","","","","","","null","<div style=""font-size:60px;"">+</div>","null","","fixation","","","","","","","","","","",""
"aa-learning-trial","169","616315","0.0-9.0-2.0-1.48","6135","1","22","Female","approach_avoid_spark_v1","""event"",""trial"",""time""
""fullscreenenter"",""1"",""3481""
","
","
","""event"",""trial"",""time""
""fullscreenenter"",""1"",""3481""
","
","","","","","","810","images/dog6.png","","","learning","[1]","1","1","1","dog","pets","1","0","","neutral","0"
"html-keyboard-response","170","616817","0.0-9.0-2.0-0.49","6135","1","22","Female","approach_avoid_spark_v1","""event"",""trial"",""time""
""fullscreenenter"",""1"",""3481""
","
","
","""event"",""trial"",""time""
""fullscreenenter"",""1"",""3481""
","
","","","","","","null","<div style=""font-size:60px;"">+</div>","null","","fixation","","","","","","","","","","",""
"aa-learning-trial","171","619825","0.0-9.0-2.0-1.49","6135","1","22","Female","approach_avoid_spark_v1","""event"",""trial"",""time""
""fullscreenenter"",""1"",""3481""
","
","
","""event"",""trial"",""time""
""fullscreenenter"",""1"",""3481""
","
","","","","","","557.5","images/rodent8.png","","","learning","2","2","1","1","rodent","pets","1","0","","good","[5]"
"html-keyboard-response","172","620329","0.0-9.0-2.0-0.50","6135","1","22","Female","approach_avoid_spark_v1","""event"",""trial"",""time""
""fullscreenenter"",""1"",""3481""
","
","
","""event"",""trial"",""time""
""fullscreenenter"",""1"",""3481""
","
","","","","","","null","<div style=""font-size:60px;"">+</div>","null","","fixation","","","","","","","","","","",""
"aa-learning-trial","173","623337","0.0-9.0-2.0-1.50","6135","1","22","Female","approach_avoid_spark_v1","""event"",""trial"",""time""
""fullscreenenter"",""1"",""3481""
","
","
","""event"",""trial"",""time""
""fullscreenenter"",""1"",""3481""
","
","","","","","","1004.6000003814697","images/cat3.png","","","learning","-7","0","0","0","cat","pets","1","0","","bad","[-5]"
"html-button-response","174","626012","0.0-9.0-3.0","6135","1","22","Female","approach_avoid_spark_v1","""event"",""trial"",""time""
""fullscreenenter"",""1"",""3481""
","
","
","""event"",""trial"",""time""
""fullscreenenter"",""1"",""3481""
","
","","","","","","2673.7999992370605","<p> You have completed the round! <p> In this round, you earned 49 points! </p>","0","","break","","","","","","","","","","",""
"html-button-response","175","627090","0.0-10.0","6135","1","22","Female","approach_avoid_spark_v1","""event"",""trial"",""time""
""fullscreenenter"",""1"",""3481""
","
","
","""event"",""trial"",""time""
""fullscreenenter"",""1"",""3481""
","
","","","","","","1076.3000011444092","<p> Now it's time to play another round. </p>","0","","transition_screen","","","","","","","","","","",""
"preload","176","627218","0.0-11.0-0.0","6135","1","22","Female","approach_avoid_spark_v1","""event"",""trial"",""time""
""fullscreenenter"",""1"",""3481""
","
","
","""event"",""trial"",""time""
""fullscreenenter"",""1"",""3481""
","
","true","false","[]","[]","[]","","","","","","","","","","","","","","","",""
"learning-instructions","177","638460","0.0-11.0-1.0-0.0","6135","1","22","Female","approach_avoid_spark_v1","""event"",""trial"",""time""
""fullscreenenter"",""1"",""3481""
","
","
","""event"",""trial"",""time""
""fullscreenenter"",""1"",""3481""
","
","","","","","","1410.8000011444092","<p> Your goal in this round is to take care of lots of farm animals. </p></div>","","0","instructions","","","","","","","","","","",""
"learning-instructions","178","654028","0.0-11.0-1.0-0.1","6135","1","22","Female","approach_avoid_spark_v1","""event"",""trial"",""time""
""fullscreenenter"",""1"",""3481""
","
","
","""event"",""trial"",""time""
""fullscreenenter"",""1"",""3481""
","
","","","","","","3498.800001144409","<p> Some farm animals are hungry, while other farm animals are already full.  </p><p> On each turn, you will see a farm animal.   </p><p> You need to decide whether to feed it or not.  </p>","","0","instructions","","","","","","","","","","",""
"learning-instructions","179","662008","0.0-11.0-1.0-0.2","6135","1","22","Female","approach_avoid_spark_v1","""event"",""trial"",""time""
""fullscreenenter"",""1"",""3481""
","
","
","""event"",""trial"",""time""
""fullscreenenter"",""1"",""3481""
","
","","","","","","1478.2999992370605","<p> You can feed the farm animal by pressing 1 and leave the farm animal alone by pressing 0. </p><br><div class=""choice-instructions-grid""> <div class=""choice-option""><img src=""images/approach.png"" class=""choice-option-img"" stage=""instructions"" position=""0"" ><div class=""choice-option-text""> Press ""1."" </div></div><div class=""choice-option""><img src=""images/avoid.png"" class=""choice-option-img"" stage=""instructions"" position=""1"" ><div class=""choice-option-text""> Press ""0."" </div></div>","","0","instructions","","","","","","","","","","",""
"learning-instructions","180","674001","0.0-11.0-1.0-0.3","6135","1","22","Female","approach_avoid_spark_v1","""event"",""trial"",""time""
""fullscreenenter"",""1"",""3481""
","
","
","""event"",""trial"",""time""
""fullscreenenter"",""1"",""3481""
","
","","","","","","1562.5","<p> If you feed a hungry farm animal, you will make it feel satisfied! </p><p> But if you feed the farm animal and it was already full, you will make it feel sick. </p>","","0","instructions","","","","","","","","","","",""
"learning-instructions","181","689641","0.0-11.0-1.0-0.4","6135","1","22","Female","approach_avoid_spark_v1","""event"",""trial"",""time""
""fullscreenenter"",""1"",""3481""
","
","
","""event"",""trial"",""time""
""fullscreenenter"",""1"",""3481""
","
","","","","","","2421.8999996185303","<p> You will earn points based on how you made the farm animal feel. </p><p> If you made it satisfied, you will WIN anywhere from 1 - 9 points, </p><p> but if you made it sick, you will LOSE anywhere from 1 - 9 points. </p>","","0","instructions","","","","","","","","","","",""
"learning-instructions","182","698079","0.0-11.0-1.0-0.5","6135","1","22","Female","approach_avoid_spark_v1","""event"",""trial"",""time""
""fullscreenenter"",""1"",""3481""
","
","
","""event"",""trial"",""time""
""fullscreenenter"",""1"",""3481""
","
","","","","","","1770.5","<p> You will see how many points you won or lost in the center of the screen. </p><p> Here is what you would see if you won 5 points: </p><p style=""color:green;font-size:50px;font-weight:bolder"">5</p>","","0","instructions","","","","","","","","","","",""
"learning-instructions","183","703080","0.0-11.0-1.0-0.6","6135","1","22","Female","approach_avoid_spark_v1","""event"",""trial"",""time""
""fullscreenenter"",""1"",""3481""
","
","
","""event"",""trial"",""time""
""fullscreenenter"",""1"",""3481""
","
","","","","","","2161.300001144409","<p> And here is what you would see if you lost 3 points: </p><p style=""color:red;font-size:50px;font-weight:bolder"">-3</p>","","0","instructions","","","","","","","","","","",""
"learning-instructions","184","720560","0.0-11.0-1.0-0.7","6135","1","22","Female","approach_avoid_spark_v1","""event"",""trial"",""time""
""fullscreenenter"",""1"",""3481""
","
","
","""event"",""trial"",""time""
""fullscreenenter"",""1"",""3481""
","
","","","","","","1651.3999996185303","<p> Some farm animals will become very satisfied or very sick. </p><p> These farm animals will make you win or lose LOTS of points. </p><p> Other farm animals have less strong feelings. </p><p> These farm animals will make you win or lose small amounts of points. </p>","","0","instructions","","","","","","","","","","",""
"learning-instructions","185","733201","0.0-11.0-1.0-0.8","6135","1","22","Female","approach_avoid_spark_v1","""event"",""trial"",""time""
""fullscreenenter"",""1"",""3481""
","
","
","""event"",""trial"",""time""
""fullscreenenter"",""1"",""3481""
","
","","","","","","491.79999923706055","<p> If you choose to leave the farm animal alone, you will not win or lose any points. </p><p>  However, in the center of the screen, you will see the number of points you WOULD HAVE won or lost if you had fed the farm animal. </p>","","0","instructions","","","","","","","","","","",""
"learning-instructions","186","745740","0.0-11.0-1.0-0.9","6135","1","22","Female","approach_avoid_spark_v1","""event"",""trial"",""time""
""fullscreenenter"",""1"",""3481""
","
","
","""event"",""trial"",""time""
""fullscreenenter"",""1"",""3481""
","
","","","","","","1031.6000003814697","<p> Here is what you might see if you did not feed the farm animal but the animal was hungry: </p><p style=""color:grey; font-size:50px; display: inline-block; border-spacing: 15px; border-width:3px; border-style:solid; border-color:red"">  &nbsp; 6 &nbsp; </p><p> Remember, in this case, you would not win or lose ANY points because you did not feed the farm animal.  </p>","","0","instructions","","","","","","","","","","",""
"learning-instructions","187","755192","0.0-11.0-1.0-0.10","6135","1","22","Female","approach_avoid_spark_v1","""event"",""trial"",""time""
""fullscreenenter"",""1"",""3481""
","
","
","""event"",""trial"",""time""
""fullscreenenter"",""1"",""3481""
","
","","","","","","1712.3999996185303","<p> Try to make the best choice for each farm animal because </p><p> at the end of the game, you will earn bonus money based on how many points you earned. </p>","","0","instructions","","","","","","","","","","",""
"learning-instructions","188","765497","0.0-11.0-1.0-0.11","6135","1","22","Female","approach_avoid_spark_v1","""event"",""trial"",""time""
""fullscreenenter"",""1"",""3481""
","
","
","""event"",""trial"",""time""
""fullscreenenter"",""1"",""3481""
","
","","","","","","1846.2000007629395","<p> You will have 3 seconds to make each choice. Try to respond before time runs out! </p><p> You will lose 5 points each time you do not make a response. </p>","","0","instructions","","","","","","","","","","",""
"html-keyboard-response","189","766129","0.0-11.0-2.0-0.0","6135","1","22","Female","approach_avoid_spark_v1","""event"",""trial"",""time""
""fullscreenenter"",""1"",""3481""
","
","
","""event"",""trial"",""time""
""fullscreenenter"",""1"",""3481""
","
","","","","","","null","<div style=""font-size:60px;"">+</div>","null","","fixation","","","","","","","","","","",""
"aa-learning-trial","190","769140","0.0-11.0-2.0-1.0","6135","1","22","Female","approach_avoid_spark_v1","""event"",""trial"",""time""
""fullscreenenter"",""1"",""3481""
","
","
","""event"",""trial"",""time""
""fullscreenenter"",""1"",""3481""
","
","","","","","","1145.2999992370605","images/cow4.png","","","learning","3","3","1","1","cow","animals","2","1","","bad","[-6]"
"html-keyboard-response","191","769660","0.0-11.0-2.0-0.1","6135","1","22","Female","approach_avoid_spark_v1","""event"",""trial"",""time""
""fullscreenenter"",""1"",""3481""
","
","
","""event"",""trial"",""time""
""fullscreenenter"",""1"",""3481""
","
","","","","","","null","<div style=""font-size:60px;"">+</div>","null","","fixation","","","","","","","","","","",""
"aa-learning-trial","192","772670","0.0-11.0-2.0-1.1","6135","1","22","Female","approach_avoid_spark_v1","""event"",""trial"",""time""
""fullscreenenter"",""1"",""3481""
","
","
","""event"",""trial"",""time""
""fullscreenenter"",""1"",""3481""
","
","","","","","","926.5","images/sheep4.png","","","learning","-7","-7","1","1","sheep","animals","2","1","","neutral","0"
"html-keyboard-response","193","773179","0.0-11.0-2.0-0.2","6135","1","22","Female","approach_avoid_spark_v1","""event"",""trial"",""time""
""fullscreenenter"",""1"",""3481""
","
","
","""event"",""trial"",""time""
""fullscreenenter"",""1"",""3481""
","
","","","","","","null","<div style=""font-size:60px;"">+</div>","null","","fixation","","","","","","","","","","",""
"aa-learning-trial","194","776190","0.0-11.0-2.0-1.2","6135","1","22","Female","approach_avoid_spark_v1","""event"",""trial"",""time""
""fullscreenenter"",""1"",""3481""
","
","
","""event"",""trial"",""time""
""fullscreenenter"",""1"",""3481""
","
","","","","","","955.3999996185303","images/goat5.png","","","learning","7","7","1","1","goat","animals","2","1","","good","[3]"
"html-keyboard-response","195","776710","0.0-11.0-2.0-0.3","6135","1","22","Female","approach_avoid_spark_v1","""event"",""trial"",""time""
""fullscreenenter"",""1"",""3481""
","
","
","""event"",""trial"",""time""
""fullscreenenter"",""1"",""3481""
","
","","","","","","null","<div style=""font-size:60px;"">+</div>","null","","fixation","","","","","","","","","","",""
"aa-learning-trial","196","779730","0.0-11.0-2.0-1.3","6135","1","22","Female","approach_avoid_spark_v1","""event"",""trial"",""time""
""fullscreenenter"",""1"",""3481""
","
","
","""event"",""trial"",""time""
""fullscreenenter"",""1"",""3481""
","
","","","","","","875.2999992370605","images/sheep1.png","","","learning","1","0","0","0","sheep","animals","2","1","","neutral","0"
"html-keyboard-response","197","780249","0.0-11.0-2.0-0.4","6135","1","22","Female","approach_avoid_spark_v1","""event"",""trial"",""time""
""fullscreenenter"",""1"",""3481""
","
","
","""event"",""trial"",""time""
""fullscreenenter"",""1"",""3481""
","
","","","","","","null","<div style=""font-size:60px;"">+</div>","null","","fixation","","","","","","","","","","",""
"aa-learning-trial","198","783260","0.0-11.0-2.0-1.4","6135","1","22","Female","approach_avoid_spark_v1","""event"",""trial"",""time""
""fullscreenenter"",""1"",""3481""
","
","
","""event"",""trial"",""time""
""fullscreenenter"",""1"",""3481""
","
","","","","","","1126.1999988555908","images/cow8.png","","","learning","-3","-3","1","1","cow","animals","2","1","","bad","[-6]"
"html-keyboard-response","199","783780","0.0-11.0-2.0-0.5","6135","1","22","Female","approach_avoid_spark_v1","""event"",""trial"",""time""
""fullscreenenter"",""1"",""3481""
","
","
","""event"",""trial"",""time""
""fullscreenenter"",""1"",""3481""
","
","","","","","","null","<div style=""font-size:60px;"">+</div>","null","","fixation","","","","","","","","","","",""
"aa-learning-trial","200","786800","0.0-11.0-2.0-1.5","6135","1","22","Female","approach_avoid_spark_v1","""event"",""trial"",""time""
""fullscreenenter"",""1"",""3481""
","
","
","""event"",""trial"",""time""
""fullscreenenter"",""1"",""3481""
","
","","","","","","906.2000007629395","images/sheep8.png","","","learning","9","9","1","1","sheep","animals","2","1","","neutral","0"
"html-keyboard-response","201","787320","0.0-11.0-2.0-0.6","6135","1","22","Female","approach_avoid_spark_v1","""event"",""trial"",""time""
""fullscreenenter"",""1"",""3481""
","
","
","""event"",""trial"",""time""
""fullscreenenter"",""1"",""3481""
","
","","","","","","null","<div style=""font-size:60px;"">+</div>","null","","fixation","","","","","","","","","","",""
"aa-learning-trial","202","790330","0.0-11.0-2.0-1.6","6135","1","22","Female","approach_avoid_spark_v1","""event"",""trial"",""time""
""fullscreenenter"",""1"",""3481""
","
","
","""event"",""trial"",""time""
""fullscreenenter"",""1"",""3481""
","
","","","","","","1325.1000003814697","images/goat8.png","","","learning","5","5","1","1","goat","animals","2","1","","good","[3]"
"html-keyboard-response","203","790850","0.0-11.0-2.0-0.7","6135","1","22","Female","approach_avoid_spark_v1","""event"",""trial"",""time""
""fullscreenenter"",""1"",""3481""
","
","
","""event"",""trial"",""time""
""fullscreenenter"",""1"",""3481""
","
","","","","","","null","<div style=""font-size:60px;"">+</div>","null","","fixation","","","","","","","","","","",""
"aa-learning-trial","204","793858","0.0-11.0-2.0-1.7","6135","1","22","Female","approach_avoid_spark_v1","""event"",""trial"",""time""
""fullscreenenter"",""1"",""3481""
","
","
","""event"",""trial"",""time""
""fullscreenenter"",""1"",""3481""
","
","","","","","","1225.599998474121","images/sheep8.png","","","learning","9","9","1","1","sheep","animals","2","1","","neutral","0"
"html-keyboard-response","205","794361","0.0-11.0-2.0-0.8","6135","1","22","Female","approach_avoid_spark_v1","""event"",""trial"",""time""
""fullscreenenter"",""1"",""3481""
","
","
","""event"",""trial"",""time""
""fullscreenenter"",""1"",""3481""
","
","","","","","","null","<div style=""font-size:60px;"">+</div>","null","","fixation","","","","","","","","","","",""
"aa-learning-trial","206","797370","0.0-11.0-2.0-1.8","6135","1","22","Female","approach_avoid_spark_v1","""event"",""trial"",""time""
""fullscreenenter"",""1"",""3481""
","
","
","""event"",""trial"",""time""
""fullscreenenter"",""1"",""3481""
","
","","","","","","833.8999996185303","images/goat6.png","","","learning","-5","-5","1","1","goat","animals","2","1","","good","[3]"
"html-keyboard-response","207","797874","0.0-11.0-2.0-0.9","6135","1","22","Female","approach_avoid_spark_v1","""event"",""trial"",""time""
""fullscreenenter"",""1"",""3481""
","
","
","""event"",""trial"",""time""
""fullscreenenter"",""1"",""3481""
","
","","","","","","null","<div style=""font-size:60px;"">+</div>","null","","fixation","","","","","","","","","","",""
"aa-learning-trial","208","800881","0.0-11.0-2.0-1.9","6135","1","22","Female","approach_avoid_spark_v1","""event"",""trial"",""time""
""fullscreenenter"",""1"",""3481""
","
","
","""event"",""trial"",""time""
""fullscreenenter"",""1"",""3481""
","
","","","","","","861.8999996185303","images/cow5.png","","","learning","-9","-9","1","1","cow","animals","2","1","","bad","[-6]"
"html-keyboard-response","209","801385","0.0-11.0-2.0-0.10","6135","1","22","Female","approach_avoid_spark_v1","""event"",""trial"",""time""
""fullscreenenter"",""1"",""3481""
","
","
","""event"",""trial"",""time""
""fullscreenenter"",""1"",""3481""
","
","","","","","","null","<div style=""font-size:60px;"">+</div>","null","","fixation","","","","","","","","","","",""
"aa-learning-trial","210","804393","0.0-11.0-2.0-1.10","6135","1","22","Female","approach_avoid_spark_v1","""event"",""trial"",""time""
""fullscreenenter"",""1"",""3481""
","
","
","""event"",""trial"",""time""
""fullscreenenter"",""1"",""3481""
","
","","","","","","881.2999992370605","images/goat6.png","","","learning","-5","-5","1","1","goat","animals","2","1","","good","[3]"
"html-keyboard-response","211","804897","0.0-11.0-2.0-0.11","6135","1","22","Female","approach_avoid_spark_v1","""event"",""trial"",""time""
""fullscreenenter"",""1"",""3481""
","
","
","""event"",""trial"",""time""
""fullscreenenter"",""1"",""3481""
","
","","","","","","null","<div style=""font-size:60px;"">+</div>","null","","fixation","","","","","","","","","","",""
"aa-learning-trial","212","807905","0.0-11.0-2.0-1.11","6135","1","22","Female","approach_avoid_spark_v1","""event"",""trial"",""time""
""fullscreenenter"",""1"",""3481""
","
","
","""event"",""trial"",""time""
""fullscreenenter"",""1"",""3481""
","
","","","","","","827.5","images/cow5.png","","","learning","-9","0","0","0","cow","animals","2","1","","bad","[-6]"
"html-keyboard-response","213","808409","0.0-11.0-2.0-0.12","6135","1","22","Female","approach_avoid_spark_v1","""event"",""trial"",""time""
""fullscreenenter"",""1"",""3481""
","
","
","""event"",""trial"",""time""
""fullscreenenter"",""1"",""3481""
","
","","","","","","null","<div style=""font-size:60px;"">+</div>","null","","fixation","","","","","","","","","","",""
"aa-learning-trial","214","811417","0.0-11.0-2.0-1.12","6135","1","22","Female","approach_avoid_spark_v1","""event"",""trial"",""time""
""fullscreenenter"",""1"",""3481""
","
","
","""event"",""trial"",""time""
""fullscreenenter"",""1"",""3481""
","
","","","","","","946.6000003814697","images/cow4.png","","","learning","3","0","0","0","cow","animals","2","1","","bad","[-6]"
"html-keyboard-response","215","811921","0.0-11.0-2.0-0.13","6135","1","22","Female","approach_avoid_spark_v1","""event"",""trial"",""time""
""fullscreenenter"",""1"",""3481""
","
","
","""event"",""trial"",""time""
""fullscreenenter"",""1"",""3481""
","
","","","","","","null","<div style=""font-size:60px;"">+</div>","null","","fixation","","","","","","","","","","",""
"aa-learning-trial","216","814929","0.0-11.0-2.0-1.13","6135","1","22","Female","approach_avoid_spark_v1","""event"",""trial"",""time""
""fullscreenenter"",""1"",""3481""
","
","
","""event"",""trial"",""time""
""fullscreenenter"",""1"",""3481""
","
","","","","","","884.6000003814697","images/sheep4.png","","","learning","-7","0","0","0","sheep","animals","2","1","","neutral","0"
"html-keyboard-response","217","815433","0.0-11.0-2.0-0.14","6135","1","22","Female","approach_avoid_spark_v1","""event"",""trial"",""time""
""fullscreenenter"",""1"",""3481""
","
","
","""event"",""trial"",""time""
""fullscreenenter"",""1"",""3481""
","
","","","","","","null","<div style=""font-size:60px;"">+</div>","null","","fixation","","","","","","","","","","",""
"aa-learning-trial","218","818442","0.0-11.0-2.0-1.14","6135","1","22","Female","approach_avoid_spark_v1","""event"",""trial"",""time""
""fullscreenenter"",""1"",""3481""
","
","
","""event"",""trial"",""time""
""fullscreenenter"",""1"",""3481""
","
","","","","","","1032.3000011444092","images/goat8.png","","","learning","5","5","1","1","goat","animals","2","1","","good","[3]"
"html-keyboard-response","219","818945","0.0-11.0-2.0-0.15","6135","1","22","Female","approach_avoid_spark_v1","""event"",""trial"",""time""
""fullscreenenter"",""1"",""3481""
","
","
","""event"",""trial"",""time""
""fullscreenenter"",""1"",""3481""
","
","","","","","","null","<div style=""font-size:60px;"">+</div>","null","","fixation","","","","","","","","","","",""
"aa-learning-trial","220","821953","0.0-11.0-2.0-1.15","6135","1","22","Female","approach_avoid_spark_v1","""event"",""trial"",""time""
""fullscreenenter"",""1"",""3481""
","
","
","""event"",""trial"",""time""
""fullscreenenter"",""1"",""3481""
","
","","","","","","649.8999996185303","images/cow5.png","","","learning","-9","0","0","0","cow","animals","2","1","","bad","[-6]"
"html-keyboard-response","221","822458","0.0-11.0-2.0-0.16","6135","1","22","Female","approach_avoid_spark_v1","""event"",""trial"",""time""
""fullscreenenter"",""1"",""3481""
","
","
","""event"",""trial"",""time""
""fullscreenenter"",""1"",""3481""
","
","","","","","","null","<div style=""font-size:60px;"">+</div>","null","","fixation","","","","","","","","","","",""
"aa-learning-trial","222","825465","0.0-11.0-2.0-1.16","6135","1","22","Female","approach_avoid_spark_v1","""event"",""trial"",""time""
""fullscreenenter"",""1"",""3481""
","
","
","""event"",""trial"",""time""
""fullscreenenter"",""1"",""3481""
","
","","","","","","677.7000007629395","images/cow6.png","","","learning","-1","-1","1","1","cow","animals","2","1","","bad","[-6]"
"html-keyboard-response","223","825969","0.0-11.0-2.0-0.17","6135","1","22","Female","approach_avoid_spark_v1","""event"",""trial"",""time""
""fullscreenenter"",""1"",""3481""
","
","
","""event"",""trial"",""time""
""fullscreenenter"",""1"",""3481""
","
","","","","","","null","<div style=""font-size:60px;"">+</div>","null","","fixation","","","","","","","","","","",""
"aa-learning-trial","224","828977","0.0-11.0-2.0-1.17","6135","1","22","Female","approach_avoid_spark_v1","""event"",""trial"",""time""
""fullscreenenter"",""1"",""3481""
","
","
","""event"",""trial"",""time""
""fullscreenenter"",""1"",""3481""
","
","","","","","","736.8999996185303","images/goat5.png","","","learning","7","7","1","1","goat","animals","2","1","","good","[3]"
"html-keyboard-response","225","829480","0.0-11.0-2.0-0.18","6135","1","22","Female","approach_avoid_spark_v1","""event"",""trial"",""time""
""fullscreenenter"",""1"",""3481""
","
","
","""event"",""trial"",""time""
""fullscreenenter"",""1"",""3481""
","
","","","","","","null","<div style=""font-size:60px;"">+</div>","null","","fixation","","","","","","","","","","",""
"aa-learning-trial","226","832489","0.0-11.0-2.0-1.18","6135","1","22","Female","approach_avoid_spark_v1","""event"",""trial"",""time""
""fullscreenenter"",""1"",""3481""
","
","
","""event"",""trial"",""time""
""fullscreenenter"",""1"",""3481""
","
","","","","","","534.5","images/sheep8.png","","","learning","9","9","1","1","sheep","animals","2","1","","neutral","0"
"html-keyboard-response","227","832993","0.0-11.0-2.0-0.19","6135","1","22","Female","approach_avoid_spark_v1","""event"",""trial"",""time""
""fullscreenenter"",""1"",""3481""
","
","
","""event"",""trial"",""time""
""fullscreenenter"",""1"",""3481""
","
","","","","","","null","<div style=""font-size:60px;"">+</div>","null","","fixation","","","","","","","","","","",""
"aa-learning-trial","228","836001","0.0-11.0-2.0-1.19","6135","1","22","Female","approach_avoid_spark_v1","""event"",""trial"",""time""
""fullscreenenter"",""1"",""3481""
","
","
","""event"",""trial"",""time""
""fullscreenenter"",""1"",""3481""
","
","","","","","","862.5999984741211","images/sheep4.png","","","learning","-7","0","0","0","sheep","animals","2","1","","neutral","0"
"html-keyboard-response","229","836505","0.0-11.0-2.0-0.20","6135","1","22","Female","approach_avoid_spark_v1","""event"",""trial"",""time""
""fullscreenenter"",""1"",""3481""
","
","
","""event"",""trial"",""time""
""fullscreenenter"",""1"",""3481""
","
","","","","","","null","<div style=""font-size:60px;"">+</div>","null","","fixation","","","","","","","","","","",""
"aa-learning-trial","230","839513","0.0-11.0-2.0-1.20","6135","1","22","Female","approach_avoid_spark_v1","""event"",""trial"",""time""
""fullscreenenter"",""1"",""3481""
","
","
","""event"",""trial"",""time""
""fullscreenenter"",""1"",""3481""
","
","","","","","","660.4000015258789","images/goat8.png","","","learning","5","5","1","1","goat","animals","2","1","","good","[3]"
"html-keyboard-response","231","840018","0.0-11.0-2.0-0.21","6135","1","22","Female","approach_avoid_spark_v1","""event"",""trial"",""time""
""fullscreenenter"",""1"",""3481""
","
","
","""event"",""trial"",""time""
""fullscreenenter"",""1"",""3481""
","
","","","","","","null","<div style=""font-size:60px;"">+</div>","null","","fixation","","","","","","","","","","",""
"aa-learning-trial","232","843025","0.0-11.0-2.0-1.21","6135","1","22","Female","approach_avoid_spark_v1","""event"",""trial"",""time""
""fullscreenenter"",""1"",""3481""
","
","
","""event"",""trial"",""time""
""fullscreenenter"",""1"",""3481""
","
","","","","","","1017.6000003814697","images/goat6.png","","","learning","-5","0","0","0","goat","animals","2","1","","good","[3]"
"html-keyboard-response","233","843533","0.0-11.0-2.0-0.22","6135","1","22","Female","approach_avoid_spark_v1","""event"",""trial"",""time""
""fullscreenenter"",""1"",""3481""
","
","
","""event"",""trial"",""time""
""fullscreenenter"",""1"",""3481""
","
","","","","","","null","<div style=""font-size:60px;"">+</div>","null","","fixation","","","","","","","","","","",""
"aa-learning-trial","234","846537","0.0-11.0-2.0-1.22","6135","1","22","Female","approach_avoid_spark_v1","""event"",""trial"",""time""
""fullscreenenter"",""1"",""3481""
","
","
","""event"",""trial"",""time""
""fullscreenenter"",""1"",""3481""
","
","","","","","","743.3999996185303","images/cow4.png","","","learning","3","0","0","0","cow","animals","2","1","","bad","[-6]"
"html-keyboard-response","235","847041","0.0-11.0-2.0-0.23","6135","1","22","Female","approach_avoid_spark_v1","""event"",""trial"",""time""
""fullscreenenter"",""1"",""3481""
","
","
","""event"",""trial"",""time""
""fullscreenenter"",""1"",""3481""
","
","","","","","","null","<div style=""font-size:60px;"">+</div>","null","","fixation","","","","","","","","","","",""
"aa-learning-trial","236","850049","0.0-11.0-2.0-1.23","6135","1","22","Female","approach_avoid_spark_v1","""event"",""trial"",""time""
""fullscreenenter"",""1"",""3481""
","
","
","""event"",""trial"",""time""
""fullscreenenter"",""1"",""3481""
","
","","","","","","824.5999984741211","images/sheep2.png","","","learning","-4","0","0","0","sheep","animals","2","1","","neutral","0"
