"trial_type","trial_index","time_elapsed","internal_node_id","subject_id","task_condition","age","gender","task_version","interactions","blur_events","focus_events","fullscreenenter_events","fullscreenexit_events","success","timeout","failed_images","failed_audio","failed_video","rt","stimulus","response","button_pressed","task_part","approach_reward","points","key_press","option_selected","stim_cat","task_block","block_condition","block_number","correct","cat_type","mean_cat_reward"
"pavlovia","0","2","0.0-0.0","5866","1","18","Female","approach_avoid_spark_v1","""event"",""trial"",""time""
""fullscreenenter"",""1"",""4677""
","
","
","""event"",""trial"",""time""
""fullscreenenter"",""1"",""4677""
","
","","","","","","","","","","","","","","","","","","","","",""
"fullscreen","1","5668","0.0-1.0","5866","1","18","Female","approach_avoid_spark_v1","""event"",""trial"",""time""
""fullscreenenter"",""1"",""4677""
","
","
","""event"",""trial"",""time""
""fullscreenenter"",""1"",""4677""
","
","true","","","","","","","","","","","","","","","","","","","",""
"preload","2","21434","0.0-2.0","5866","1","18","Female","approach_avoid_spark_v1","""event"",""trial"",""time""
""fullscreenenter"",""1"",""4677""
","
","
","""event"",""trial"",""time""
""fullscreenenter"",""1"",""4677""
","
","true","false","[]","[]","[]","","","","","","","","","","","","","","","",""
"audio-keyboard-response","3","24261","0.0-3.0","5866","1","18","Female","approach_avoid_spark_v1","""event"",""trial"",""time""
""fullscreenenter"",""1"",""4677""
","
","
","""event"",""trial"",""time""
""fullscreenenter"",""1"",""4677""
","
","","","","","","2821.3333333333353","audio/beep_loop.wav"," ","","","","","","","","","","","","",""
"audio-button-response","4","26018","0.0-4.0","5866","1","18","Female","approach_avoid_spark_v1","""event"",""trial"",""time""
""fullscreenenter"",""1"",""4677""
","
","
","""event"",""trial"",""time""
""fullscreenenter"",""1"",""4677""
","
","","","","","","1755","audio/shark.wav","4","","","","","","","","","","","","",""
"audio-button-response","5","28315","0.0-5.0","5866","1","18","Female","approach_avoid_spark_v1","""event"",""trial"",""time""
""fullscreenenter"",""1"",""4677""
","
","
","""event"",""trial"",""time""
""fullscreenenter"",""1"",""4677""
","
","","","","","","1291","audio/turtle.wav","1","","","","","","","","","","","","",""
"preload","6","31552","0.0-6.0","5866","1","18","Female","approach_avoid_spark_v1","""event"",""trial"",""time""
""fullscreenenter"",""1"",""4677""
","
","
","""event"",""trial"",""time""
""fullscreenenter"",""1"",""4677""
","
","true","false","[]","[]","[]","","","","","","","","","","","","","","","",""
"html-keyboard-response","7","33396","0.0-7.0","5866","1","18","Female","approach_avoid_spark_v1","""event"",""trial"",""time""
""fullscreenenter"",""1"",""4677""
","
","
","""event"",""trial"",""time""
""fullscreenenter"",""1"",""4677""
","
","","","","","","1843.2000000476837","Welcome to the experiment. Press any key to begin and to advance the instructions."," ","","","","","","","","","","","","",""
"learning-instructions","8","42208","0.0-8.0-0.0-0.0","5866","1","18","Female","approach_avoid_spark_v1","""event"",""trial"",""time""
""fullscreenenter"",""1"",""4677""
","
","
","""event"",""trial"",""time""
""fullscreenenter"",""1"",""4677""
","
","","","","","","1858.9000000953674","<p> Welcome! Today you are going to play 6 different rounds of a decision-making game. </p><p> Use the mouse to click next to continue. </p>","","0","instructions","","","","","","","","","","",""
"learning-instructions","9","45977","0.0-8.0-0.0-0.1","5866","1","18","Female","approach_avoid_spark_v1","""event"",""trial"",""time""
""fullscreenenter"",""1"",""4677""
","
","
","""event"",""trial"",""time""
""fullscreenenter"",""1"",""4677""
","
","","","","","","1041.0999999046326","<p> You will start with a practice round to learn the rules. </p>","","0","instructions","","","","","","","","","","",""
"learning-instructions","10","50320","0.0-8.0-0.0-0.2","5866","1","18","Female","approach_avoid_spark_v1","""event"",""trial"",""time""
""fullscreenenter"",""1"",""4677""
","
","
","""event"",""trial"",""time""
""fullscreenenter"",""1"",""4677""
","
","","","","","","899.5","<p> Your goal in this round is to give out sports equipment to kids. </p></div>","","0","instructions","","","","","","","","","","",""
"learning-instructions","11","58834","0.0-8.0-0.0-0.3","5866","1","18","Female","approach_avoid_spark_v1","""event"",""trial"",""time""
""fullscreenenter"",""1"",""4677""
","
","
","""event"",""trial"",""time""
""fullscreenenter"",""1"",""4677""
","
","","","","","","965.5","<p> The kids only like some of the equipment.  </p><p> On each turn, you will see a piece of sports equipment.   </p><p> You need to decide whether to give it to the kids or not.  </p>","","0","instructions","","","","","","","","","","",""
"learning-instructions","12","65202","0.0-8.0-0.0-0.4","5866","1","18","Female","approach_avoid_spark_v1","""event"",""trial"",""time""
""fullscreenenter"",""1"",""4677""
","
","
","""event"",""trial"",""time""
""fullscreenenter"",""1"",""4677""
","
","","","","","","1619.9000000953674","<p> You can give them the equipment by pressing 1 and choose not to give it to them by pressing 0. </p><br><div class=""choice-instructions-grid""> <div class=""choice-option""><img src=""images/approach.png"" class=""choice-option-img"" stage=""instructions"" position=""0"" ><div class=""choice-option-text""> Press ""1."" </div></div><div class=""choice-option""><img src=""images/avoid.png"" class=""choice-option-img"" stage=""instructions"" position=""1"" ><div class=""choice-option-text""> Press ""0."" </div></div>","","0","instructions","","","","","","","","","","",""
"learning-instructions","13","73237","0.0-8.0-0.0-0.5","5866","1","18","Female","approach_avoid_spark_v1","""event"",""trial"",""time""
""fullscreenenter"",""1"",""4677""
","
","
","""event"",""trial"",""time""
""fullscreenenter"",""1"",""4677""
","
","","","","","","653.0999999046326","<p> If you give them a piece of equipment they like, they will be happy! </p><p> But if you give them a piece of equipment they do not like, they will be sad. </p>","","0","instructions","","","","","","","","","","",""
"learning-instructions","14","84889","0.0-8.0-0.0-0.6","5866","1","18","Female","approach_avoid_spark_v1","""event"",""trial"",""time""
""fullscreenenter"",""1"",""4677""
","
","
","""event"",""trial"",""time""
""fullscreenenter"",""1"",""4677""
","
","","","","","","1143.0999999046326","<p> You will earn points based on how you make kids feel. </p><p> If you make them happy, you will WIN anywhere from 1 - 9 points, </p><p> but if you make them sad, you will LOSE anywhere from 1 - 9 points. </p>","","0","instructions","","","","","","","","","","",""
"learning-instructions","15","95318","0.0-8.0-0.0-0.7","5866","1","18","Female","approach_avoid_spark_v1","""event"",""trial"",""time""
""fullscreenenter"",""1"",""4677""
","
","
","""event"",""trial"",""time""
""fullscreenenter"",""1"",""4677""
","
","","","","","","872.5","<p> You will see how many points you won or lost in the center of the screen. </p><p> Here is what you would see if you won 6 points: </p><p style=""color:green;font-size:50px;font-weight:bolder"">6</p><p style=""color:green"">The text is GREEN because you WON points.</p>","","0","instructions","","","","","","","","","","",""
"learning-instructions","16","101461","0.0-8.0-0.0-0.8","5866","1","18","Female","approach_avoid_spark_v1","""event"",""trial"",""time""
""fullscreenenter"",""1"",""4677""
","
","
","""event"",""trial"",""time""
""fullscreenenter"",""1"",""4677""
","
","","","","","","637.3000001907349","<p> And here is what you would see if you lost 4 points: </p><p style=""color:red;font-size:50px;font-weight:bolder"">-4</p><p style=""color:red"">The text is RED because you LOST points. </p>","","0","instructions","","","","","","","","","","",""
"learning-instructions","17","116851","0.0-8.0-0.0-0.9","5866","1","18","Female","approach_avoid_spark_v1","""event"",""trial"",""time""
""fullscreenenter"",""1"",""4677""
","
","
","""event"",""trial"",""time""
""fullscreenenter"",""1"",""4677""
","
","","","","","","678.2999999523163","<p> Some of the equipment will make the kids VERY happy or sad. </p><p> These pieces of equipment will make you win or lose LOTS of points. </p><p> Other pieces of equipment will only make the kids a little happy or sad. </p><p> These pieces of equipment will make you win or lose small amounts of points. </p>","","0","instructions","","","","","","","","","","",""
"learning-instructions","18","128507","0.0-8.0-0.0-0.10","5866","1","18","Female","approach_avoid_spark_v1","""event"",""trial"",""time""
""fullscreenenter"",""1"",""4677""
","
","
","""event"",""trial"",""time""
""fullscreenenter"",""1"",""4677""
","
","","","","","","1027.4000000953674","<p> If you choose not to give them the equipment, you will not win or lose any points. </p><p>  However, in the center of the screen, you will see the number of points you WOULD HAVE won or lost if you had given them the equipment. </p>","","0","instructions","","","","","","","","","","",""
"learning-instructions","19","151063","0.0-8.0-0.0-0.11","5866","1","18","Female","approach_avoid_spark_v1","""event"",""trial"",""time""
""fullscreenenter"",""1"",""4677""
","
","
","""event"",""trial"",""time""
""fullscreenenter"",""1"",""4677""
","
","","","","","","1028.7999999523163","<p> Here is what you might see if you did not give the equipment to the kids but it would have made them happy: </p><p style=""color:grey; font-size:50px; display: inline-block; border-spacing: 15px; border-width:3px; border-style:solid; border-color:red"">  &nbsp; 7 &nbsp; </p><p> Remember, in this case, you would not win or lose ANY points because you did not give them the equipment.  </p><p style=""color:grey"">The text is GREY because you earned ZERO points. </p><p style=""color:red"">However, choosing to give the kids the equipment would have made you win points. The box around the text is RED because you chose the worse option. </p>","","0","instructions","","","","","","","","","","",""
"learning-instructions","20","173056","0.0-8.0-0.0-0.12","5866","1","18","Female","approach_avoid_spark_v1","""event"",""trial"",""time""
""fullscreenenter"",""1"",""4677""
","
","
","""event"",""trial"",""time""
""fullscreenenter"",""1"",""4677""
","
","","","","","","920.0999999046326","<p> Here is what you might see if you did not give the equipment to the kids but it would have made them sad: </p><p style=""color:grey;font-size:50px; display: inline-block; border-spacing: 15px; border-width:3px; border-style:solid; border-color:green"">  &nbsp; -8 &nbsp; </p><p> Remember, in this case, you would not win or lose ANY points because you did not give them the equipment.  </p><p style=""color:grey"">The text is GREY because you earned ZERO points. </p><p  style=""color:green""> Choosing to give the kids the equipment would have made you lose points. The box around the text is GREEN because you chose the better option.</p>","","0","instructions","","","","","","","","","","",""
"learning-instructions","21","184475","0.0-8.0-0.0-0.13","5866","1","18","Female","approach_avoid_spark_v1","""event"",""trial"",""time""
""fullscreenenter"",""1"",""4677""
","
","
","""event"",""trial"",""time""
""fullscreenenter"",""1"",""4677""
","
","","","","","","2450.7999999523163","<p> You will have 3 seconds to make each choice. Try to respond before time runs out! </p><p> You will lose 5 points each time you do not make a response. </p>","","0","instructions","","","","","","","","","","",""
"learning-instructions","22","190820","0.0-8.0-0.0-0.14","5866","1","18","Female","approach_avoid_spark_v1","""event"",""trial"",""time""
""fullscreenenter"",""1"",""4677""
","
","
","""event"",""trial"",""time""
""fullscreenenter"",""1"",""4677""
","
","","","","","","934.2999999523163","<p> This is just a practice round, but in the real game, your bonus payment will depend on your total number of points.","","0","instructions","","","","","","","","","","",""
"learning-instructions","23","197671","0.0-8.0-0.0-0.15","5866","1","18","Female","approach_avoid_spark_v1","""event"",""trial"",""time""
""fullscreenenter"",""1"",""4677""
","
","
","""event"",""trial"",""time""
""fullscreenenter"",""1"",""4677""
","
","","","","","","1086.3999998569489","<p> Remember, you can give them the equipment by pressing 1 and choose not to give it to them by pressing 0. </p><br><div class=""choice-instructions-grid""> <div class=""choice-option""><img src=""images/approach.png"" class=""choice-option-img"" stage=""instructions"" position=""0"" ><div class=""choice-option-text""> Press ""1."" </div></div><div class=""choice-option""><img src=""images/avoid.png"" class=""choice-option-img"" stage=""instructions"" position=""1"" ><div class=""choice-option-text""> Press ""0."" </div></div>","","0","instructions","","","","","","","","","","",""
"html-button-response","24","201295","0.0-8.0-1.0","5866","1","18","Female","approach_avoid_spark_v1","""event"",""trial"",""time""
""fullscreenenter"",""1"",""4677""
","
","
","""event"",""trial"",""time""
""fullscreenenter"",""1"",""4677""
","
","","","","","","3517.0999999046326","<p> Ready to practice? </p>","0","","","","","","","","","","","","",""
"html-keyboard-response","25","201899","0.0-8.0-2.0-0.0","5866","1","18","Female","approach_avoid_spark_v1","""event"",""trial"",""time""
""fullscreenenter"",""1"",""4677""
","
","
","""event"",""trial"",""time""
""fullscreenenter"",""1"",""4677""
","
","","","","","","null","<div style=""font-size:60px;"">+</div>","null","","fixation","","","","","","","","","","",""
"aa-learning-trial","26","204906","0.0-8.0-2.0-1.0","5866","1","18","Female","approach_avoid_spark_v1","""event"",""trial"",""time""
""fullscreenenter"",""1"",""4677""
","
","
","""event"",""trial"",""time""
""fullscreenenter"",""1"",""4677""
","
","","","","","","1315.5","images/ball2.png","","","learning","-3","-3","1","1","practice","practice","practice","-1","","",""
"html-keyboard-response","27","205411","0.0-8.0-2.0-0.1","5866","1","18","Female","approach_avoid_spark_v1","""event"",""trial"",""time""
""fullscreenenter"",""1"",""4677""
","
","
","""event"",""trial"",""time""
""fullscreenenter"",""1"",""4677""
","
","","","","","","null","<div style=""font-size:60px;"">+</div>","null","","fixation","","","","","","","","","","",""
"aa-learning-trial","28","208416","0.0-8.0-2.0-1.1","5866","1","18","Female","approach_avoid_spark_v1","""event"",""trial"",""time""
""fullscreenenter"",""1"",""4677""
","
","
","""event"",""trial"",""time""
""fullscreenenter"",""1"",""4677""
","
","","","","","","1135.2000000476837","images/racket2.png","","","learning","4","4","1","1","practice","practice","practice","-1","","",""
"html-keyboard-response","29","208921","0.0-8.0-2.0-0.2","5866","1","18","Female","approach_avoid_spark_v1","""event"",""trial"",""time""
""fullscreenenter"",""1"",""4677""
","
","
","""event"",""trial"",""time""
""fullscreenenter"",""1"",""4677""
","
","","","","","","null","<div style=""font-size:60px;"">+</div>","null","","fixation","","","","","","","","","","",""
"aa-learning-trial","30","211925","0.0-8.0-2.0-1.2","5866","1","18","Female","approach_avoid_spark_v1","""event"",""trial"",""time""
""fullscreenenter"",""1"",""4677""
","
","
","""event"",""trial"",""time""
""fullscreenenter"",""1"",""4677""
","
","","","","","","1031","images/ball4.png","","","learning","-8","0","0","0","practice","practice","practice","-1","","",""
"html-keyboard-response","31","212429","0.0-8.0-2.0-0.3","5866","1","18","Female","approach_avoid_spark_v1","""event"",""trial"",""time""
""fullscreenenter"",""1"",""4677""
","
","
","""event"",""trial"",""time""
""fullscreenenter"",""1"",""4677""
","
","","","","","","null","<div style=""font-size:60px;"">+</div>","null","","fixation","","","","","","","","","","",""
"aa-learning-trial","32","215436","0.0-8.0-2.0-1.3","5866","1","18","Female","approach_avoid_spark_v1","""event"",""trial"",""time""
""fullscreenenter"",""1"",""4677""
","
","
","""event"",""trial"",""time""
""fullscreenenter"",""1"",""4677""
","
","","","","","","809.5","images/ball3.png","","","learning","7","7","1","1","practice","practice","practice","-1","","",""
"html-keyboard-response","33","215939","0.0-8.0-2.0-0.4","5866","1","18","Female","approach_avoid_spark_v1","""event"",""trial"",""time""
""fullscreenenter"",""1"",""4677""
","
","
","""event"",""trial"",""time""
""fullscreenenter"",""1"",""4677""
","
","","","","","","null","<div style=""font-size:60px;"">+</div>","null","","fixation","","","","","","","","","","",""
"aa-learning-trial","34","218946","0.0-8.0-2.0-1.4","5866","1","18","Female","approach_avoid_spark_v1","""event"",""trial"",""time""
""fullscreenenter"",""1"",""4677""
","
","
","""event"",""trial"",""time""
""fullscreenenter"",""1"",""4677""
","
","","","","","","1078.7000000476837","images/racket1.png","","","learning","3","3","1","1","practice","practice","practice","-1","","",""
"html-keyboard-response","35","219452","0.0-8.0-2.0-0.5","5866","1","18","Female","approach_avoid_spark_v1","""event"",""trial"",""time""
""fullscreenenter"",""1"",""4677""
","
","
","""event"",""trial"",""time""
""fullscreenenter"",""1"",""4677""
","
","","","","","","null","<div style=""font-size:60px;"">+</div>","null","","fixation","","","","","","","","","","",""
"aa-learning-trial","36","222457","0.0-8.0-2.0-1.5","5866","1","18","Female","approach_avoid_spark_v1","""event"",""trial"",""time""
""fullscreenenter"",""1"",""4677""
","
","
","""event"",""trial"",""time""
""fullscreenenter"",""1"",""4677""
","
","","","","","","765.2000000476837","images/ball3.png","","","learning","-7","-7","1","1","practice","practice","practice","-1","","",""
"html-keyboard-response","37","222963","0.0-8.0-2.0-0.6","5866","1","18","Female","approach_avoid_spark_v1","""event"",""trial"",""time""
""fullscreenenter"",""1"",""4677""
","
","
","""event"",""trial"",""time""
""fullscreenenter"",""1"",""4677""
","
","","","","","","null","<div style=""font-size:60px;"">+</div>","null","","fixation","","","","","","","","","","",""
"aa-learning-trial","38","225966","0.0-8.0-2.0-1.6","5866","1","18","Female","approach_avoid_spark_v1","""event"",""trial"",""time""
""fullscreenenter"",""1"",""4677""
","
","
","""event"",""trial"",""time""
""fullscreenenter"",""1"",""4677""
","
","","","","","","837.7999999523163","images/racket2.png","","","learning","-8","-8","1","1","practice","practice","practice","-1","","",""
"html-keyboard-response","39","226469","0.0-8.0-2.0-0.7","5866","1","18","Female","approach_avoid_spark_v1","""event"",""trial"",""time""
""fullscreenenter"",""1"",""4677""
","
","
","""event"",""trial"",""time""
""fullscreenenter"",""1"",""4677""
","
","","","","","","null","<div style=""font-size:60px;"">+</div>","null","","fixation","","","","","","","","","","",""
"aa-learning-trial","40","229475","0.0-8.0-2.0-1.7","5866","1","18","Female","approach_avoid_spark_v1","""event"",""trial"",""time""
""fullscreenenter"",""1"",""4677""
","
","
","""event"",""trial"",""time""
""fullscreenenter"",""1"",""4677""
","
","","","","","","1739.2999999523163","images/ball2.png","","","learning","8","0","0","0","practice","practice","practice","-1","","",""
"html-keyboard-response","41","229981","0.0-8.0-2.0-0.8","5866","1","18","Female","approach_avoid_spark_v1","""event"",""trial"",""time""
""fullscreenenter"",""1"",""4677""
","
","
","""event"",""trial"",""time""
""fullscreenenter"",""1"",""4677""
","
","","","","","","null","<div style=""font-size:60px;"">+</div>","null","","fixation","","","","","","","","","","",""
"aa-learning-trial","42","232988","0.0-8.0-2.0-1.8","5866","1","18","Female","approach_avoid_spark_v1","""event"",""trial"",""time""
""fullscreenenter"",""1"",""4677""
","
","
","""event"",""trial"",""time""
""fullscreenenter"",""1"",""4677""
","
","","","","","","2166.699999809265","images/racket4.png","","","learning","-1","-1","1","1","practice","practice","practice","-1","","",""
"html-keyboard-response","43","233494","0.0-8.0-2.0-0.9","5866","1","18","Female","approach_avoid_spark_v1","""event"",""trial"",""time""
""fullscreenenter"",""1"",""4677""
","
","
","""event"",""trial"",""time""
""fullscreenenter"",""1"",""4677""
","
","","","","","","null","<div style=""font-size:60px;"">+</div>","null","","fixation","","","","","","","","","","",""
"aa-learning-trial","44","236499","0.0-8.0-2.0-1.9","5866","1","18","Female","approach_avoid_spark_v1","""event"",""trial"",""time""
""fullscreenenter"",""1"",""4677""
","
","
","""event"",""trial"",""time""
""fullscreenenter"",""1"",""4677""
","
","","","","","","2074.5999999046326","images/ball4.png","","","learning","-4","-4","1","1","practice","practice","practice","-1","","",""
"html-keyboard-response","45","237001","0.0-8.0-2.0-0.10","5866","1","18","Female","approach_avoid_spark_v1","""event"",""trial"",""time""
""fullscreenenter"",""1"",""4677""
","
","
","""event"",""trial"",""time""
""fullscreenenter"",""1"",""4677""
","
","","","","","","null","<div style=""font-size:60px;"">+</div>","null","","fixation","","","","","","","","","","",""
"aa-learning-trial","46","240004","0.0-8.0-2.0-1.10","5866","1","18","Female","approach_avoid_spark_v1","""event"",""trial"",""time""
""fullscreenenter"",""1"",""4677""
","
","
","""event"",""trial"",""time""
""fullscreenenter"",""1"",""4677""
","
","","","","","","1598.7999999523163","images/racket4.png","","","learning","8","0","0","0","practice","practice","practice","-1","","",""
"html-keyboard-response","47","240510","0.0-8.0-2.0-0.11","5866","1","18","Female","approach_avoid_spark_v1","""event"",""trial"",""time""
""fullscreenenter"",""1"",""4677""
","
","
","""event"",""trial"",""time""
""fullscreenenter"",""1"",""4677""
","
","","","","","","null","<div style=""font-size:60px;"">+</div>","null","","fixation","","","","","","","","","","",""
"aa-learning-trial","48","243516","0.0-8.0-2.0-1.11","5866","1","18","Female","approach_avoid_spark_v1","""event"",""trial"",""time""
""fullscreenenter"",""1"",""4677""
","
","
","""event"",""trial"",""time""
""fullscreenenter"",""1"",""4677""
","
","","","","","","1609.7999999523163","images/ball4.png","","","learning","5","0","0","0","practice","practice","practice","-1","","",""
"html-button-response","49","245325","0.0-8.0-3.0","5866","1","18","Female","approach_avoid_spark_v1","""event"",""trial"",""time""
""fullscreenenter"",""1"",""4677""
","
","
","""event"",""trial"",""time""
""fullscreenenter"",""1"",""4677""
","
","","","","","","1806.5","<p> You earned -9 points in the practice round! </p>","0","","break","","","","","","","","","","",""
"learning-instructions","50","252850","0.0-8.0-4.0-0.0","5866","1","18","Female","approach_avoid_spark_v1","""event"",""trial"",""time""
""fullscreenenter"",""1"",""4677""
","
","
","""event"",""trial"",""time""
""fullscreenenter"",""1"",""4677""
","
","","","","","","1527","<p> It's almost time to start the real game. </p><p> Before you start, we're going to ask you a few questions about how the game works. </p>","","0","instructions","","","","","","","","","","",""
"preload","51","254200","0.0-8.0-5.0","5866","1","18","Female","approach_avoid_spark_v1","""event"",""trial"",""time""
""fullscreenenter"",""1"",""4677""
","
","
","""event"",""trial"",""time""
""fullscreenenter"",""1"",""4677""
","
","true","false","[]","[]","[]","","","","","","","","","","","","","","","",""
"comp-q","52","260210","0.0-8.0-6.0-0.0","5866","1","18","Female","approach_avoid_spark_v1","""event"",""trial"",""time""
""fullscreenenter"",""1"",""4677""
","
","
","""event"",""trial"",""time""
""fullscreenenter"",""1"",""4677""
","
","","","","","","1013.6000001430511","<p> <b> True or False? </b> </p><p> If you see a number in GREY, that means you earned that many points. </p>","","1","comp_question","","","","","","","","","true","",""
"comp-q","53","269639","0.0-8.0-6.0-1.0","5866","1","18","Female","approach_avoid_spark_v1","""event"",""trial"",""time""
""fullscreenenter"",""1"",""4677""
","
","
","""event"",""trial"",""time""
""fullscreenenter"",""1"",""4677""
","
","","","","","","1066.2000000476837","<p><b> That's right! </b> If you see a grey number, it means you earned ZERO points. <br> The grey numbers show the points you WOULD HAVE earned if you had made the other choice. </p>","","0","comp_answer","","","","","","","","","","",""
"comp-q","54","275070","0.0-8.0-7.0-0.0","5866","1","18","Female","approach_avoid_spark_v1","""event"",""trial"",""time""
""fullscreenenter"",""1"",""4677""
","
","
","""event"",""trial"",""time""
""fullscreenenter"",""1"",""4677""
","
","","","","","","738.5","<p> <b> True or False? </b> </p><p> You will have as much time as you want to make each choice. </p>","","1","comp_question","","","","","","","","","true","",""
"comp-q","55","280178","0.0-8.0-7.0-1.0","5866","1","18","Female","approach_avoid_spark_v1","""event"",""trial"",""time""
""fullscreenenter"",""1"",""4677""
","
","
","""event"",""trial"",""time""
""fullscreenenter"",""1"",""4677""
","
","","","","","","1066.7000000476837","<p> <b> That's right! </b> You will only have 3 seconds to make each choice. </p>","","0","comp_answer","","","","","","","","","","",""
"comp-q","56","285511","0.0-8.0-8.0-0.0","5866","1","18","Female","approach_avoid_spark_v1","""event"",""trial"",""time""
""fullscreenenter"",""1"",""4677""
","
","
","""event"",""trial"",""time""
""fullscreenenter"",""1"",""4677""
","
","","","","","","677.0999999046326","<p> <b> True or False? </b> </p><p> You should use the '1' and '0' keys to make your choices. </p>","","0","comp_question","","","","","","","","","true","",""
"comp-q","57","290877","0.0-8.0-8.0-1.0","5866","1","18","Female","approach_avoid_spark_v1","""event"",""trial"",""time""
""fullscreenenter"",""1"",""4677""
","
","
","""event"",""trial"",""time""
""fullscreenenter"",""1"",""4677""
","
","","","","","","757.8999998569489","<p> <b> That's right! </b> You should use the '1' and '0' keys to make each choice. </p>","","0","comp_answer","","","","","","","","","","",""
"learning-instructions","58","298684","0.0-8.0-9.0-0.0","5866","1","18","Female","approach_avoid_spark_v1","""event"",""trial"",""time""
""fullscreenenter"",""1"",""4677""
","
","
","""event"",""trial"",""time""
""fullscreenenter"",""1"",""4677""
","
","","","","","","1540.2000000476837","<p> It's now time to start the real game. </p>Do your best, because the points you earn in the next rounds will influence your bonus payment. </p>","","0","instructions","","","","","","","","","","",""
"preload","59","298803","0.0-9.0-0.0","5866","1","18","Female","approach_avoid_spark_v1","""event"",""trial"",""time""
""fullscreenenter"",""1"",""4677""
","
","
","""event"",""trial"",""time""
""fullscreenenter"",""1"",""4677""
","
","true","false","[]","[]","[]","","","","","","","","","","","","","","","",""
"learning-instructions","60","303760","0.0-9.0-1.0-0.0","5866","1","18","Female","approach_avoid_spark_v1","""event"",""trial"",""time""
""fullscreenenter"",""1"",""4677""
","
","
","""event"",""trial"",""time""
""fullscreenenter"",""1"",""4677""
","
","","","","","","1383.7000000476837","<p> Your goal in this round is to take care of lots of animals. </p></div>","","0","instructions","","","","","","","","","","",""
"learning-instructions","61","313963","0.0-9.0-1.0-0.1","5866","1","18","Female","approach_avoid_spark_v1","""event"",""trial"",""time""
""fullscreenenter"",""1"",""4677""
","
","
","""event"",""trial"",""time""
""fullscreenenter"",""1"",""4677""
","
","","","","","","1071.1999998092651","<p> Some animals want to be pet, while other animals want to be left alone.  </p><p> On each turn, you will see an animal.   </p><p> You need to decide whether to pet it or not.  </p>","","0","instructions","","","","","","","","","","",""
"learning-instructions","62","319507","0.0-9.0-1.0-0.2","5866","1","18","Female","approach_avoid_spark_v1","""event"",""trial"",""time""
""fullscreenenter"",""1"",""4677""
","
","
","""event"",""trial"",""time""
""fullscreenenter"",""1"",""4677""
","
","","","","","","689.4000000953674","<p> You can pet the animal by pressing 1 and leave the animal alone by pressing 0. </p><br><div class=""choice-instructions-grid""> <div class=""choice-option""><img src=""images/approach.png"" class=""choice-option-img"" stage=""instructions"" position=""0"" ><div class=""choice-option-text""> Press ""1."" </div></div><div class=""choice-option""><img src=""images/avoid.png"" class=""choice-option-img"" stage=""instructions"" position=""1"" ><div class=""choice-option-text""> Press ""0."" </div></div>","","0","instructions","","","","","","","","","","",""
"learning-instructions","63","328808","0.0-9.0-1.0-0.3","5866","1","18","Female","approach_avoid_spark_v1","""event"",""trial"",""time""
""fullscreenenter"",""1"",""4677""
","
","
","""event"",""trial"",""time""
""fullscreenenter"",""1"",""4677""
","
","","","","","","913.1000001430511","<p> If you pet an animal that wants to be pet, you will make it feel happy! </p><p> But if you pet an animal that wants to be left alone, you will make it feel angry. </p>","","0","instructions","","","","","","","","","","",""
"learning-instructions","64","343416","0.0-9.0-1.0-0.4","5866","1","18","Female","approach_avoid_spark_v1","""event"",""trial"",""time""
""fullscreenenter"",""1"",""4677""
","
","
","""event"",""trial"",""time""
""fullscreenenter"",""1"",""4677""
","
","","","","","","2726.4000000953674","<p> You will earn points based on how you made the animal feel. </p><p> If you made it feel happy, you will WIN anywhere from 1 - 9 points, </p><p> but if you made it feel angry, you will LOSE anywhere from 1 - 9 points. </p>","","0","instructions","","","","","","","","","","",""
"learning-instructions","65","351943","0.0-9.0-1.0-0.5","5866","1","18","Female","approach_avoid_spark_v1","""event"",""trial"",""time""
""fullscreenenter"",""1"",""4677""
","
","
","""event"",""trial"",""time""
""fullscreenenter"",""1"",""4677""
","
","","","","","","1274.5","<p> You will see how many points you won or lost in the center of the screen. </p><p> Here is what you would see if you won 5 points: </p><p style=""color:green;font-size:50px;font-weight:bolder"">5</p>","","0","instructions","","","","","","","","","","",""
"learning-instructions","66","355691","0.0-9.0-1.0-0.6","5866","1","18","Female","approach_avoid_spark_v1","""event"",""trial"",""time""
""fullscreenenter"",""1"",""4677""
","
","
","""event"",""trial"",""time""
""fullscreenenter"",""1"",""4677""
","
","","","","","","520.3999998569489","<p> And here is what you would see if you lost 3 points: </p><p style=""color:red;font-size:50px;font-weight:bolder"">-3</p>","","0","instructions","","","","","","","","","","",""
"learning-instructions","67","369435","0.0-9.0-1.0-0.7","5866","1","18","Female","approach_avoid_spark_v1","""event"",""trial"",""time""
""fullscreenenter"",""1"",""4677""
","
","
","""event"",""trial"",""time""
""fullscreenenter"",""1"",""4677""
","
","","","","","","483.7999999523163","<p> Some animals will become very happy or very angry. </p><p> These animals will make you win or lose LOTS of points. </p><p> Other animals have less strong feelings. </p><p> These animals will make you win or lose small amounts of points. </p>","","0","instructions","","","","","","","","","","",""
"learning-instructions","68","380897","0.0-9.0-1.0-0.8","5866","1","18","Female","approach_avoid_spark_v1","""event"",""trial"",""time""
""fullscreenenter"",""1"",""4677""
","
","
","""event"",""trial"",""time""
""fullscreenenter"",""1"",""4677""
","
","","","","","","677.7000000476837","<p> If you choose to leave the animal alone, you will not win or lose any points. </p><p>  However, in the center of the screen, you will see the number of points you WOULD HAVE won or lost if you had pet the animal. </p>","","0","instructions","","","","","","","","","","",""
"learning-instructions","69","392609","0.0-9.0-1.0-0.9","5866","1","18","Female","approach_avoid_spark_v1","""event"",""trial"",""time""
""fullscreenenter"",""1"",""4677""
","
","
","""event"",""trial"",""time""
""fullscreenenter"",""1"",""4677""
","
","","","","","","548.5999999046326","<p> Here is what you might see if you did not pet the animal but the animal wanted to be pet: </p><p style=""color:grey; font-size:50px; display: inline-block; border-spacing: 15px; border-width:3px; border-style:solid; border-color:red"">  &nbsp; 6 &nbsp; </p><p> Remember, in this case, you would not win or lose ANY points because you did not pet the animal.  </p>","","0","instructions","","","","","","","","","","",""
"learning-instructions","70","399925","0.0-9.0-1.0-0.10","5866","1","18","Female","approach_avoid_spark_v1","""event"",""trial"",""time""
""fullscreenenter"",""1"",""4677""
","
","
","""event"",""trial"",""time""
""fullscreenenter"",""1"",""4677""
","
","","","","","","541.7999999523163","<p> Try to make the best choice for each animal because </p><p> at the end of the game, you will earn bonus money based on how many points you earned. </p>","","0","instructions","","","","","","","","","","",""
"learning-instructions","71","408641","0.0-9.0-1.0-0.11","5866","1","18","Female","approach_avoid_spark_v1","""event"",""trial"",""time""
""fullscreenenter"",""1"",""4677""
","
","
","""event"",""trial"",""time""
""fullscreenenter"",""1"",""4677""
","
","","","","","","527.5","<p> You will have 3 seconds to make each choice. Try to respond before time runs out! </p><p> You will lose 5 points each time you do not make a response. </p>","","0","instructions","","","","","","","","","","",""
"html-keyboard-response","72","409249","0.0-9.0-2.0-0.0","5866","1","18","Female","approach_avoid_spark_v1","""event"",""trial"",""time""
""fullscreenenter"",""1"",""4677""
","
","
","""event"",""trial"",""time""
""fullscreenenter"",""1"",""4677""
","
","","","","","","null","<div style=""font-size:60px;"">+</div>","null","","fixation","","","","","","","","","","",""
"aa-learning-trial","73","412254","0.0-9.0-2.0-1.0","5866","1","18","Female","approach_avoid_spark_v1","""event"",""trial"",""time""
""fullscreenenter"",""1"",""4677""
","
","
","""event"",""trial"",""time""
""fullscreenenter"",""1"",""4677""
","
","","","","","","1254.7999999523163","images/cat3.png","","","learning","6","6","1","1","cat","pets","1","0","","good","[6]"
"html-keyboard-response","74","412756","0.0-9.0-2.0-0.1","5866","1","18","Female","approach_avoid_spark_v1","""event"",""trial"",""time""
""fullscreenenter"",""1"",""4677""
","
","
","""event"",""trial"",""time""
""fullscreenenter"",""1"",""4677""
","
","","","","","","null","<div style=""font-size:60px;"">+</div>","null","","fixation","","","","","","","","","","",""
"aa-learning-trial","75","415763","0.0-9.0-2.0-1.1","5866","1","18","Female","approach_avoid_spark_v1","""event"",""trial"",""time""
""fullscreenenter"",""1"",""4677""
","
","
","""event"",""trial"",""time""
""fullscreenenter"",""1"",""4677""
","
","","","","","","1050.7999999523163","images/rodent2.png","","","learning","-4","0","0","0","rodent","pets","1","0","","bad","[-4]"
"html-keyboard-response","76","416267","0.0-9.0-2.0-0.2","5866","1","18","Female","approach_avoid_spark_v1","""event"",""trial"",""time""
""fullscreenenter"",""1"",""4677""
","
","
","""event"",""trial"",""time""
""fullscreenenter"",""1"",""4677""
","
","","","","","","null","<div style=""font-size:60px;"">+</div>","null","","fixation","","","","","","","","","","",""
"aa-learning-trial","77","419272","0.0-9.0-2.0-1.2","5866","1","18","Female","approach_avoid_spark_v1","""event"",""trial"",""time""
""fullscreenenter"",""1"",""4677""
","
","
","""event"",""trial"",""time""
""fullscreenenter"",""1"",""4677""
","
","","","","","","789.2000000476837","images/dog8.png","","","learning","-1","-1","1","1","dog","pets","1","0","","neutral","0"
"html-keyboard-response","78","419778","0.0-9.0-2.0-0.3","5866","1","18","Female","approach_avoid_spark_v1","""event"",""trial"",""time""
""fullscreenenter"",""1"",""4677""
","
","
","""event"",""trial"",""time""
""fullscreenenter"",""1"",""4677""
","
","","","","","","null","<div style=""font-size:60px;"">+</div>","null","","fixation","","","","","","","","","","",""
"aa-learning-trial","79","422787","0.0-9.0-2.0-1.3","5866","1","18","Female","approach_avoid_spark_v1","""event"",""trial"",""time""
""fullscreenenter"",""1"",""4677""
","
","
","""event"",""trial"",""time""
""fullscreenenter"",""1"",""4677""
","
","","","","","","1582.2000000476837","images/dog8.png","","","learning","[1]","1","1","1","dog","pets","1","0","","neutral","0"
"html-keyboard-response","80","423293","0.0-9.0-2.0-0.4","5866","1","18","Female","approach_avoid_spark_v1","""event"",""trial"",""time""
""fullscreenenter"",""1"",""4677""
","
","
","""event"",""trial"",""time""
""fullscreenenter"",""1"",""4677""
","
","","","","","","null","<div style=""font-size:60px;"">+</div>","null","","fixation","","","","","","","","","","",""
"aa-learning-trial","81","426303","0.0-9.0-2.0-1.4","5866","1","18","Female","approach_avoid_spark_v1","""event"",""trial"",""time""
""fullscreenenter"",""1"",""4677""
","
","
","""event"",""trial"",""time""
""fullscreenenter"",""1"",""4677""
","
","","","","","","1289.2999999523163","images/cat7.png","","","learning","6","6","1","1","cat","pets","1","0","","good","[6]"
"html-keyboard-response","82","426807","0.0-9.0-2.0-0.5","5866","1","18","Female","approach_avoid_spark_v1","""event"",""trial"",""time""
""fullscreenenter"",""1"",""4677""
","
","
","""event"",""trial"",""time""
""fullscreenenter"",""1"",""4677""
","
","","","","","","null","<div style=""font-size:60px;"">+</div>","null","","fixation","","","","","","","","","","",""
"aa-learning-trial","83","429813","0.0-9.0-2.0-1.5","5866","1","18","Female","approach_avoid_spark_v1","""event"",""trial"",""time""
""fullscreenenter"",""1"",""4677""
","
","
","""event"",""trial"",""time""
""fullscreenenter"",""1"",""4677""
","
","","","","","","1523.6000001430511","images/rodent1.png","","","learning","-1","0","0","0","rodent","pets","1","0","","bad","[-4]"
"html-keyboard-response","84","430318","0.0-9.0-2.0-0.6","5866","1","18","Female","approach_avoid_spark_v1","""event"",""trial"",""time""
""fullscreenenter"",""1"",""4677""
","
","
","""event"",""trial"",""time""
""fullscreenenter"",""1"",""4677""
","
","","","","","","null","<div style=""font-size:60px;"">+</div>","null","","fixation","","","","","","","","","","",""
"aa-learning-trial","85","433322","0.0-9.0-2.0-1.6","5866","1","18","Female","approach_avoid_spark_v1","""event"",""trial"",""time""
""fullscreenenter"",""1"",""4677""
","
","
","""event"",""trial"",""time""
""fullscreenenter"",""1"",""4677""
","
","","","","","","1850.9000000953674","images/dog1.png","","","learning","-1","-1","1","1","dog","pets","1","0","","neutral","0"
"html-keyboard-response","86","433829","0.0-9.0-2.0-0.7","5866","1","18","Female","approach_avoid_spark_v1","""event"",""trial"",""time""
""fullscreenenter"",""1"",""4677""
","
","
","""event"",""trial"",""time""
""fullscreenenter"",""1"",""4677""
","
","","","","","","null","<div style=""font-size:60px;"">+</div>","null","","fixation","","","","","","","","","","",""
"aa-learning-trial","87","436834","0.0-9.0-2.0-1.7","5866","1","18","Female","approach_avoid_spark_v1","""event"",""trial"",""time""
""fullscreenenter"",""1"",""4677""
","
","
","""event"",""trial"",""time""
""fullscreenenter"",""1"",""4677""
","
","","","","","","1883.6000001430511","images/dog3.png","","","learning","2","0","0","0","dog","pets","1","0","","neutral","0"
"html-keyboard-response","88","437338","0.0-9.0-2.0-0.8","5866","1","18","Female","approach_avoid_spark_v1","""event"",""trial"",""time""
""fullscreenenter"",""1"",""4677""
","
","
","""event"",""trial"",""time""
""fullscreenenter"",""1"",""4677""
","
","","","","","","null","<div style=""font-size:60px;"">+</div>","null","","fixation","","","","","","","","","","",""
"aa-learning-trial","89","440347","0.0-9.0-2.0-1.8","5866","1","18","Female","approach_avoid_spark_v1","""event"",""trial"",""time""
""fullscreenenter"",""1"",""4677""
","
","
","""event"",""trial"",""time""
""fullscreenenter"",""1"",""4677""
","
","","","","","","1403.4000000953674","images/rodent1.png","","","learning","-2","0","0","0","rodent","pets","1","0","","bad","[-4]"
"html-keyboard-response","90","440851","0.0-9.0-2.0-0.9","5866","1","18","Female","approach_avoid_spark_v1","""event"",""trial"",""time""
""fullscreenenter"",""1"",""4677""
","
","
","""event"",""trial"",""time""
""fullscreenenter"",""1"",""4677""
","
","","","","","","null","<div style=""font-size:60px;"">+</div>","null","","fixation","","","","","","","","","","",""
"aa-learning-trial","91","443859","0.0-9.0-2.0-1.9","5866","1","18","Female","approach_avoid_spark_v1","""event"",""trial"",""time""
""fullscreenenter"",""1"",""4677""
","
","
","""event"",""trial"",""time""
""fullscreenenter"",""1"",""4677""
","
","","","","","","1790","images/cat7.png","","","learning","5","0","0","0","cat","pets","1","0","","good","[6]"
"html-keyboard-response","92","444365","0.0-9.0-2.0-0.10","5866","1","18","Female","approach_avoid_spark_v1","""event"",""trial"",""time""
""fullscreenenter"",""1"",""4677""
","
","
","""event"",""trial"",""time""
""fullscreenenter"",""1"",""4677""
","
","","","","","","null","<div style=""font-size:60px;"">+</div>","null","","fixation","","","","","","","","","","",""
"aa-learning-trial","93","447375","0.0-9.0-2.0-1.10","5866","1","18","Female","approach_avoid_spark_v1","""event"",""trial"",""time""
""fullscreenenter"",""1"",""4677""
","
","
","""event"",""trial"",""time""
""fullscreenenter"",""1"",""4677""
","
","","","","","","1255.4000000953674","images/rodent2.png","","","learning","-2","-2","1","1","rodent","pets","1","0","","bad","[-4]"
"html-keyboard-response","94","447880","0.0-9.0-2.0-0.11","5866","1","18","Female","approach_avoid_spark_v1","""event"",""trial"",""time""
""fullscreenenter"",""1"",""4677""
","
","
","""event"",""trial"",""time""
""fullscreenenter"",""1"",""4677""
","
","","","","","","null","<div style=""font-size:60px;"">+</div>","null","","fixation","","","","","","","","","","",""
"aa-learning-trial","95","450888","0.0-9.0-2.0-1.11","5866","1","18","Female","approach_avoid_spark_v1","""event"",""trial"",""time""
""fullscreenenter"",""1"",""4677""
","
","
","""event"",""trial"",""time""
""fullscreenenter"",""1"",""4677""
","
","","","","","","2592.4000000953674","images/dog3.png","","","learning","[-1]","0","0","0","dog","pets","1","0","","neutral","0"
"html-keyboard-response","96","451395","0.0-9.0-2.0-0.12","5866","1","18","Female","approach_avoid_spark_v1","""event"",""trial"",""time""
""fullscreenenter"",""1"",""4677""
","
","
","""event"",""trial"",""time""
""fullscreenenter"",""1"",""4677""
","
","","","","","","null","<div style=""font-size:60px;"">+</div>","null","","fixation","","","","","","","","","","",""
"aa-learning-trial","97","454404","0.0-9.0-2.0-1.12","5866","1","18","Female","approach_avoid_spark_v1","""event"",""trial"",""time""
""fullscreenenter"",""1"",""4677""
","
","
","""event"",""trial"",""time""
""fullscreenenter"",""1"",""4677""
","
","","","","","","2459","images/cat6.png","","","learning","7","7","1","1","cat","pets","1","0","","good","[6]"
"html-keyboard-response","98","454909","0.0-9.0-2.0-0.13","5866","1","18","Female","approach_avoid_spark_v1","""event"",""trial"",""time""
""fullscreenenter"",""1"",""4677""
","
","
","""event"",""trial"",""time""
""fullscreenenter"",""1"",""4677""
","
","","","","","","null","<div style=""font-size:60px;"">+</div>","null","","fixation","","","","","","","","","","",""
"aa-learning-trial","99","457914","0.0-9.0-2.0-1.13","5866","1","18","Female","approach_avoid_spark_v1","""event"",""trial"",""time""
""fullscreenenter"",""1"",""4677""
","
","
","""event"",""trial"",""time""
""fullscreenenter"",""1"",""4677""
","
","","","","","","2675","images/rodent8.png","","","learning","-2","0","0","0","rodent","pets","1","0","","bad","[-4]"
"html-keyboard-response","100","458418","0.0-9.0-2.0-0.14","5866","1","18","Female","approach_avoid_spark_v1","""event"",""trial"",""time""
""fullscreenenter"",""1"",""4677""
","
","
","""event"",""trial"",""time""
""fullscreenenter"",""1"",""4677""
","
","","","","","","null","<div style=""font-size:60px;"">+</div>","null","","fixation","","","","","","","","","","",""
"aa-learning-trial","101","461427","0.0-9.0-2.0-1.14","5866","1","18","Female","approach_avoid_spark_v1","""event"",""trial"",""time""
""fullscreenenter"",""1"",""4677""
","
","
","""event"",""trial"",""time""
""fullscreenenter"",""1"",""4677""
","
","","","","","","1630.7000000476837","images/cat6.png","","","learning","3","3","1","1","cat","pets","1","0","","good","[6]"
"html-keyboard-response","102","461932","0.0-9.0-2.0-0.15","5866","1","18","Female","approach_avoid_spark_v1","""event"",""trial"",""time""
""fullscreenenter"",""1"",""4677""
","
","
","""event"",""trial"",""time""
""fullscreenenter"",""1"",""4677""
","
","","","","","","null","<div style=""font-size:60px;"">+</div>","null","","fixation","","","","","","","","","","",""
"aa-learning-trial","103","464941","0.0-9.0-2.0-1.15","5866","1","18","Female","approach_avoid_spark_v1","""event"",""trial"",""time""
""fullscreenenter"",""1"",""4677""
","
","
","""event"",""trial"",""time""
""fullscreenenter"",""1"",""4677""
","
","","","","","","750.9000000953674","images/dog8.png","","","learning","-2","-2","1","1","dog","pets","1","0","","neutral","0"
"html-keyboard-response","104","465447","0.0-9.0-2.0-0.16","5866","1","18","Female","approach_avoid_spark_v1","""event"",""trial"",""time""
""fullscreenenter"",""1"",""4677""
","
","
","""event"",""trial"",""time""
""fullscreenenter"",""1"",""4677""
","
","","","","","","null","<div style=""font-size:60px;"">+</div>","null","","fixation","","","","","","","","","","",""
"aa-learning-trial","105","468456","0.0-9.0-2.0-1.16","5866","1","18","Female","approach_avoid_spark_v1","""event"",""trial"",""time""
""fullscreenenter"",""1"",""4677""
","
","
","""event"",""trial"",""time""
""fullscreenenter"",""1"",""4677""
","
","","","","","","918.8000001907349","images/dog3.png","","","learning","[1]","1","1","1","dog","pets","1","0","","neutral","0"
"html-keyboard-response","106","468962","0.0-9.0-2.0-0.17","5866","1","18","Female","approach_avoid_spark_v1","""event"",""trial"",""time""
""fullscreenenter"",""1"",""4677""
","
","
","""event"",""trial"",""time""
""fullscreenenter"",""1"",""4677""
","
","","","","","","null","<div style=""font-size:60px;"">+</div>","null","","fixation","","","","","","","","","","",""
"aa-learning-trial","107","471970","0.0-9.0-2.0-1.17","5866","1","18","Female","approach_avoid_spark_v1","""event"",""trial"",""time""
""fullscreenenter"",""1"",""4677""
","
","
","""event"",""trial"",""time""
""fullscreenenter"",""1"",""4677""
","
","","","","","","630.2999999523163","images/rodent2.png","","","learning","-5","0","0","0","rodent","pets","1","0","","bad","[-4]"
"html-keyboard-response","108","472476","0.0-9.0-2.0-0.18","5866","1","18","Female","approach_avoid_spark_v1","""event"",""trial"",""time""
""fullscreenenter"",""1"",""4677""
","
","
","""event"",""trial"",""time""
""fullscreenenter"",""1"",""4677""
","
","","","","","","null","<div style=""font-size:60px;"">+</div>","null","","fixation","","","","","","","","","","",""
"aa-learning-trial","109","475484","0.0-9.0-2.0-1.18","5866","1","18","Female","approach_avoid_spark_v1","""event"",""trial"",""time""
""fullscreenenter"",""1"",""4677""
","
","
","""event"",""trial"",""time""
""fullscreenenter"",""1"",""4677""
","
","","","","","","1180","images/cat2.png","","","learning","7","7","1","1","cat","pets","1","0","","good","[6]"
"html-keyboard-response","110","475991","0.0-9.0-2.0-0.19","5866","1","18","Female","approach_avoid_spark_v1","""event"",""trial"",""time""
""fullscreenenter"",""1"",""4677""
","
","
","""event"",""trial"",""time""
""fullscreenenter"",""1"",""4677""
","
","","","","","","null","<div style=""font-size:60px;"">+</div>","null","","fixation","","","","","","","","","","",""
"aa-learning-trial","111","478997","0.0-9.0-2.0-1.19","5866","1","18","Female","approach_avoid_spark_v1","""event"",""trial"",""time""
""fullscreenenter"",""1"",""4677""
","
","
","""event"",""trial"",""time""
""fullscreenenter"",""1"",""4677""
","
","","","","","","1961.5","images/dog3.png","","","learning","[1]","1","1","1","dog","pets","1","0","","neutral","0"
"html-keyboard-response","112","479503","0.0-9.0-2.0-0.20","5866","1","18","Female","approach_avoid_spark_v1","""event"",""trial"",""time""
""fullscreenenter"",""1"",""4677""
","
","
","""event"",""trial"",""time""
""fullscreenenter"",""1"",""4677""
","
","","","","","","null","<div style=""font-size:60px;"">+</div>","null","","fixation","","","","","","","","","","",""
"aa-learning-trial","113","482512","0.0-9.0-2.0-1.20","5866","1","18","Female","approach_avoid_spark_v1","""event"",""trial"",""time""
""fullscreenenter"",""1"",""4677""
","
","
","""event"",""trial"",""time""
""fullscreenenter"",""1"",""4677""
","
","","","","","","1456.7000000476837","images/dog7.png","","","learning","1","1","1","1","dog","pets","1","0","","neutral","0"
"html-keyboard-response","114","483016","0.0-9.0-2.0-0.21","5866","1","18","Female","approach_avoid_spark_v1","""event"",""trial"",""time""
""fullscreenenter"",""1"",""4677""
","
","
","""event"",""trial"",""time""
""fullscreenenter"",""1"",""4677""
","
","","","","","","null","<div style=""font-size:60px;"">+</div>","null","","fixation","","","","","","","","","","",""
"aa-learning-trial","115","486022","0.0-9.0-2.0-1.21","5866","1","18","Female","approach_avoid_spark_v1","""event"",""trial"",""time""
""fullscreenenter"",""1"",""4677""
","
","
","""event"",""trial"",""time""
""fullscreenenter"",""1"",""4677""
","
","","","","","","1041","images/rodent3.png","","","learning","-2","0","0","0","rodent","pets","1","0","","bad","[-4]"
"html-keyboard-response","116","486528","0.0-9.0-2.0-0.22","5866","1","18","Female","approach_avoid_spark_v1","""event"",""trial"",""time""
""fullscreenenter"",""1"",""4677""
","
","
","""event"",""trial"",""time""
""fullscreenenter"",""1"",""4677""
","
","","","","","","null","<div style=""font-size:60px;"">+</div>","null","","fixation","","","","","","","","","","",""
"aa-learning-trial","117","489536","0.0-9.0-2.0-1.22","5866","1","18","Female","approach_avoid_spark_v1","""event"",""trial"",""time""
""fullscreenenter"",""1"",""4677""
","
","
","""event"",""trial"",""time""
""fullscreenenter"",""1"",""4677""
","
","","","","","","895.7999999523163","images/cat3.png","","","learning","4","4","1","1","cat","pets","1","0","","good","[6]"
"html-keyboard-response","118","490042","0.0-9.0-2.0-0.23","5866","1","18","Female","approach_avoid_spark_v1","""event"",""trial"",""time""
""fullscreenenter"",""1"",""4677""
","
","
","""event"",""trial"",""time""
""fullscreenenter"",""1"",""4677""
","
","","","","","","null","<div style=""font-size:60px;"">+</div>","null","","fixation","","","","","","","","","","",""
"aa-learning-trial","119","493047","0.0-9.0-2.0-1.23","5866","1","18","Female","approach_avoid_spark_v1","""event"",""trial"",""time""
""fullscreenenter"",""1"",""4677""
","
","
","""event"",""trial"",""time""
""fullscreenenter"",""1"",""4677""
","
","","","","","","1025.7000000476837","images/dog3.png","","","learning","-1","-1","1","1","dog","pets","1","0","","neutral","0"
"html-keyboard-response","120","493552","0.0-9.0-2.0-0.24","5866","1","18","Female","approach_avoid_spark_v1","""event"",""trial"",""time""
""fullscreenenter"",""1"",""4677""
","
","
","""event"",""trial"",""time""
""fullscreenenter"",""1"",""4677""
","
","","","","","","null","<div style=""font-size:60px;"">+</div>","null","","fixation","","","","","","","","","","",""
"aa-learning-trial","121","496560","0.0-9.0-2.0-1.24","5866","1","18","Female","approach_avoid_spark_v1","""event"",""trial"",""time""
""fullscreenenter"",""1"",""4677""
","
","
","""event"",""trial"",""time""
""fullscreenenter"",""1"",""4677""
","
","","","","","","1231.7999999523163","images/cat1.png","","","learning","6","0","0","0","cat","pets","1","0","","good","[6]"
"html-keyboard-response","122","497065","0.0-9.0-2.0-0.25","5866","1","18","Female","approach_avoid_spark_v1","""event"",""trial"",""time""
""fullscreenenter"",""1"",""4677""
","
","
","""event"",""trial"",""time""
""fullscreenenter"",""1"",""4677""
","
","","","","","","null","<div style=""font-size:60px;"">+</div>","null","","fixation","","","","","","","","","","",""
"aa-learning-trial","123","500072","0.0-9.0-2.0-1.25","5866","1","18","Female","approach_avoid_spark_v1","""event"",""trial"",""time""
""fullscreenenter"",""1"",""4677""
","
","
","""event"",""trial"",""time""
""fullscreenenter"",""1"",""4677""
","
","","","","","","1003.2000000476837","images/cat7.png","","","learning","6","6","1","1","cat","pets","1","0","","good","[6]"
"html-keyboard-response","124","500578","0.0-9.0-2.0-0.26","5866","1","18","Female","approach_avoid_spark_v1","""event"",""trial"",""time""
""fullscreenenter"",""1"",""4677""
","
","
","""event"",""trial"",""time""
""fullscreenenter"",""1"",""4677""
","
","","","","","","null","<div style=""font-size:60px;"">+</div>","null","","fixation","","","","","","","","","","",""
"aa-learning-trial","125","503585","0.0-9.0-2.0-1.26","5866","1","18","Female","approach_avoid_spark_v1","""event"",""trial"",""time""
""fullscreenenter"",""1"",""4677""
","
","
","""event"",""trial"",""time""
""fullscreenenter"",""1"",""4677""
","
","","","","","","1353.5999999046326","images/dog8.png","","","learning","1","0","0","0","dog","pets","1","0","","neutral","0"
"html-keyboard-response","126","504087","0.0-9.0-2.0-0.27","5866","1","18","Female","approach_avoid_spark_v1","""event"",""trial"",""time""
""fullscreenenter"",""1"",""4677""
","
","
","""event"",""trial"",""time""
""fullscreenenter"",""1"",""4677""
","
","","","","","","null","<div style=""font-size:60px;"">+</div>","null","","fixation","","","","","","","","","","",""
"aa-learning-trial","127","507095","0.0-9.0-2.0-1.27","5866","1","18","Female","approach_avoid_spark_v1","""event"",""trial"",""time""
""fullscreenenter"",""1"",""4677""
","
","
","""event"",""trial"",""time""
""fullscreenenter"",""1"",""4677""
","
","","","","","","986.7999999523163","images/cat7.png","","","learning","7","7","1","1","cat","pets","1","0","","good","[6]"
"html-keyboard-response","128","507601","0.0-9.0-2.0-0.28","5866","1","18","Female","approach_avoid_spark_v1","""event"",""trial"",""time""
""fullscreenenter"",""1"",""4677""
","
","
","""event"",""trial"",""time""
""fullscreenenter"",""1"",""4677""
","
","","","","","","null","<div style=""font-size:60px;"">+</div>","null","","fixation","","","","","","","","","","",""
"aa-learning-trial","129","510609","0.0-9.0-2.0-1.28","5866","1","18","Female","approach_avoid_spark_v1","""event"",""trial"",""time""
""fullscreenenter"",""1"",""4677""
","
","
","""event"",""trial"",""time""
""fullscreenenter"",""1"",""4677""
","
","","","","","","1096.3999998569489","images/rodent1.png","","","learning","-3","0","0","0","rodent","pets","1","0","","bad","[-4]"
"html-keyboard-response","130","511111","0.0-9.0-2.0-0.29","5866","1","18","Female","approach_avoid_spark_v1","""event"",""trial"",""time""
""fullscreenenter"",""1"",""4677""
","
","
","""event"",""trial"",""time""
""fullscreenenter"",""1"",""4677""
","
","","","","","","null","<div style=""font-size:60px;"">+</div>","null","","fixation","","","","","","","","","","",""
"aa-learning-trial","131","514118","0.0-9.0-2.0-1.29","5866","1","18","Female","approach_avoid_spark_v1","""event"",""trial"",""time""
""fullscreenenter"",""1"",""4677""
","
","
","""event"",""trial"",""time""
""fullscreenenter"",""1"",""4677""
","
","","","","","","1080.4000000953674","images/rodent8.png","","","learning","-4","0","0","0","rodent","pets","1","0","","bad","[-4]"
"html-keyboard-response","132","514623","0.0-9.0-2.0-0.30","5866","1","18","Female","approach_avoid_spark_v1","""event"",""trial"",""time""
""fullscreenenter"",""1"",""4677""
","
","
","""event"",""trial"",""time""
""fullscreenenter"",""1"",""4677""
","
","","","","","","null","<div style=""font-size:60px;"">+</div>","null","","fixation","","","","","","","","","","",""
"aa-learning-trial","133","517630","0.0-9.0-2.0-1.30","5866","1","18","Female","approach_avoid_spark_v1","""event"",""trial"",""time""
""fullscreenenter"",""1"",""4677""
","
","
","""event"",""trial"",""time""
""fullscreenenter"",""1"",""4677""
","
","","","","","","1537.5","images/dog3.png","","","learning","[1]","1","1","1","dog","pets","1","0","","neutral","0"
"html-keyboard-response","134","518134","0.0-9.0-2.0-0.31","5866","1","18","Female","approach_avoid_spark_v1","""event"",""trial"",""time""
""fullscreenenter"",""1"",""4677""
","
","
","""event"",""trial"",""time""
""fullscreenenter"",""1"",""4677""
","
","","","","","","null","<div style=""font-size:60px;"">+</div>","null","","fixation","","","","","","","","","","",""
"aa-learning-trial","135","521143","0.0-9.0-2.0-1.31","5866","1","18","Female","approach_avoid_spark_v1","""event"",""trial"",""time""
""fullscreenenter"",""1"",""4677""
","
","
","""event"",""trial"",""time""
""fullscreenenter"",""1"",""4677""
","
","","","","","","1481.5999999046326","images/dog8.png","","","learning","1","0","0","0","dog","pets","1","0","","neutral","0"
"html-keyboard-response","136","521647","0.0-9.0-2.0-0.32","5866","1","18","Female","approach_avoid_spark_v1","""event"",""trial"",""time""
""fullscreenenter"",""1"",""4677""
","
","
","""event"",""trial"",""time""
""fullscreenenter"",""1"",""4677""
","
","","","","","","null","<div style=""font-size:60px;"">+</div>","null","","fixation","","","","","","","","","","",""
"aa-learning-trial","137","524653","0.0-9.0-2.0-1.32","5866","1","18","Female","approach_avoid_spark_v1","""event"",""trial"",""time""
""fullscreenenter"",""1"",""4677""
","
","
","""event"",""trial"",""time""
""fullscreenenter"",""1"",""4677""
","
","","","","","","1436.5999999046326","images/cat3.png","","","learning","4","4","1","1","cat","pets","1","0","","good","[6]"
"html-keyboard-response","138","525159","0.0-9.0-2.0-0.33","5866","1","18","Female","approach_avoid_spark_v1","""event"",""trial"",""time""
""fullscreenenter"",""1"",""4677""
","
","
","""event"",""trial"",""time""
""fullscreenenter"",""1"",""4677""
","
","","","","","","null","<div style=""font-size:60px;"">+</div>","null","","fixation","","","","","","","","","","",""
"aa-learning-trial","139","528166","0.0-9.0-2.0-1.33","5866","1","18","Female","approach_avoid_spark_v1","""event"",""trial"",""time""
""fullscreenenter"",""1"",""4677""
","
","
","""event"",""trial"",""time""
""fullscreenenter"",""1"",""4677""
","
","","","","","","1308.5","images/dog1.png","","","learning","2","0","0","0","dog","pets","1","0","","neutral","0"
"html-keyboard-response","140","528668","0.0-9.0-2.0-0.34","5866","1","18","Female","approach_avoid_spark_v1","""event"",""trial"",""time""
""fullscreenenter"",""1"",""4677""
","
","
","""event"",""trial"",""time""
""fullscreenenter"",""1"",""4677""
","
","","","","","","null","<div style=""font-size:60px;"">+</div>","null","","fixation","","","","","","","","","","",""
"aa-learning-trial","141","531672","0.0-9.0-2.0-1.34","5866","1","18","Female","approach_avoid_spark_v1","""event"",""trial"",""time""
""fullscreenenter"",""1"",""4677""
","
","
","""event"",""trial"",""time""
""fullscreenenter"",""1"",""4677""
","
","","","","","","1323.5999999046326","images/cat6.png","","","learning","6","6","1","1","cat","pets","1","0","","good","[6]"
"html-keyboard-response","142","532178","0.0-9.0-2.0-0.35","5866","1","18","Female","approach_avoid_spark_v1","""event"",""trial"",""time""
""fullscreenenter"",""1"",""4677""
","
","
","""event"",""trial"",""time""
""fullscreenenter"",""1"",""4677""
","
","","","","","","null","<div style=""font-size:60px;"">+</div>","null","","fixation","","","","","","","","","","",""
"aa-learning-trial","143","535185","0.0-9.0-2.0-1.35","5866","1","18","Female","approach_avoid_spark_v1","""event"",""trial"",""time""
""fullscreenenter"",""1"",""4677""
","
","
","""event"",""trial"",""time""
""fullscreenenter"",""1"",""4677""
","
","","","","","","773.6000001430511","images/rodent2.png","","","learning","-6","0","0","0","rodent","pets","1","0","","bad","[-4]"
"html-keyboard-response","144","535687","0.0-9.0-2.0-0.36","5866","1","18","Female","approach_avoid_spark_v1","""event"",""trial"",""time""
""fullscreenenter"",""1"",""4677""
","
","
","""event"",""trial"",""time""
""fullscreenenter"",""1"",""4677""
","
","","","","","","null","<div style=""font-size:60px;"">+</div>","null","","fixation","","","","","","","","","","",""
"aa-learning-trial","145","538695","0.0-9.0-2.0-1.36","5866","1","18","Female","approach_avoid_spark_v1","""event"",""trial"",""time""
""fullscreenenter"",""1"",""4677""
","
","
","""event"",""trial"",""time""
""fullscreenenter"",""1"",""4677""
","
","","","","","","827.8000001907349","images/rodent1.png","","","learning","-3","0","0","0","rodent","pets","1","0","","bad","[-4]"
"html-keyboard-response","146","539201","0.0-9.0-2.0-0.37","5866","1","18","Female","approach_avoid_spark_v1","""event"",""trial"",""time""
""fullscreenenter"",""1"",""4677""
","
","
","""event"",""trial"",""time""
""fullscreenenter"",""1"",""4677""
","
","","","","","","null","<div style=""font-size:60px;"">+</div>","null","","fixation","","","","","","","","","","",""
"aa-learning-trial","147","542209","0.0-9.0-2.0-1.37","5866","1","18","Female","approach_avoid_spark_v1","""event"",""trial"",""time""
""fullscreenenter"",""1"",""4677""
","
","
","""event"",""trial"",""time""
""fullscreenenter"",""1"",""4677""
","
","","","","","","1398.9000000953674","images/cat6.png","","","learning","7","7","1","1","cat","pets","1","0","","good","[6]"
"html-keyboard-response","148","542711","0.0-9.0-2.0-0.38","5866","1","18","Female","approach_avoid_spark_v1","""event"",""trial"",""time""
""fullscreenenter"",""1"",""4677""
","
","
","""event"",""trial"",""time""
""fullscreenenter"",""1"",""4677""
","
","","","","","","null","<div style=""font-size:60px;"">+</div>","null","","fixation","","","","","","","","","","",""
"aa-learning-trial","149","545718","0.0-9.0-2.0-1.38","5866","1","18","Female","approach_avoid_spark_v1","""event"",""trial"",""time""
""fullscreenenter"",""1"",""4677""
","
","
","""event"",""trial"",""time""
""fullscreenenter"",""1"",""4677""
","
","","","","","","672.7000000476837","images/rodent6.png","","","learning","-6","0","0","0","rodent","pets","1","0","","bad","[-4]"
"html-keyboard-response","150","546221","0.0-9.0-2.0-0.39","5866","1","18","Female","approach_avoid_spark_v1","""event"",""trial"",""time""
""fullscreenenter"",""1"",""4677""
","
","
","""event"",""trial"",""time""
""fullscreenenter"",""1"",""4677""
","
","","","","","","null","<div style=""font-size:60px;"">+</div>","null","","fixation","","","","","","","","","","",""
"aa-learning-trial","151","549228","0.0-9.0-2.0-1.39","5866","1","18","Female","approach_avoid_spark_v1","""event"",""trial"",""time""
""fullscreenenter"",""1"",""4677""
","
","
","""event"",""trial"",""time""
""fullscreenenter"",""1"",""4677""
","
","","","","","","835","images/dog1.png","","","learning","-2","0","0","0","dog","pets","1","0","","neutral","0"
"html-keyboard-response","152","549733","0.0-9.0-2.0-0.40","5866","1","18","Female","approach_avoid_spark_v1","""event"",""trial"",""time""
""fullscreenenter"",""1"",""4677""
","
","
","""event"",""trial"",""time""
""fullscreenenter"",""1"",""4677""
","
","","","","","","null","<div style=""font-size:60px;"">+</div>","null","","fixation","","","","","","","","","","",""
"aa-learning-trial","153","552742","0.0-9.0-2.0-1.40","5866","1","18","Female","approach_avoid_spark_v1","""event"",""trial"",""time""
""fullscreenenter"",""1"",""4677""
","
","
","""event"",""trial"",""time""
""fullscreenenter"",""1"",""4677""
","
","","","","","","807.5","images/cat6.png","","","learning","7","7","1","1","cat","pets","1","0","","good","[6]"
"html-keyboard-response","154","553247","0.0-9.0-2.0-0.41","5866","1","18","Female","approach_avoid_spark_v1","""event"",""trial"",""time""
""fullscreenenter"",""1"",""4677""
","
","
","""event"",""trial"",""time""
""fullscreenenter"",""1"",""4677""
","
","","","","","","null","<div style=""font-size:60px;"">+</div>","null","","fixation","","","","","","","","","","",""
"aa-learning-trial","155","556254","0.0-9.0-2.0-1.41","5866","1","18","Female","approach_avoid_spark_v1","""event"",""trial"",""time""
""fullscreenenter"",""1"",""4677""
","
","
","""event"",""trial"",""time""
""fullscreenenter"",""1"",""4677""
","
","","","","","","1737","images/dog8.png","","","learning","3","3","1","1","dog","pets","1","0","","neutral","0"
"html-keyboard-response","156","556759","0.0-9.0-2.0-0.42","5866","1","18","Female","approach_avoid_spark_v1","""event"",""trial"",""time""
""fullscreenenter"",""1"",""4677""
","
","
","""event"",""trial"",""time""
""fullscreenenter"",""1"",""4677""
","
","","","","","","null","<div style=""font-size:60px;"">+</div>","null","","fixation","","","","","","","","","","",""
"aa-learning-trial","157","559767","0.0-9.0-2.0-1.42","5866","1","18","Female","approach_avoid_spark_v1","""event"",""trial"",""time""
""fullscreenenter"",""1"",""4677""
","
","
","""event"",""trial"",""time""
""fullscreenenter"",""1"",""4677""
","
","","","","","","662.4000000953674","images/rodent2.png","","","learning","-6","0","0","0","rodent","pets","1","0","","bad","[-4]"
"html-keyboard-response","158","560271","0.0-9.0-2.0-0.43","5866","1","18","Female","approach_avoid_spark_v1","""event"",""trial"",""time""
""fullscreenenter"",""1"",""4677""
","
","
","""event"",""trial"",""time""
""fullscreenenter"",""1"",""4677""
","
","","","","","","null","<div style=""font-size:60px;"">+</div>","null","","fixation","","","","","","","","","","",""
"aa-learning-trial","159","563279","0.0-9.0-2.0-1.43","5866","1","18","Female","approach_avoid_spark_v1","""event"",""trial"",""time""
""fullscreenenter"",""1"",""4677""
","
","
","""event"",""trial"",""time""
""fullscreenenter"",""1"",""4677""
","
","","","","","","1201.6000001430511","images/cat6.png","","","learning","6","6","1","1","cat","pets","1","0","","good","[6]"
"html-keyboard-response","160","563783","0.0-9.0-2.0-0.44","5866","1","18","Female","approach_avoid_spark_v1","""event"",""trial"",""time""
""fullscreenenter"",""1"",""4677""
","
","
","""event"",""trial"",""time""
""fullscreenenter"",""1"",""4677""
","
","","","","","","null","<div style=""font-size:60px;"">+</div>","null","","fixation","","","","","","","","","","",""
"aa-learning-trial","161","566791","0.0-9.0-2.0-1.44","5866","1","18","Female","approach_avoid_spark_v1","""event"",""trial"",""time""
""fullscreenenter"",""1"",""4677""
","
","
","""event"",""trial"",""time""
""fullscreenenter"",""1"",""4677""
","
","","","","","","682.5","images/rodent1.png","","","learning","-3","0","0","0","rodent","pets","1","0","","bad","[-4]"
"html-keyboard-response","162","567296","0.0-9.0-2.0-0.45","5866","1","18","Female","approach_avoid_spark_v1","""event"",""trial"",""time""
""fullscreenenter"",""1"",""4677""
","
","
","""event"",""trial"",""time""
""fullscreenenter"",""1"",""4677""
","
","","","","","","null","<div style=""font-size:60px;"">+</div>","null","","fixation","","","","","","","","","","",""
"aa-learning-trial","163","570301","0.0-9.0-2.0-1.45","5866","1","18","Female","approach_avoid_spark_v1","""event"",""trial"",""time""
""fullscreenenter"",""1"",""4677""
","
","
","""event"",""trial"",""time""
""fullscreenenter"",""1"",""4677""
","
","","","","","","745","images/rodent8.png","","","learning","-4","0","0","0","rodent","pets","1","0","","bad","[-4]"
"html-keyboard-response","164","570806","0.0-9.0-2.0-0.46","5866","1","18","Female","approach_avoid_spark_v1","""event"",""trial"",""time""
""fullscreenenter"",""1"",""4677""
","
","
","""event"",""trial"",""time""
""fullscreenenter"",""1"",""4677""
","
","","","","","","null","<div style=""font-size:60px;"">+</div>","null","","fixation","","","","","","","","","","",""
"aa-learning-trial","165","573815","0.0-9.0-2.0-1.46","5866","1","18","Female","approach_avoid_spark_v1","""event"",""trial"",""time""
""fullscreenenter"",""1"",""4677""
","
","
","""event"",""trial"",""time""
""fullscreenenter"",""1"",""4677""
","
","","","","","","643.4000000953674","images/rodent2.png","","","learning","-3","0","0","0","rodent","pets","1","0","","bad","[-4]"
"html-keyboard-response","166","574320","0.0-9.0-2.0-0.47","5866","1","18","Female","approach_avoid_spark_v1","""event"",""trial"",""time""
""fullscreenenter"",""1"",""4677""
","
","
","""event"",""trial"",""time""
""fullscreenenter"",""1"",""4677""
","
","","","","","","null","<div style=""font-size:60px;"">+</div>","null","","fixation","","","","","","","","","","",""
"aa-learning-trial","167","577324","0.0-9.0-2.0-1.47","5866","1","18","Female","approach_avoid_spark_v1","""event"",""trial"",""time""
""fullscreenenter"",""1"",""4677""
","
","
","""event"",""trial"",""time""
""fullscreenenter"",""1"",""4677""
","
","","","","","","951.4000000953674","images/dog5.png","","","learning","1","1","1","1","dog","pets","1","0","","neutral","0"
"html-keyboard-response","168","577831","0.0-9.0-2.0-0.48","5866","1","18","Female","approach_avoid_spark_v1","""event"",""trial"",""time""
""fullscreenenter"",""1"",""4677""
","
","
","""event"",""trial"",""time""
""fullscreenenter"",""1"",""4677""
","
","","","","","","null","<div style=""font-size:60px;"">+</div>","null","","fixation","","","","","","","","","","",""
"aa-learning-trial","169","580838","0.0-9.0-2.0-1.48","5866","1","18","Female","approach_avoid_spark_v1","""event"",""trial"",""time""
""fullscreenenter"",""1"",""4677""
","
","
","""event"",""trial"",""time""
""fullscreenenter"",""1"",""4677""
","
","","","","","","638.6000001430511","images/rodent1.png","","","learning","-4","0","0","0","rodent","pets","1","0","","bad","[-4]"
"html-keyboard-response","170","581343","0.0-9.0-2.0-0.49","5866","1","18","Female","approach_avoid_spark_v1","""event"",""trial"",""time""
""fullscreenenter"",""1"",""4677""
","
","
","""event"",""trial"",""time""
""fullscreenenter"",""1"",""4677""
","
","","","","","","null","<div style=""font-size:60px;"">+</div>","null","","fixation","","","","","","","","","","",""
"aa-learning-trial","171","584351","0.0-9.0-2.0-1.49","5866","1","18","Female","approach_avoid_spark_v1","""event"",""trial"",""time""
""fullscreenenter"",""1"",""4677""
","
","
","""event"",""trial"",""time""
""fullscreenenter"",""1"",""4677""
","
","","","","","","776.7999999523163","images/cat7.png","","","learning","6","6","1","1","cat","pets","1","0","","good","[6]"
"html-keyboard-response","172","584856","0.0-9.0-2.0-0.50","5866","1","18","Female","approach_avoid_spark_v1","""event"",""trial"",""time""
""fullscreenenter"",""1"",""4677""
","
","
","""event"",""trial"",""time""
""fullscreenenter"",""1"",""4677""
","
","","","","","","null","<div style=""font-size:60px;"">+</div>","null","","fixation","","","","","","","","","","",""
"aa-learning-trial","173","587864","0.0-9.0-2.0-1.50","5866","1","18","Female","approach_avoid_spark_v1","""event"",""trial"",""time""
""fullscreenenter"",""1"",""4677""
","
","
","""event"",""trial"",""time""
""fullscreenenter"",""1"",""4677""
","
","","","","","","607.2999999523163","images/cat7.png","","","learning","6","6","1","1","cat","pets","1","0","","good","[6]"
"html-button-response","174","591894","0.0-9.0-3.0","5866","1","18","Female","approach_avoid_spark_v1","""event"",""trial"",""time""
""fullscreenenter"",""1"",""4677""
","
","
","""event"",""trial"",""time""
""fullscreenenter"",""1"",""4677""
","
","","","","","","4027.7000000476837","<p> You have completed the round! <p> In this round, you earned 90 points! </p>","0","","break","","","","","","","","","","",""
"html-button-response","175","592962","0.0-10.0","5866","1","18","Female","approach_avoid_spark_v1","""event"",""trial"",""time""
""fullscreenenter"",""1"",""4677""
","
","
","""event"",""trial"",""time""
""fullscreenenter"",""1"",""4677""
","
","","","","","","1066","<p> Now it's time to play another round. </p>","0","","transition_screen","","","","","","","","","","",""
"preload","176","593081","0.0-11.0-0.0","5866","1","18","Female","approach_avoid_spark_v1","""event"",""trial"",""time""
""fullscreenenter"",""1"",""4677""
","
","
","""event"",""trial"",""time""
""fullscreenenter"",""1"",""4677""
","
","true","false","[]","[]","[]","","","","","","","","","","","","","","","",""
"learning-instructions","177","599036","0.0-11.0-1.0-0.0","5866","1","18","Female","approach_avoid_spark_v1","""event"",""trial"",""time""
""fullscreenenter"",""1"",""4677""
","
","
","""event"",""trial"",""time""
""fullscreenenter"",""1"",""4677""
","
","","","","","","1642.5999999046326","<p> Your goal in this round is to take care of lots of farm animals. </p></div>","","0","instructions","","","","","","","","","","",""
"learning-instructions","178","609183","0.0-11.0-1.0-0.1","5866","1","18","Female","approach_avoid_spark_v1","""event"",""trial"",""time""
""fullscreenenter"",""1"",""4677""
","
","
","""event"",""trial"",""time""
""fullscreenenter"",""1"",""4677""
","
","","","","","","579.2999999523163","<p> Some farm animals are hungry, while other farm animals are already full.  </p><p> On each turn, you will see a farm animal.   </p><p> You need to decide whether to feed it or not.  </p>","","0","instructions","","","","","","","","","","",""
"learning-instructions","179","615395","0.0-11.0-1.0-0.2","5866","1","18","Female","approach_avoid_spark_v1","""event"",""trial"",""time""
""fullscreenenter"",""1"",""4677""
","
","
","""event"",""trial"",""time""
""fullscreenenter"",""1"",""4677""
","
","","","","","","603.9000000953674","<p> You can feed the farm animal by pressing 1 and leave the farm animal alone by pressing 0. </p><br><div class=""choice-instructions-grid""> <div class=""choice-option""><img src=""images/approach.png"" class=""choice-option-img"" stage=""instructions"" position=""0"" ><div class=""choice-option-text""> Press ""1."" </div></div><div class=""choice-option""><img src=""images/avoid.png"" class=""choice-option-img"" stage=""instructions"" position=""1"" ><div class=""choice-option-text""> Press ""0."" </div></div>","","0","instructions","","","","","","","","","","",""
"learning-instructions","180","625342","0.0-11.0-1.0-0.3","5866","1","18","Female","approach_avoid_spark_v1","""event"",""trial"",""time""
""fullscreenenter"",""1"",""4677""
","
","
","""event"",""trial"",""time""
""fullscreenenter"",""1"",""4677""
","
","","","","","","747.7000000476837","<p> If you feed a hungry farm animal, you will make it feel satisfied! </p><p> But if you feed the farm animal and it was already full, you will make it feel sick. </p>","","0","instructions","","","","","","","","","","",""
"learning-instructions","181","638627","0.0-11.0-1.0-0.4","5866","1","18","Female","approach_avoid_spark_v1","""event"",""trial"",""time""
""fullscreenenter"",""1"",""4677""
","
","
","""event"",""trial"",""time""
""fullscreenenter"",""1"",""4677""
","
","","","","","","1313.2000000476837","<p> You will earn points based on how you made the farm animal feel. </p><p> If you made it satisfied, you will WIN anywhere from 1 - 9 points, </p><p> but if you made it sick, you will LOSE anywhere from 1 - 9 points. </p>","","0","instructions","","","","","","","","","","",""
"learning-instructions","182","645960","0.0-11.0-1.0-0.5","5866","1","18","Female","approach_avoid_spark_v1","""event"",""trial"",""time""
""fullscreenenter"",""1"",""4677""
","
","
","""event"",""trial"",""time""
""fullscreenenter"",""1"",""4677""
","
","","","","","","678.5999999046326","<p> You will see how many points you won or lost in the center of the screen. </p><p> Here is what you would see if you won 5 points: </p><p style=""color:green;font-size:50px;font-weight:bolder"">5</p>","","0","instructions","","","","","","","","","","",""
"learning-instructions","183","649673","0.0-11.0-1.0-0.6","5866","1","18","Female","approach_avoid_spark_v1","""event"",""trial"",""time""
""fullscreenenter"",""1"",""4677""
","
","
","""event"",""trial"",""time""
""fullscreenenter"",""1"",""4677""
","
","","","","","","876.4000000953674","<p> And here is what you would see if you lost 3 points: </p><p style=""color:red;font-size:50px;font-weight:bolder"">-3</p>","","0","instructions","","","","","","","","","","",""
"learning-instructions","184","665266","0.0-11.0-1.0-0.7","5866","1","18","Female","approach_avoid_spark_v1","""event"",""trial"",""time""
""fullscreenenter"",""1"",""4677""
","
","
","""event"",""trial"",""time""
""fullscreenenter"",""1"",""4677""
","
","","","","","","507.2000000476837","<p> Some farm animals will become very satisfied or very sick. </p><p> These farm animals will make you win or lose LOTS of points. </p><p> Other farm animals have less strong feelings. </p><p> These farm animals will make you win or lose small amounts of points. </p>","","0","instructions","","","","","","","","","","",""
"learning-instructions","185","677436","0.0-11.0-1.0-0.8","5866","1","18","Female","approach_avoid_spark_v1","""event"",""trial"",""time""
""fullscreenenter"",""1"",""4677""
","
","
","""event"",""trial"",""time""
""fullscreenenter"",""1"",""4677""
","
","","","","","","501.2999999523163","<p> If you choose to leave the farm animal alone, you will not win or lose any points. </p><p>  However, in the center of the screen, you will see the number of points you WOULD HAVE won or lost if you had fed the farm animal. </p>","","0","instructions","","","","","","","","","","",""
"learning-instructions","186","688936","0.0-11.0-1.0-0.9","5866","1","18","Female","approach_avoid_spark_v1","""event"",""trial"",""time""
""fullscreenenter"",""1"",""4677""
","
","
","""event"",""trial"",""time""
""fullscreenenter"",""1"",""4677""
","
","","","","","","433.30000019073486","<p> Here is what you might see if you did not feed the farm animal but the animal was hungry: </p><p style=""color:grey; font-size:50px; display: inline-block; border-spacing: 15px; border-width:3px; border-style:solid; border-color:red"">  &nbsp; 6 &nbsp; </p><p> Remember, in this case, you would not win or lose ANY points because you did not feed the farm animal.  </p>","","0","instructions","","","","","","","","","","",""
"learning-instructions","187","697000","0.0-11.0-1.0-0.10","5866","1","18","Female","approach_avoid_spark_v1","""event"",""trial"",""time""
""fullscreenenter"",""1"",""4677""
","
","
","""event"",""trial"",""time""
""fullscreenenter"",""1"",""4677""
","
","","","","","","567.1000001430511","<p> Try to make the best choice for each farm animal because </p><p> at the end of the game, you will earn bonus money based on how many points you earned. </p>","","0","instructions","","","","","","","","","","",""
"learning-instructions","188","708758","0.0-11.0-1.0-0.11","5866","1","18","Female","approach_avoid_spark_v1","""event"",""trial"",""time""
""fullscreenenter"",""1"",""4677""
","
","
","""event"",""trial"",""time""
""fullscreenenter"",""1"",""4677""
","
","","","","","","3573.2000000476837","<p> You will have 3 seconds to make each choice. Try to respond before time runs out! </p><p> You will lose 5 points each time you do not make a response. </p>","","0","instructions","","","","","","","","","","",""
"html-keyboard-response","189","709368","0.0-11.0-2.0-0.0","5866","1","18","Female","approach_avoid_spark_v1","""event"",""trial"",""time""
""fullscreenenter"",""1"",""4677""
","
","
","""event"",""trial"",""time""
""fullscreenenter"",""1"",""4677""
","
","","","","","","null","<div style=""font-size:60px;"">+</div>","null","","fixation","","","","","","","","","","",""
"aa-learning-trial","190","712375","0.0-11.0-2.0-1.0","5866","1","18","Female","approach_avoid_spark_v1","""event"",""trial"",""time""
""fullscreenenter"",""1"",""4677""
","
","
","""event"",""trial"",""time""
""fullscreenenter"",""1"",""4677""
","
","","","","","","1231.5","images/goat8.png","","","learning","3","3","1","1","goat","animals","2","1","","bad","[-5]"
"html-keyboard-response","191","712880","0.0-11.0-2.0-0.1","5866","1","18","Female","approach_avoid_spark_v1","""event"",""trial"",""time""
""fullscreenenter"",""1"",""4677""
","
","
","""event"",""trial"",""time""
""fullscreenenter"",""1"",""4677""
","
","","","","","","null","<div style=""font-size:60px;"">+</div>","null","","fixation","","","","","","","","","","",""
"aa-learning-trial","192","715885","0.0-11.0-2.0-1.1","5866","1","18","Female","approach_avoid_spark_v1","""event"",""trial"",""time""
""fullscreenenter"",""1"",""4677""
","
","
","""event"",""trial"",""time""
""fullscreenenter"",""1"",""4677""
","
","","","","","","770.7999999523163","images/goat7.png","","","learning","1","1","1","1","goat","animals","2","1","","bad","[-5]"
"html-keyboard-response","193","716390","0.0-11.0-2.0-0.2","5866","1","18","Female","approach_avoid_spark_v1","""event"",""trial"",""time""
""fullscreenenter"",""1"",""4677""
","
","
","""event"",""trial"",""time""
""fullscreenenter"",""1"",""4677""
","
","","","","","","null","<div style=""font-size:60px;"">+</div>","null","","fixation","","","","","","","","","","",""
"aa-learning-trial","194","719394","0.0-11.0-2.0-1.2","5866","1","18","Female","approach_avoid_spark_v1","""event"",""trial"",""time""
""fullscreenenter"",""1"",""4677""
","
","
","""event"",""trial"",""time""
""fullscreenenter"",""1"",""4677""
","
","","","","","","1123.8999998569489","images/cow7.png","","","learning","-7","-7","1","1","cow","animals","2","1","","good","[4]"
"html-keyboard-response","195","719900","0.0-11.0-2.0-0.3","5866","1","18","Female","approach_avoid_spark_v1","""event"",""trial"",""time""
""fullscreenenter"",""1"",""4677""
","
","
","""event"",""trial"",""time""
""fullscreenenter"",""1"",""4677""
","
","","","","","","null","<div style=""font-size:60px;"">+</div>","null","","fixation","","","","","","","","","","",""
"aa-learning-trial","196","722907","0.0-11.0-2.0-1.3","5866","1","18","Female","approach_avoid_spark_v1","""event"",""trial"",""time""
""fullscreenenter"",""1"",""4677""
","
","
","""event"",""trial"",""time""
""fullscreenenter"",""1"",""4677""
","
","","","","","","1738.5","images/sheep2.png","","","learning","-3","-3","1","1","sheep","animals","2","1","","neutral","0"
"html-keyboard-response","197","723410","0.0-11.0-2.0-0.4","5866","1","18","Female","approach_avoid_spark_v1","""event"",""trial"",""time""
""fullscreenenter"",""1"",""4677""
","
","
","""event"",""trial"",""time""
""fullscreenenter"",""1"",""4677""
","
","","","","","","null","<div style=""font-size:60px;"">+</div>","null","","fixation","","","","","","","","","","",""
"aa-learning-trial","198","726417","0.0-11.0-2.0-1.4","5866","1","18","Female","approach_avoid_spark_v1","""event"",""trial"",""time""
""fullscreenenter"",""1"",""4677""
","
","
","""event"",""trial"",""time""
""fullscreenenter"",""1"",""4677""
","
","","","","","","1020.6000001430511","images/goat4.png","","","learning","-8","-8","1","1","goat","animals","2","1","","bad","[-5]"
"html-keyboard-response","199","726921","0.0-11.0-2.0-0.5","5866","1","18","Female","approach_avoid_spark_v1","""event"",""trial"",""time""
""fullscreenenter"",""1"",""4677""
","
","
","""event"",""trial"",""time""
""fullscreenenter"",""1"",""4677""
","
","","","","","","null","<div style=""font-size:60px;"">+</div>","null","","fixation","","","","","","","","","","",""
"aa-learning-trial","200","729926","0.0-11.0-2.0-1.5","5866","1","18","Female","approach_avoid_spark_v1","""event"",""trial"",""time""
""fullscreenenter"",""1"",""4677""
","
","
","""event"",""trial"",""time""
""fullscreenenter"",""1"",""4677""
","
","","","","","","665.5","images/cow1.png","","","learning","4","0","0","0","cow","animals","2","1","","good","[4]"
"html-keyboard-response","201","730432","0.0-11.0-2.0-0.6","5866","1","18","Female","approach_avoid_spark_v1","""event"",""trial"",""time""
""fullscreenenter"",""1"",""4677""
","
","
","""event"",""trial"",""time""
""fullscreenenter"",""1"",""4677""
","
","","","","","","null","<div style=""font-size:60px;"">+</div>","null","","fixation","","","","","","","","","","",""
"aa-learning-trial","202","733440","0.0-11.0-2.0-1.6","5866","1","18","Female","approach_avoid_spark_v1","""event"",""trial"",""time""
""fullscreenenter"",""1"",""4677""
","
","
","""event"",""trial"",""time""
""fullscreenenter"",""1"",""4677""
","
","","","","","","832.2999999523163","images/goat8.png","","","learning","3","3","1","1","goat","animals","2","1","","bad","[-5]"
"html-keyboard-response","203","733941","0.0-11.0-2.0-0.7","5866","1","18","Female","approach_avoid_spark_v1","""event"",""trial"",""time""
""fullscreenenter"",""1"",""4677""
","
","
","""event"",""trial"",""time""
""fullscreenenter"",""1"",""4677""
","
","","","","","","null","<div style=""font-size:60px;"">+</div>","null","","fixation","","","","","","","","","","",""
"aa-learning-trial","204","736948","0.0-11.0-2.0-1.7","5866","1","18","Female","approach_avoid_spark_v1","""event"",""trial"",""time""
""fullscreenenter"",""1"",""4677""
","
","
","""event"",""trial"",""time""
""fullscreenenter"",""1"",""4677""
","
","","","","","","851.2000000476837","images/sheep1.png","","","learning","2","2","1","1","sheep","animals","2","1","","neutral","0"
"html-keyboard-response","205","737453","0.0-11.0-2.0-0.8","5866","1","18","Female","approach_avoid_spark_v1","""event"",""trial"",""time""
""fullscreenenter"",""1"",""4677""
","
","
","""event"",""trial"",""time""
""fullscreenenter"",""1"",""4677""
","
","","","","","","null","<div style=""font-size:60px;"">+</div>","null","","fixation","","","","","","","","","","",""
"aa-learning-trial","206","740462","0.0-11.0-2.0-1.8","5866","1","18","Female","approach_avoid_spark_v1","""event"",""trial"",""time""
""fullscreenenter"",""1"",""4677""
","
","
","""event"",""trial"",""time""
""fullscreenenter"",""1"",""4677""
","
","","","","","","971","images/goat4.png","","","learning","-8","0","0","0","goat","animals","2","1","","bad","[-5]"
"html-keyboard-response","207","740967","0.0-11.0-2.0-0.9","5866","1","18","Female","approach_avoid_spark_v1","""event"",""trial"",""time""
""fullscreenenter"",""1"",""4677""
","
","
","""event"",""trial"",""time""
""fullscreenenter"",""1"",""4677""
","
","","","","","","null","<div style=""font-size:60px;"">+</div>","null","","fixation","","","","","","","","","","",""
"aa-learning-trial","208","743975","0.0-11.0-2.0-1.9","5866","1","18","Female","approach_avoid_spark_v1","""event"",""trial"",""time""
""fullscreenenter"",""1"",""4677""
","
","
","""event"",""trial"",""time""
""fullscreenenter"",""1"",""4677""
","
","","","","","","1633.0999999046326","images/cow4.png","","","learning","9","9","1","1","cow","animals","2","1","","good","[4]"
"html-keyboard-response","209","744481","0.0-11.0-2.0-0.10","5866","1","18","Female","approach_avoid_spark_v1","""event"",""trial"",""time""
""fullscreenenter"",""1"",""4677""
","
","
","""event"",""trial"",""time""
""fullscreenenter"",""1"",""4677""
","
","","","","","","null","<div style=""font-size:60px;"">+</div>","null","","fixation","","","","","","","","","","",""
"aa-learning-trial","210","747489","0.0-11.0-2.0-1.10","5866","1","18","Female","approach_avoid_spark_v1","""event"",""trial"",""time""
""fullscreenenter"",""1"",""4677""
","
","
","""event"",""trial"",""time""
""fullscreenenter"",""1"",""4677""
","
","","","","","","1536.8999998569489","images/sheep2.png","","","learning","-3","0","0","0","sheep","animals","2","1","","neutral","0"
"html-keyboard-response","211","747995","0.0-11.0-2.0-0.11","5866","1","18","Female","approach_avoid_spark_v1","""event"",""trial"",""time""
""fullscreenenter"",""1"",""4677""
","
","
","""event"",""trial"",""time""
""fullscreenenter"",""1"",""4677""
","
","","","","","","null","<div style=""font-size:60px;"">+</div>","null","","fixation","","","","","","","","","","",""
"aa-learning-trial","212","750999","0.0-11.0-2.0-1.11","5866","1","18","Female","approach_avoid_spark_v1","""event"",""trial"",""time""
""fullscreenenter"",""1"",""4677""
","
","
","""event"",""trial"",""time""
""fullscreenenter"",""1"",""4677""
","
","","","","","","1108.3999998569489","images/cow4.png","","","learning","9","9","1","1","cow","animals","2","1","","good","[4]"
"html-keyboard-response","213","751503","0.0-11.0-2.0-0.12","5866","1","18","Female","approach_avoid_spark_v1","""event"",""trial"",""time""
""fullscreenenter"",""1"",""4677""
","
","
","""event"",""trial"",""time""
""fullscreenenter"",""1"",""4677""
","
","","","","","","null","<div style=""font-size:60px;"">+</div>","null","","fixation","","","","","","","","","","",""
"aa-learning-trial","214","754512","0.0-11.0-2.0-1.12","5866","1","18","Female","approach_avoid_spark_v1","""event"",""trial"",""time""
""fullscreenenter"",""1"",""4677""
","
","
","""event"",""trial"",""time""
""fullscreenenter"",""1"",""4677""
","
","","","","","","1010.7000000476837","images/sheep7.png","","","learning","6","6","1","1","sheep","animals","2","1","","neutral","0"
"html-keyboard-response","215","755016","0.0-11.0-2.0-0.13","5866","1","18","Female","approach_avoid_spark_v1","""event"",""trial"",""time""
""fullscreenenter"",""1"",""4677""
","
","
","""event"",""trial"",""time""
""fullscreenenter"",""1"",""4677""
","
","","","","","","null","<div style=""font-size:60px;"">+</div>","null","","fixation","","","","","","","","","","",""
"aa-learning-trial","216","758023","0.0-11.0-2.0-1.13","5866","1","18","Female","approach_avoid_spark_v1","""event"",""trial"",""time""
""fullscreenenter"",""1"",""4677""
","
","
","""event"",""trial"",""time""
""fullscreenenter"",""1"",""4677""
","
","","","","","","945.0999999046326","images/sheep1.png","","","learning","2","2","1","1","sheep","animals","2","1","","neutral","0"
"html-keyboard-response","217","758529","0.0-11.0-2.0-0.14","5866","1","18","Female","approach_avoid_spark_v1","""event"",""trial"",""time""
""fullscreenenter"",""1"",""4677""
","
","
","""event"",""trial"",""time""
""fullscreenenter"",""1"",""4677""
","
","","","","","","null","<div style=""font-size:60px;"">+</div>","null","","fixation","","","","","","","","","","",""
"aa-learning-trial","218","761537","0.0-11.0-2.0-1.14","5866","1","18","Female","approach_avoid_spark_v1","""event"",""trial"",""time""
""fullscreenenter"",""1"",""4677""
","
","
","""event"",""trial"",""time""
""fullscreenenter"",""1"",""4677""
","
","","","","","","910.9000000953674","images/cow7.png","","","learning","-7","0","0","0","cow","animals","2","1","","good","[4]"
"html-keyboard-response","219","762039","0.0-11.0-2.0-0.15","5866","1","18","Female","approach_avoid_spark_v1","""event"",""trial"",""time""
""fullscreenenter"",""1"",""4677""
","
","
","""event"",""trial"",""time""
""fullscreenenter"",""1"",""4677""
","
","","","","","","null","<div style=""font-size:60px;"">+</div>","null","","fixation","","","","","","","","","","",""
"aa-learning-trial","220","765047","0.0-11.0-2.0-1.15","5866","1","18","Female","approach_avoid_spark_v1","""event"",""trial"",""time""
""fullscreenenter"",""1"",""4677""
","
","
","""event"",""trial"",""time""
""fullscreenenter"",""1"",""4677""
","
","","","","","","1264.0999999046326","images/cow7.png","","","learning","-7","0","0","0","cow","animals","2","1","","good","[4]"
"html-keyboard-response","221","765553","0.0-11.0-2.0-0.16","5866","1","18","Female","approach_avoid_spark_v1","""event"",""trial"",""time""
""fullscreenenter"",""1"",""4677""
","
","
","""event"",""trial"",""time""
""fullscreenenter"",""1"",""4677""
","
","","","","","","null","<div style=""font-size:60px;"">+</div>","null","","fixation","","","","","","","","","","",""
"aa-learning-trial","222","768562","0.0-11.0-2.0-1.16","5866","1","18","Female","approach_avoid_spark_v1","""event"",""trial"",""time""
""fullscreenenter"",""1"",""4677""
","
","
","""event"",""trial"",""time""
""fullscreenenter"",""1"",""4677""
","
","","","","","","759.0999999046326","images/sheep7.png","","","learning","6","6","1","1","sheep","animals","2","1","","neutral","0"
"html-keyboard-response","223","769068","0.0-11.0-2.0-0.17","5866","1","18","Female","approach_avoid_spark_v1","""event"",""trial"",""time""
""fullscreenenter"",""1"",""4677""
","
","
","""event"",""trial"",""time""
""fullscreenenter"",""1"",""4677""
","
","","","","","","null","<div style=""font-size:60px;"">+</div>","null","","fixation","","","","","","","","","","",""
"aa-learning-trial","224","772076","0.0-11.0-2.0-1.17","5866","1","18","Female","approach_avoid_spark_v1","""event"",""trial"",""time""
""fullscreenenter"",""1"",""4677""
","
","
","""event"",""trial"",""time""
""fullscreenenter"",""1"",""4677""
","
","","","","","","1113.9000000953674","images/sheep4.png","","","learning","5","0","0","0","sheep","animals","2","1","","neutral","0"
"html-keyboard-response","225","772583","0.0-11.0-2.0-0.18","5866","1","18","Female","approach_avoid_spark_v1","""event"",""trial"",""time""
""fullscreenenter"",""1"",""4677""
","
","
","""event"",""trial"",""time""
""fullscreenenter"",""1"",""4677""
","
","","","","","","null","<div style=""font-size:60px;"">+</div>","null","","fixation","","","","","","","","","","",""
"aa-learning-trial","226","775591","0.0-11.0-2.0-1.18","5866","1","18","Female","approach_avoid_spark_v1","""event"",""trial"",""time""
""fullscreenenter"",""1"",""4677""
","
","
","""event"",""trial"",""time""
""fullscreenenter"",""1"",""4677""
","
","","","","","","1359.5999999046326","images/cow1.png","","","learning","4","0","0","0","cow","animals","2","1","","good","[4]"
"html-keyboard-response","227","776097","0.0-11.0-2.0-0.19","5866","1","18","Female","approach_avoid_spark_v1","""event"",""trial"",""time""
""fullscreenenter"",""1"",""4677""
","
","
","""event"",""trial"",""time""
""fullscreenenter"",""1"",""4677""
","
","","","","","","null","<div style=""font-size:60px;"">+</div>","null","","fixation","","","","","","","","","","",""
"aa-learning-trial","228","779105","0.0-11.0-2.0-1.19","5866","1","18","Female","approach_avoid_spark_v1","""event"",""trial"",""time""
""fullscreenenter"",""1"",""4677""
","
","
","""event"",""trial"",""time""
""fullscreenenter"",""1"",""4677""
","
","","","","","","935.1000001430511","images/sheep1.png","","","learning","2","2","1","1","sheep","animals","2","1","","neutral","0"
"html-keyboard-response","229","779611","0.0-11.0-2.0-0.20","5866","1","18","Female","approach_avoid_spark_v1","""event"",""trial"",""time""
""fullscreenenter"",""1"",""4677""
","
","
","""event"",""trial"",""time""
""fullscreenenter"",""1"",""4677""
","
","","","","","","null","<div style=""font-size:60px;"">+</div>","null","","fixation","","","","","","","","","","",""
"aa-learning-trial","230","782620","0.0-11.0-2.0-1.20","5866","1","18","Female","approach_avoid_spark_v1","""event"",""trial"",""time""
""fullscreenenter"",""1"",""4677""
","
","
","""event"",""trial"",""time""
""fullscreenenter"",""1"",""4677""
","
","","","","","","708.7999999523163","images/goat8.png","","","learning","3","3","1","1","goat","animals","2","1","","bad","[-5]"
"html-keyboard-response","231","783125","0.0-11.0-2.0-0.21","5866","1","18","Female","approach_avoid_spark_v1","""event"",""trial"",""time""
""fullscreenenter"",""1"",""4677""
","
","
","""event"",""trial"",""time""
""fullscreenenter"",""1"",""4677""
","
","","","","","","null","<div style=""font-size:60px;"">+</div>","null","","fixation","","","","","","","","","","",""
"aa-learning-trial","232","786131","0.0-11.0-2.0-1.21","5866","1","18","Female","approach_avoid_spark_v1","""event"",""trial"",""time""
""fullscreenenter"",""1"",""4677""
","
","
","""event"",""trial"",""time""
""fullscreenenter"",""1"",""4677""
","
","","","","","","1084","images/cow1.png","","","learning","4","0","0","0","cow","animals","2","1","","good","[4]"
"html-keyboard-response","233","786637","0.0-11.0-2.0-0.22","5866","1","18","Female","approach_avoid_spark_v1","""event"",""trial"",""time""
""fullscreenenter"",""1"",""4677""
","
","
","""event"",""trial"",""time""
""fullscreenenter"",""1"",""4677""
","
","","","","","","null","<div style=""font-size:60px;"">+</div>","null","","fixation","","","","","","","","","","",""
"aa-learning-trial","234","789646","0.0-11.0-2.0-1.22","5866","1","18","Female","approach_avoid_spark_v1","""event"",""trial"",""time""
""fullscreenenter"",""1"",""4677""
","
","
","""event"",""trial"",""time""
""fullscreenenter"",""1"",""4677""
","
","","","","","","1129.3999998569489","images/goat7.png","","","learning","1","1","1","1","goat","animals","2","1","","bad","[-5]"
"html-keyboard-response","235","790151","0.0-11.0-2.0-0.23","5866","1","18","Female","approach_avoid_spark_v1","""event"",""trial"",""time""
""fullscreenenter"",""1"",""4677""
","
","
","""event"",""trial"",""time""
""fullscreenenter"",""1"",""4677""
","
","","","","","","null","<div style=""font-size:60px;"">+</div>","null","","fixation","","","","","","","","","","",""
"aa-learning-trial","236","793160","0.0-11.0-2.0-1.23","5866","1","18","Female","approach_avoid_spark_v1","""event"",""trial"",""time""
""fullscreenenter"",""1"",""4677""
","
","
","""event"",""trial"",""time""
""fullscreenenter"",""1"",""4677""
","
","","","","","","849.6000001430511","images/cow4.png","","","learning","9","9","1","1","cow","animals","2","1","","good","[4]"
"html-keyboard-response","237","793666","0.0-11.0-2.0-0.24","5866","1","18","Female","approach_avoid_spark_v1","""event"",""trial"",""time""
