"trial_type","trial_index","time_elapsed","internal_node_id","subject_id","task_condition","age","gender","task_version","interactions","blur_events","focus_events","fullscreenenter_events","fullscreenexit_events","success","timeout","failed_images","failed_audio","failed_video","rt","stimulus","response","button_pressed","task_part","approach_reward","points","key_press","option_selected","stim_cat","task_block","block_condition","block_number","correct","cat_type","mean_cat_reward"
"pavlovia","0","5","0.0-0.0","5175","1","11","Male","approach_avoid_spark_v1","""event"",""trial"",""time""
""fullscreenenter"",""1"",""3067""
","
","
","""event"",""trial"",""time""
""fullscreenenter"",""1"",""3067""
","
","","","","","","","","","","","","","","","","","","","","",""
"fullscreen","1","4032","0.0-1.0","5175","1","11","Male","approach_avoid_spark_v1","""event"",""trial"",""time""
""fullscreenenter"",""1"",""3067""
","
","
","""event"",""trial"",""time""
""fullscreenenter"",""1"",""3067""
","
","true","","","","","","","","","","","","","","","","","","","",""
"preload","2","82382","0.0-2.0","5175","1","11","Male","approach_avoid_spark_v1","""event"",""trial"",""time""
""fullscreenenter"",""1"",""3067""
","
","
","""event"",""trial"",""time""
""fullscreenenter"",""1"",""3067""
","
","true","false","[]","[]","[]","","","","","","","","","","","","","","","",""
"audio-keyboard-response","3","84639","0.0-3.0","5175","1","11","Male","approach_avoid_spark_v1","""event"",""trial"",""time""
""fullscreenenter"",""1"",""3067""
","
","
","""event"",""trial"",""time""
""fullscreenenter"",""1"",""3067""
","
","","","","","","1461.333333333343","audio/beep_loop.wav"," ","","","","","","","","","","","","",""
"audio-button-response","4","86765","0.0-4.0","5175","1","11","Male","approach_avoid_spark_v1","""event"",""trial"",""time""
""fullscreenenter"",""1"",""3067""
","
","
","""event"",""trial"",""time""
""fullscreenenter"",""1"",""3067""
","
","","","","","","2120","audio/shark.wav","4","","","","","","","","","","","","",""
"audio-button-response","5","89361","0.0-5.0","5175","1","11","Male","approach_avoid_spark_v1","""event"",""trial"",""time""
""fullscreenenter"",""1"",""3067""
","
","
","""event"",""trial"",""time""
""fullscreenenter"",""1"",""3067""
","
","","","","","","1600","audio/turtle.wav","1","","","","","","","","","","","","",""
"preload","6","114401","0.0-6.0","5175","1","11","Male","approach_avoid_spark_v1","""event"",""trial"",""time""
""fullscreenenter"",""1"",""3067""
","
","
","""event"",""trial"",""time""
""fullscreenenter"",""1"",""3067""
","
","true","false","[]","[]","[]","","","","","","","","","","","","","","","",""
"html-keyboard-response","7","116701","0.0-7.0","5175","1","11","Male","approach_avoid_spark_v1","""event"",""trial"",""time""
""fullscreenenter"",""1"",""3067""
","
","
","""event"",""trial"",""time""
""fullscreenenter"",""1"",""3067""
","
","","","","","","2298.5","Welcome to the experiment. Press any key to begin and to advance the instructions.","n","","","","","","","","","","","","",""
"learning-instructions","8","125143","0.0-8.0-0.0-0.0","5175","1","11","Male","approach_avoid_spark_v1","""event"",""trial"",""time""
""fullscreenenter"",""1"",""3067""
","
","
","""event"",""trial"",""time""
""fullscreenenter"",""1"",""3067""
","
","","","","","","1482.2999999523163","<p> Welcome! Today you are going to play 6 different rounds of a decision-making game. </p><p> Use the mouse to click next to continue. </p>","","0","instructions","","","","","","","","","","",""
"learning-instructions","9","128469","0.0-8.0-0.0-0.1","5175","1","11","Male","approach_avoid_spark_v1","""event"",""trial"",""time""
""fullscreenenter"",""1"",""3067""
","
","
","""event"",""trial"",""time""
""fullscreenenter"",""1"",""3067""
","
","","","","","","587.7999999523163","<p> You will start with a practice round to learn the rules. </p>","","0","instructions","","","","","","","","","","",""
"learning-instructions","10","133809","0.0-8.0-0.0-0.2","5175","1","11","Male","approach_avoid_spark_v1","""event"",""trial"",""time""
""fullscreenenter"",""1"",""3067""
","
","
","""event"",""trial"",""time""
""fullscreenenter"",""1"",""3067""
","
","","","","","","1878.4000000953674","<p> Your goal in this round is to give out sports equipment to kids. </p></div>","","0","instructions","","","","","","","","","","",""
"learning-instructions","11","142107","0.0-8.0-0.0-0.3","5175","1","11","Male","approach_avoid_spark_v1","""event"",""trial"",""time""
""fullscreenenter"",""1"",""3067""
","
","
","""event"",""trial"",""time""
""fullscreenenter"",""1"",""3067""
","
","","","","","","746.3999998569489","<p> The kids only like some of the equipment.  </p><p> On each turn, you will see a piece of sports equipment.   </p><p> You need to decide whether to give it to the kids or not.  </p>","","0","instructions","","","","","","","","","","",""
"learning-instructions","12","152348","0.0-8.0-0.0-0.4","5175","1","11","Male","approach_avoid_spark_v1","""event"",""trial"",""time""
""fullscreenenter"",""1"",""3067""
","
","
","""event"",""trial"",""time""
""fullscreenenter"",""1"",""3067""
","
","","","","","","5486.699999809265","<p> You can give them the equipment by pressing 1 and choose not to give it to them by pressing 0. </p><br><div class=""choice-instructions-grid""> <div class=""choice-option""><img src=""images/approach.png"" class=""choice-option-img"" stage=""instructions"" position=""0"" ><div class=""choice-option-text""> Press ""1."" </div></div><div class=""choice-option""><img src=""images/avoid.png"" class=""choice-option-img"" stage=""instructions"" position=""1"" ><div class=""choice-option-text""> Press ""0."" </div></div>","","0","instructions","","","","","","","","","","",""
"learning-instructions","13","160758","0.0-8.0-0.0-0.5","5175","1","11","Male","approach_avoid_spark_v1","""event"",""trial"",""time""
""fullscreenenter"",""1"",""3067""
","
","
","""event"",""trial"",""time""
""fullscreenenter"",""1"",""3067""
","
","","","","","","1027.6999998092651","<p> If you give them a piece of equipment they like, they will be happy! </p><p> But if you give them a piece of equipment they do not like, they will be sad. </p>","","0","instructions","","","","","","","","","","",""
"learning-instructions","14","171931","0.0-8.0-0.0-0.6","5175","1","11","Male","approach_avoid_spark_v1","""event"",""trial"",""time""
""fullscreenenter"",""1"",""3067""
","
","
","""event"",""trial"",""time""
""fullscreenenter"",""1"",""3067""
","
","","","","","","659.9000000953674","<p> You will earn points based on how you make kids feel. </p><p> If you make them happy, you will WIN anywhere from 1 - 9 points, </p><p> but if you make them sad, you will LOSE anywhere from 1 - 9 points. </p>","","0","instructions","","","","","","","","","","",""
"learning-instructions","15","182338","0.0-8.0-0.0-0.7","5175","1","11","Male","approach_avoid_spark_v1","""event"",""trial"",""time""
""fullscreenenter"",""1"",""3067""
","
","
","""event"",""trial"",""time""
""fullscreenenter"",""1"",""3067""
","
","","","","","","857.3999998569489","<p> You will see how many points you won or lost in the center of the screen. </p><p> Here is what you would see if you won 6 points: </p><p style=""color:green;font-size:50px;font-weight:bolder"">6</p><p style=""color:green"">The text is GREEN because you WON points.</p>","","0","instructions","","","","","","","","","","",""
"learning-instructions","16","189247","0.0-8.0-0.0-0.8","5175","1","11","Male","approach_avoid_spark_v1","""event"",""trial"",""time""
""fullscreenenter"",""1"",""3067""
","
","
","""event"",""trial"",""time""
""fullscreenenter"",""1"",""3067""
","
","","","","","","1405.5","<p> And here is what you would see if you lost 4 points: </p><p style=""color:red;font-size:50px;font-weight:bolder"">-4</p><p style=""color:red"">The text is RED because you LOST points. </p>","","0","instructions","","","","","","","","","","",""
"learning-instructions","17","204845","0.0-8.0-0.0-0.9","5175","1","11","Male","approach_avoid_spark_v1","""event"",""trial"",""time""
""fullscreenenter"",""1"",""3067""
","
","
","""event"",""trial"",""time""
""fullscreenenter"",""1"",""3067""
","
","","","","","","883.6000001430511","<p> Some of the equipment will make the kids VERY happy or sad. </p><p> These pieces of equipment will make you win or lose LOTS of points. </p><p> Other pieces of equipment will only make the kids a little happy or sad. </p><p> These pieces of equipment will make you win or lose small amounts of points. </p>","","0","instructions","","","","","","","","","","",""
"learning-instructions","18","216739","0.0-8.0-0.0-0.10","5175","1","11","Male","approach_avoid_spark_v1","""event"",""trial"",""time""
""fullscreenenter"",""1"",""3067""
","
","
","""event"",""trial"",""time""
""fullscreenenter"",""1"",""3067""
","
","","","","","","1258.4000000953674","<p> If you choose not to give them the equipment, you will not win or lose any points. </p><p>  However, in the center of the screen, you will see the number of points you WOULD HAVE won or lost if you had given them the equipment. </p>","","0","instructions","","","","","","","","","","",""
"learning-instructions","19","238818","0.0-8.0-0.0-0.11","5175","1","11","Male","approach_avoid_spark_v1","""event"",""trial"",""time""
""fullscreenenter"",""1"",""3067""
","
","
","""event"",""trial"",""time""
""fullscreenenter"",""1"",""3067""
","
","","","","","","547.2000000476837","<p> Here is what you might see if you did not give the equipment to the kids but it would have made them happy: </p><p style=""color:grey; font-size:50px; display: inline-block; border-spacing: 15px; border-width:3px; border-style:solid; border-color:red"">  &nbsp; 7 &nbsp; </p><p> Remember, in this case, you would not win or lose ANY points because you did not give them the equipment.  </p><p style=""color:grey"">The text is GREY because you earned ZERO points. </p><p style=""color:red"">However, choosing to give the kids the equipment would have made you win points. The box around the text is RED because you chose the worse option. </p>","","0","instructions","","","","","","","","","","",""
"learning-instructions","20","260654","0.0-8.0-0.0-0.12","5175","1","11","Male","approach_avoid_spark_v1","""event"",""trial"",""time""
""fullscreenenter"",""1"",""3067""
","
","
","""event"",""trial"",""time""
""fullscreenenter"",""1"",""3067""
","
","","","","","","752.7999999523163","<p> Here is what you might see if you did not give the equipment to the kids but it would have made them sad: </p><p style=""color:grey;font-size:50px; display: inline-block; border-spacing: 15px; border-width:3px; border-style:solid; border-color:green"">  &nbsp; -8 &nbsp; </p><p> Remember, in this case, you would not win or lose ANY points because you did not give them the equipment.  </p><p style=""color:grey"">The text is GREY because you earned ZERO points. </p><p  style=""color:green""> Choosing to give the kids the equipment would have made you lose points. The box around the text is GREEN because you chose the better option.</p>","","0","instructions","","","","","","","","","","",""
"learning-instructions","21","270542","0.0-8.0-0.0-0.13","5175","1","11","Male","approach_avoid_spark_v1","""event"",""trial"",""time""
""fullscreenenter"",""1"",""3067""
","
","
","""event"",""trial"",""time""
""fullscreenenter"",""1"",""3067""
","
","","","","","","380.7000000476837","<p> You will have 3 seconds to make each choice. Try to respond before time runs out! </p><p> You will lose 5 points each time you do not make a response. </p>","","0","instructions","","","","","","","","","","",""
"learning-instructions","22","278560","0.0-8.0-0.0-0.14","5175","1","11","Male","approach_avoid_spark_v1","""event"",""trial"",""time""
""fullscreenenter"",""1"",""3067""
","
","
","""event"",""trial"",""time""
""fullscreenenter"",""1"",""3067""
","
","","","","","","2588.399999856949","<p> This is just a practice round, but in the real game, your bonus payment will depend on your total number of points.","","0","instructions","","","","","","","","","","",""
"learning-instructions","23","284813","0.0-8.0-0.0-0.15","5175","1","11","Male","approach_avoid_spark_v1","""event"",""trial"",""time""
""fullscreenenter"",""1"",""3067""
","
","
","""event"",""trial"",""time""
""fullscreenenter"",""1"",""3067""
","
","","","","","","480.19999980926514","<p> Remember, you can give them the equipment by pressing 1 and choose not to give it to them by pressing 0. </p><br><div class=""choice-instructions-grid""> <div class=""choice-option""><img src=""images/approach.png"" class=""choice-option-img"" stage=""instructions"" position=""0"" ><div class=""choice-option-text""> Press ""1."" </div></div><div class=""choice-option""><img src=""images/avoid.png"" class=""choice-option-img"" stage=""instructions"" position=""1"" ><div class=""choice-option-text""> Press ""0."" </div></div>","","0","instructions","","","","","","","","","","",""
"html-button-response","24","286664","0.0-8.0-1.0","5175","1","11","Male","approach_avoid_spark_v1","""event"",""trial"",""time""
""fullscreenenter"",""1"",""3067""
","
","
","""event"",""trial"",""time""
""fullscreenenter"",""1"",""3067""
","
","","","","","","1731.3999998569489","<p> Ready to practice? </p>","0","","","","","","","","","","","","",""
"html-keyboard-response","25","287289","0.0-8.0-2.0-0.0","5175","1","11","Male","approach_avoid_spark_v1","""event"",""trial"",""time""
""fullscreenenter"",""1"",""3067""
","
","
","""event"",""trial"",""time""
""fullscreenenter"",""1"",""3067""
","
","","","","","","null","<div style=""font-size:60px;"">+</div>","null","","fixation","","","","","","","","","","",""
"aa-learning-trial","26","290299","0.0-8.0-2.0-1.0","5175","1","11","Male","approach_avoid_spark_v1","""event"",""trial"",""time""
""fullscreenenter"",""1"",""3067""
","
","
","""event"",""trial"",""time""
""fullscreenenter"",""1"",""3067""
","
","","","","","","1071.7999999523163","images/racket2.png","","","learning","9","9","1","1","practice","practice","practice","-1","","",""
"html-keyboard-response","27","290811","0.0-8.0-2.0-0.1","5175","1","11","Male","approach_avoid_spark_v1","""event"",""trial"",""time""
""fullscreenenter"",""1"",""3067""
","
","
","""event"",""trial"",""time""
""fullscreenenter"",""1"",""3067""
","
","","","","","","null","<div style=""font-size:60px;"">+</div>","null","","fixation","","","","","","","","","","",""
"aa-learning-trial","28","293818","0.0-8.0-2.0-1.1","5175","1","11","Male","approach_avoid_spark_v1","""event"",""trial"",""time""
""fullscreenenter"",""1"",""3067""
","
","
","""event"",""trial"",""time""
""fullscreenenter"",""1"",""3067""
","
","","","","","","907.7000000476837","images/racket4.png","","","learning","7","0","0","0","practice","practice","practice","-1","","",""
"html-keyboard-response","29","294331","0.0-8.0-2.0-0.2","5175","1","11","Male","approach_avoid_spark_v1","""event"",""trial"",""time""
""fullscreenenter"",""1"",""3067""
","
","
","""event"",""trial"",""time""
""fullscreenenter"",""1"",""3067""
","
","","","","","","null","<div style=""font-size:60px;"">+</div>","null","","fixation","","","","","","","","","","",""
"aa-learning-trial","30","297346","0.0-8.0-2.0-1.2","5175","1","11","Male","approach_avoid_spark_v1","""event"",""trial"",""time""
""fullscreenenter"",""1"",""3067""
","
","
","""event"",""trial"",""time""
""fullscreenenter"",""1"",""3067""
","
","","","","","","732.8999998569489","images/ball1.png","","","learning","-7","0","0","0","practice","practice","practice","-1","","",""
"html-keyboard-response","31","297858","0.0-8.0-2.0-0.3","5175","1","11","Male","approach_avoid_spark_v1","""event"",""trial"",""time""
""fullscreenenter"",""1"",""3067""
","
","
","""event"",""trial"",""time""
""fullscreenenter"",""1"",""3067""
","
","","","","","","null","<div style=""font-size:60px;"">+</div>","null","","fixation","","","","","","","","","","",""
"aa-learning-trial","32","300864","0.0-8.0-2.0-1.3","5175","1","11","Male","approach_avoid_spark_v1","""event"",""trial"",""time""
""fullscreenenter"",""1"",""3067""
","
","
","""event"",""trial"",""time""
""fullscreenenter"",""1"",""3067""
","
","","","","","","998","images/ball4.png","","","learning","9","9","1","1","practice","practice","practice","-1","","",""
"html-keyboard-response","33","301375","0.0-8.0-2.0-0.4","5175","1","11","Male","approach_avoid_spark_v1","""event"",""trial"",""time""
""fullscreenenter"",""1"",""3067""
","
","
","""event"",""trial"",""time""
""fullscreenenter"",""1"",""3067""
","
","","","","","","null","<div style=""font-size:60px;"">+</div>","null","","fixation","","","","","","","","","","",""
"aa-learning-trial","34","304393","0.0-8.0-2.0-1.4","5175","1","11","Male","approach_avoid_spark_v1","""event"",""trial"",""time""
""fullscreenenter"",""1"",""3067""
","
","
","""event"",""trial"",""time""
""fullscreenenter"",""1"",""3067""
","
","","","","","","1002.1000001430511","images/racket1.png","","","learning","-4","0","0","0","practice","practice","practice","-1","","",""
"html-keyboard-response","35","304907","0.0-8.0-2.0-0.5","5175","1","11","Male","approach_avoid_spark_v1","""event"",""trial"",""time""
""fullscreenenter"",""1"",""3067""
","
","
","""event"",""trial"",""time""
""fullscreenenter"",""1"",""3067""
","
","","","","","","null","<div style=""font-size:60px;"">+</div>","null","","fixation","","","","","","","","","","",""
"aa-learning-trial","36","307923","0.0-8.0-2.0-1.5","5175","1","11","Male","approach_avoid_spark_v1","""event"",""trial"",""time""
""fullscreenenter"",""1"",""3067""
","
","
","""event"",""trial"",""time""
""fullscreenenter"",""1"",""3067""
","
","","","","","","1158.7000000476837","images/racket3.png","","","learning","-2","-2","1","1","practice","practice","practice","-1","","",""
"html-keyboard-response","37","308435","0.0-8.0-2.0-0.6","5175","1","11","Male","approach_avoid_spark_v1","""event"",""trial"",""time""
""fullscreenenter"",""1"",""3067""
","
","
","""event"",""trial"",""time""
""fullscreenenter"",""1"",""3067""
","
","","","","","","null","<div style=""font-size:60px;"">+</div>","null","","fixation","","","","","","","","","","",""
"aa-learning-trial","38","311448","0.0-8.0-2.0-1.6","5175","1","11","Male","approach_avoid_spark_v1","""event"",""trial"",""time""
""fullscreenenter"",""1"",""3067""
","
","
","""event"",""trial"",""time""
""fullscreenenter"",""1"",""3067""
","
","","","","","","892.5","images/racket1.png","","","learning","-3","0","0","0","practice","practice","practice","-1","","",""
"html-keyboard-response","39","311961","0.0-8.0-2.0-0.7","5175","1","11","Male","approach_avoid_spark_v1","""event"",""trial"",""time""
""fullscreenenter"",""1"",""3067""
","
","
","""event"",""trial"",""time""
""fullscreenenter"",""1"",""3067""
","
","","","","","","null","<div style=""font-size:60px;"">+</div>","null","","fixation","","","","","","","","","","",""
"aa-learning-trial","40","314968","0.0-8.0-2.0-1.7","5175","1","11","Male","approach_avoid_spark_v1","""event"",""trial"",""time""
""fullscreenenter"",""1"",""3067""
","
","
","""event"",""trial"",""time""
""fullscreenenter"",""1"",""3067""
","
","","","","","","1184.0999999046326","images/ball3.png","","","learning","8","8","1","1","practice","practice","practice","-1","","",""
"html-keyboard-response","41","315471","0.0-8.0-2.0-0.8","5175","1","11","Male","approach_avoid_spark_v1","""event"",""trial"",""time""
""fullscreenenter"",""1"",""3067""
","
","
","""event"",""trial"",""time""
""fullscreenenter"",""1"",""3067""
","
","","","","","","null","<div style=""font-size:60px;"">+</div>","null","","fixation","","","","","","","","","","",""
"aa-learning-trial","42","318480","0.0-8.0-2.0-1.8","5175","1","11","Male","approach_avoid_spark_v1","""event"",""trial"",""time""
""fullscreenenter"",""1"",""3067""
","
","
","""event"",""trial"",""time""
""fullscreenenter"",""1"",""3067""
","
","","","","","","930.8000001907349","images/ball1.png","","","learning","3","0","0","0","practice","practice","practice","-1","","",""
"html-keyboard-response","43","318983","0.0-8.0-2.0-0.9","5175","1","11","Male","approach_avoid_spark_v1","""event"",""trial"",""time""
""fullscreenenter"",""1"",""3067""
","
","
","""event"",""trial"",""time""
""fullscreenenter"",""1"",""3067""
","
","","","","","","null","<div style=""font-size:60px;"">+</div>","null","","fixation","","","","","","","","","","",""
"aa-learning-trial","44","321992","0.0-8.0-2.0-1.9","5175","1","11","Male","approach_avoid_spark_v1","""event"",""trial"",""time""
""fullscreenenter"",""1"",""3067""
","
","
","""event"",""trial"",""time""
""fullscreenenter"",""1"",""3067""
","
","","","","","","908.7000000476837","images/ball1.png","","","learning","-2","-2","1","1","practice","practice","practice","-1","","",""
"html-keyboard-response","45","322496","0.0-8.0-2.0-0.10","5175","1","11","Male","approach_avoid_spark_v1","""event"",""trial"",""time""
""fullscreenenter"",""1"",""3067""
","
","
","""event"",""trial"",""time""
""fullscreenenter"",""1"",""3067""
","
","","","","","","null","<div style=""font-size:60px;"">+</div>","null","","fixation","","","","","","","","","","",""
"aa-learning-trial","46","325504","0.0-8.0-2.0-1.10","5175","1","11","Male","approach_avoid_spark_v1","""event"",""trial"",""time""
""fullscreenenter"",""1"",""3067""
","
","
","""event"",""trial"",""time""
""fullscreenenter"",""1"",""3067""
","
","","","","","","93.39999985694885","images/ball3.png","","","learning","2","0","0","0","practice","practice","practice","-1","","",""
"html-keyboard-response","47","326008","0.0-8.0-2.0-0.11","5175","1","11","Male","approach_avoid_spark_v1","""event"",""trial"",""time""
""fullscreenenter"",""1"",""3067""
","
","
","""event"",""trial"",""time""
""fullscreenenter"",""1"",""3067""
","
","","","","","","null","<div style=""font-size:60px;"">+</div>","null","","fixation","","","","","","","","","","",""
"aa-learning-trial","48","329017","0.0-8.0-2.0-1.11","5175","1","11","Male","approach_avoid_spark_v1","""event"",""trial"",""time""
""fullscreenenter"",""1"",""3067""
","
","
","""event"",""trial"",""time""
""fullscreenenter"",""1"",""3067""
","
","","","","","","673.7999999523163","images/ball1.png","","","learning","-1","0","0","0","practice","practice","practice","-1","","",""
"html-button-response","49","330468","0.0-8.0-3.0","5175","1","11","Male","approach_avoid_spark_v1","""event"",""trial"",""time""
""fullscreenenter"",""1"",""3067""
","
","
","""event"",""trial"",""time""
""fullscreenenter"",""1"",""3067""
","
","","","","","","1448.7000000476837","<p> You earned 22 points in the practice round! </p>","0","","break","","","","","","","","","","",""
"learning-instructions","50","338664","0.0-8.0-4.0-0.0","5175","1","11","Male","approach_avoid_spark_v1","""event"",""trial"",""time""
""fullscreenenter"",""1"",""3067""
","
","
","""event"",""trial"",""time""
""fullscreenenter"",""1"",""3067""
","
","","","","","","1472","<p> It's almost time to start the real game. </p><p> Before you start, we're going to ask you a few questions about how the game works. </p>","","0","instructions","","","","","","","","","","",""
"preload","51","344791","0.0-8.0-5.0","5175","1","11","Male","approach_avoid_spark_v1","""event"",""trial"",""time""
""fullscreenenter"",""1"",""3067""
","
","
","""event"",""trial"",""time""
""fullscreenenter"",""1"",""3067""
","
","true","false","[]","[]","[]","","","","","","","","","","","","","","","",""
"comp-q","52","351508","0.0-8.0-6.0-0.0","5175","1","11","Male","approach_avoid_spark_v1","""event"",""trial"",""time""
""fullscreenenter"",""1"",""3067""
","
","
","""event"",""trial"",""time""
""fullscreenenter"",""1"",""3067""
","
","","","","","","1715.8999998569489","<p> <b> True or False? </b> </p><p> If you see a number in GREY, that means you earned that many points. </p>","","1","comp_question","","","","","","","","","true","",""
"comp-q","53","361158","0.0-8.0-6.0-1.0","5175","1","11","Male","approach_avoid_spark_v1","""event"",""trial"",""time""
""fullscreenenter"",""1"",""3067""
","
","
","""event"",""trial"",""time""
""fullscreenenter"",""1"",""3067""
","
","","","","","","1286","<p><b> That's right! </b> If you see a grey number, it means you earned ZERO points. <br> The grey numbers show the points you WOULD HAVE earned if you had made the other choice. </p>","","0","comp_answer","","","","","","","","","","",""
"comp-q","54","367352","0.0-8.0-7.0-0.0","5175","1","11","Male","approach_avoid_spark_v1","""event"",""trial"",""time""
""fullscreenenter"",""1"",""3067""
","
","
","""event"",""trial"",""time""
""fullscreenenter"",""1"",""3067""
","
","","","","","","1499.6000001430511","<p> <b> True or False? </b> </p><p> You will have as much time as you want to make each choice. </p>","","1","comp_question","","","","","","","","","true","",""
"comp-q","55","373101","0.0-8.0-7.0-1.0","5175","1","11","Male","approach_avoid_spark_v1","""event"",""trial"",""time""
""fullscreenenter"",""1"",""3067""
","
","
","""event"",""trial"",""time""
""fullscreenenter"",""1"",""3067""
","
","","","","","","1699.0999999046326","<p> <b> That's right! </b> You will only have 3 seconds to make each choice. </p>","","0","comp_answer","","","","","","","","","","",""
"comp-q","56","378071","0.0-8.0-8.0-0.0","5175","1","11","Male","approach_avoid_spark_v1","""event"",""trial"",""time""
""fullscreenenter"",""1"",""3067""
","
","
","""event"",""trial"",""time""
""fullscreenenter"",""1"",""3067""
","
","","","","","","309.10000014305115","<p> <b> True or False? </b> </p><p> You should use the '1' and '0' keys to make your choices. </p>","","0","comp_question","","","","","","","","","true","",""
"comp-q","57","383807","0.0-8.0-8.0-1.0","5175","1","11","Male","approach_avoid_spark_v1","""event"",""trial"",""time""
""fullscreenenter"",""1"",""3067""
","
","
","""event"",""trial"",""time""
""fullscreenenter"",""1"",""3067""
","
","","","","","","1124.4000000953674","<p> <b> That's right! </b> You should use the '1' and '0' keys to make each choice. </p>","","0","comp_answer","","","","","","","","","","",""
"learning-instructions","58","390423","0.0-8.0-9.0-0.0","5175","1","11","Male","approach_avoid_spark_v1","""event"",""trial"",""time""
""fullscreenenter"",""1"",""3067""
","
","
","""event"",""trial"",""time""
""fullscreenenter"",""1"",""3067""
","
","","","","","","340.5","<p> It's now time to start the real game. </p>Do your best, because the points you earn in the next rounds will influence your bonus payment. </p>","","0","instructions","","","","","","","","","","",""
"preload","59","390555","0.0-9.0-0.0","5175","1","11","Male","approach_avoid_spark_v1","""event"",""trial"",""time""
""fullscreenenter"",""1"",""3067""
","
","
","""event"",""trial"",""time""
""fullscreenenter"",""1"",""3067""
","
","true","false","[]","[]","[]","","","","","","","","","","","","","","","",""
"learning-instructions","60","396400","0.0-9.0-1.0-0.0","5175","1","11","Male","approach_avoid_spark_v1","""event"",""trial"",""time""
""fullscreenenter"",""1"",""3067""
","
","
","""event"",""trial"",""time""
""fullscreenenter"",""1"",""3067""
","
","","","","","","1047.7000000476837","<p> Your goal in this round is to decorate your friend's new house with furniture. </p></div>","","0","instructions","","","","","","","","","","",""
"learning-instructions","61","407613","0.0-9.0-1.0-0.1","5175","1","11","Male","approach_avoid_spark_v1","""event"",""trial"",""time""
""fullscreenenter"",""1"",""3067""
","
","
","""event"",""trial"",""time""
""fullscreenenter"",""1"",""3067""
","
","","","","","","740","<p> Your friend likes some pieces of furniture but not others.  </p><p> On each turn, you will see a piece of furniture.   </p><p> You need to decide whether to put it in your friend's house or not.  </p>","","0","instructions","","","","","","","","","","",""
"learning-instructions","62","413779","0.0-9.0-1.0-0.2","5175","1","11","Male","approach_avoid_spark_v1","""event"",""trial"",""time""
""fullscreenenter"",""1"",""3067""
","
","
","""event"",""trial"",""time""
""fullscreenenter"",""1"",""3067""
","
","","","","","","167.40000009536743","<p> You can put the furniture in her house by pressing 1 and deliver it elsewhere by pressing 0. </p><br><div class=""choice-instructions-grid""> <div class=""choice-option""><img src=""images/approach.png"" class=""choice-option-img"" stage=""instructions"" position=""0"" ><div class=""choice-option-text""> Press ""1."" </div></div><div class=""choice-option""><img src=""images/avoid.png"" class=""choice-option-img"" stage=""instructions"" position=""1"" ><div class=""choice-option-text""> Press ""0."" </div></div>","","0","instructions","","","","","","","","","","",""
"learning-instructions","63","426044","0.0-9.0-1.0-0.3","5175","1","11","Male","approach_avoid_spark_v1","""event"",""trial"",""time""
""fullscreenenter"",""1"",""3067""
","
","
","""event"",""trial"",""time""
""fullscreenenter"",""1"",""3067""
","
","","","","","","2561.7999999523163","<p> If you decorate your friend's house with furniture she likes, she will be happy! </p><p> But if you give her furniture that she does not like, she will be annoyed. </p>","","0","instructions","","","","","","","","","","",""
"learning-instructions","64","440245","0.0-9.0-1.0-0.4","5175","1","11","Male","approach_avoid_spark_v1","""event"",""trial"",""time""
""fullscreenenter"",""1"",""3067""
","
","
","""event"",""trial"",""time""
""fullscreenenter"",""1"",""3067""
","
","","","","","","793.2999999523163","<p> You will earn points based on how you made your friend feel. </p><p> If you made her happy, you will WIN anywhere from 1 - 9 points, </p><p> but if you made her annoyed you will LOSE anywhere from 1 - 9 points. </p>","","0","instructions","","","","","","","","","","",""
"learning-instructions","65","450459","0.0-9.0-1.0-0.5","5175","1","11","Male","approach_avoid_spark_v1","""event"",""trial"",""time""
""fullscreenenter"",""1"",""3067""
","
","
","""event"",""trial"",""time""
""fullscreenenter"",""1"",""3067""
","
","","","","","","2125.5","<p> You will see how many points you won or lost in the center of the screen. </p><p> Here is what you would see if you won 5 points: </p><p style=""color:green;font-size:50px;font-weight:bolder"">5</p>","","0","instructions","","","","","","","","","","",""
"learning-instructions","66","455802","0.0-9.0-1.0-0.6","5175","1","11","Male","approach_avoid_spark_v1","""event"",""trial"",""time""
""fullscreenenter"",""1"",""3067""
","
","
","""event"",""trial"",""time""
""fullscreenenter"",""1"",""3067""
","
","","","","","","1599.7999999523163","<p> And here is what you would see if you lost 3 points: </p><p style=""color:red;font-size:50px;font-weight:bolder"">-3</p>","","0","instructions","","","","","","","","","","",""
"learning-instructions","67","476279","0.0-9.0-1.0-0.7","5175","1","11","Male","approach_avoid_spark_v1","""event"",""trial"",""time""
""fullscreenenter"",""1"",""3067""
","
","
","""event"",""trial"",""time""
""fullscreenenter"",""1"",""3067""
","
","","","","","","1446.7000000476837","<p> Some pieces of furniture will make her feel very happy or very annoyed. </p><p> These pieces of furniture will make you win or lose LOTS of points. </p><p> Other pieces of furniture will only make her feel a little happy or a little annoyed. </p><p> These pieces of furniture will make you win or lose small amounts of points. </p>","","0","instructions","","","","","","","","","","",""
"learning-instructions","68","492336","0.0-9.0-1.0-0.8","5175","1","11","Male","approach_avoid_spark_v1","""event"",""trial"",""time""
""fullscreenenter"",""1"",""3067""
","
","
","""event"",""trial"",""time""
""fullscreenenter"",""1"",""3067""
","
","","","","","","514.6000001430511","<p> If you choose to deliver a piece of furniture elsewhere, you will not win or lose any points. </p><p>  However, in the center of the screen, you will see the number of points you WOULD HAVE won or lost if you had given the furniture to your friend. </p>","","0","instructions","","","","","","","","","","",""
"learning-instructions","69","505444","0.0-9.0-1.0-0.9","5175","1","11","Male","approach_avoid_spark_v1","""event"",""trial"",""time""
""fullscreenenter"",""1"",""3067""
","
","
","""event"",""trial"",""time""
""fullscreenenter"",""1"",""3067""
","
","","","","","","861.7999999523163","<p> Here is what you might see if you did not give a piece of furniture to your friend that would have made her happy: </p><p style=""color:grey; font-size:50px; display: inline-block; border-spacing: 15px; border-width:3px; border-style:solid; border-color:red"">  &nbsp; 6 &nbsp; </p><p> Remember, in this case, you would not win or lose ANY points because you did not give her the furniture.  </p>","","0","instructions","","","","","","","","","","",""
"learning-instructions","70","515550","0.0-9.0-1.0-0.10","5175","1","11","Male","approach_avoid_spark_v1","""event"",""trial"",""time""
""fullscreenenter"",""1"",""3067""
","
","
","""event"",""trial"",""time""
""fullscreenenter"",""1"",""3067""
","
","","","","","","1947","<p> Try to make the best choice for each piece of furniture because </p><p> at the end of the game, you will earn bonus money based on how many points you earned. </p>","","0","instructions","","","","","","","","","","",""
"learning-instructions","71","527142","0.0-9.0-1.0-0.11","5175","1","11","Male","approach_avoid_spark_v1","""event"",""trial"",""time""
""fullscreenenter"",""1"",""3067""
","
","
","""event"",""trial"",""time""
""fullscreenenter"",""1"",""3067""
","
","","","","","","3390.5999999046326","<p> You will have 3 seconds to make each choice. Try to respond before time runs out! </p><p> You will lose 5 points each time you do not make a response. </p>","","0","instructions","","","","","","","","","","",""
"html-keyboard-response","72","527757","0.0-9.0-2.0-0.0","5175","1","11","Male","approach_avoid_spark_v1","""event"",""trial"",""time""
""fullscreenenter"",""1"",""3067""
","
","
","""event"",""trial"",""time""
""fullscreenenter"",""1"",""3067""
","
","","","","","","null","<div style=""font-size:60px;"">+</div>","null","","fixation","","","","","","","","","","",""
"aa-learning-trial","73","530772","0.0-9.0-2.0-1.0","5175","1","11","Male","approach_avoid_spark_v1","""event"",""trial"",""time""
""fullscreenenter"",""1"",""3067""
","
","
","""event"",""trial"",""time""
""fullscreenenter"",""1"",""3067""
","
","","","","","","null","images/table4.png","","","learning","-1","-5","","null","table","furniture","1","0","","neutral","0"
"html-keyboard-response","74","531281","0.0-9.0-2.0-0.1","5175","1","11","Male","approach_avoid_spark_v1","""event"",""trial"",""time""
""fullscreenenter"",""1"",""3067""
","
","
","""event"",""trial"",""time""
""fullscreenenter"",""1"",""3067""
","
","","","","","","null","<div style=""font-size:60px;"">+</div>","null","","fixation","","","","","","","","","","",""
"aa-learning-trial","75","534300","0.0-9.0-2.0-1.1","5175","1","11","Male","approach_avoid_spark_v1","""event"",""trial"",""time""
""fullscreenenter"",""1"",""3067""
","
","
","""event"",""trial"",""time""
""fullscreenenter"",""1"",""3067""
","
","","","","","","1412.7999999523163","images/sofa8.png","","","learning","-6","-6","1","1","sofa","furniture","1","0","","bad","[-5]"
"html-keyboard-response","76","534815","0.0-9.0-2.0-0.2","5175","1","11","Male","approach_avoid_spark_v1","""event"",""trial"",""time""
""fullscreenenter"",""1"",""3067""
","
","
","""event"",""trial"",""time""
""fullscreenenter"",""1"",""3067""
","
","","","","","","null","<div style=""font-size:60px;"">+</div>","null","","fixation","","","","","","","","","","",""
"aa-learning-trial","77","537825","0.0-9.0-2.0-1.2","5175","1","11","Male","approach_avoid_spark_v1","""event"",""trial"",""time""
""fullscreenenter"",""1"",""3067""
","
","
","""event"",""trial"",""time""
""fullscreenenter"",""1"",""3067""
","
","","","","","","1081.1999998092651","images/bed4.png","","","learning","4","0","0","0","bed","furniture","1","0","","good","[3]"
"html-keyboard-response","78","538337","0.0-9.0-2.0-0.3","5175","1","11","Male","approach_avoid_spark_v1","""event"",""trial"",""time""
""fullscreenenter"",""1"",""3067""
","
","
","""event"",""trial"",""time""
""fullscreenenter"",""1"",""3067""
","
","","","","","","null","<div style=""font-size:60px;"">+</div>","null","","fixation","","","","","","","","","","",""
"aa-learning-trial","79","541346","0.0-9.0-2.0-1.3","5175","1","11","Male","approach_avoid_spark_v1","""event"",""trial"",""time""
""fullscreenenter"",""1"",""3067""
","
","
","""event"",""trial"",""time""
""fullscreenenter"",""1"",""3067""
","
","","","","","","1109.7999999523163","images/table4.png","","","learning","1","0","0","0","table","furniture","1","0","","neutral","0"
"html-keyboard-response","80","541861","0.0-9.0-2.0-0.4","5175","1","11","Male","approach_avoid_spark_v1","""event"",""trial"",""time""
""fullscreenenter"",""1"",""3067""
","
","
","""event"",""trial"",""time""
""fullscreenenter"",""1"",""3067""
","
","","","","","","null","<div style=""font-size:60px;"">+</div>","null","","fixation","","","","","","","","","","",""
"aa-learning-trial","81","544864","0.0-9.0-2.0-1.4","5175","1","11","Male","approach_avoid_spark_v1","""event"",""trial"",""time""
""fullscreenenter"",""1"",""3067""
","
","
","""event"",""trial"",""time""
""fullscreenenter"",""1"",""3067""
","
","","","","","","956.0999999046326","images/table2.png","","","learning","2","2","1","1","table","furniture","1","0","","neutral","0"
"html-keyboard-response","82","545375","0.0-9.0-2.0-0.5","5175","1","11","Male","approach_avoid_spark_v1","""event"",""trial"",""time""
""fullscreenenter"",""1"",""3067""
","
","
","""event"",""trial"",""time""
""fullscreenenter"",""1"",""3067""
","
","","","","","","null","<div style=""font-size:60px;"">+</div>","null","","fixation","","","","","","","","","","",""
"aa-learning-trial","83","548395","0.0-9.0-2.0-1.5","5175","1","11","Male","approach_avoid_spark_v1","""event"",""trial"",""time""
""fullscreenenter"",""1"",""3067""
","
","
","""event"",""trial"",""time""
""fullscreenenter"",""1"",""3067""
","
","","","","","","1262.2999999523163","images/bed4.png","","","learning","4","0","0","0","bed","furniture","1","0","","good","[3]"
"html-keyboard-response","84","548910","0.0-9.0-2.0-0.6","5175","1","11","Male","approach_avoid_spark_v1","""event"",""trial"",""time""
""fullscreenenter"",""1"",""3067""
","
","
","""event"",""trial"",""time""
""fullscreenenter"",""1"",""3067""
","
","","","","","","null","<div style=""font-size:60px;"">+</div>","null","","fixation","","","","","","","","","","",""
"aa-learning-trial","85","551922","0.0-9.0-2.0-1.6","5175","1","11","Male","approach_avoid_spark_v1","""event"",""trial"",""time""
""fullscreenenter"",""1"",""3067""
","
","
","""event"",""trial"",""time""
""fullscreenenter"",""1"",""3067""
","
","","","","","","1235.0999999046326","images/bed2.png","","","learning","3","3","1","1","bed","furniture","1","0","","good","[3]"
"html-keyboard-response","86","552435","0.0-9.0-2.0-0.7","5175","1","11","Male","approach_avoid_spark_v1","""event"",""trial"",""time""
""fullscreenenter"",""1"",""3067""
","
","
","""event"",""trial"",""time""
""fullscreenenter"",""1"",""3067""
","
","","","","","","null","<div style=""font-size:60px;"">+</div>","null","","fixation","","","","","","","","","","",""
"aa-learning-trial","87","555449","0.0-9.0-2.0-1.7","5175","1","11","Male","approach_avoid_spark_v1","""event"",""trial"",""time""
""fullscreenenter"",""1"",""3067""
","
","
","""event"",""trial"",""time""
""fullscreenenter"",""1"",""3067""
","
","","","","","","771.0999999046326","images/sofa6.png","","","learning","-8","-8","1","1","sofa","furniture","1","0","","bad","[-5]"
"html-keyboard-response","88","555952","0.0-9.0-2.0-0.8","5175","1","11","Male","approach_avoid_spark_v1","""event"",""trial"",""time""
""fullscreenenter"",""1"",""3067""
","
","
","""event"",""trial"",""time""
""fullscreenenter"",""1"",""3067""
","
","","","","","","null","<div style=""font-size:60px;"">+</div>","null","","fixation","","","","","","","","","","",""
"aa-learning-trial","89","558960","0.0-9.0-2.0-1.8","5175","1","11","Male","approach_avoid_spark_v1","""event"",""trial"",""time""
""fullscreenenter"",""1"",""3067""
","
","
","""event"",""trial"",""time""
""fullscreenenter"",""1"",""3067""
","
","","","","","","1158.5","images/bed5.png","","","learning","4","4","1","1","bed","furniture","1","0","","good","[3]"
"html-keyboard-response","90","559464","0.0-9.0-2.0-0.9","5175","1","11","Male","approach_avoid_spark_v1","""event"",""trial"",""time""
""fullscreenenter"",""1"",""3067""
","
","
","""event"",""trial"",""time""
""fullscreenenter"",""1"",""3067""
","
","","","","","","null","<div style=""font-size:60px;"">+</div>","null","","fixation","","","","","","","","","","",""
"aa-learning-trial","91","562472","0.0-9.0-2.0-1.9","5175","1","11","Male","approach_avoid_spark_v1","""event"",""trial"",""time""
""fullscreenenter"",""1"",""3067""
","
","
","""event"",""trial"",""time""
""fullscreenenter"",""1"",""3067""
","
","","","","","","714.3999998569489","images/sofa8.png","","","learning","-2","0","0","0","sofa","furniture","1","0","","bad","[-5]"
"html-keyboard-response","92","562976","0.0-9.0-2.0-0.10","5175","1","11","Male","approach_avoid_spark_v1","""event"",""trial"",""time""
""fullscreenenter"",""1"",""3067""
","
","
","""event"",""trial"",""time""
""fullscreenenter"",""1"",""3067""
","
","","","","","","null","<div style=""font-size:60px;"">+</div>","null","","fixation","","","","","","","","","","",""
"aa-learning-trial","93","565985","0.0-9.0-2.0-1.10","5175","1","11","Male","approach_avoid_spark_v1","""event"",""trial"",""time""
""fullscreenenter"",""1"",""3067""
","
","
","""event"",""trial"",""time""
""fullscreenenter"",""1"",""3067""
","
","","","","","","2008.3999998569489","images/bed2.png","","","learning","2","0","0","0","bed","furniture","1","0","","good","[3]"
"html-keyboard-response","94","566489","0.0-9.0-2.0-0.11","5175","1","11","Male","approach_avoid_spark_v1","""event"",""trial"",""time""
""fullscreenenter"",""1"",""3067""
","
","
","""event"",""trial"",""time""
""fullscreenenter"",""1"",""3067""
","
","","","","","","null","<div style=""font-size:60px;"">+</div>","null","","fixation","","","","","","","","","","",""
"aa-learning-trial","95","569496","0.0-9.0-2.0-1.11","5175","1","11","Male","approach_avoid_spark_v1","""event"",""trial"",""time""
""fullscreenenter"",""1"",""3067""
","
","
","""event"",""trial"",""time""
""fullscreenenter"",""1"",""3067""
","
","","","","","","1129.5999999046326","images/table1.png","","","learning","-1","0","0","0","table","furniture","1","0","","neutral","0"
"html-keyboard-response","96","570000","0.0-9.0-2.0-0.12","5175","1","11","Male","approach_avoid_spark_v1","""event"",""trial"",""time""
""fullscreenenter"",""1"",""3067""
","
","
","""event"",""trial"",""time""
""fullscreenenter"",""1"",""3067""
","
","","","","","","null","<div style=""font-size:60px;"">+</div>","null","","fixation","","","","","","","","","","",""
"aa-learning-trial","97","573008","0.0-9.0-2.0-1.12","5175","1","11","Male","approach_avoid_spark_v1","""event"",""trial"",""time""
""fullscreenenter"",""1"",""3067""
","
","
","""event"",""trial"",""time""
""fullscreenenter"",""1"",""3067""
","
","","","","","","1584.7999999523163","images/sofa3.png","","","learning","-4","0","0","0","sofa","furniture","1","0","","bad","[-5]"
"html-keyboard-response","98","573512","0.0-9.0-2.0-0.13","5175","1","11","Male","approach_avoid_spark_v1","""event"",""trial"",""time""
""fullscreenenter"",""1"",""3067""
","
","
","""event"",""trial"",""time""
""fullscreenenter"",""1"",""3067""
","
","","","","","","null","<div style=""font-size:60px;"">+</div>","null","","fixation","","","","","","","","","","",""
"aa-learning-trial","99","576521","0.0-9.0-2.0-1.13","5175","1","11","Male","approach_avoid_spark_v1","""event"",""trial"",""time""
""fullscreenenter"",""1"",""3067""
","
","
","""event"",""trial"",""time""
""fullscreenenter"",""1"",""3067""
","
","","","","","","633.7000000476837","images/sofa3.png","","","learning","-6","0","0","0","sofa","furniture","1","0","","bad","[-5]"
"html-keyboard-response","100","577024","0.0-9.0-2.0-0.14","5175","1","11","Male","approach_avoid_spark_v1","""event"",""trial"",""time""
""fullscreenenter"",""1"",""3067""
","
","
","""event"",""trial"",""time""
""fullscreenenter"",""1"",""3067""
","
","","","","","","null","<div style=""font-size:60px;"">+</div>","null","","fixation","","","","","","","","","","",""
"aa-learning-trial","101","580034","0.0-9.0-2.0-1.14","5175","1","11","Male","approach_avoid_spark_v1","""event"",""trial"",""time""
""fullscreenenter"",""1"",""3067""
","
","
","""event"",""trial"",""time""
""fullscreenenter"",""1"",""3067""
","
","","","","","","1023.9000000953674","images/table2.png","","","learning","[-1]","0","0","0","table","furniture","1","0","","neutral","0"
"html-keyboard-response","102","580537","0.0-9.0-2.0-0.15","5175","1","11","Male","approach_avoid_spark_v1","""event"",""trial"",""time""
""fullscreenenter"",""1"",""3067""
","
","
","""event"",""trial"",""time""
""fullscreenenter"",""1"",""3067""
","
","","","","","","null","<div style=""font-size:60px;"">+</div>","null","","fixation","","","","","","","","","","",""
"aa-learning-trial","103","583545","0.0-9.0-2.0-1.15","5175","1","11","Male","approach_avoid_spark_v1","""event"",""trial"",""time""
""fullscreenenter"",""1"",""3067""
","
","
","""event"",""trial"",""time""
""fullscreenenter"",""1"",""3067""
","
","","","","","","1148.0999999046326","images/bed2.png","","","learning","2","0","0","0","bed","furniture","1","0","","good","[3]"
"html-keyboard-response","104","584048","0.0-9.0-2.0-0.16","5175","1","11","Male","approach_avoid_spark_v1","""event"",""trial"",""time""
""fullscreenenter"",""1"",""3067""
","
","
","""event"",""trial"",""time""
""fullscreenenter"",""1"",""3067""
","
","","","","","","null","<div style=""font-size:60px;"">+</div>","null","","fixation","","","","","","","","","","",""
"aa-learning-trial","105","587057","0.0-9.0-2.0-1.16","5175","1","11","Male","approach_avoid_spark_v1","""event"",""trial"",""time""
""fullscreenenter"",""1"",""3067""
","
","
","""event"",""trial"",""time""
""fullscreenenter"",""1"",""3067""
","
","","","","","","852.5","images/bed2.png","","","learning","3","3","1","1","bed","furniture","1","0","","good","[3]"
"html-keyboard-response","106","587561","0.0-9.0-2.0-0.17","5175","1","11","Male","approach_avoid_spark_v1","""event"",""trial"",""time""
""fullscreenenter"",""1"",""3067""
","
","
","""event"",""trial"",""time""
""fullscreenenter"",""1"",""3067""
","
","","","","","","null","<div style=""font-size:60px;"">+</div>","null","","fixation","","","","","","","","","","",""
"aa-learning-trial","107","590569","0.0-9.0-2.0-1.17","5175","1","11","Male","approach_avoid_spark_v1","""event"",""trial"",""time""
""fullscreenenter"",""1"",""3067""
","
","
","""event"",""trial"",""time""
""fullscreenenter"",""1"",""3067""
","
","","","","","","966.8999998569489","images/table2.png","","","learning","[1]","0","0","0","table","furniture","1","0","","neutral","0"
"html-keyboard-response","108","591072","0.0-9.0-2.0-0.18","5175","1","11","Male","approach_avoid_spark_v1","""event"",""trial"",""time""
""fullscreenenter"",""1"",""3067""
","
","
","""event"",""trial"",""time""
""fullscreenenter"",""1"",""3067""
","
","","","","","","null","<div style=""font-size:60px;"">+</div>","null","","fixation","","","","","","","","","","",""
"aa-learning-trial","109","594089","0.0-9.0-2.0-1.18","5175","1","11","Male","approach_avoid_spark_v1","""event"",""trial"",""time""
""fullscreenenter"",""1"",""3067""
","
","
","""event"",""trial"",""time""
""fullscreenenter"",""1"",""3067""
","
","","","","","","1203.6000001430511","images/sofa6.png","","","learning","-6","0","0","0","sofa","furniture","1","0","","bad","[-5]"
"html-keyboard-response","110","594593","0.0-9.0-2.0-0.19","5175","1","11","Male","approach_avoid_spark_v1","""event"",""trial"",""time""
""fullscreenenter"",""1"",""3067""
","
","
","""event"",""trial"",""time""
""fullscreenenter"",""1"",""3067""
","
","","","","","","null","<div style=""font-size:60px;"">+</div>","null","","fixation","","","","","","","","","","",""
"aa-learning-trial","111","597601","0.0-9.0-2.0-1.19","5175","1","11","Male","approach_avoid_spark_v1","""event"",""trial"",""time""
""fullscreenenter"",""1"",""3067""
","
","
","""event"",""trial"",""time""
""fullscreenenter"",""1"",""3067""
","
","","","","","","722.1000001430511","images/table1.png","","","learning","2","0","0","0","table","furniture","1","0","","neutral","0"
"html-keyboard-response","112","598104","0.0-9.0-2.0-0.20","5175","1","11","Male","approach_avoid_spark_v1","""event"",""trial"",""time""
""fullscreenenter"",""1"",""3067""
","
","
","""event"",""trial"",""time""
""fullscreenenter"",""1"",""3067""
","
","","","","","","null","<div style=""font-size:60px;"">+</div>","null","","fixation","","","","","","","","","","",""
"aa-learning-trial","113","601113","0.0-9.0-2.0-1.20","5175","1","11","Male","approach_avoid_spark_v1","""event"",""trial"",""time""
""fullscreenenter"",""1"",""3067""
","
","
","""event"",""trial"",""time""
""fullscreenenter"",""1"",""3067""
","
","","","","","","705.5","images/sofa8.png","","","learning","-6","0","0","0","sofa","furniture","1","0","","bad","[-5]"
"html-keyboard-response","114","601616","0.0-9.0-2.0-0.21","5175","1","11","Male","approach_avoid_spark_v1","""event"",""trial"",""time""
""fullscreenenter"",""1"",""3067""
","
","
","""event"",""trial"",""time""
""fullscreenenter"",""1"",""3067""
","
","","","","","","null","<div style=""font-size:60px;"">+</div>","null","","fixation","","","","","","","","","","",""
"aa-learning-trial","115","604625","0.0-9.0-2.0-1.21","5175","1","11","Male","approach_avoid_spark_v1","""event"",""trial"",""time""
""fullscreenenter"",""1"",""3067""
","
","
","""event"",""trial"",""time""
""fullscreenenter"",""1"",""3067""
","
","","","","","","1574.9000000953674","images/table4.png","","","learning","[1]","1","1","1","table","furniture","1","0","","neutral","0"
"html-keyboard-response","116","605129","0.0-9.0-2.0-0.22","5175","1","11","Male","approach_avoid_spark_v1","""event"",""trial"",""time""
""fullscreenenter"",""1"",""3067""
","
","
","""event"",""trial"",""time""
""fullscreenenter"",""1"",""3067""
","
","","","","","","null","<div style=""font-size:60px;"">+</div>","null","","fixation","","","","","","","","","","",""
"aa-learning-trial","117","608136","0.0-9.0-2.0-1.22","5175","1","11","Male","approach_avoid_spark_v1","""event"",""trial"",""time""
""fullscreenenter"",""1"",""3067""
","
","
","""event"",""trial"",""time""
""fullscreenenter"",""1"",""3067""
","
","","","","","","675.5","images/table2.png","","","learning","-1","0","0","0","table","furniture","1","0","","neutral","0"
"html-keyboard-response","118","608640","0.0-9.0-2.0-0.23","5175","1","11","Male","approach_avoid_spark_v1","""event"",""trial"",""time""
""fullscreenenter"",""1"",""3067""
","
","
","""event"",""trial"",""time""
""fullscreenenter"",""1"",""3067""
","
","","","","","","null","<div style=""font-size:60px;"">+</div>","null","","fixation","","","","","","","","","","",""
"aa-learning-trial","119","611649","0.0-9.0-2.0-1.23","5175","1","11","Male","approach_avoid_spark_v1","""event"",""trial"",""time""
""fullscreenenter"",""1"",""3067""
","
","
","""event"",""trial"",""time""
""fullscreenenter"",""1"",""3067""
","
","","","","","","987.2000000476837","images/sofa3.png","","","learning","-7","0","0","0","sofa","furniture","1","0","","bad","[-5]"
"html-keyboard-response","120","612152","0.0-9.0-2.0-0.24","5175","1","11","Male","approach_avoid_spark_v1","""event"",""trial"",""time""
""fullscreenenter"",""1"",""3067""
","
","
","""event"",""trial"",""time""
""fullscreenenter"",""1"",""3067""
","
","","","","","","null","<div style=""font-size:60px;"">+</div>","null","","fixation","","","","","","","","","","",""
"aa-learning-trial","121","615161","0.0-9.0-2.0-1.24","5175","1","11","Male","approach_avoid_spark_v1","""event"",""trial"",""time""
""fullscreenenter"",""1"",""3067""
","
","
","""event"",""trial"",""time""
""fullscreenenter"",""1"",""3067""
","
","","","","","","862.2000000476837","images/table2.png","","","learning","-2","0","0","0","table","furniture","1","0","","neutral","0"
"html-keyboard-response","122","615665","0.0-9.0-2.0-0.25","5175","1","11","Male","approach_avoid_spark_v1","""event"",""trial"",""time""
""fullscreenenter"",""1"",""3067""
","
","
","""event"",""trial"",""time""
""fullscreenenter"",""1"",""3067""
","
","","","","","","null","<div style=""font-size:60px;"">+</div>","null","","fixation","","","","","","","","","","",""
"aa-learning-trial","123","618673","0.0-9.0-2.0-1.25","5175","1","11","Male","approach_avoid_spark_v1","""event"",""trial"",""time""
""fullscreenenter"",""1"",""3067""
","
","
","""event"",""trial"",""time""
""fullscreenenter"",""1"",""3067""
","
","","","","","","1115.5999999046326","images/bed2.png","","","learning","4","4","1","1","bed","furniture","1","0","","good","[3]"
"html-keyboard-response","124","619176","0.0-9.0-2.0-0.26","5175","1","11","Male","approach_avoid_spark_v1","""event"",""trial"",""time""
""fullscreenenter"",""1"",""3067""
","
","
","""event"",""trial"",""time""
""fullscreenenter"",""1"",""3067""
","
","","","","","","null","<div style=""font-size:60px;"">+</div>","null","","fixation","","","","","","","","","","",""
"aa-learning-trial","125","622197","0.0-9.0-2.0-1.26","5175","1","11","Male","approach_avoid_spark_v1","""event"",""trial"",""time""
""fullscreenenter"",""1"",""3067""
","
","
","""event"",""trial"",""time""
""fullscreenenter"",""1"",""3067""
","
","","","","","","714.5999999046326","images/sofa8.png","","","learning","-5","0","0","0","sofa","furniture","1","0","","bad","[-5]"
"html-keyboard-response","126","622705","0.0-9.0-2.0-0.27","5175","1","11","Male","approach_avoid_spark_v1","""event"",""trial"",""time""
""fullscreenenter"",""1"",""3067""
","
","
","""event"",""trial"",""time""
""fullscreenenter"",""1"",""3067""
","
","","","","","","null","<div style=""font-size:60px;"">+</div>","null","","fixation","","","","","","","","","","",""
"aa-learning-trial","127","625712","0.0-9.0-2.0-1.27","5175","1","11","Male","approach_avoid_spark_v1","""event"",""trial"",""time""
""fullscreenenter"",""1"",""3067""
","
","
","""event"",""trial"",""time""
""fullscreenenter"",""1"",""3067""
","
","","","","","","621.0999999046326","images/sofa6.png","","","learning","-6","0","0","0","sofa","furniture","1","0","","bad","[-5]"
"html-keyboard-response","128","626217","0.0-9.0-2.0-0.28","5175","1","11","Male","approach_avoid_spark_v1","""event"",""trial"",""time""
""fullscreenenter"",""1"",""3067""
","
","
","""event"",""trial"",""time""
""fullscreenenter"",""1"",""3067""
","
","","","","","","null","<div style=""font-size:60px;"">+</div>","null","","fixation","","","","","","","","","","",""
"aa-learning-trial","129","629223","0.0-9.0-2.0-1.28","5175","1","11","Male","approach_avoid_spark_v1","""event"",""trial"",""time""
""fullscreenenter"",""1"",""3067""
","
","
","""event"",""trial"",""time""
""fullscreenenter"",""1"",""3067""
","
","","","","","","1294.7000000476837","images/bed2.png","","","learning","1","1","1","1","bed","furniture","1","0","","good","[3]"
"html-keyboard-response","130","629739","0.0-9.0-2.0-0.29","5175","1","11","Male","approach_avoid_spark_v1","""event"",""trial"",""time""
""fullscreenenter"",""1"",""3067""
","
","
","""event"",""trial"",""time""
""fullscreenenter"",""1"",""3067""
","
","","","","","","null","<div style=""font-size:60px;"">+</div>","null","","fixation","","","","","","","","","","",""
"aa-learning-trial","131","632754","0.0-9.0-2.0-1.29","5175","1","11","Male","approach_avoid_spark_v1","""event"",""trial"",""time""
""fullscreenenter"",""1"",""3067""
","
","
","""event"",""trial"",""time""
""fullscreenenter"",""1"",""3067""
","
","","","","","","1379","images/table4.png","","","learning","1","0","0","0","table","furniture","1","0","","neutral","0"
"html-keyboard-response","132","633256","0.0-9.0-2.0-0.30","5175","1","11","Male","approach_avoid_spark_v1","""event"",""trial"",""time""
""fullscreenenter"",""1"",""3067""
","
","
","""event"",""trial"",""time""
""fullscreenenter"",""1"",""3067""
","
","","","","","","null","<div style=""font-size:60px;"">+</div>","null","","fixation","","","","","","","","","","",""
"aa-learning-trial","133","636265","0.0-9.0-2.0-1.30","5175","1","11","Male","approach_avoid_spark_v1","""event"",""trial"",""time""
""fullscreenenter"",""1"",""3067""
","
","
","""event"",""trial"",""time""
""fullscreenenter"",""1"",""3067""
","
","","","","","","772.0999999046326","images/sofa3.png","","","learning","-5","0","0","0","sofa","furniture","1","0","","bad","[-5]"
"html-keyboard-response","134","636768","0.0-9.0-2.0-0.31","5175","1","11","Male","approach_avoid_spark_v1","""event"",""trial"",""time""
""fullscreenenter"",""1"",""3067""
","
","
","""event"",""trial"",""time""
""fullscreenenter"",""1"",""3067""
","
","","","","","","null","<div style=""font-size:60px;"">+</div>","null","","fixation","","","","","","","","","","",""
"aa-learning-trial","135","639776","0.0-9.0-2.0-1.31","5175","1","11","Male","approach_avoid_spark_v1","""event"",""trial"",""time""
""fullscreenenter"",""1"",""3067""
","
","
","""event"",""trial"",""time""
""fullscreenenter"",""1"",""3067""
","
","","","","","","784.5999999046326","images/sofa3.png","","","learning","-4","0","0","0","sofa","furniture","1","0","","bad","[-5]"
"html-keyboard-response","136","640280","0.0-9.0-2.0-0.32","5175","1","11","Male","approach_avoid_spark_v1","""event"",""trial"",""time""
""fullscreenenter"",""1"",""3067""
","
","
","""event"",""trial"",""time""
""fullscreenenter"",""1"",""3067""
","
","","","","","","null","<div style=""font-size:60px;"">+</div>","null","","fixation","","","","","","","","","","",""
"aa-learning-trial","137","643296","0.0-9.0-2.0-1.32","5175","1","11","Male","approach_avoid_spark_v1","""event"",""trial"",""time""
""fullscreenenter"",""1"",""3067""
","
","
","""event"",""trial"",""time""
""fullscreenenter"",""1"",""3067""
","
","","","","","","899.8999998569489","images/table1.png","","","learning","1","1","1","1","table","furniture","1","0","","neutral","0"
"html-keyboard-response","138","643808","0.0-9.0-2.0-0.33","5175","1","11","Male","approach_avoid_spark_v1","""event"",""trial"",""time""
""fullscreenenter"",""1"",""3067""
","
","
","""event"",""trial"",""time""
""fullscreenenter"",""1"",""3067""
","
","","","","","","null","<div style=""font-size:60px;"">+</div>","null","","fixation","","","","","","","","","","",""
"aa-learning-trial","139","646816","0.0-9.0-2.0-1.33","5175","1","11","Male","approach_avoid_spark_v1","""event"",""trial"",""time""
""fullscreenenter"",""1"",""3067""
","
","
","""event"",""trial"",""time""
""fullscreenenter"",""1"",""3067""
","
","","","","","","1391.8000001907349","images/sofa2.png","","","learning","-6","-6","1","1","sofa","furniture","1","0","","bad","[-5]"
"html-keyboard-response","140","647321","0.0-9.0-2.0-0.34","5175","1","11","Male","approach_avoid_spark_v1","""event"",""trial"",""time""
""fullscreenenter"",""1"",""3067""
","
","
","""event"",""trial"",""time""
""fullscreenenter"",""1"",""3067""
","
","","","","","","null","<div style=""font-size:60px;"">+</div>","null","","fixation","","","","","","","","","","",""
"aa-learning-trial","141","650328","0.0-9.0-2.0-1.34","5175","1","11","Male","approach_avoid_spark_v1","""event"",""trial"",""time""
""fullscreenenter"",""1"",""3067""
","
","
","""event"",""trial"",""time""
""fullscreenenter"",""1"",""3067""
","
","","","","","","1399.0999999046326","images/bed4.png","","","learning","3","0","0","0","bed","furniture","1","0","","good","[3]"
"html-keyboard-response","142","650832","0.0-9.0-2.0-0.35","5175","1","11","Male","approach_avoid_spark_v1","""event"",""trial"",""time""
""fullscreenenter"",""1"",""3067""
","
","
","""event"",""trial"",""time""
""fullscreenenter"",""1"",""3067""
","
","","","","","","null","<div style=""font-size:60px;"">+</div>","null","","fixation","","","","","","","","","","",""
"aa-learning-trial","143","653841","0.0-9.0-2.0-1.35","5175","1","11","Male","approach_avoid_spark_v1","""event"",""trial"",""time""
""fullscreenenter"",""1"",""3067""
","
","
","""event"",""trial"",""time""
""fullscreenenter"",""1"",""3067""
","
","","","","","","733.8000001907349","images/sofa8.png","","","learning","-4","0","0","0","sofa","furniture","1","0","","bad","[-5]"
"html-keyboard-response","144","654344","0.0-9.0-2.0-0.36","5175","1","11","Male","approach_avoid_spark_v1","""event"",""trial"",""time""
""fullscreenenter"",""1"",""3067""
","
","
","""event"",""trial"",""time""
""fullscreenenter"",""1"",""3067""
","
","","","","","","null","<div style=""font-size:60px;"">+</div>","null","","fixation","","","","","","","","","","",""
"aa-learning-trial","145","657352","0.0-9.0-2.0-1.36","5175","1","11","Male","approach_avoid_spark_v1","""event"",""trial"",""time""
""fullscreenenter"",""1"",""3067""
","
","
","""event"",""trial"",""time""
""fullscreenenter"",""1"",""3067""
","
","","","","","","1046.9000000953674","images/table4.png","","","learning","-3","-3","1","1","table","furniture","1","0","","neutral","0"
"html-keyboard-response","146","657856","0.0-9.0-2.0-0.37","5175","1","11","Male","approach_avoid_spark_v1","""event"",""trial"",""time""
""fullscreenenter"",""1"",""3067""
","
","
","""event"",""trial"",""time""
""fullscreenenter"",""1"",""3067""
","
","","","","","","null","<div style=""font-size:60px;"">+</div>","null","","fixation","","","","","","","","","","",""
"aa-learning-trial","147","660865","0.0-9.0-2.0-1.37","5175","1","11","Male","approach_avoid_spark_v1","""event"",""trial"",""time""
""fullscreenenter"",""1"",""3067""
","
","
","""event"",""trial"",""time""
""fullscreenenter"",""1"",""3067""
","
","","","","","","1617.7999999523163","images/bed7.png","","","learning","3","0","0","0","bed","furniture","1","0","","good","[3]"
"html-keyboard-response","148","661369","0.0-9.0-2.0-0.38","5175","1","11","Male","approach_avoid_spark_v1","""event"",""trial"",""time""
""fullscreenenter"",""1"",""3067""
","
","
","""event"",""trial"",""time""
""fullscreenenter"",""1"",""3067""
","
","","","","","","null","<div style=""font-size:60px;"">+</div>","null","","fixation","","","","","","","","","","",""
"aa-learning-trial","149","664376","0.0-9.0-2.0-1.38","5175","1","11","Male","approach_avoid_spark_v1","""event"",""trial"",""time""
""fullscreenenter"",""1"",""3067""
","
","
","""event"",""trial"",""time""
""fullscreenenter"",""1"",""3067""
","
","","","","","","1293.4000000953674","images/bed5.png","","","learning","3","0","0","0","bed","furniture","1","0","","good","[3]"
"html-keyboard-response","150","664879","0.0-9.0-2.0-0.39","5175","1","11","Male","approach_avoid_spark_v1","""event"",""trial"",""time""
""fullscreenenter"",""1"",""3067""
","
","
","""event"",""trial"",""time""
""fullscreenenter"",""1"",""3067""
","
","","","","","","null","<div style=""font-size:60px;"">+</div>","null","","fixation","","","","","","","","","","",""
"aa-learning-trial","151","667887","0.0-9.0-2.0-1.39","5175","1","11","Male","approach_avoid_spark_v1","""event"",""trial"",""time""
""fullscreenenter"",""1"",""3067""
","
","
","""event"",""trial"",""time""
""fullscreenenter"",""1"",""3067""
","
","","","","","","955.3999998569489","images/table4.png","","","learning","-2","0","0","0","table","furniture","1","0","","neutral","0"
"html-keyboard-response","152","668393","0.0-9.0-2.0-0.40","5175","1","11","Male","approach_avoid_spark_v1","""event"",""trial"",""time""
""fullscreenenter"",""1"",""3067""
","
","
","""event"",""trial"",""time""
""fullscreenenter"",""1"",""3067""
","
","","","","","","null","<div style=""font-size:60px;"">+</div>","null","","fixation","","","","","","","","","","",""
"aa-learning-trial","153","671400","0.0-9.0-2.0-1.40","5175","1","11","Male","approach_avoid_spark_v1","""event"",""trial"",""time""
""fullscreenenter"",""1"",""3067""
","
","
","""event"",""trial"",""time""
""fullscreenenter"",""1"",""3067""
","
","","","","","","1027.1999998092651","images/bed4.png","","","learning","3","3","1","1","bed","furniture","1","0","","good","[3]"
"html-keyboard-response","154","671904","0.0-9.0-2.0-0.41","5175","1","11","Male","approach_avoid_spark_v1","""event"",""trial"",""time""
""fullscreenenter"",""1"",""3067""
","
","
","""event"",""trial"",""time""
""fullscreenenter"",""1"",""3067""
","
","","","","","","null","<div style=""font-size:60px;"">+</div>","null","","fixation","","","","","","","","","","",""
"aa-learning-trial","155","674912","0.0-9.0-2.0-1.41","5175","1","11","Male","approach_avoid_spark_v1","""event"",""trial"",""time""
""fullscreenenter"",""1"",""3067""
","
","
","""event"",""trial"",""time""
""fullscreenenter"",""1"",""3067""
","
","","","","","","719.7999999523163","images/bed4.png","","","learning","3","3","1","1","bed","furniture","1","0","","good","[3]"
"html-keyboard-response","156","675417","0.0-9.0-2.0-0.42","5175","1","11","Male","approach_avoid_spark_v1","""event"",""trial"",""time""
""fullscreenenter"",""1"",""3067""
","
","
","""event"",""trial"",""time""
""fullscreenenter"",""1"",""3067""
","
","","","","","","null","<div style=""font-size:60px;"">+</div>","null","","fixation","","","","","","","","","","",""
"aa-learning-trial","157","678424","0.0-9.0-2.0-1.42","5175","1","11","Male","approach_avoid_spark_v1","""event"",""trial"",""time""
""fullscreenenter"",""1"",""3067""
","
","
","""event"",""trial"",""time""
""fullscreenenter"",""1"",""3067""
","
","","","","","","894.8999998569489","images/bed4.png","","","learning","4","4","1","1","bed","furniture","1","0","","good","[3]"
"html-keyboard-response","158","678929","0.0-9.0-2.0-0.43","5175","1","11","Male","approach_avoid_spark_v1","""event"",""trial"",""time""
""fullscreenenter"",""1"",""3067""
","
","
","""event"",""trial"",""time""
""fullscreenenter"",""1"",""3067""
","
","","","","","","null","<div style=""font-size:60px;"">+</div>","null","","fixation","","","","","","","","","","",""
"aa-learning-trial","159","681936","0.0-9.0-2.0-1.43","5175","1","11","Male","approach_avoid_spark_v1","""event"",""trial"",""time""
""fullscreenenter"",""1"",""3067""
","
","
","""event"",""trial"",""time""
""fullscreenenter"",""1"",""3067""
","
","","","","","","1404.2000000476837","images/table8.png","","","learning","[-1]","0","0","0","table","furniture","1","0","","neutral","0"
"html-keyboard-response","160","682440","0.0-9.0-2.0-0.44","5175","1","11","Male","approach_avoid_spark_v1","""event"",""trial"",""time""
""fullscreenenter"",""1"",""3067""
","
","
","""event"",""trial"",""time""
""fullscreenenter"",""1"",""3067""
","
","","","","","","null","<div style=""font-size:60px;"">+</div>","null","","fixation","","","","","","","","","","",""
"aa-learning-trial","161","685448","0.0-9.0-2.0-1.44","5175","1","11","Male","approach_avoid_spark_v1","""event"",""trial"",""time""
""fullscreenenter"",""1"",""3067""
","
","
","""event"",""trial"",""time""
""fullscreenenter"",""1"",""3067""
","
","","","","","","920.6000001430511","images/bed5.png","","","learning","1","1","1","1","bed","furniture","1","0","","good","[3]"
"html-keyboard-response","162","685952","0.0-9.0-2.0-0.45","5175","1","11","Male","approach_avoid_spark_v1","""event"",""trial"",""time""
""fullscreenenter"",""1"",""3067""
","
","
","""event"",""trial"",""time""
""fullscreenenter"",""1"",""3067""
","
","","","","","","null","<div style=""font-size:60px;"">+</div>","null","","fixation","","","","","","","","","","",""
"aa-learning-trial","163","688961","0.0-9.0-2.0-1.45","5175","1","11","Male","approach_avoid_spark_v1","""event"",""trial"",""time""
""fullscreenenter"",""1"",""3067""
","
","
","""event"",""trial"",""time""
""fullscreenenter"",""1"",""3067""
","
","","","","","","1083.7000000476837","images/sofa1.png","","","learning","-5","0","0","0","sofa","furniture","1","0","","bad","[-5]"
"html-keyboard-response","164","689465","0.0-9.0-2.0-0.46","5175","1","11","Male","approach_avoid_spark_v1","""event"",""trial"",""time""
""fullscreenenter"",""1"",""3067""
","
","
","""event"",""trial"",""time""
""fullscreenenter"",""1"",""3067""
","
","","","","","","null","<div style=""font-size:60px;"">+</div>","null","","fixation","","","","","","","","","","",""
"aa-learning-trial","165","692472","0.0-9.0-2.0-1.46","5175","1","11","Male","approach_avoid_spark_v1","""event"",""trial"",""time""
""fullscreenenter"",""1"",""3067""
","
","
","""event"",""trial"",""time""
""fullscreenenter"",""1"",""3067""
","
","","","","","","716.5999999046326","images/sofa8.png","","","learning","-6","0","0","0","sofa","furniture","1","0","","bad","[-5]"
"html-keyboard-response","166","692977","0.0-9.0-2.0-0.47","5175","1","11","Male","approach_avoid_spark_v1","""event"",""trial"",""time""
""fullscreenenter"",""1"",""3067""
","
","
","""event"",""trial"",""time""
""fullscreenenter"",""1"",""3067""
","
","","","","","","null","<div style=""font-size:60px;"">+</div>","null","","fixation","","","","","","","","","","",""
"aa-learning-trial","167","695985","0.0-9.0-2.0-1.47","5175","1","11","Male","approach_avoid_spark_v1","""event"",""trial"",""time""
""fullscreenenter"",""1"",""3067""
","
","
","""event"",""trial"",""time""
""fullscreenenter"",""1"",""3067""
","
","","","","","","1268.7999999523163","images/bed8.png","","","learning","1","1","1","1","bed","furniture","1","0","","good","[3]"
"html-keyboard-response","168","696488","0.0-9.0-2.0-0.48","5175","1","11","Male","approach_avoid_spark_v1","""event"",""trial"",""time""
""fullscreenenter"",""1"",""3067""
","
","
","""event"",""trial"",""time""
""fullscreenenter"",""1"",""3067""
","
","","","","","","null","<div style=""font-size:60px;"">+</div>","null","","fixation","","","","","","","","","","",""
"aa-learning-trial","169","699496","0.0-9.0-2.0-1.48","5175","1","11","Male","approach_avoid_spark_v1","""event"",""trial"",""time""
""fullscreenenter"",""1"",""3067""
","
","
","""event"",""trial"",""time""
""fullscreenenter"",""1"",""3067""
","
","","","","","","1124","images/table3.png","","","learning","[1]","0","0","0","table","furniture","1","0","","neutral","0"
"html-keyboard-response","170","700000","0.0-9.0-2.0-0.49","5175","1","11","Male","approach_avoid_spark_v1","""event"",""trial"",""time""
""fullscreenenter"",""1"",""3067""
","
","
","""event"",""trial"",""time""
""fullscreenenter"",""1"",""3067""
","
","","","","","","null","<div style=""font-size:60px;"">+</div>","null","","fixation","","","","","","","","","","",""
"aa-learning-trial","171","703009","0.0-9.0-2.0-1.49","5175","1","11","Male","approach_avoid_spark_v1","""event"",""trial"",""time""
""fullscreenenter"",""1"",""3067""
","
","
","""event"",""trial"",""time""
""fullscreenenter"",""1"",""3067""
","
","","","","","","1108.2999999523163","images/sofa3.png","","","learning","-3","0","0","0","sofa","furniture","1","0","","bad","[-5]"
"html-keyboard-response","172","703512","0.0-9.0-2.0-0.50","5175","1","11","Male","approach_avoid_spark_v1","""event"",""trial"",""time""
""fullscreenenter"",""1"",""3067""
","
","
","""event"",""trial"",""time""
""fullscreenenter"",""1"",""3067""
","
","","","","","","null","<div style=""font-size:60px;"">+</div>","null","","fixation","","","","","","","","","","",""
"aa-learning-trial","173","706520","0.0-9.0-2.0-1.50","5175","1","11","Male","approach_avoid_spark_v1","""event"",""trial"",""time""
""fullscreenenter"",""1"",""3067""
","
","
","""event"",""trial"",""time""
""fullscreenenter"",""1"",""3067""
","
","","","","","","1038.7000000476837","images/table2.png","","","learning","-2","0","0","0","table","furniture","1","0","","neutral","0"
"html-button-response","174","710032","0.0-9.0-3.0","5175","1","11","Male","approach_avoid_spark_v1","""event"",""trial"",""time""
""fullscreenenter"",""1"",""3067""
","
","
","""event"",""trial"",""time""
""fullscreenenter"",""1"",""3067""
","
","","","","","","3509.2999999523163","<p> You have completed the round! <p> In this round, you earned 3 points! </p>","0","","break","","","","","","","","","","",""
"html-button-response","175","711369","0.0-10.0","5175","1","11","Male","approach_avoid_spark_v1","""event"",""trial"",""time""
""fullscreenenter"",""1"",""3067""
","
","
","""event"",""trial"",""time""
""fullscreenenter"",""1"",""3067""
","
","","","","","","1336.0999999046326","<p> Now it's time to play another round. </p>","0","","transition_screen","","","","","","","","","","",""
"preload","176","711487","0.0-11.0-0.0","5175","1","11","Male","approach_avoid_spark_v1","""event"",""trial"",""time""
""fullscreenenter"",""1"",""3067""
","
","
","""event"",""trial"",""time""
""fullscreenenter"",""1"",""3067""
","
","true","false","[]","[]","[]","","","","","","","","","","","","","","","",""
"learning-instructions","177","719895","0.0-11.0-1.0-0.0","5175","1","11","Male","approach_avoid_spark_v1","""event"",""trial"",""time""
""fullscreenenter"",""1"",""3067""
","
","
","""event"",""trial"",""time""
""fullscreenenter"",""1"",""3067""
","
","","","","","","1701.5999999046326","<p> Your goal in this round is to take your friend for rides in different vehicles. </p></div>","","0","instructions","","","","","","","","","","",""
"learning-instructions","178","730957","0.0-11.0-1.0-0.1","5175","1","11","Male","approach_avoid_spark_v1","""event"",""trial"",""time""
""fullscreenenter"",""1"",""3067""
","
","
","""event"",""trial"",""time""
""fullscreenenter"",""1"",""3067""
","
","","","","","","623.8999998569489","<p> Your friend enjoys riding in some vehicles but not in others.  </p><p> On each turn, you will see a vehicle.   </p><p> You need to decide whether to take your friend for a ride or not.  </p>","","0","instructions","","","","","","","","","","",""
"learning-instructions","179","740457","0.0-11.0-1.0-0.2","5175","1","11","Male","approach_avoid_spark_v1","""event"",""trial"",""time""
""fullscreenenter"",""1"",""3067""
","
","
","""event"",""trial"",""time""
""fullscreenenter"",""1"",""3067""
","
","","","","","","2472.2999999523163","<p> You can take your friend for a ride in the vehicle by pressing 1 and skip the ride by pressing 0. </p><br><div class=""choice-instructions-grid""> <div class=""choice-option""><img src=""images/approach.png"" class=""choice-option-img"" stage=""instructions"" position=""0"" ><div class=""choice-option-text""> Press ""1."" </div></div><div class=""choice-option""><img src=""images/avoid.png"" class=""choice-option-img"" stage=""instructions"" position=""1"" ><div class=""choice-option-text""> Press ""0."" </div></div>","","0","instructions","","","","","","","","","","",""
"learning-instructions","180","749843","0.0-11.0-1.0-0.3","5175","1","11","Male","approach_avoid_spark_v1","""event"",""trial"",""time""
""fullscreenenter"",""1"",""3067""
","
","
","""event"",""trial"",""time""
""fullscreenenter"",""1"",""3067""
","
","","","","","","218.5","<p> If you take them for a ride in a vehicle they like, they will be thrilled! </p><p> But if you take them for a ride in a vehicle they do not like, they will be upset. </p>","","0","instructions","","","","","","","","","","",""
"learning-instructions","181","764122","0.0-11.0-1.0-0.4","5175","1","11","Male","approach_avoid_spark_v1","""event"",""trial"",""time""
""fullscreenenter"",""1"",""3067""
","
","
","""event"",""trial"",""time""
""fullscreenenter"",""1"",""3067""
","
","","","","","","1128.2999999523163","<p> You will earn points based on how you made your friend feel. </p><p> If you made him thrilled, you will WIN anywhere from 1 - 9 points, </p><p> but if you made him upset, you will LOSE anywhere from 1 - 9 points. </p>","","0","instructions","","","","","","","","","","",""
"learning-instructions","182","772211","0.0-11.0-1.0-0.5","5175","1","11","Male","approach_avoid_spark_v1","""event"",""trial"",""time""
""fullscreenenter"",""1"",""3067""
","
","
","""event"",""trial"",""time""
""fullscreenenter"",""1"",""3067""
","
","","","","","","1437.7000000476837","<p> You will see how many points you won or lost in the center of the screen. </p><p> Here is what you would see if you won 5 points: </p><p style=""color:green;font-size:50px;font-weight:bolder"">5</p>","","0","instructions","","","","","","","","","","",""
"learning-instructions","183","776472","0.0-11.0-1.0-0.6","5175","1","11","Male","approach_avoid_spark_v1","""event"",""trial"",""time""
""fullscreenenter"",""1"",""3067""
","
","
","""event"",""trial"",""time""
""fullscreenenter"",""1"",""3067""
","
","","","","","","1427.6000001430511","<p> And here is what you would see if you lost 3 points: </p><p style=""color:red;font-size:50px;font-weight:bolder"">-3</p>","","0","instructions","","","","","","","","","","",""
"learning-instructions","184","794532","0.0-11.0-1.0-0.7","5175","1","11","Male","approach_avoid_spark_v1","""event"",""trial"",""time""
""fullscreenenter"",""1"",""3067""
","
","
","""event"",""trial"",""time""
""fullscreenenter"",""1"",""3067""
","
","","","","","","448.5","<p> Some vehicles will make your friend REALLY thrilled or upset. </p><p> These vehicles will make you win or lose LOTS of points. </p><p> Other vehicles will only make him feel a little thrilled or upset. </p><p> These vehicles will make you win or lose small amounts of points. </p>","","0","instructions","","","","","","","","","","",""
"learning-instructions","185","809237","0.0-11.0-1.0-0.8","5175","1","11","Male","approach_avoid_spark_v1","""event"",""trial"",""time""
""fullscreenenter"",""1"",""3067""
","
","
","""event"",""trial"",""time""
""fullscreenenter"",""1"",""3067""
","
","","","","","","473.69999980926514","<p> If you choose to skip the ride, you will not win or lose any points. </p><p>  However, in the center of the screen, you will see the number of points you WOULD HAVE won or lost if you had taken your friend for a ride. </p>","","0","instructions","","","","","","","","","","",""
"learning-instructions","186","824203","0.0-11.0-1.0-0.9","5175","1","11","Male","approach_avoid_spark_v1","""event"",""trial"",""time""
""fullscreenenter"",""1"",""3067""
","
","
","""event"",""trial"",""time""
""fullscreenenter"",""1"",""3067""
","
","","","","","","1428.5","<p> Here is what you might see if you did not take your friend for a ride but he would have enjoyed it: </p><p style=""color:grey; font-size:50px; display: inline-block; border-spacing: 15px; border-width:3px; border-style:solid; border-color:red"">  &nbsp; 6 &nbsp; </p><p> Remember, in this case, you would not win or lose ANY points because you skipped the ride.  </p>","","0","instructions","","","","","","","","","","",""
"learning-instructions","187","837643","0.0-11.0-1.0-0.10","5175","1","11","Male","approach_avoid_spark_v1","""event"",""trial"",""time""
""fullscreenenter"",""1"",""3067""
","
","
","""event"",""trial"",""time""
""fullscreenenter"",""1"",""3067""
","
","","","","","","4289","<p> Try to make the best choice for each vehicle because </p><p> at the end of the game, you will earn bonus money based on how many points you earned. </p>","","0","instructions","","","","","","","","","","",""
"learning-instructions","188","847688","0.0-11.0-1.0-0.11","5175","1","11","Male","approach_avoid_spark_v1","""event"",""trial"",""time""
""fullscreenenter"",""1"",""3067""
","
","
","""event"",""trial"",""time""
""fullscreenenter"",""1"",""3067""
","
","","","","","","1854","<p> You will have 3 seconds to make each choice. Try to respond before time runs out! </p><p> You will lose 5 points each time you do not make a response. </p>","","0","instructions","","","","","","","","","","",""
"html-keyboard-response","189","848308","0.0-11.0-2.0-0.0","5175","1","11","Male","approach_avoid_spark_v1","""event"",""trial"",""time""
""fullscreenenter"",""1"",""3067""
","
","
","""event"",""trial"",""time""
""fullscreenenter"",""1"",""3067""
","
","","","","","","null","<div style=""font-size:60px;"">+</div>","null","","fixation","","","","","","","","","","",""
"aa-learning-trial","190","851317","0.0-11.0-2.0-1.0","5175","1","11","Male","approach_avoid_spark_v1","""event"",""trial"",""time""
""fullscreenenter"",""1"",""3067""
","
","
","""event"",""trial"",""time""
""fullscreenenter"",""1"",""3067""
","
","","","","","","1409.5999999046326","images/train5.png","","","learning","-1","-1","1","1","train","vehicles","2","1","","good","[3]"
"html-keyboard-response","191","851830","0.0-11.0-2.0-0.1","5175","1","11","Male","approach_avoid_spark_v1","""event"",""trial"",""time""
""fullscreenenter"",""1"",""3067""
","
","
","""event"",""trial"",""time""
""fullscreenenter"",""1"",""3067""
","
","","","","","","null","<div style=""font-size:60px;"">+</div>","null","","fixation","","","","","","","","","","",""
"aa-learning-trial","192","854842","0.0-11.0-2.0-1.1","5175","1","11","Male","approach_avoid_spark_v1","""event"",""trial"",""time""
""fullscreenenter"",""1"",""3067""
","
","
","""event"",""trial"",""time""
""fullscreenenter"",""1"",""3067""
","
","","","","","","957.5","images/boat3.png","","","learning","5","0","0","0","boat","vehicles","2","1","","bad","[-6]"
"html-keyboard-response","193","855357","0.0-11.0-2.0-0.2","5175","1","11","Male","approach_avoid_spark_v1","""event"",""trial"",""time""
""fullscreenenter"",""1"",""3067""
","
","
","""event"",""trial"",""time""
""fullscreenenter"",""1"",""3067""
","
","","","","","","null","<div style=""font-size:60px;"">+</div>","null","","fixation","","","","","","","","","","",""
"aa-learning-trial","194","858374","0.0-11.0-2.0-1.2","5175","1","11","Male","approach_avoid_spark_v1","""event"",""trial"",""time""
""fullscreenenter"",""1"",""3067""
","
","
","""event"",""trial"",""time""
""fullscreenenter"",""1"",""3067""
","
","","","","","","974.2000000476837","images/plane7.png","","","learning","9","0","0","0","plane","vehicles","2","1","","neutral","0"
"html-keyboard-response","195","858887","0.0-11.0-2.0-0.3","5175","1","11","Male","approach_avoid_spark_v1","""event"",""trial"",""time""
""fullscreenenter"",""1"",""3067""
","
","
","""event"",""trial"",""time""
""fullscreenenter"",""1"",""3067""
","
","","","","","","null","<div style=""font-size:60px;"">+</div>","null","","fixation","","","","","","","","","","",""
"aa-learning-trial","196","861901","0.0-11.0-2.0-1.3","5175","1","11","Male","approach_avoid_spark_v1","""event"",""trial"",""time""
""fullscreenenter"",""1"",""3067""
","
","
","""event"",""trial"",""time""
""fullscreenenter"",""1"",""3067""
","
","","","","","","1154.5","images/train6.png","","","learning","3","0","0","0","train","vehicles","2","1","","good","[3]"
"html-keyboard-response","197","862414","0.0-11.0-2.0-0.4","5175","1","11","Male","approach_avoid_spark_v1","""event"",""trial"",""time""
""fullscreenenter"",""1"",""3067""
","
","
","""event"",""trial"",""time""
""fullscreenenter"",""1"",""3067""
","
","","","","","","null","<div style=""font-size:60px;"">+</div>","null","","fixation","","","","","","","","","","",""
"aa-learning-trial","198","865435","0.0-11.0-2.0-1.4","5175","1","11","Male","approach_avoid_spark_v1","""event"",""trial"",""time""
""fullscreenenter"",""1"",""3067""
","
","
","""event"",""trial"",""time""
""fullscreenenter"",""1"",""3067""
","
","","","","","","846.8999998569489","images/plane2.png","","","learning","-9","-9","1","1","plane","vehicles","2","1","","neutral","0"
"html-keyboard-response","199","865948","0.0-11.0-2.0-0.5","5175","1","11","Male","approach_avoid_spark_v1","""event"",""trial"",""time""
""fullscreenenter"",""1"",""3067""
","
","
","""event"",""trial"",""time""
""fullscreenenter"",""1"",""3067""
","
","","","","","","null","<div style=""font-size:60px;"">+</div>","null","","fixation","","","","","","","","","","",""
"aa-learning-trial","200","868960","0.0-11.0-2.0-1.5","5175","1","11","Male","approach_avoid_spark_v1","""event"",""trial"",""time""
""fullscreenenter"",""1"",""3067""
","
","
","""event"",""trial"",""time""
""fullscreenenter"",""1"",""3067""
","
","","","","","","838","images/train2.png","","","learning","-4","-4","1","1","train","vehicles","2","1","","good","[3]"
"html-keyboard-response","201","869472","0.0-11.0-2.0-0.6","5175","1","11","Male","approach_avoid_spark_v1","""event"",""trial"",""time""
""fullscreenenter"",""1"",""3067""
","
","
","""event"",""trial"",""time""
""fullscreenenter"",""1"",""3067""
","
","","","","","","null","<div style=""font-size:60px;"">+</div>","null","","fixation","","","","","","","","","","",""
"aa-learning-trial","202","872487","0.0-11.0-2.0-1.6","5175","1","11","Male","approach_avoid_spark_v1","""event"",""trial"",""time""
""fullscreenenter"",""1"",""3067""
","
","
","""event"",""trial"",""time""
""fullscreenenter"",""1"",""3067""
","
","","","","","","908.5999999046326","images/plane2.png","","","learning","-9","0","0","0","plane","vehicles","2","1","","neutral","0"
"html-keyboard-response","203","873001","0.0-11.0-2.0-0.7","5175","1","11","Male","approach_avoid_spark_v1","""event"",""trial"",""time""
""fullscreenenter"",""1"",""3067""
","
","
","""event"",""trial"",""time""
""fullscreenenter"",""1"",""3067""
","
","","","","","","null","<div style=""font-size:60px;"">+</div>","null","","fixation","","","","","","","","","","",""
"aa-learning-trial","204","876008","0.0-11.0-2.0-1.7","5175","1","11","Male","approach_avoid_spark_v1","""event"",""trial"",""time""
""fullscreenenter"",""1"",""3067""
","
","
","""event"",""trial"",""time""
""fullscreenenter"",""1"",""3067""
","
","","","","","","892.2000000476837","images/boat8.png","","","learning","6","6","1","1","boat","vehicles","2","1","","bad","[-6]"
"html-keyboard-response","205","876512","0.0-11.0-2.0-0.8","5175","1","11","Male","approach_avoid_spark_v1","""event"",""trial"",""time""
""fullscreenenter"",""1"",""3067""
","
","
","""event"",""trial"",""time""
""fullscreenenter"",""1"",""3067""
","
","","","","","","null","<div style=""font-size:60px;"">+</div>","null","","fixation","","","","","","","","","","",""
"aa-learning-trial","206","879520","0.0-11.0-2.0-1.8","5175","1","11","Male","approach_avoid_spark_v1","""event"",""trial"",""time""
""fullscreenenter"",""1"",""3067""
","
","
","""event"",""trial"",""time""
""fullscreenenter"",""1"",""3067""
","
","","","","","","987.0999999046326","images/train2.png","","","learning","-4","0","0","0","train","vehicles","2","1","","good","[3]"
"html-keyboard-response","207","880034","0.0-11.0-2.0-0.9","5175","1","11","Male","approach_avoid_spark_v1","""event"",""trial"",""time""
""fullscreenenter"",""1"",""3067""
","
","
","""event"",""trial"",""time""
""fullscreenenter"",""1"",""3067""
","
","","","","","","null","<div style=""font-size:60px;"">+</div>","null","","fixation","","","","","","","","","","",""
"aa-learning-trial","208","883041","0.0-11.0-2.0-1.9","5175","1","11","Male","approach_avoid_spark_v1","""event"",""trial"",""time""
""fullscreenenter"",""1"",""3067""
","
","
","""event"",""trial"",""time""
""fullscreenenter"",""1"",""3067""
","
","","","","","","724.2000000476837","images/plane7.png","","","learning","9","9","1","1","plane","vehicles","2","1","","neutral","0"
"html-keyboard-response","209","883545","0.0-11.0-2.0-0.10","5175","1","11","Male","approach_avoid_spark_v1","""event"",""trial"",""time""
""fullscreenenter"",""1"",""3067""
","
","
","""event"",""trial"",""time""
""fullscreenenter"",""1"",""3067""
","
","","","","","","null","<div style=""font-size:60px;"">+</div>","null","","fixation","","","","","","","","","","",""
"aa-learning-trial","210","886552","0.0-11.0-2.0-1.10","5175","1","11","Male","approach_avoid_spark_v1","""event"",""trial"",""time""
""fullscreenenter"",""1"",""3067""
","
","
","""event"",""trial"",""time""
""fullscreenenter"",""1"",""3067""
","
","","","","","","949.9000000953674","images/plane3.png","","","learning","-5","0","0","0","plane","vehicles","2","1","","neutral","0"
"html-keyboard-response","211","887057","0.0-11.0-2.0-0.11","5175","1","11","Male","approach_avoid_spark_v1","""event"",""trial"",""time""
""fullscreenenter"",""1"",""3067""
","
","
","""event"",""trial"",""time""
""fullscreenenter"",""1"",""3067""
","
","","","","","","null","<div style=""font-size:60px;"">+</div>","null","","fixation","","","","","","","","","","",""
"aa-learning-trial","212","890064","0.0-11.0-2.0-1.11","5175","1","11","Male","approach_avoid_spark_v1","""event"",""trial"",""time""
""fullscreenenter"",""1"",""3067""
","
","
","""event"",""trial"",""time""
""fullscreenenter"",""1"",""3067""
","
","","","","","","835.2999999523163","images/boat3.png","","","learning","5","5","1","1","boat","vehicles","2","1","","bad","[-6]"
"html-keyboard-response","213","890569","0.0-11.0-2.0-0.12","5175","1","11","Male","approach_avoid_spark_v1","""event"",""trial"",""time""
""fullscreenenter"",""1"",""3067""
","
","
","""event"",""trial"",""time""
""fullscreenenter"",""1"",""3067""
","
","","","","","","null","<div style=""font-size:60px;"">+</div>","null","","fixation","","","","","","","","","","",""
"aa-learning-trial","214","893577","0.0-11.0-2.0-1.12","5175","1","11","Male","approach_avoid_spark_v1","""event"",""trial"",""time""
""fullscreenenter"",""1"",""3067""
","
","
","""event"",""trial"",""time""
""fullscreenenter"",""1"",""3067""
","
","","","","","","996.9000000953674","images/boat8.png","","","learning","6","6","1","1","boat","vehicles","2","1","","bad","[-6]"
"html-keyboard-response","215","894080","0.0-11.0-2.0-0.13","5175","1","11","Male","approach_avoid_spark_v1","""event"",""trial"",""time""
""fullscreenenter"",""1"",""3067""
","
","
","""event"",""trial"",""time""
""fullscreenenter"",""1"",""3067""
","
","","","","","","null","<div style=""font-size:60px;"">+</div>","null","","fixation","","","","","","","","","","",""
"aa-learning-trial","216","897088","0.0-11.0-2.0-1.13","5175","1","11","Male","approach_avoid_spark_v1","""event"",""trial"",""time""
""fullscreenenter"",""1"",""3067""
","
","
","""event"",""trial"",""time""
""fullscreenenter"",""1"",""3067""
","
","","","","","","770.4000000953674","images/train5.png","","","learning","-1","0","0","0","train","vehicles","2","1","","good","[3]"
"html-keyboard-response","217","897592","0.0-11.0-2.0-0.14","5175","1","11","Male","approach_avoid_spark_v1","""event"",""trial"",""time""
""fullscreenenter"",""1"",""3067""
","
","
","""event"",""trial"",""time""
""fullscreenenter"",""1"",""3067""
","
","","","","","","null","<div style=""font-size:60px;"">+</div>","null","","fixation","","","","","","","","","","",""
"aa-learning-trial","218","900600","0.0-11.0-2.0-1.14","5175","1","11","Male","approach_avoid_spark_v1","""event"",""trial"",""time""
""fullscreenenter"",""1"",""3067""
","
","
","""event"",""trial"",""time""
""fullscreenenter"",""1"",""3067""
","
","","","","","","1027.5","images/boat2.png","","","learning","-3","0","0","0","boat","vehicles","2","1","","bad","[-6]"
"html-keyboard-response","219","901104","0.0-11.0-2.0-0.15","5175","1","11","Male","approach_avoid_spark_v1","""event"",""trial"",""time""
""fullscreenenter"",""1"",""3067""
","
","
","""event"",""trial"",""time""
""fullscreenenter"",""1"",""3067""
","
","","","","","","null","<div style=""font-size:60px;"">+</div>","null","","fixation","","","","","","","","","","",""
"aa-learning-trial","220","904113","0.0-11.0-2.0-1.15","5175","1","11","Male","approach_avoid_spark_v1","""event"",""trial"",""time""
""fullscreenenter"",""1"",""3067""
","
","
","""event"",""trial"",""time""
""fullscreenenter"",""1"",""3067""
","
","","","","","","966.9000000953674","images/boat8.png","","","learning","6","6","1","1","boat","vehicles","2","1","","bad","[-6]"
"html-keyboard-response","221","904630","0.0-11.0-2.0-0.16","5175","1","11","Male","approach_avoid_spark_v1","""event"",""trial"",""time""
""fullscreenenter"",""1"",""3067""
","
","
","""event"",""trial"",""time""
""fullscreenenter"",""1"",""3067""
","
","","","","","","null","<div style=""font-size:60px;"">+</div>","null","","fixation","","","","","","","","","","",""
"aa-learning-trial","222","907640","0.0-11.0-2.0-1.16","5175","1","11","Male","approach_avoid_spark_v1","""event"",""trial"",""time""
""fullscreenenter"",""1"",""3067""
","
","
","""event"",""trial"",""time""
""fullscreenenter"",""1"",""3067""
","
","","","","","","756","images/train2.png","","","learning","-4","0","0","0","train","vehicles","2","1","","good","[3]"
"html-keyboard-response","223","908143","0.0-11.0-2.0-0.17","5175","1","11","Male","approach_avoid_spark_v1","""event"",""trial"",""time""
""fullscreenenter"",""1"",""3067""
","
","
","""event"",""trial"",""time""
""fullscreenenter"",""1"",""3067""
","
","","","","","","null","<div style=""font-size:60px;"">+</div>","null","","fixation","","","","","","","","","","",""
"aa-learning-trial","224","911161","0.0-11.0-2.0-1.17","5175","1","11","Male","approach_avoid_spark_v1","""event"",""trial"",""time""
""fullscreenenter"",""1"",""3067""
","
","
","""event"",""trial"",""time""
""fullscreenenter"",""1"",""3067""
","
","","","","","","1320.2999999523163","images/boat4.png","","","learning","-8","0","0","0","boat","vehicles","2","1","","bad","[-6]"
"html-keyboard-response","225","911664","0.0-11.0-2.0-0.18","5175","1","11","Male","approach_avoid_spark_v1","""event"",""trial"",""time""
""fullscreenenter"",""1"",""3067""
","
","
","""event"",""trial"",""time""
""fullscreenenter"",""1"",""3067""
","
","","","","","","null","<div style=""font-size:60px;"">+</div>","null","","fixation","","","","","","","","","","",""
"aa-learning-trial","226","914672","0.0-11.0-2.0-1.18","5175","1","11","Male","approach_avoid_spark_v1","""event"",""trial"",""time""
""fullscreenenter"",""1"",""3067""
","
","
","""event"",""trial"",""time""
""fullscreenenter"",""1"",""3067""
","
","","","","","","792","images/train2.png","","","learning","-4","0","0","0","train","vehicles","2","1","","good","[3]"
"html-keyboard-response","227","915176","0.0-11.0-2.0-0.19","5175","1","11","Male","approach_avoid_spark_v1","""event"",""trial"",""time""
""fullscreenenter"",""1"",""3067""
","
","
","""event"",""trial"",""time""
""fullscreenenter"",""1"",""3067""
","
","","","","","","null","<div style=""font-size:60px;"">+</div>","null","","fixation","","","","","","","","","","",""
"aa-learning-trial","228","918185","0.0-11.0-2.0-1.19","5175","1","11","Male","approach_avoid_spark_v1","""event"",""trial"",""time""
""fullscreenenter"",""1"",""3067""
","
","
","""event"",""trial"",""time""
""fullscreenenter"",""1"",""3067""
","
","","","","","","652.1999998092651","images/train5.png","","","learning","-1","0","0","0","train","vehicles","2","1","","good","[3]"
"html-keyboard-response","229","918689","0.0-11.0-2.0-0.20","5175","1","11","Male","approach_avoid_spark_v1","""event"",""trial"",""time""
""fullscreenenter"",""1"",""3067""
","
","
","""event"",""trial"",""time""
""fullscreenenter"",""1"",""3067""
","
","","","","","","null","<div style=""font-size:60px;"">+</div>","null","","fixation","","","","","","","","","","",""
"aa-learning-trial","230","921696","0.0-11.0-2.0-1.20","5175","1","11","Male","approach_avoid_spark_v1","""event"",""trial"",""time""
""fullscreenenter"",""1"",""3067""
","
","
","""event"",""trial"",""time""
""fullscreenenter"",""1"",""3067""
","
","","","","","","843","images/boat3.png","","","learning","5","5","1","1","boat","vehicles","2","1","","bad","[-6]"
"html-keyboard-response","231","922200","0.0-11.0-2.0-0.21","5175","1","11","Male","approach_avoid_spark_v1","""event"",""trial"",""time""
""fullscreenenter"",""1"",""3067""
","
","
","""event"",""trial"",""time""
""fullscreenenter"",""1"",""3067""
","
","","","","","","null","<div style=""font-size:60px;"">+</div>","null","","fixation","","","","","","","","","","",""
"aa-learning-trial","232","925209","0.0-11.0-2.0-1.21","5175","1","11","Male","approach_avoid_spark_v1","""event"",""trial"",""time""
""fullscreenenter"",""1"",""3067""
","
","
","""event"",""trial"",""time""
""fullscreenenter"",""1"",""3067""
","
","","","","","","776","images/boat8.png","","","learning","6","6","1","1","boat","vehicles","2","1","","bad","[-6]"
"html-keyboard-response","233","925712","0.0-11.0-2.0-0.22","5175","1","11","Male","approach_avoid_spark_v1","""event"",""trial"",""time""
""fullscreenenter"",""1"",""3067""
","
","
","""event"",""trial"",""time""
""fullscreenenter"",""1"",""3067""
","
","","","","","","null","<div style=""font-size:60px;"">+</div>","null","","fixation","","","","","","","","","","",""
"aa-learning-trial","234","928734","0.0-11.0-2.0-1.22","5175","1","11","Male","approach_avoid_spark_v1","""event"",""trial"",""time""
""fullscreenenter"",""1"",""3067""
","
","
","""event"",""trial"",""time""
""fullscreenenter"",""1"",""3067""
","
","","","","","","528","images/plane7.png","","","learning","9","9","1","1","plane","vehicles","2","1","","neutral","0"
"html-keyboard-response","235","929241","0.0-11.0-2.0-0.23","5175","1","11","Male","approach_avoid_spark_v1","""event"",""trial"",""time""
""fullscreenenter"",""1"",""3067""
","
","
","""event"",""trial"",""time""
""fullscreenenter"",""1"",""3067""
","
","","","","","","null","<div style=""font-size:60px;"">+</div>","null","","fixation","","","","","","","","","","",""
"aa-learning-trial","236","932248","0.0-11.0-2.0-1.23","5175","1","11","Male","approach_avoid_spark_v1","""event"",""trial"",""time""
""fullscreenenter"",""1"",""3067""
","
","
","""event"",""trial"",""time""
""fullscreenenter"",""1"",""3067""
","
","","","","","","968.9000000953674","images/boat3.png","","","learning","5","5","1","1","boat","vehicles","2","1","","bad","[-6]"
