"trial_type","trial_index","time_elapsed","internal_node_id","subject_id","task_condition","age","gender","task_version","interactions","blur_events","focus_events","fullscreenenter_events","fullscreenexit_events","success","timeout","failed_images","failed_audio","failed_video","rt","stimulus","response","button_pressed","task_part","approach_reward","points","key_press","option_selected","stim_cat","task_block","block_condition","block_number","correct","cat_type","mean_cat_reward"
"pavlovia","0","3","0.0-0.0","6380","2","17","Female","approach_avoid_spark_v1","""event"",""trial"",""time""
""fullscreenenter"",""1"",""3006""
","
","
","""event"",""trial"",""time""
""fullscreenenter"",""1"",""3006""
","
","","","","","","","","","","","","","","","","","","","","",""
"fullscreen","1","3910","0.0-1.0","6380","2","17","Female","approach_avoid_spark_v1","""event"",""trial"",""time""
""fullscreenenter"",""1"",""3006""
","
","
","""event"",""trial"",""time""
""fullscreenenter"",""1"",""3006""
","
","true","","","","","","","","","","","","","","","","","","","",""
"preload","2","29507","0.0-2.0","6380","2","17","Female","approach_avoid_spark_v1","""event"",""trial"",""time""
""fullscreenenter"",""1"",""3006""
","
","
","""event"",""trial"",""time""
""fullscreenenter"",""1"",""3006""
","
","true","false","[]","[]","[]","","","","","","","","","","","","","","","",""
"audio-keyboard-response","3","32307","0.0-3.0","6380","2","17","Female","approach_avoid_spark_v1","""event"",""trial"",""time""
""fullscreenenter"",""1"",""3006""
","
","
","""event"",""trial"",""time""
""fullscreenenter"",""1"",""3006""
","
","","","","","","2800.000000000001","audio/beep_loop.wav"," ","","","","","","","","","","","","",""
"audio-button-response","4","34782","0.0-4.0","6380","2","17","Female","approach_avoid_spark_v1","""event"",""trial"",""time""
""fullscreenenter"",""1"",""3006""
","
","
","""event"",""trial"",""time""
""fullscreenenter"",""1"",""3006""
","
","","","","","","2480","audio/shark.wav","4","","","","","","","","","","","","",""
"audio-button-response","5","38545","0.0-5.0","6380","2","17","Female","approach_avoid_spark_v1","""event"",""trial"",""time""
""fullscreenenter"",""1"",""3006""
","
","
","""event"",""trial"",""time""
""fullscreenenter"",""1"",""3006""
","
","","","","","","2760","audio/turtle.wav","1","","","","","","","","","","","","",""
"preload","6","43056","0.0-6.0","6380","2","17","Female","approach_avoid_spark_v1","""event"",""trial"",""time""
""fullscreenenter"",""1"",""3006""
","
","
","""event"",""trial"",""time""
""fullscreenenter"",""1"",""3006""
","
","true","false","[]","[]","[]","","","","","","","","","","","","","","","",""
"html-keyboard-response","7","55252","0.0-7.0","6380","2","17","Female","approach_avoid_spark_v1","""event"",""trial"",""time""
""fullscreenenter"",""1"",""3006""
","
","
","""event"",""trial"",""time""
""fullscreenenter"",""1"",""3006""
","
","","","","","","12195.100000143051","Welcome to the experiment. Press any key to begin and to advance the instructions."," ","","","","","","","","","","","","",""
"learning-instructions","8","67873","0.0-8.0-0.0-0.0","6380","2","17","Female","approach_avoid_spark_v1","""event"",""trial"",""time""
""fullscreenenter"",""1"",""3006""
","
","
","""event"",""trial"",""time""
""fullscreenenter"",""1"",""3006""
","
","","","","","","5663.200000047684","<p> Welcome! Today you are going to play 6 different rounds of a decision-making game. </p><p> Use the mouse to click next to continue. </p>","","0","instructions","","","","","","","","","","",""
"learning-instructions","9","72390","0.0-8.0-0.0-0.1","6380","2","17","Female","approach_avoid_spark_v1","""event"",""trial"",""time""
""fullscreenenter"",""1"",""3006""
","
","
","""event"",""trial"",""time""
""fullscreenenter"",""1"",""3006""
","
","","","","","","1791.1000001430511","<p> You will start with a practice round to learn the rules. </p>","","0","instructions","","","","","","","","","","",""
"learning-instructions","10","77975","0.0-8.0-0.0-0.2","6380","2","17","Female","approach_avoid_spark_v1","""event"",""trial"",""time""
""fullscreenenter"",""1"",""3006""
","
","
","""event"",""trial"",""time""
""fullscreenenter"",""1"",""3006""
","
","","","","","","2136.0999999046326","<p> Your goal in this round is to give out sports equipment to kids. </p></div>","","0","instructions","","","","","","","","","","",""
"learning-instructions","11","86663","0.0-8.0-0.0-0.3","6380","2","17","Female","approach_avoid_spark_v1","""event"",""trial"",""time""
""fullscreenenter"",""1"",""3006""
","
","
","""event"",""trial"",""time""
""fullscreenenter"",""1"",""3006""
","
","","","","","","1134.2999999523163","<p> The kids only like some of the equipment.  </p><p> On each turn, you will see a piece of sports equipment.   </p><p> You need to decide whether to give it to the kids or not.  </p>","","0","instructions","","","","","","","","","","",""
"learning-instructions","12","92506","0.0-8.0-0.0-0.4","6380","2","17","Female","approach_avoid_spark_v1","""event"",""trial"",""time""
""fullscreenenter"",""1"",""3006""
","
","
","""event"",""trial"",""time""
""fullscreenenter"",""1"",""3006""
","
","","","","","","1087.1000001430511","<p> You can give them the equipment by pressing 1 and choose not to give it to them by pressing 0. </p><br><div class=""choice-instructions-grid""> <div class=""choice-option""><img src=""images/approach.png"" class=""choice-option-img"" stage=""instructions"" position=""0"" ><div class=""choice-option-text""> Press ""1."" </div></div><div class=""choice-option""><img src=""images/avoid.png"" class=""choice-option-img"" stage=""instructions"" position=""1"" ><div class=""choice-option-text""> Press ""0."" </div></div>","","0","instructions","","","","","","","","","","",""
"learning-instructions","13","100717","0.0-8.0-0.0-0.5","6380","2","17","Female","approach_avoid_spark_v1","""event"",""trial"",""time""
""fullscreenenter"",""1"",""3006""
","
","
","""event"",""trial"",""time""
""fullscreenenter"",""1"",""3006""
","
","","","","","","829.5999999046326","<p> If you give them a piece of equipment they like, they will be happy! </p><p> But if you give them a piece of equipment they do not like, they will be sad. </p>","","0","instructions","","","","","","","","","","",""
"learning-instructions","14","111932","0.0-8.0-0.0-0.6","6380","2","17","Female","approach_avoid_spark_v1","""event"",""trial"",""time""
""fullscreenenter"",""1"",""3006""
","
","
","""event"",""trial"",""time""
""fullscreenenter"",""1"",""3006""
","
","","","","","","705.2000000476837","<p> You will earn points based on how you make kids feel. </p><p> If you make them happy, you will WIN anywhere from 1 - 9 points, </p><p> but if you make them sad, you will LOSE anywhere from 1 - 9 points. </p>","","0","instructions","","","","","","","","","","",""
"learning-instructions","15","124086","0.0-8.0-0.0-0.7","6380","2","17","Female","approach_avoid_spark_v1","""event"",""trial"",""time""
""fullscreenenter"",""1"",""3006""
","
","
","""event"",""trial"",""time""
""fullscreenenter"",""1"",""3006""
","
","","","","","","2600.4000000953674","<p> You will see how many points you won or lost in the center of the screen. </p><p> Here is what you would see if you won 6 points: </p><p style=""color:green;font-size:50px;font-weight:bolder"">6</p><p style=""color:green"">The text is GREEN because you WON points.</p>","","0","instructions","","","","","","","","","","",""
"learning-instructions","16","134623","0.0-8.0-0.0-0.8","6380","2","17","Female","approach_avoid_spark_v1","""event"",""trial"",""time""
""fullscreenenter"",""1"",""3006""
","
","
","""event"",""trial"",""time""
""fullscreenenter"",""1"",""3006""
","
","","","","","","5036.799999952316","<p> And here is what you would see if you lost 4 points: </p><p style=""color:red;font-size:50px;font-weight:bolder"">-4</p><p style=""color:red"">The text is RED because you LOST points. </p>","","0","instructions","","","","","","","","","","",""
"learning-instructions","17","152313","0.0-8.0-0.0-0.9","6380","2","17","Female","approach_avoid_spark_v1","""event"",""trial"",""time""
""fullscreenenter"",""1"",""3006""
","
","
","""event"",""trial"",""time""
""fullscreenenter"",""1"",""3006""
","
","","","","","","2978.2999999523163","<p> Some of the equipment will make the kids VERY happy or sad. </p><p> These pieces of equipment will make you win or lose LOTS of points. </p><p> Other pieces of equipment will only make the kids a little happy or sad. </p><p> These pieces of equipment will make you win or lose small amounts of points. </p>","","0","instructions","","","","","","","","","","",""
"learning-instructions","18","163792","0.0-8.0-0.0-0.10","6380","2","17","Female","approach_avoid_spark_v1","""event"",""trial"",""time""
""fullscreenenter"",""1"",""3006""
","
","
","""event"",""trial"",""time""
""fullscreenenter"",""1"",""3006""
","
","","","","","","856.7999999523163","<p> If you choose not to give them the equipment, you will not win or lose any points. </p><p>  However, in the center of the screen, you will see the number of points you WOULD HAVE won or lost if you had given them the equipment. </p>","","0","instructions","","","","","","","","","","",""
"learning-instructions","19","186999","0.0-8.0-0.0-0.11","6380","2","17","Female","approach_avoid_spark_v1","""event"",""trial"",""time""
""fullscreenenter"",""1"",""3006""
","
","
","""event"",""trial"",""time""
""fullscreenenter"",""1"",""3006""
","
","","","","","","1674.0999999046326","<p> Here is what you might see if you did not give the equipment to the kids but it would have made them happy: </p><p style=""color:grey; font-size:50px; display: inline-block; border-spacing: 15px; border-width:3px; border-style:solid; border-color:red"">  &nbsp; 7 &nbsp; </p><p> Remember, in this case, you would not win or lose ANY points because you did not give them the equipment.  </p><p style=""color:grey"">The text is GREY because you earned ZERO points. </p><p style=""color:red"">However, choosing to give the kids the equipment would have made you win points. The box around the text is RED because you chose the worse option. </p>","","0","instructions","","","","","","","","","","",""
"learning-instructions","20","209136","0.0-8.0-0.0-0.12","6380","2","17","Female","approach_avoid_spark_v1","""event"",""trial"",""time""
""fullscreenenter"",""1"",""3006""
","
","
","""event"",""trial"",""time""
""fullscreenenter"",""1"",""3006""
","
","","","","","","1061.7000000476837","<p> Here is what you might see if you did not give the equipment to the kids but it would have made them sad: </p><p style=""color:grey;font-size:50px; display: inline-block; border-spacing: 15px; border-width:3px; border-style:solid; border-color:green"">  &nbsp; -8 &nbsp; </p><p> Remember, in this case, you would not win or lose ANY points because you did not give them the equipment.  </p><p style=""color:grey"">The text is GREY because you earned ZERO points. </p><p  style=""color:green""> Choosing to give the kids the equipment would have made you lose points. The box around the text is GREEN because you chose the better option.</p>","","0","instructions","","","","","","","","","","",""
"learning-instructions","21","218603","0.0-8.0-0.0-0.13","6380","2","17","Female","approach_avoid_spark_v1","""event"",""trial"",""time""
""fullscreenenter"",""1"",""3006""
","
","
","""event"",""trial"",""time""
""fullscreenenter"",""1"",""3006""
","
","","","","","","689.8000001907349","<p> You will have 3 seconds to make each choice. Try to respond before time runs out! </p><p> You will lose 5 points each time you do not make a response. </p>","","0","instructions","","","","","","","","","","",""
"learning-instructions","22","225012","0.0-8.0-0.0-0.14","6380","2","17","Female","approach_avoid_spark_v1","""event"",""trial"",""time""
""fullscreenenter"",""1"",""3006""
","
","
","""event"",""trial"",""time""
""fullscreenenter"",""1"",""3006""
","
","","","","","","988.5999999046326","<p> This is just a practice round, but in the real game, your bonus payment will depend on your total number of points.","","0","instructions","","","","","","","","","","",""
"learning-instructions","23","231581","0.0-8.0-0.0-0.15","6380","2","17","Female","approach_avoid_spark_v1","""event"",""trial"",""time""
""fullscreenenter"",""1"",""3006""
","
","
","""event"",""trial"",""time""
""fullscreenenter"",""1"",""3006""
","
","","","","","","810.2000000476837","<p> Remember, you can give them the equipment by pressing 1 and choose not to give it to them by pressing 0. </p><br><div class=""choice-instructions-grid""> <div class=""choice-option""><img src=""images/approach.png"" class=""choice-option-img"" stage=""instructions"" position=""0"" ><div class=""choice-option-text""> Press ""1."" </div></div><div class=""choice-option""><img src=""images/avoid.png"" class=""choice-option-img"" stage=""instructions"" position=""1"" ><div class=""choice-option-text""> Press ""0."" </div></div>","","0","instructions","","","","","","","","","","",""
"html-button-response","24","233018","0.0-8.0-1.0","6380","2","17","Female","approach_avoid_spark_v1","""event"",""trial"",""time""
""fullscreenenter"",""1"",""3006""
","
","
","""event"",""trial"",""time""
""fullscreenenter"",""1"",""3006""
","
","","","","","","1330.3000001907349","<p> Ready to practice? </p>","0","","","","","","","","","","","","",""
"html-keyboard-response","25","233627","0.0-8.0-2.0-0.0","6380","2","17","Female","approach_avoid_spark_v1","""event"",""trial"",""time""
""fullscreenenter"",""1"",""3006""
","
","
","""event"",""trial"",""time""
""fullscreenenter"",""1"",""3006""
","
","","","","","","null","<div style=""font-size:60px;"">+</div>","null","","fixation","","","","","","","","","","",""
"aa-learning-trial","26","236637","0.0-8.0-2.0-1.0","6380","2","17","Female","approach_avoid_spark_v1","""event"",""trial"",""time""
""fullscreenenter"",""1"",""3006""
","
","
","""event"",""trial"",""time""
""fullscreenenter"",""1"",""3006""
","
","","","","","","null","images/racket1.png","","","learning","1","-5","","null","practice","practice","practice","-1","","",""
"html-keyboard-response","27","237142","0.0-8.0-2.0-0.1","6380","2","17","Female","approach_avoid_spark_v1","""event"",""trial"",""time""
""fullscreenenter"",""1"",""3006""
","
","
","""event"",""trial"",""time""
""fullscreenenter"",""1"",""3006""
","
","","","","","","null","<div style=""font-size:60px;"">+</div>","null","","fixation","","","","","","","","","","",""
"aa-learning-trial","28","240149","0.0-8.0-2.0-1.1","6380","2","17","Female","approach_avoid_spark_v1","""event"",""trial"",""time""
""fullscreenenter"",""1"",""3006""
","
","
","""event"",""trial"",""time""
""fullscreenenter"",""1"",""3006""
","
","","","","","","1069.5","images/racket3.png","","","learning","-2","-2","1","1","practice","practice","practice","-1","","",""
"html-keyboard-response","29","240654","0.0-8.0-2.0-0.2","6380","2","17","Female","approach_avoid_spark_v1","""event"",""trial"",""time""
""fullscreenenter"",""1"",""3006""
","
","
","""event"",""trial"",""time""
""fullscreenenter"",""1"",""3006""
","
","","","","","","null","<div style=""font-size:60px;"">+</div>","null","","fixation","","","","","","","","","","",""
"aa-learning-trial","30","243659","0.0-8.0-2.0-1.2","6380","2","17","Female","approach_avoid_spark_v1","""event"",""trial"",""time""
""fullscreenenter"",""1"",""3006""
","
","
","""event"",""trial"",""time""
""fullscreenenter"",""1"",""3006""
","
","","","","","","2342.2999999523163","images/ball4.png","","","learning","6","0","0","0","practice","practice","practice","-1","","",""
"html-keyboard-response","31","244165","0.0-8.0-2.0-0.3","6380","2","17","Female","approach_avoid_spark_v1","""event"",""trial"",""time""
""fullscreenenter"",""1"",""3006""
","
","
","""event"",""trial"",""time""
""fullscreenenter"",""1"",""3006""
","
","","","","","","null","<div style=""font-size:60px;"">+</div>","null","","fixation","","","","","","","","","","",""
"aa-learning-trial","32","247173","0.0-8.0-2.0-1.3","6380","2","17","Female","approach_avoid_spark_v1","""event"",""trial"",""time""
""fullscreenenter"",""1"",""3006""
","
","
","""event"",""trial"",""time""
""fullscreenenter"",""1"",""3006""
","
","","","","","","902.0999999046326","images/racket1.png","","","learning","-7","-7","1","1","practice","practice","practice","-1","","",""
"html-keyboard-response","33","247678","0.0-8.0-2.0-0.4","6380","2","17","Female","approach_avoid_spark_v1","""event"",""trial"",""time""
""fullscreenenter"",""1"",""3006""
","
","
","""event"",""trial"",""time""
""fullscreenenter"",""1"",""3006""
","
","","","","","","null","<div style=""font-size:60px;"">+</div>","null","","fixation","","","","","","","","","","",""
"aa-learning-trial","34","250685","0.0-8.0-2.0-1.4","6380","2","17","Female","approach_avoid_spark_v1","""event"",""trial"",""time""
""fullscreenenter"",""1"",""3006""
","
","
","""event"",""trial"",""time""
""fullscreenenter"",""1"",""3006""
","
","","","","","","1777.3999998569489","images/racket2.png","","","learning","-5","0","0","0","practice","practice","practice","-1","","",""
"html-keyboard-response","35","251190","0.0-8.0-2.0-0.5","6380","2","17","Female","approach_avoid_spark_v1","""event"",""trial"",""time""
""fullscreenenter"",""1"",""3006""
","
","
","""event"",""trial"",""time""
""fullscreenenter"",""1"",""3006""
","
","","","","","","null","<div style=""font-size:60px;"">+</div>","null","","fixation","","","","","","","","","","",""
"aa-learning-trial","36","254199","0.0-8.0-2.0-1.5","6380","2","17","Female","approach_avoid_spark_v1","""event"",""trial"",""time""
""fullscreenenter"",""1"",""3006""
","
","
","""event"",""trial"",""time""
""fullscreenenter"",""1"",""3006""
","
","","","","","","1385.3999998569489","images/ball4.png","","","learning","-8","-8","1","1","practice","practice","practice","-1","","",""
"html-keyboard-response","37","254706","0.0-8.0-2.0-0.6","6380","2","17","Female","approach_avoid_spark_v1","""event"",""trial"",""time""
""fullscreenenter"",""1"",""3006""
","
","
","""event"",""trial"",""time""
""fullscreenenter"",""1"",""3006""
","
","","","","","","null","<div style=""font-size:60px;"">+</div>","null","","fixation","","","","","","","","","","",""
"aa-learning-trial","38","257717","0.0-8.0-2.0-1.6","6380","2","17","Female","approach_avoid_spark_v1","""event"",""trial"",""time""
""fullscreenenter"",""1"",""3006""
","
","
","""event"",""trial"",""time""
""fullscreenenter"",""1"",""3006""
","
","","","","","","1655.3999998569489","images/racket4.png","","","learning","1","1","1","1","practice","practice","practice","-1","","",""
"html-keyboard-response","39","258222","0.0-8.0-2.0-0.7","6380","2","17","Female","approach_avoid_spark_v1","""event"",""trial"",""time""
""fullscreenenter"",""1"",""3006""
","
","
","""event"",""trial"",""time""
""fullscreenenter"",""1"",""3006""
","
","","","","","","null","<div style=""font-size:60px;"">+</div>","null","","fixation","","","","","","","","","","",""
"aa-learning-trial","40","261229","0.0-8.0-2.0-1.7","6380","2","17","Female","approach_avoid_spark_v1","""event"",""trial"",""time""
""fullscreenenter"",""1"",""3006""
","
","
","""event"",""trial"",""time""
""fullscreenenter"",""1"",""3006""
","
","","","","","","1969.0999999046326","images/ball1.png","","","learning","5","5","1","1","practice","practice","practice","-1","","",""
"html-keyboard-response","41","261733","0.0-8.0-2.0-0.8","6380","2","17","Female","approach_avoid_spark_v1","""event"",""trial"",""time""
""fullscreenenter"",""1"",""3006""
","
","
","""event"",""trial"",""time""
""fullscreenenter"",""1"",""3006""
","
","","","","","","null","<div style=""font-size:60px;"">+</div>","null","","fixation","","","","","","","","","","",""
"aa-learning-trial","42","264738","0.0-8.0-2.0-1.8","6380","2","17","Female","approach_avoid_spark_v1","""event"",""trial"",""time""
""fullscreenenter"",""1"",""3006""
","
","
","""event"",""trial"",""time""
""fullscreenenter"",""1"",""3006""
","
","","","","","","2718.199999809265","images/ball3.png","","","learning","-8","-8","1","1","practice","practice","practice","-1","","",""
"html-keyboard-response","43","265246","0.0-8.0-2.0-0.9","6380","2","17","Female","approach_avoid_spark_v1","""event"",""trial"",""time""
""fullscreenenter"",""1"",""3006""
","
","
","""event"",""trial"",""time""
""fullscreenenter"",""1"",""3006""
","
","","","","","","null","<div style=""font-size:60px;"">+</div>","null","","fixation","","","","","","","","","","",""
"aa-learning-trial","44","268254","0.0-8.0-2.0-1.9","6380","2","17","Female","approach_avoid_spark_v1","""event"",""trial"",""time""
""fullscreenenter"",""1"",""3006""
","
","
","""event"",""trial"",""time""
""fullscreenenter"",""1"",""3006""
","
","","","","","","2142.7000000476837","images/racket1.png","","","learning","-7","-7","1","1","practice","practice","practice","-1","","",""
"html-keyboard-response","45","268758","0.0-8.0-2.0-0.10","6380","2","17","Female","approach_avoid_spark_v1","""event"",""trial"",""time""
""fullscreenenter"",""1"",""3006""
","
","
","""event"",""trial"",""time""
""fullscreenenter"",""1"",""3006""
","
","","","","","","null","<div style=""font-size:60px;"">+</div>","null","","fixation","","","","","","","","","","",""
"aa-learning-trial","46","271766","0.0-8.0-2.0-1.10","6380","2","17","Female","approach_avoid_spark_v1","""event"",""trial"",""time""
""fullscreenenter"",""1"",""3006""
","
","
","""event"",""trial"",""time""
""fullscreenenter"",""1"",""3006""
","
","","","","","","null","images/ball2.png","","","learning","6","-5","","null","practice","practice","practice","-1","","",""
"html-keyboard-response","47","272268","0.0-8.0-2.0-0.11","6380","2","17","Female","approach_avoid_spark_v1","""event"",""trial"",""time""
""fullscreenenter"",""1"",""3006""
","
","
","""event"",""trial"",""time""
""fullscreenenter"",""1"",""3006""
","
","","","","","","null","<div style=""font-size:60px;"">+</div>","null","","fixation","","","","","","","","","","",""
"aa-learning-trial","48","275280","0.0-8.0-2.0-1.11","6380","2","17","Female","approach_avoid_spark_v1","""event"",""trial"",""time""
""fullscreenenter"",""1"",""3006""
","
","
","""event"",""trial"",""time""
""fullscreenenter"",""1"",""3006""
","
","","","","","","858.7999999523163","images/ball2.png","","","learning","-9","-9","1","1","practice","practice","practice","-1","","",""
"html-button-response","49","277205","0.0-8.0-3.0","6380","2","17","Female","approach_avoid_spark_v1","""event"",""trial"",""time""
""fullscreenenter"",""1"",""3006""
","
","
","""event"",""trial"",""time""
""fullscreenenter"",""1"",""3006""
","
","","","","","","1918.6999998092651","<p> You earned -45 points in the practice round! </p>","0","","break","","","","","","","","","","",""
"learning-instructions","50","285222","0.0-8.0-4.0-0.0","6380","2","17","Female","approach_avoid_spark_v1","""event"",""trial"",""time""
""fullscreenenter"",""1"",""3006""
","
","
","""event"",""trial"",""time""
""fullscreenenter"",""1"",""3006""
","
","","","","","","1168.6999998092651","<p> It's almost time to start the real game. </p><p> Before you start, we're going to ask you a few questions about how the game works. </p>","","0","instructions","","","","","","","","","","",""
"preload","51","287638","0.0-8.0-5.0","6380","2","17","Female","approach_avoid_spark_v1","""event"",""trial"",""time""
""fullscreenenter"",""1"",""3006""
","
","
","""event"",""trial"",""time""
""fullscreenenter"",""1"",""3006""
","
","true","false","[]","[]","[]","","","","","","","","","","","","","","","",""
"comp-q","52","295689","0.0-8.0-6.0-0.0","6380","2","17","Female","approach_avoid_spark_v1","""event"",""trial"",""time""
""fullscreenenter"",""1"",""3006""
","
","
","""event"",""trial"",""time""
""fullscreenenter"",""1"",""3006""
","
","","","","","","3058","<p> <b> True or False? </b> </p><p> If you see a number in GREY, that means you earned that many points. </p>","","1","comp_question","","","","","","","","","true","",""
"comp-q","53","305113","0.0-8.0-6.0-1.0","6380","2","17","Female","approach_avoid_spark_v1","""event"",""trial"",""time""
""fullscreenenter"",""1"",""3006""
","
","
","""event"",""trial"",""time""
""fullscreenenter"",""1"",""3006""
","
","","","","","","1061.9000000953674","<p><b> That's right! </b> If you see a grey number, it means you earned ZERO points. <br> The grey numbers show the points you WOULD HAVE earned if you had made the other choice. </p>","","0","comp_answer","","","","","","","","","","",""
"comp-q","54","310784","0.0-8.0-7.0-0.0","6380","2","17","Female","approach_avoid_spark_v1","""event"",""trial"",""time""
""fullscreenenter"",""1"",""3006""
","
","
","""event"",""trial"",""time""
""fullscreenenter"",""1"",""3006""
","
","","","","","","982.8999998569489","<p> <b> True or False? </b> </p><p> You will have as much time as you want to make each choice. </p>","","1","comp_question","","","","","","","","","true","",""
"comp-q","55","316083","0.0-8.0-7.0-1.0","6380","2","17","Female","approach_avoid_spark_v1","""event"",""trial"",""time""
""fullscreenenter"",""1"",""3006""
","
","
","""event"",""trial"",""time""
""fullscreenenter"",""1"",""3006""
","
","","","","","","1252.2999999523163","<p> <b> That's right! </b> You will only have 3 seconds to make each choice. </p>","","0","comp_answer","","","","","","","","","","",""
"comp-q","56","321941","0.0-8.0-8.0-0.0","6380","2","17","Female","approach_avoid_spark_v1","""event"",""trial"",""time""
""fullscreenenter"",""1"",""3006""
","
","
","""event"",""trial"",""time""
""fullscreenenter"",""1"",""3006""
","
","","","","","","1190.8999998569489","<p> <b> True or False? </b> </p><p> You should use the '1' and '0' keys to make your choices. </p>","","0","comp_question","","","","","","","","","true","",""
"comp-q","57","327356","0.0-8.0-8.0-1.0","6380","2","17","Female","approach_avoid_spark_v1","""event"",""trial"",""time""
""fullscreenenter"",""1"",""3006""
","
","
","""event"",""trial"",""time""
""fullscreenenter"",""1"",""3006""
","
","","","","","","805.5","<p> <b> That's right! </b> You should use the '1' and '0' keys to make each choice. </p>","","0","comp_answer","","","","","","","","","","",""
"learning-instructions","58","335270","0.0-8.0-9.0-0.0","6380","2","17","Female","approach_avoid_spark_v1","""event"",""trial"",""time""
""fullscreenenter"",""1"",""3006""
","
","
","""event"",""trial"",""time""
""fullscreenenter"",""1"",""3006""
","
","","","","","","1639.3000001907349","<p> It's now time to start the real game. </p>Do your best, because the points you earn in the next rounds will influence your bonus payment. </p>","","0","instructions","","","","","","","","","","",""
"preload","59","335402","0.0-9.0-0.0","6380","2","17","Female","approach_avoid_spark_v1","""event"",""trial"",""time""
""fullscreenenter"",""1"",""3006""
","
","
","""event"",""trial"",""time""
""fullscreenenter"",""1"",""3006""
","
","true","false","[]","[]","[]","","","","","","","","","","","","","","","",""
"learning-instructions","60","341261","0.0-9.0-1.0-0.0","6380","2","17","Female","approach_avoid_spark_v1","""event"",""trial"",""time""
""fullscreenenter"",""1"",""3006""
","
","
","""event"",""trial"",""time""
""fullscreenenter"",""1"",""3006""
","
","","","","","","970.9000000953674","<p> Your goal in this round is to take your friend for rides in different vehicles. </p></div>","","0","instructions","","","","","","","","","","",""
"learning-instructions","61","351715","0.0-9.0-1.0-0.1","6380","2","17","Female","approach_avoid_spark_v1","""event"",""trial"",""time""
""fullscreenenter"",""1"",""3006""
","
","
","""event"",""trial"",""time""
""fullscreenenter"",""1"",""3006""
","
","","","","","","715.0999999046326","<p> Your friend enjoys riding in some vehicles but not in others.  </p><p> On each turn, you will see a vehicle.   </p><p> You need to decide whether to take your friend for a ride or not.  </p>","","0","instructions","","","","","","","","","","",""
"learning-instructions","62","358702","0.0-9.0-1.0-0.2","6380","2","17","Female","approach_avoid_spark_v1","""event"",""trial"",""time""
""fullscreenenter"",""1"",""3006""
","
","
","""event"",""trial"",""time""
""fullscreenenter"",""1"",""3006""
","
","","","","","","639.9000000953674","<p> You can take your friend for a ride in the vehicle by pressing 1 and skip the ride by pressing 0. </p><br><div class=""choice-instructions-grid""> <div class=""choice-option""><img src=""images/approach.png"" class=""choice-option-img"" stage=""instructions"" position=""0"" ><div class=""choice-option-text""> Press ""1."" </div></div><div class=""choice-option""><img src=""images/avoid.png"" class=""choice-option-img"" stage=""instructions"" position=""1"" ><div class=""choice-option-text""> Press ""0."" </div></div>","","0","instructions","","","","","","","","","","",""
"learning-instructions","63","368411","0.0-9.0-1.0-0.3","6380","2","17","Female","approach_avoid_spark_v1","""event"",""trial"",""time""
""fullscreenenter"",""1"",""3006""
","
","
","""event"",""trial"",""time""
""fullscreenenter"",""1"",""3006""
","
","","","","","","1101.2000000476837","<p> If you take them for a ride in a vehicle they like, they will be thrilled! </p><p> But if you take them for a ride in a vehicle they do not like, they will be upset. </p>","","0","instructions","","","","","","","","","","",""
"learning-instructions","64","380833","0.0-9.0-1.0-0.4","6380","2","17","Female","approach_avoid_spark_v1","""event"",""trial"",""time""
""fullscreenenter"",""1"",""3006""
","
","
","""event"",""trial"",""time""
""fullscreenenter"",""1"",""3006""
","
","","","","","","906","<p> You will earn points based on how you made your friend feel. </p><p> If you made him thrilled, you will WIN anywhere from 1 - 9 points, </p><p> but if you made him upset, you will LOSE anywhere from 1 - 9 points. </p>","","0","instructions","","","","","","","","","","",""
"learning-instructions","65","389025","0.0-9.0-1.0-0.5","6380","2","17","Female","approach_avoid_spark_v1","""event"",""trial"",""time""
""fullscreenenter"",""1"",""3006""
","
","
","""event"",""trial"",""time""
""fullscreenenter"",""1"",""3006""
","
","","","","","","938.3999998569489","<p> You will see how many points you won or lost in the center of the screen. </p><p> Here is what you would see if you won 5 points: </p><p style=""color:green;font-size:50px;font-weight:bolder"">5</p>","","0","instructions","","","","","","","","","","",""
"learning-instructions","66","392828","0.0-9.0-1.0-0.6","6380","2","17","Female","approach_avoid_spark_v1","""event"",""trial"",""time""
""fullscreenenter"",""1"",""3006""
","
","
","""event"",""trial"",""time""
""fullscreenenter"",""1"",""3006""
","
","","","","","","561.7000000476837","<p> And here is what you would see if you lost 3 points: </p><p style=""color:red;font-size:50px;font-weight:bolder"">-3</p>","","0","instructions","","","","","","","","","","",""
"learning-instructions","67","408444","0.0-9.0-1.0-0.7","6380","2","17","Female","approach_avoid_spark_v1","""event"",""trial"",""time""
""fullscreenenter"",""1"",""3006""
","
","
","""event"",""trial"",""time""
""fullscreenenter"",""1"",""3006""
","
","","","","","","588.5","<p> Some vehicles will make your friend REALLY thrilled or upset. </p><p> These vehicles will make you win or lose LOTS of points. </p><p> Other vehicles will only make him feel a little thrilled or upset. </p><p> These vehicles will make you win or lose small amounts of points. </p>","","0","instructions","","","","","","","","","","",""
"learning-instructions","68","420842","0.0-9.0-1.0-0.8","6380","2","17","Female","approach_avoid_spark_v1","""event"",""trial"",""time""
""fullscreenenter"",""1"",""3006""
","
","
","""event"",""trial"",""time""
""fullscreenenter"",""1"",""3006""
","
","","","","","","797","<p> If you choose to skip the ride, you will not win or lose any points. </p><p>  However, in the center of the screen, you will see the number of points you WOULD HAVE won or lost if you had taken your friend for a ride. </p>","","0","instructions","","","","","","","","","","",""
"learning-instructions","69","432719","0.0-9.0-1.0-0.9","6380","2","17","Female","approach_avoid_spark_v1","""event"",""trial"",""time""
""fullscreenenter"",""1"",""3006""
","
","
","""event"",""trial"",""time""
""fullscreenenter"",""1"",""3006""
","
","","","","","","1172.7999999523163","<p> Here is what you might see if you did not take your friend for a ride but he would have enjoyed it: </p><p style=""color:grey; font-size:50px; display: inline-block; border-spacing: 15px; border-width:3px; border-style:solid; border-color:red"">  &nbsp; 6 &nbsp; </p><p> Remember, in this case, you would not win or lose ANY points because you skipped the ride.  </p>","","0","instructions","","","","","","","","","","",""
"learning-instructions","70","440749","0.0-9.0-1.0-0.10","6380","2","17","Female","approach_avoid_spark_v1","""event"",""trial"",""time""
""fullscreenenter"",""1"",""3006""
","
","
","""event"",""trial"",""time""
""fullscreenenter"",""1"",""3006""
","
","","","","","","604","<p> Try to make the best choice for each vehicle because </p><p> at the end of the game, you will earn bonus money based on how many points you earned. </p>","","0","instructions","","","","","","","","","","",""
"learning-instructions","71","449957","0.0-9.0-1.0-0.11","6380","2","17","Female","approach_avoid_spark_v1","""event"",""trial"",""time""
""fullscreenenter"",""1"",""3006""
","
","
","""event"",""trial"",""time""
""fullscreenenter"",""1"",""3006""
","
","","","","","","1013.4000000953674","<p> You will have 3 seconds to make each choice. Try to respond before time runs out! </p><p> You will lose 5 points each time you do not make a response. </p>","","0","instructions","","","","","","","","","","",""
"html-keyboard-response","72","450566","0.0-9.0-2.0-0.0","6380","2","17","Female","approach_avoid_spark_v1","""event"",""trial"",""time""
""fullscreenenter"",""1"",""3006""
","
","
","""event"",""trial"",""time""
""fullscreenenter"",""1"",""3006""
","
","","","","","","null","<div style=""font-size:60px;"">+</div>","null","","fixation","","","","","","","","","","",""
"aa-learning-trial","73","453575","0.0-9.0-2.0-1.0","6380","2","17","Female","approach_avoid_spark_v1","""event"",""trial"",""time""
""fullscreenenter"",""1"",""3006""
","
","
","""event"",""trial"",""time""
""fullscreenenter"",""1"",""3006""
","
","","","","","","1341.2999999523163","images/train2.png","","","learning","-9","-9","1","1","train","vehicles","2","0","","bad","[-6]"
"html-keyboard-response","74","454080","0.0-9.0-2.0-0.1","6380","2","17","Female","approach_avoid_spark_v1","""event"",""trial"",""time""
""fullscreenenter"",""1"",""3006""
","
","
","""event"",""trial"",""time""
""fullscreenenter"",""1"",""3006""
","
","","","","","","null","<div style=""font-size:60px;"">+</div>","null","","fixation","","","","","","","","","","",""
"aa-learning-trial","75","457095","0.0-9.0-2.0-1.1","6380","2","17","Female","approach_avoid_spark_v1","""event"",""trial"",""time""
""fullscreenenter"",""1"",""3006""
","
","
","""event"",""trial"",""time""
""fullscreenenter"",""1"",""3006""
","
","","","","","","2243.600000143051","images/plane1.png","","","learning","-8","-8","1","1","plane","vehicles","2","0","","neutral","0"
"html-keyboard-response","76","457605","0.0-9.0-2.0-0.2","6380","2","17","Female","approach_avoid_spark_v1","""event"",""trial"",""time""
""fullscreenenter"",""1"",""3006""
","
","
","""event"",""trial"",""time""
""fullscreenenter"",""1"",""3006""
","
","","","","","","null","<div style=""font-size:60px;"">+</div>","null","","fixation","","","","","","","","","","",""
"aa-learning-trial","77","460613","0.0-9.0-2.0-1.2","6380","2","17","Female","approach_avoid_spark_v1","""event"",""trial"",""time""
""fullscreenenter"",""1"",""3006""
","
","
","""event"",""trial"",""time""
""fullscreenenter"",""1"",""3006""
","
","","","","","","1137.6999998092651","images/plane6.png","","","learning","9","9","1","1","plane","vehicles","2","0","","neutral","0"
"html-keyboard-response","78","461117","0.0-9.0-2.0-0.3","6380","2","17","Female","approach_avoid_spark_v1","""event"",""trial"",""time""
""fullscreenenter"",""1"",""3006""
","
","
","""event"",""trial"",""time""
""fullscreenenter"",""1"",""3006""
","
","","","","","","null","<div style=""font-size:60px;"">+</div>","null","","fixation","","","","","","","","","","",""
"aa-learning-trial","79","464128","0.0-9.0-2.0-1.3","6380","2","17","Female","approach_avoid_spark_v1","""event"",""trial"",""time""
""fullscreenenter"",""1"",""3006""
","
","
","""event"",""trial"",""time""
""fullscreenenter"",""1"",""3006""
","
","","","","","","1126.2000000476837","images/plane1.png","","","learning","-8","0","0","0","plane","vehicles","2","0","","neutral","0"
"html-keyboard-response","80","464638","0.0-9.0-2.0-0.4","6380","2","17","Female","approach_avoid_spark_v1","""event"",""trial"",""time""
""fullscreenenter"",""1"",""3006""
","
","
","""event"",""trial"",""time""
""fullscreenenter"",""1"",""3006""
","
","","","","","","null","<div style=""font-size:60px;"">+</div>","null","","fixation","","","","","","","","","","",""
"aa-learning-trial","81","467644","0.0-9.0-2.0-1.4","6380","2","17","Female","approach_avoid_spark_v1","""event"",""trial"",""time""
""fullscreenenter"",""1"",""3006""
","
","
","""event"",""trial"",""time""
""fullscreenenter"",""1"",""3006""
","
","","","","","","1769","images/boat2.png","","","learning","-7","-7","1","1","boat","vehicles","2","0","","good","[5]"
"html-keyboard-response","82","468150","0.0-9.0-2.0-0.5","6380","2","17","Female","approach_avoid_spark_v1","""event"",""trial"",""time""
""fullscreenenter"",""1"",""3006""
","
","
","""event"",""trial"",""time""
""fullscreenenter"",""1"",""3006""
","
","","","","","","null","<div style=""font-size:60px;"">+</div>","null","","fixation","","","","","","","","","","",""
"aa-learning-trial","83","471159","0.0-9.0-2.0-1.5","6380","2","17","Female","approach_avoid_spark_v1","""event"",""trial"",""time""
""fullscreenenter"",""1"",""3006""
","
","
","""event"",""trial"",""time""
""fullscreenenter"",""1"",""3006""
","
","","","","","","1510.4000000953674","images/boat6.png","","","learning","8","0","0","0","boat","vehicles","2","0","","good","[5]"
"html-keyboard-response","84","471671","0.0-9.0-2.0-0.6","6380","2","17","Female","approach_avoid_spark_v1","""event"",""trial"",""time""
""fullscreenenter"",""1"",""3006""
","
","
","""event"",""trial"",""time""
""fullscreenenter"",""1"",""3006""
","
","","","","","","null","<div style=""font-size:60px;"">+</div>","null","","fixation","","","","","","","","","","",""
"aa-learning-trial","85","474679","0.0-9.0-2.0-1.6","6380","2","17","Female","approach_avoid_spark_v1","""event"",""trial"",""time""
""fullscreenenter"",""1"",""3006""
","
","
","""event"",""trial"",""time""
""fullscreenenter"",""1"",""3006""
","
","","","","","","725.5","images/boat2.png","","","learning","-7","-7","1","1","boat","vehicles","2","0","","good","[5]"
"html-keyboard-response","86","475190","0.0-9.0-2.0-0.7","6380","2","17","Female","approach_avoid_spark_v1","""event"",""trial"",""time""
""fullscreenenter"",""1"",""3006""
","
","
","""event"",""trial"",""time""
""fullscreenenter"",""1"",""3006""
","
","","","","","","null","<div style=""font-size:60px;"">+</div>","null","","fixation","","","","","","","","","","",""
"aa-learning-trial","87","478207","0.0-9.0-2.0-1.7","6380","2","17","Female","approach_avoid_spark_v1","""event"",""trial"",""time""
""fullscreenenter"",""1"",""3006""
","
","
","""event"",""trial"",""time""
""fullscreenenter"",""1"",""3006""
","
","","","","","","1403.4000000953674","images/train5.png","","","learning","6","0","0","0","train","vehicles","2","0","","bad","[-6]"
"html-keyboard-response","88","478719","0.0-9.0-2.0-0.8","6380","2","17","Female","approach_avoid_spark_v1","""event"",""trial"",""time""
""fullscreenenter"",""1"",""3006""
","
","
","""event"",""trial"",""time""
""fullscreenenter"",""1"",""3006""
","
","","","","","","null","<div style=""font-size:60px;"">+</div>","null","","fixation","","","","","","","","","","",""
"aa-learning-trial","89","481724","0.0-9.0-2.0-1.8","6380","2","17","Female","approach_avoid_spark_v1","""event"",""trial"",""time""
""fullscreenenter"",""1"",""3006""
","
","
","""event"",""trial"",""time""
""fullscreenenter"",""1"",""3006""
","
","","","","","","814.0999999046326","images/plane6.png","","","learning","9","9","1","1","plane","vehicles","2","0","","neutral","0"
"html-keyboard-response","90","482230","0.0-9.0-2.0-0.9","6380","2","17","Female","approach_avoid_spark_v1","""event"",""trial"",""time""
""fullscreenenter"",""1"",""3006""
","
","
","""event"",""trial"",""time""
""fullscreenenter"",""1"",""3006""
","
","","","","","","null","<div style=""font-size:60px;"">+</div>","null","","fixation","","","","","","","","","","",""
"aa-learning-trial","91","485237","0.0-9.0-2.0-1.9","6380","2","17","Female","approach_avoid_spark_v1","""event"",""trial"",""time""
""fullscreenenter"",""1"",""3006""
","
","
","""event"",""trial"",""time""
""fullscreenenter"",""1"",""3006""
","
","","","","","","1252.0999999046326","images/boat4.png","","","learning","-5","-5","1","1","boat","vehicles","2","0","","good","[5]"
"html-keyboard-response","92","485739","0.0-9.0-2.0-0.10","6380","2","17","Female","approach_avoid_spark_v1","""event"",""trial"",""time""
""fullscreenenter"",""1"",""3006""
","
","
","""event"",""trial"",""time""
""fullscreenenter"",""1"",""3006""
","
","","","","","","null","<div style=""font-size:60px;"">+</div>","null","","fixation","","","","","","","","","","",""
"aa-learning-trial","93","488748","0.0-9.0-2.0-1.10","6380","2","17","Female","approach_avoid_spark_v1","""event"",""trial"",""time""
""fullscreenenter"",""1"",""3006""
","
","
","""event"",""trial"",""time""
""fullscreenenter"",""1"",""3006""
","
","","","","","","1654.0999999046326","images/plane3.png","","","learning","3","0","0","0","plane","vehicles","2","0","","neutral","0"
"html-keyboard-response","94","489253","0.0-9.0-2.0-0.11","6380","2","17","Female","approach_avoid_spark_v1","""event"",""trial"",""time""
""fullscreenenter"",""1"",""3006""
","
","
","""event"",""trial"",""time""
""fullscreenenter"",""1"",""3006""
","
","","","","","","null","<div style=""font-size:60px;"">+</div>","null","","fixation","","","","","","","","","","",""
"aa-learning-trial","95","492261","0.0-9.0-2.0-1.11","6380","2","17","Female","approach_avoid_spark_v1","""event"",""trial"",""time""
""fullscreenenter"",""1"",""3006""
","
","
","""event"",""trial"",""time""
""fullscreenenter"",""1"",""3006""
","
","","","","","","967.1000001430511","images/train2.png","","","learning","-9","-9","1","1","train","vehicles","2","0","","bad","[-6]"
"html-keyboard-response","96","492764","0.0-9.0-2.0-0.12","6380","2","17","Female","approach_avoid_spark_v1","""event"",""trial"",""time""
""fullscreenenter"",""1"",""3006""
","
","
","""event"",""trial"",""time""
""fullscreenenter"",""1"",""3006""
","
","","","","","","null","<div style=""font-size:60px;"">+</div>","null","","fixation","","","","","","","","","","",""
"aa-learning-trial","97","495771","0.0-9.0-2.0-1.12","6380","2","17","Female","approach_avoid_spark_v1","""event"",""trial"",""time""
""fullscreenenter"",""1"",""3006""
","
","
","""event"",""trial"",""time""
""fullscreenenter"",""1"",""3006""
","
","","","","","","1319.1000001430511","images/boat4.png","","","learning","-5","-5","1","1","boat","vehicles","2","0","","good","[5]"
"html-keyboard-response","98","496276","0.0-9.0-2.0-0.13","6380","2","17","Female","approach_avoid_spark_v1","""event"",""trial"",""time""
""fullscreenenter"",""1"",""3006""
","
","
","""event"",""trial"",""time""
""fullscreenenter"",""1"",""3006""
","
","","","","","","null","<div style=""font-size:60px;"">+</div>","null","","fixation","","","","","","","","","","",""
"aa-learning-trial","99","499285","0.0-9.0-2.0-1.13","6380","2","17","Female","approach_avoid_spark_v1","""event"",""trial"",""time""
""fullscreenenter"",""1"",""3006""
","
","
","""event"",""trial"",""time""
""fullscreenenter"",""1"",""3006""
","
","","","","","","663","images/train5.png","","","learning","6","0","0","0","train","vehicles","2","0","","bad","[-6]"
"html-keyboard-response","100","499790","0.0-9.0-2.0-0.14","6380","2","17","Female","approach_avoid_spark_v1","""event"",""trial"",""time""
""fullscreenenter"",""1"",""3006""
","
","
","""event"",""trial"",""time""
""fullscreenenter"",""1"",""3006""
","
","","","","","","null","<div style=""font-size:60px;"">+</div>","null","","fixation","","","","","","","","","","",""
"aa-learning-trial","101","502797","0.0-9.0-2.0-1.14","6380","2","17","Female","approach_avoid_spark_v1","""event"",""trial"",""time""
""fullscreenenter"",""1"",""3006""
","
","
","""event"",""trial"",""time""
""fullscreenenter"",""1"",""3006""
","
","","","","","","1661.7000000476837","images/train7.png","","","learning","4","4","1","1","train","vehicles","2","0","","bad","[-6]"
"html-keyboard-response","102","503301","0.0-9.0-2.0-0.15","6380","2","17","Female","approach_avoid_spark_v1","""event"",""trial"",""time""
""fullscreenenter"",""1"",""3006""
","
","
","""event"",""trial"",""time""
""fullscreenenter"",""1"",""3006""
","
","","","","","","null","<div style=""font-size:60px;"">+</div>","null","","fixation","","","","","","","","","","",""
"aa-learning-trial","103","506310","0.0-9.0-2.0-1.15","6380","2","17","Female","approach_avoid_spark_v1","""event"",""trial"",""time""
""fullscreenenter"",""1"",""3006""
","
","
","""event"",""trial"",""time""
""fullscreenenter"",""1"",""3006""
","
","","","","","","643.8999998569489","images/train5.png","","","learning","6","6","1","1","train","vehicles","2","0","","bad","[-6]"
"html-keyboard-response","104","506813","0.0-9.0-2.0-0.16","6380","2","17","Female","approach_avoid_spark_v1","""event"",""trial"",""time""
""fullscreenenter"",""1"",""3006""
","
","
","""event"",""trial"",""time""
""fullscreenenter"",""1"",""3006""
","
","","","","","","null","<div style=""font-size:60px;"">+</div>","null","","fixation","","","","","","","","","","",""
"aa-learning-trial","105","509818","0.0-9.0-2.0-1.16","6380","2","17","Female","approach_avoid_spark_v1","""event"",""trial"",""time""
""fullscreenenter"",""1"",""3006""
","
","
","""event"",""trial"",""time""
""fullscreenenter"",""1"",""3006""
","
","","","","","","1128.2000000476837","images/plane6.png","","","learning","9","0","0","0","plane","vehicles","2","0","","neutral","0"
"html-keyboard-response","106","510326","0.0-9.0-2.0-0.17","6380","2","17","Female","approach_avoid_spark_v1","""event"",""trial"",""time""
""fullscreenenter"",""1"",""3006""
","
","
","""event"",""trial"",""time""
""fullscreenenter"",""1"",""3006""
","
","","","","","","null","<div style=""font-size:60px;"">+</div>","null","","fixation","","","","","","","","","","",""
"aa-learning-trial","107","513333","0.0-9.0-2.0-1.17","6380","2","17","Female","approach_avoid_spark_v1","""event"",""trial"",""time""
""fullscreenenter"",""1"",""3006""
","
","
","""event"",""trial"",""time""
""fullscreenenter"",""1"",""3006""
","
","","","","","","1124.6000001430511","images/boat7.png","","","learning","5","5","1","1","boat","vehicles","2","0","","good","[5]"
"html-keyboard-response","108","513836","0.0-9.0-2.0-0.18","6380","2","17","Female","approach_avoid_spark_v1","""event"",""trial"",""time""
""fullscreenenter"",""1"",""3006""
","
","
","""event"",""trial"",""time""
""fullscreenenter"",""1"",""3006""
","
","","","","","","null","<div style=""font-size:60px;"">+</div>","null","","fixation","","","","","","","","","","",""
"aa-learning-trial","109","516846","0.0-9.0-2.0-1.18","6380","2","17","Female","approach_avoid_spark_v1","""event"",""trial"",""time""
""fullscreenenter"",""1"",""3006""
","
","
","""event"",""trial"",""time""
""fullscreenenter"",""1"",""3006""
","
","","","","","","673.2999999523163","images/train7.png","","","learning","4","4","1","1","train","vehicles","2","0","","bad","[-6]"
"html-keyboard-response","110","517348","0.0-9.0-2.0-0.19","6380","2","17","Female","approach_avoid_spark_v1","""event"",""trial"",""time""
""fullscreenenter"",""1"",""3006""
","
","
","""event"",""trial"",""time""
""fullscreenenter"",""1"",""3006""
","
","","","","","","null","<div style=""font-size:60px;"">+</div>","null","","fixation","","","","","","","","","","",""
"aa-learning-trial","111","520358","0.0-9.0-2.0-1.19","6380","2","17","Female","approach_avoid_spark_v1","""event"",""trial"",""time""
""fullscreenenter"",""1"",""3006""
","
","
","""event"",""trial"",""time""
""fullscreenenter"",""1"",""3006""
","
","","","","","","1162.2000000476837","images/plane6.png","","","learning","9","9","1","1","plane","vehicles","2","0","","neutral","0"
"html-keyboard-response","112","520865","0.0-9.0-2.0-0.20","6380","2","17","Female","approach_avoid_spark_v1","""event"",""trial"",""time""
""fullscreenenter"",""1"",""3006""
","
","
","""event"",""trial"",""time""
""fullscreenenter"",""1"",""3006""
","
","","","","","","null","<div style=""font-size:60px;"">+</div>","null","","fixation","","","","","","","","","","",""
"aa-learning-trial","113","523877","0.0-9.0-2.0-1.20","6380","2","17","Female","approach_avoid_spark_v1","""event"",""trial"",""time""
""fullscreenenter"",""1"",""3006""
","
","
","""event"",""trial"",""time""
""fullscreenenter"",""1"",""3006""
","
","","","","","","910.5999999046326","images/plane1.png","","","learning","-8","-8","1","1","plane","vehicles","2","0","","neutral","0"
"html-keyboard-response","114","524381","0.0-9.0-2.0-0.21","6380","2","17","Female","approach_avoid_spark_v1","""event"",""trial"",""time""
""fullscreenenter"",""1"",""3006""
","
","
","""event"",""trial"",""time""
""fullscreenenter"",""1"",""3006""
","
","","","","","","null","<div style=""font-size:60px;"">+</div>","null","","fixation","","","","","","","","","","",""
"aa-learning-trial","115","527391","0.0-9.0-2.0-1.21","6380","2","17","Female","approach_avoid_spark_v1","""event"",""trial"",""time""
""fullscreenenter"",""1"",""3006""
","
","
","""event"",""trial"",""time""
""fullscreenenter"",""1"",""3006""
","
","","","","","","1322","images/train2.png","","","learning","-9","0","0","0","train","vehicles","2","0","","bad","[-6]"
"html-keyboard-response","116","527897","0.0-9.0-2.0-0.22","6380","2","17","Female","approach_avoid_spark_v1","""event"",""trial"",""time""
""fullscreenenter"",""1"",""3006""
","
","
","""event"",""trial"",""time""
""fullscreenenter"",""1"",""3006""
","
","","","","","","null","<div style=""font-size:60px;"">+</div>","null","","fixation","","","","","","","","","","",""
"aa-learning-trial","117","530902","0.0-9.0-2.0-1.22","6380","2","17","Female","approach_avoid_spark_v1","""event"",""trial"",""time""
""fullscreenenter"",""1"",""3006""
","
","
","""event"",""trial"",""time""
""fullscreenenter"",""1"",""3006""
","
","","","","","","2962.7000000476837","images/boat4.png","","","learning","-5","-5","1","1","boat","vehicles","2","0","","good","[5]"
"html-keyboard-response","118","531405","0.0-9.0-2.0-0.23","6380","2","17","Female","approach_avoid_spark_v1","""event"",""trial"",""time""
""fullscreenenter"",""1"",""3006""
","
","
","""event"",""trial"",""time""
""fullscreenenter"",""1"",""3006""
","
","","","","","","null","<div style=""font-size:60px;"">+</div>","null","","fixation","","","","","","","","","","",""
"aa-learning-trial","119","534412","0.0-9.0-2.0-1.23","6380","2","17","Female","approach_avoid_spark_v1","""event"",""trial"",""time""
""fullscreenenter"",""1"",""3006""
","
","
","""event"",""trial"",""time""
""fullscreenenter"",""1"",""3006""
","
","","","","","","2268.9000000953674","images/plane1.png","","","learning","-8","0","0","0","plane","vehicles","2","0","","neutral","0"
"html-keyboard-response","120","534917","0.0-9.0-2.0-0.24","6380","2","17","Female","approach_avoid_spark_v1","""event"",""trial"",""time""
""fullscreenenter"",""1"",""3006""
","
","
","""event"",""trial"",""time""
""fullscreenenter"",""1"",""3006""
","
","","","","","","null","<div style=""font-size:60px;"">+</div>","null","","fixation","","","","","","","","","","",""
"aa-learning-trial","121","537926","0.0-9.0-2.0-1.24","6380","2","17","Female","approach_avoid_spark_v1","""event"",""trial"",""time""
""fullscreenenter"",""1"",""3006""
","
","
","""event"",""trial"",""time""
""fullscreenenter"",""1"",""3006""
","
","","","","","","1030.7999999523163","images/plane3.png","","","learning","3","3","1","1","plane","vehicles","2","0","","neutral","0"
"html-keyboard-response","122","538429","0.0-9.0-2.0-0.25","6380","2","17","Female","approach_avoid_spark_v1","""event"",""trial"",""time""
""fullscreenenter"",""1"",""3006""
","
","
","""event"",""trial"",""time""
""fullscreenenter"",""1"",""3006""
","
","","","","","","null","<div style=""font-size:60px;"">+</div>","null","","fixation","","","","","","","","","","",""
"aa-learning-trial","123","541439","0.0-9.0-2.0-1.25","6380","2","17","Female","approach_avoid_spark_v1","""event"",""trial"",""time""
""fullscreenenter"",""1"",""3006""
","
","
","""event"",""trial"",""time""
""fullscreenenter"",""1"",""3006""
","
","","","","","","1256.2000000476837","images/boat4.png","","","learning","-5","0","0","0","boat","vehicles","2","0","","good","[5]"
"html-keyboard-response","124","541943","0.0-9.0-2.0-0.26","6380","2","17","Female","approach_avoid_spark_v1","""event"",""trial"",""time""
""fullscreenenter"",""1"",""3006""
","
","
","""event"",""trial"",""time""
""fullscreenenter"",""1"",""3006""
","
","","","","","","null","<div style=""font-size:60px;"">+</div>","null","","fixation","","","","","","","","","","",""
"aa-learning-trial","125","544950","0.0-9.0-2.0-1.26","6380","2","17","Female","approach_avoid_spark_v1","""event"",""trial"",""time""
""fullscreenenter"",""1"",""3006""
","
","
","""event"",""trial"",""time""
""fullscreenenter"",""1"",""3006""
","
","","","","","","1088.0999999046326","images/train3.png","","","learning","-4","-4","1","1","train","vehicles","2","0","","bad","[-6]"
"html-keyboard-response","126","545454","0.0-9.0-2.0-0.27","6380","2","17","Female","approach_avoid_spark_v1","""event"",""trial"",""time""
""fullscreenenter"",""1"",""3006""
","
","
","""event"",""trial"",""time""
""fullscreenenter"",""1"",""3006""
","
","","","","","","null","<div style=""font-size:60px;"">+</div>","null","","fixation","","","","","","","","","","",""
"aa-learning-trial","127","548459","0.0-9.0-2.0-1.27","6380","2","17","Female","approach_avoid_spark_v1","""event"",""trial"",""time""
""fullscreenenter"",""1"",""3006""
","
","
","""event"",""trial"",""time""
""fullscreenenter"",""1"",""3006""
","
","","","","","","1492.2000000476837","images/train2.png","","","learning","-9","0","0","0","train","vehicles","2","0","","bad","[-6]"
"html-keyboard-response","128","548965","0.0-9.0-2.0-0.28","6380","2","17","Female","approach_avoid_spark_v1","""event"",""trial"",""time""
""fullscreenenter"",""1"",""3006""
","
","
","""event"",""trial"",""time""
""fullscreenenter"",""1"",""3006""
","
","","","","","","null","<div style=""font-size:60px;"">+</div>","null","","fixation","","","","","","","","","","",""
"aa-learning-trial","129","551974","0.0-9.0-2.0-1.28","6380","2","17","Female","approach_avoid_spark_v1","""event"",""trial"",""time""
""fullscreenenter"",""1"",""3006""
","
","
","""event"",""trial"",""time""
""fullscreenenter"",""1"",""3006""
","
","","","","","","1418.9000000953674","images/train8.png","","","learning","2","2","1","1","train","vehicles","2","0","","bad","[-6]"
"html-keyboard-response","130","552476","0.0-9.0-2.0-0.29","6380","2","17","Female","approach_avoid_spark_v1","""event"",""trial"",""time""
""fullscreenenter"",""1"",""3006""
","
","
","""event"",""trial"",""time""
""fullscreenenter"",""1"",""3006""
","
","","","","","","null","<div style=""font-size:60px;"">+</div>","null","","fixation","","","","","","","","","","",""
"aa-learning-trial","131","555486","0.0-9.0-2.0-1.29","6380","2","17","Female","approach_avoid_spark_v1","""event"",""trial"",""time""
""fullscreenenter"",""1"",""3006""
","
","
","""event"",""trial"",""time""
""fullscreenenter"",""1"",""3006""
","
","","","","","","738.2999999523163","images/plane6.png","","","learning","9","9","1","1","plane","vehicles","2","0","","neutral","0"
"html-keyboard-response","132","555989","0.0-9.0-2.0-0.30","6380","2","17","Female","approach_avoid_spark_v1","""event"",""trial"",""time""
""fullscreenenter"",""1"",""3006""
","
","
","""event"",""trial"",""time""
""fullscreenenter"",""1"",""3006""
","
","","","","","","null","<div style=""font-size:60px;"">+</div>","null","","fixation","","","","","","","","","","",""
"aa-learning-trial","133","558998","0.0-9.0-2.0-1.30","6380","2","17","Female","approach_avoid_spark_v1","""event"",""trial"",""time""
""fullscreenenter"",""1"",""3006""
","
","
","""event"",""trial"",""time""
""fullscreenenter"",""1"",""3006""
","
","","","","","","993.5","images/boat2.png","","","learning","-7","-7","1","1","boat","vehicles","2","0","","good","[5]"
"html-keyboard-response","134","559503","0.0-9.0-2.0-0.31","6380","2","17","Female","approach_avoid_spark_v1","""event"",""trial"",""time""
""fullscreenenter"",""1"",""3006""
","
","
","""event"",""trial"",""time""
""fullscreenenter"",""1"",""3006""
","
","","","","","","null","<div style=""font-size:60px;"">+</div>","null","","fixation","","","","","","","","","","",""
"aa-learning-trial","135","562511","0.0-9.0-2.0-1.31","6380","2","17","Female","approach_avoid_spark_v1","""event"",""trial"",""time""
""fullscreenenter"",""1"",""3006""
","
","
","""event"",""trial"",""time""
""fullscreenenter"",""1"",""3006""
","
","","","","","","1023.5","images/plane3.png","","","learning","3","3","1","1","plane","vehicles","2","0","","neutral","0"
"html-keyboard-response","136","563014","0.0-9.0-2.0-0.32","6380","2","17","Female","approach_avoid_spark_v1","""event"",""trial"",""time""
""fullscreenenter"",""1"",""3006""
","
","
","""event"",""trial"",""time""
""fullscreenenter"",""1"",""3006""
","
","","","","","","null","<div style=""font-size:60px;"">+</div>","null","","fixation","","","","","","","","","","",""
"aa-learning-trial","137","566022","0.0-9.0-2.0-1.32","6380","2","17","Female","approach_avoid_spark_v1","""event"",""trial"",""time""
""fullscreenenter"",""1"",""3006""
","
","
","""event"",""trial"",""time""
""fullscreenenter"",""1"",""3006""
","
","","","","","","932.1000001430511","images/boat4.png","","","learning","-5","-5","1","1","boat","vehicles","2","0","","good","[5]"
"html-keyboard-response","138","566526","0.0-9.0-2.0-0.33","6380","2","17","Female","approach_avoid_spark_v1","""event"",""trial"",""time""
""fullscreenenter"",""1"",""3006""
","
","
","""event"",""trial"",""time""
""fullscreenenter"",""1"",""3006""
","
","","","","","","null","<div style=""font-size:60px;"">+</div>","null","","fixation","","","","","","","","","","",""
"aa-learning-trial","139","569534","0.0-9.0-2.0-1.33","6380","2","17","Female","approach_avoid_spark_v1","""event"",""trial"",""time""
""fullscreenenter"",""1"",""3006""
","
","
","""event"",""trial"",""time""
""fullscreenenter"",""1"",""3006""
","
","","","","","","1052","images/train2.png","","","learning","-9","-9","1","1","train","vehicles","2","0","","bad","[-6]"
"html-keyboard-response","140","570037","0.0-9.0-2.0-0.34","6380","2","17","Female","approach_avoid_spark_v1","""event"",""trial"",""time""
""fullscreenenter"",""1"",""3006""
","
","
","""event"",""trial"",""time""
""fullscreenenter"",""1"",""3006""
","
","","","","","","null","<div style=""font-size:60px;"">+</div>","null","","fixation","","","","","","","","","","",""
"aa-learning-trial","141","573046","0.0-9.0-2.0-1.34","6380","2","17","Female","approach_avoid_spark_v1","""event"",""trial"",""time""
""fullscreenenter"",""1"",""3006""
","
","
","""event"",""trial"",""time""
""fullscreenenter"",""1"",""3006""
","
","","","","","","1065.9000000953674","images/boat4.png","","","learning","-5","0","0","0","boat","vehicles","2","0","","good","[5]"
"html-keyboard-response","142","573551","0.0-9.0-2.0-0.35","6380","2","17","Female","approach_avoid_spark_v1","""event"",""trial"",""time""
""fullscreenenter"",""1"",""3006""
","
","
","""event"",""trial"",""time""
""fullscreenenter"",""1"",""3006""
","
","","","","","","null","<div style=""font-size:60px;"">+</div>","null","","fixation","","","","","","","","","","",""
"aa-learning-trial","143","576558","0.0-9.0-2.0-1.35","6380","2","17","Female","approach_avoid_spark_v1","""event"",""trial"",""time""
""fullscreenenter"",""1"",""3006""
","
","
","""event"",""trial"",""time""
""fullscreenenter"",""1"",""3006""
","
","","","","","","1245","images/boat2.png","","","learning","-7","-7","1","1","boat","vehicles","2","0","","good","[5]"
"html-keyboard-response","144","577063","0.0-9.0-2.0-0.36","6380","2","17","Female","approach_avoid_spark_v1","""event"",""trial"",""time""
""fullscreenenter"",""1"",""3006""
","
","
","""event"",""trial"",""time""
""fullscreenenter"",""1"",""3006""
","
","","","","","","null","<div style=""font-size:60px;"">+</div>","null","","fixation","","","","","","","","","","",""
"aa-learning-trial","145","580070","0.0-9.0-2.0-1.36","6380","2","17","Female","approach_avoid_spark_v1","""event"",""trial"",""time""
""fullscreenenter"",""1"",""3006""
","
","
","""event"",""trial"",""time""
""fullscreenenter"",""1"",""3006""
","
","","","","","","616.8999998569489","images/boat2.png","","","learning","-7","0","0","0","boat","vehicles","2","0","","good","[5]"
"html-keyboard-response","146","580574","0.0-9.0-2.0-0.37","6380","2","17","Female","approach_avoid_spark_v1","""event"",""trial"",""time""
""fullscreenenter"",""1"",""3006""
","
","
","""event"",""trial"",""time""
""fullscreenenter"",""1"",""3006""
","
","","","","","","null","<div style=""font-size:60px;"">+</div>","null","","fixation","","","","","","","","","","",""
"aa-learning-trial","147","583582","0.0-9.0-2.0-1.37","6380","2","17","Female","approach_avoid_spark_v1","""event"",""trial"",""time""
""fullscreenenter"",""1"",""3006""
","
","
","""event"",""trial"",""time""
""fullscreenenter"",""1"",""3006""
","
","","","","","","792.5","images/plane1.png","","","learning","-8","0","0","0","plane","vehicles","2","0","","neutral","0"
"html-keyboard-response","148","584086","0.0-9.0-2.0-0.38","6380","2","17","Female","approach_avoid_spark_v1","""event"",""trial"",""time""
""fullscreenenter"",""1"",""3006""
","
","
","""event"",""trial"",""time""
""fullscreenenter"",""1"",""3006""
","
","","","","","","null","<div style=""font-size:60px;"">+</div>","null","","fixation","","","","","","","","","","",""
"aa-learning-trial","149","587094","0.0-9.0-2.0-1.38","6380","2","17","Female","approach_avoid_spark_v1","""event"",""trial"",""time""
""fullscreenenter"",""1"",""3006""
","
","
","""event"",""trial"",""time""
""fullscreenenter"",""1"",""3006""
","
","","","","","","826.3000001907349","images/train7.png","","","learning","4","4","1","1","train","vehicles","2","0","","bad","[-6]"
"html-keyboard-response","150","587599","0.0-9.0-2.0-0.39","6380","2","17","Female","approach_avoid_spark_v1","""event"",""trial"",""time""
""fullscreenenter"",""1"",""3006""
","
","
","""event"",""trial"",""time""
""fullscreenenter"",""1"",""3006""
","
","","","","","","null","<div style=""font-size:60px;"">+</div>","null","","fixation","","","","","","","","","","",""
"aa-learning-trial","151","590607","0.0-9.0-2.0-1.39","6380","2","17","Female","approach_avoid_spark_v1","""event"",""trial"",""time""
""fullscreenenter"",""1"",""3006""
","
","
","""event"",""trial"",""time""
""fullscreenenter"",""1"",""3006""
","
","","","","","","576.5","images/train5.png","","","learning","6","6","1","1","train","vehicles","2","0","","bad","[-6]"
"html-keyboard-response","152","591117","0.0-9.0-2.0-0.40","6380","2","17","Female","approach_avoid_spark_v1","""event"",""trial"",""time""
""fullscreenenter"",""1"",""3006""
","
","
","""event"",""trial"",""time""
""fullscreenenter"",""1"",""3006""
","
","","","","","","null","<div style=""font-size:60px;"">+</div>","null","","fixation","","","","","","","","","","",""
"aa-learning-trial","153","594126","0.0-9.0-2.0-1.40","6380","2","17","Female","approach_avoid_spark_v1","""event"",""trial"",""time""
""fullscreenenter"",""1"",""3006""
","
","
","""event"",""trial"",""time""
""fullscreenenter"",""1"",""3006""
","
","","","","","","866.1000001430511","images/plane6.png","","","learning","9","9","1","1","plane","vehicles","2","0","","neutral","0"
"html-keyboard-response","154","594629","0.0-9.0-2.0-0.41","6380","2","17","Female","approach_avoid_spark_v1","""event"",""trial"",""time""
""fullscreenenter"",""1"",""3006""
","
","
","""event"",""trial"",""time""
""fullscreenenter"",""1"",""3006""
","
","","","","","","null","<div style=""font-size:60px;"">+</div>","null","","fixation","","","","","","","","","","",""
"aa-learning-trial","155","597632","0.0-9.0-2.0-1.41","6380","2","17","Female","approach_avoid_spark_v1","""event"",""trial"",""time""
""fullscreenenter"",""1"",""3006""
","
","
","""event"",""trial"",""time""
""fullscreenenter"",""1"",""3006""
","
","","","","","","624.2999999523163","images/train5.png","","","learning","6","6","1","1","train","vehicles","2","0","","bad","[-6]"
"html-keyboard-response","156","598141","0.0-9.0-2.0-0.42","6380","2","17","Female","approach_avoid_spark_v1","""event"",""trial"",""time""
""fullscreenenter"",""1"",""3006""
","
","
","""event"",""trial"",""time""
""fullscreenenter"",""1"",""3006""
","
","","","","","","null","<div style=""font-size:60px;"">+</div>","null","","fixation","","","","","","","","","","",""
"aa-learning-trial","157","601149","0.0-9.0-2.0-1.42","6380","2","17","Female","approach_avoid_spark_v1","""event"",""trial"",""time""
""fullscreenenter"",""1"",""3006""
","
","
","""event"",""trial"",""time""
""fullscreenenter"",""1"",""3006""
","
","","","","","","1230.4000000953674","images/boat2.png","","","learning","-7","-7","1","1","boat","vehicles","2","0","","good","[5]"
"html-keyboard-response","158","601653","0.0-9.0-2.0-0.43","6380","2","17","Female","approach_avoid_spark_v1","""event"",""trial"",""time""
""fullscreenenter"",""1"",""3006""
","
","
","""event"",""trial"",""time""
""fullscreenenter"",""1"",""3006""
","
","","","","","","null","<div style=""font-size:60px;"">+</div>","null","","fixation","","","","","","","","","","",""
"aa-learning-trial","159","604663","0.0-9.0-2.0-1.43","6380","2","17","Female","approach_avoid_spark_v1","""event"",""trial"",""time""
""fullscreenenter"",""1"",""3006""
","
","
","""event"",""trial"",""time""
""fullscreenenter"",""1"",""3006""
","
","","","","","","625.9000000953674","images/plane1.png","","","learning","-8","0","0","0","plane","vehicles","2","0","","neutral","0"
"html-keyboard-response","160","605174","0.0-9.0-2.0-0.44","6380","2","17","Female","approach_avoid_spark_v1","""event"",""trial"",""time""
""fullscreenenter"",""1"",""3006""
","
","
","""event"",""trial"",""time""
""fullscreenenter"",""1"",""3006""
","
","","","","","","null","<div style=""font-size:60px;"">+</div>","null","","fixation","","","","","","","","","","",""
"aa-learning-trial","161","608181","0.0-9.0-2.0-1.44","6380","2","17","Female","approach_avoid_spark_v1","""event"",""trial"",""time""
""fullscreenenter"",""1"",""3006""
","
","
","""event"",""trial"",""time""
""fullscreenenter"",""1"",""3006""
","
","","","","","","739.3999998569489","images/train5.png","","","learning","6","6","1","1","train","vehicles","2","0","","bad","[-6]"
"html-keyboard-response","162","608685","0.0-9.0-2.0-0.45","6380","2","17","Female","approach_avoid_spark_v1","""event"",""trial"",""time""
""fullscreenenter"",""1"",""3006""
","
","
","""event"",""trial"",""time""
""fullscreenenter"",""1"",""3006""
","
","","","","","","null","<div style=""font-size:60px;"">+</div>","null","","fixation","","","","","","","","","","",""
"aa-learning-trial","163","611694","0.0-9.0-2.0-1.45","6380","2","17","Female","approach_avoid_spark_v1","""event"",""trial"",""time""
""fullscreenenter"",""1"",""3006""
","
","
","""event"",""trial"",""time""
""fullscreenenter"",""1"",""3006""
","
","","","","","","1747","images/boat6.png","","","learning","8","8","1","1","boat","vehicles","2","0","","good","[5]"
"html-keyboard-response","164","612197","0.0-9.0-2.0-0.46","6380","2","17","Female","approach_avoid_spark_v1","""event"",""trial"",""time""
""fullscreenenter"",""1"",""3006""
","
","
","""event"",""trial"",""time""
""fullscreenenter"",""1"",""3006""
","
","","","","","","null","<div style=""font-size:60px;"">+</div>","null","","fixation","","","","","","","","","","",""
"aa-learning-trial","165","615206","0.0-9.0-2.0-1.46","6380","2","17","Female","approach_avoid_spark_v1","""event"",""trial"",""time""
""fullscreenenter"",""1"",""3006""
","
","
","""event"",""trial"",""time""
""fullscreenenter"",""1"",""3006""
","
","","","","","","870.8000001907349","images/boat8.png","","","learning","-2","-2","1","1","boat","vehicles","2","0","","good","[5]"
"html-keyboard-response","166","615709","0.0-9.0-2.0-0.47","6380","2","17","Female","approach_avoid_spark_v1","""event"",""trial"",""time""
""fullscreenenter"",""1"",""3006""
","
","
","""event"",""trial"",""time""
""fullscreenenter"",""1"",""3006""
","
","","","","","","null","<div style=""font-size:60px;"">+</div>","null","","fixation","","","","","","","","","","",""
"aa-learning-trial","167","618717","0.0-9.0-2.0-1.47","6380","2","17","Female","approach_avoid_spark_v1","""event"",""trial"",""time""
""fullscreenenter"",""1"",""3006""
","
","
","""event"",""trial"",""time""
""fullscreenenter"",""1"",""3006""
","
","","","","","","1406.7999999523163","images/plane7.png","","","learning","-1","-1","1","1","plane","vehicles","2","0","","neutral","0"
"html-keyboard-response","168","619221","0.0-9.0-2.0-0.48","6380","2","17","Female","approach_avoid_spark_v1","""event"",""trial"",""time""
""fullscreenenter"",""1"",""3006""
","
","
","""event"",""trial"",""time""
""fullscreenenter"",""1"",""3006""
","
","","","","","","null","<div style=""font-size:60px;"">+</div>","null","","fixation","","","","","","","","","","",""
"aa-learning-trial","169","622226","0.0-9.0-2.0-1.48","6380","2","17","Female","approach_avoid_spark_v1","""event"",""trial"",""time""
""fullscreenenter"",""1"",""3006""
","
","
","""event"",""trial"",""time""
""fullscreenenter"",""1"",""3006""
","
","","","","","","1601","images/plane8.png","","","learning","-3","0","0","0","plane","vehicles","2","0","","neutral","0"
"html-keyboard-response","170","622733","0.0-9.0-2.0-0.49","6380","2","17","Female","approach_avoid_spark_v1","""event"",""trial"",""time""
""fullscreenenter"",""1"",""3006""
","
","
","""event"",""trial"",""time""
""fullscreenenter"",""1"",""3006""
","
","","","","","","null","<div style=""font-size:60px;"">+</div>","null","","fixation","","","","","","","","","","",""
"aa-learning-trial","171","625742","0.0-9.0-2.0-1.49","6380","2","17","Female","approach_avoid_spark_v1","""event"",""trial"",""time""
""fullscreenenter"",""1"",""3006""
","
","
","""event"",""trial"",""time""
""fullscreenenter"",""1"",""3006""
","
","","","","","","1196.2000000476837","images/train2.png","","","learning","-9","0","0","0","train","vehicles","2","0","","bad","[-6]"
"html-keyboard-response","172","626244","0.0-9.0-2.0-0.50","6380","2","17","Female","approach_avoid_spark_v1","""event"",""trial"",""time""
""fullscreenenter"",""1"",""3006""
","
","
","""event"",""trial"",""time""
""fullscreenenter"",""1"",""3006""
","
","","","","","","null","<div style=""font-size:60px;"">+</div>","null","","fixation","","","","","","","","","","",""
"aa-learning-trial","173","629255","0.0-9.0-2.0-1.50","6380","2","17","Female","approach_avoid_spark_v1","""event"",""trial"",""time""
""fullscreenenter"",""1"",""3006""
","
","
","""event"",""trial"",""time""
""fullscreenenter"",""1"",""3006""
","
","","","","","","1574.2000000476837","images/boat6.png","","","learning","8","8","1","1","boat","vehicles","2","0","","good","[5]"
"html-button-response","174","632624","0.0-9.0-3.0","6380","2","17","Female","approach_avoid_spark_v1","""event"",""trial"",""time""
""fullscreenenter"",""1"",""3006""
","
","
","""event"",""trial"",""time""
""fullscreenenter"",""1"",""3006""
","
","","","","","","3361.600000143051","<p> You have completed the round! <p> In this round, you earned 5 points! </p>","0","","break","","","","","","","","","","",""
"html-button-response","175","633707","0.0-10.0","6380","2","17","Female","approach_avoid_spark_v1","""event"",""trial"",""time""
""fullscreenenter"",""1"",""3006""
","
","
","""event"",""trial"",""time""
""fullscreenenter"",""1"",""3006""
","
","","","","","","1081.3999998569489","<p> Now it's time to play another round. </p>","0","","transition_screen","","","","","","","","","","",""
"preload","176","633848","0.0-11.0-0.0","6380","2","17","Female","approach_avoid_spark_v1","""event"",""trial"",""time""
""fullscreenenter"",""1"",""3006""
","
","
","""event"",""trial"",""time""
""fullscreenenter"",""1"",""3006""
","
","true","false","[]","[]","[]","","","","","","","","","","","","","","","",""
"learning-instructions","177","639454","0.0-11.0-1.0-0.0","6380","2","17","Female","approach_avoid_spark_v1","""event"",""trial"",""time""
""fullscreenenter"",""1"",""3006""
","
","
","""event"",""trial"",""time""
""fullscreenenter"",""1"",""3006""
","
","","","","","","1060.3999998569489","<p> Your goal in this round is to eat tasty fruit. </p></div>","","0","instructions","","","","","","","","","","",""
"learning-instructions","178","650496","0.0-11.0-1.0-0.1","6380","2","17","Female","approach_avoid_spark_v1","""event"",""trial"",""time""
""fullscreenenter"",""1"",""3006""
","
","
","""event"",""trial"",""time""
""fullscreenenter"",""1"",""3006""
","
","","","","","","1593","<p> Some of the fruits you will see are tasty. Others are rotten on the inside.  </p><p> On each turn, you will see a fruit.   </p><p> You need to decide whether to eat it or not.  </p>","","0","instructions","","","","","","","","","","",""
"learning-instructions","179","656665","0.0-11.0-1.0-0.2","6380","2","17","Female","approach_avoid_spark_v1","""event"",""trial"",""time""
""fullscreenenter"",""1"",""3006""
","
","
","""event"",""trial"",""time""
""fullscreenenter"",""1"",""3006""
","
","","","","","","1550.5","<p> You can eat the fruit by pressing 1 and choose not to eat it by pressing 0. </p><br><div class=""choice-instructions-grid""> <div class=""choice-option""><img src=""images/approach.png"" class=""choice-option-img"" stage=""instructions"" position=""0"" ><div class=""choice-option-text""> Press ""1."" </div></div><div class=""choice-option""><img src=""images/avoid.png"" class=""choice-option-img"" stage=""instructions"" position=""1"" ><div class=""choice-option-text""> Press ""0."" </div></div>","","0","instructions","","","","","","","","","","",""
"learning-instructions","180","664430","0.0-11.0-1.0-0.3","6380","2","17","Female","approach_avoid_spark_v1","""event"",""trial"",""time""
""fullscreenenter"",""1"",""3006""
","
","
","""event"",""trial"",""time""
""fullscreenenter"",""1"",""3006""
","
","","","","","","695.5","<p> If you eat the fruit and it was tasty, you will win points! </p><p> But if you eat the fruit and it was rotten, you will lose points. </p>","","0","instructions","","","","","","","","","","",""
"learning-instructions","181","675945","0.0-11.0-1.0-0.4","6380","2","17","Female","approach_avoid_spark_v1","""event"",""trial"",""time""
""fullscreenenter"",""1"",""3006""
","
","
","""event"",""trial"",""time""
""fullscreenenter"",""1"",""3006""
","
","","","","","","640.7999999523163","<p> You will earn points based on how tasty or rotten the fruit was. </p><p> If it was tasty, you will WIN anywhere from 1 - 9 points, </p><p> but if it was rotten, you will LOSE anywhere from 1 - 9 points. </p>","","0","instructions","","","","","","","","","","",""
"learning-instructions","182","684379","0.0-11.0-1.0-0.5","6380","2","17","Female","approach_avoid_spark_v1","""event"",""trial"",""time""
""fullscreenenter"",""1"",""3006""
","
","
","""event"",""trial"",""time""
""fullscreenenter"",""1"",""3006""
","
","","","","","","1787.3999998569489","<p> You will see how many points you won or lost in the center of the screen. </p><p> Here is what you would see if you earned 5 points: </p><p style=""color:green;font-size:50px;font-weight:bolder"">5</p>","","0","instructions","","","","","","","","","","",""
"learning-instructions","183","687934","0.0-11.0-1.0-0.6","6380","2","17","Female","approach_avoid_spark_v1","""event"",""trial"",""time""
""fullscreenenter"",""1"",""3006""
","
","
","""event"",""trial"",""time""
""fullscreenenter"",""1"",""3006""
","
","","","","","","724.2000000476837","<p> And here is what you would see if you lost 3 points: </p><p style=""color:red;font-size:50px;font-weight:bolder"">-3</p>","","0","instructions","","","","","","","","","","",""
"learning-instructions","184","702386","0.0-11.0-1.0-0.7","6380","2","17","Female","approach_avoid_spark_v1","""event"",""trial"",""time""
""fullscreenenter"",""1"",""3006""
","
","
","""event"",""trial"",""time""
""fullscreenenter"",""1"",""3006""
","
","","","","","","1155.6000001430511","<p> Some fruit is very tasty or very rotten. </p><p> These fruits will make you win or lose LOTS of points. </p><p> Other fruits are only kind of tasty or kind of rotten. </p><p> These fruits will make you win or lose small amounts of points. </p>","","0","instructions","","","","","","","","","","",""
"learning-instructions","185","714037","0.0-11.0-1.0-0.8","6380","2","17","Female","approach_avoid_spark_v1","""event"",""trial"",""time""
""fullscreenenter"",""1"",""3006""
","
","
","""event"",""trial"",""time""
""fullscreenenter"",""1"",""3006""
","
","","","","","","1626.6000001430511","<p> If you choose to not eat the fruit, you will not win or lose any points. </p><p>  However, in the center of the screen, you will see the number of points you WOULD HAVE earned if you had eaten the fruit. </p>","","0","instructions","","","","","","","","","","",""
"learning-instructions","186","724227","0.0-11.0-1.0-0.9","6380","2","17","Female","approach_avoid_spark_v1","""event"",""trial"",""time""
""fullscreenenter"",""1"",""3006""
","
","
","""event"",""trial"",""time""
""fullscreenenter"",""1"",""3006""
","
","","","","","","696.1999998092651","<p> Here is what you might see if you did not eat the fruit but the fruit was tasty: </p><p style=""color:grey; font-size:50px; display: inline-block; border-spacing: 15px; border-width:3px; border-style:solid; border-color:red"">  &nbsp; 6 &nbsp; </p><p> Remember, in this case, you would not win or lose ANY points because you did not eat the fruit.  </p>","","0","instructions","","","","","","","","","","",""
"learning-instructions","187","732621","0.0-11.0-1.0-0.10","6380","2","17","Female","approach_avoid_spark_v1","""event"",""trial"",""time""
""fullscreenenter"",""1"",""3006""
","
","
","""event"",""trial"",""time""
""fullscreenenter"",""1"",""3006""
","
","","","","","","852.2000000476837","<p> Try to make the best choice for each fruit because </p><p> at the end of the game, you will earn bonus money based on how many points you earned. </p>","","0","instructions","","","","","","","","","","",""
"learning-instructions","188","741585","0.0-11.0-1.0-0.11","6380","2","17","Female","approach_avoid_spark_v1","""event"",""trial"",""time""
""fullscreenenter"",""1"",""3006""
","
","
","""event"",""trial"",""time""
""fullscreenenter"",""1"",""3006""
","
","","","","","","765.9000000953674","<p> You will have 3 seconds to make each choice. Try to respond before time runs out! </p><p> You will lose 5 points each time you do not make a response. </p>","","0","instructions","","","","","","","","","","",""
"html-keyboard-response","189","742198","0.0-11.0-2.0-0.0","6380","2","17","Female","approach_avoid_spark_v1","""event"",""trial"",""time""
""fullscreenenter"",""1"",""3006""
","
","
","""event"",""trial"",""time""
""fullscreenenter"",""1"",""3006""
","
","","","","","","null","<div style=""font-size:60px;"">+</div>","null","","fixation","","","","","","","","","","",""
"aa-learning-trial","190","745206","0.0-11.0-2.0-1.0","6380","2","17","Female","approach_avoid_spark_v1","""event"",""trial"",""time""
""fullscreenenter"",""1"",""3006""
","
","
","""event"",""trial"",""time""
""fullscreenenter"",""1"",""3006""
","
","","","","","","1035.2999999523163","images/banana8.png","","","learning","-4","-4","1","1","banana","fruit","1","1","","bad","[-4]"
"html-keyboard-response","191","745709","0.0-11.0-2.0-0.1","6380","2","17","Female","approach_avoid_spark_v1","""event"",""trial"",""time""
""fullscreenenter"",""1"",""3006""
","
","
","""event"",""trial"",""time""
""fullscreenenter"",""1"",""3006""
","
","","","","","","null","<div style=""font-size:60px;"">+</div>","null","","fixation","","","","","","","","","","",""
"aa-learning-trial","192","748717","0.0-11.0-2.0-1.1","6380","2","17","Female","approach_avoid_spark_v1","""event"",""trial"",""time""
""fullscreenenter"",""1"",""3006""
","
","
","""event"",""trial"",""time""
""fullscreenenter"",""1"",""3006""
","
","","","","","","1518.7999999523163","images/straw8.png","","","learning","4","4","1","1","straw","fruit","1","1","","neutral","0"
"html-keyboard-response","193","749223","0.0-11.0-2.0-0.2","6380","2","17","Female","approach_avoid_spark_v1","""event"",""trial"",""time""
""fullscreenenter"",""1"",""3006""
","
","
","""event"",""trial"",""time""
""fullscreenenter"",""1"",""3006""
","
","","","","","","null","<div style=""font-size:60px;"">+</div>","null","","fixation","","","","","","","","","","",""
"aa-learning-trial","194","752233","0.0-11.0-2.0-1.2","6380","2","17","Female","approach_avoid_spark_v1","""event"",""trial"",""time""
""fullscreenenter"",""1"",""3006""
","
","
","""event"",""trial"",""time""
""fullscreenenter"",""1"",""3006""
","
","","","","","","1331.1999998092651","images/banana6.png","","","learning","-5","0","0","0","banana","fruit","1","1","","bad","[-4]"
"html-keyboard-response","195","752742","0.0-11.0-2.0-0.3","6380","2","17","Female","approach_avoid_spark_v1","""event"",""trial"",""time""
""fullscreenenter"",""1"",""3006""
","
","
","""event"",""trial"",""time""
""fullscreenenter"",""1"",""3006""
","
","","","","","","null","<div style=""font-size:60px;"">+</div>","null","","fixation","","","","","","","","","","",""
"aa-learning-trial","196","755749","0.0-11.0-2.0-1.3","6380","2","17","Female","approach_avoid_spark_v1","""event"",""trial"",""time""
""fullscreenenter"",""1"",""3006""
","
","
","""event"",""trial"",""time""
""fullscreenenter"",""1"",""3006""
","
","","","","","","2174.2999999523163","images/banana7.png","","","learning","-5","0","0","0","banana","fruit","1","1","","bad","[-4]"
"html-keyboard-response","197","756253","0.0-11.0-2.0-0.4","6380","2","17","Female","approach_avoid_spark_v1","""event"",""trial"",""time""
""fullscreenenter"",""1"",""3006""
","
","
","""event"",""trial"",""time""
""fullscreenenter"",""1"",""3006""
","
","","","","","","null","<div style=""font-size:60px;"">+</div>","null","","fixation","","","","","","","","","","",""
"aa-learning-trial","198","759263","0.0-11.0-2.0-1.4","6380","2","17","Female","approach_avoid_spark_v1","""event"",""trial"",""time""
""fullscreenenter"",""1"",""3006""
","
","
","""event"",""trial"",""time""
""fullscreenenter"",""1"",""3006""
","
","","","","","","1047.8000001907349","images/straw5.png","","","learning","2","2","1","1","straw","fruit","1","1","","neutral","0"
"html-keyboard-response","199","759774","0.0-11.0-2.0-0.5","6380","2","17","Female","approach_avoid_spark_v1","""event"",""trial"",""time""
""fullscreenenter"",""1"",""3006""
","
","
","""event"",""trial"",""time""
""fullscreenenter"",""1"",""3006""
","
","","","","","","null","<div style=""font-size:60px;"">+</div>","null","","fixation","","","","","","","","","","",""
"aa-learning-trial","200","762791","0.0-11.0-2.0-1.5","6380","2","17","Female","approach_avoid_spark_v1","""event"",""trial"",""time""
""fullscreenenter"",""1"",""3006""
","
","
","""event"",""trial"",""time""
""fullscreenenter"",""1"",""3006""
","
","","","","","","1673.5","images/apple2.png","","","learning","2","2","1","1","apple","fruit","1","1","","good","[3]"
"html-keyboard-response","201","763296","0.0-11.0-2.0-0.6","6380","2","17","Female","approach_avoid_spark_v1","""event"",""trial"",""time""
""fullscreenenter"",""1"",""3006""
","
","
","""event"",""trial"",""time""
""fullscreenenter"",""1"",""3006""
","
","","","","","","null","<div style=""font-size:60px;"">+</div>","null","","fixation","","","","","","","","","","",""
"aa-learning-trial","202","766311","0.0-11.0-2.0-1.6","6380","2","17","Female","approach_avoid_spark_v1","""event"",""trial"",""time""
""fullscreenenter"",""1"",""3006""
","
","
","""event"",""trial"",""time""
""fullscreenenter"",""1"",""3006""
","
","","","","","","828.3000001907349","images/apple7.png","","","learning","5","5","1","1","apple","fruit","1","1","","good","[3]"
"html-keyboard-response","203","766822","0.0-11.0-2.0-0.7","6380","2","17","Female","approach_avoid_spark_v1","""event"",""trial"",""time""
""fullscreenenter"",""1"",""3006""
","
","
","""event"",""trial"",""time""
""fullscreenenter"",""1"",""3006""
","
","","","","","","null","<div style=""font-size:60px;"">+</div>","null","","fixation","","","","","","","","","","",""
"aa-learning-trial","204","769829","0.0-11.0-2.0-1.7","6380","2","17","Female","approach_avoid_spark_v1","""event"",""trial"",""time""
""fullscreenenter"",""1"",""3006""
","
","
","""event"",""trial"",""time""
""fullscreenenter"",""1"",""3006""
","
","","","","","","910.7999999523163","images/straw5.png","","","learning","[-1]","-1","1","1","straw","fruit","1","1","","neutral","0"
"html-keyboard-response","205","770333","0.0-11.0-2.0-0.8","6380","2","17","Female","approach_avoid_spark_v1","""event"",""trial"",""time""
""fullscreenenter"",""1"",""3006""
","
","
","""event"",""trial"",""time""
""fullscreenenter"",""1"",""3006""
","
","","","","","","null","<div style=""font-size:60px;"">+</div>","null","","fixation","","","","","","","","","","",""
"aa-learning-trial","206","773341","0.0-11.0-2.0-1.8","6380","2","17","Female","approach_avoid_spark_v1","""event"",""trial"",""time""
""fullscreenenter"",""1"",""3006""
","
","
","""event"",""trial"",""time""
""fullscreenenter"",""1"",""3006""
","
","","","","","","1205.5","images/apple4.png","","","learning","2","2","1","1","apple","fruit","1","1","","good","[3]"
"html-keyboard-response","207","773844","0.0-11.0-2.0-0.9","6380","2","17","Female","approach_avoid_spark_v1","""event"",""trial"",""time""
""fullscreenenter"",""1"",""3006""
","
","
","""event"",""trial"",""time""
""fullscreenenter"",""1"",""3006""
","
","","","","","","null","<div style=""font-size:60px;"">+</div>","null","","fixation","","","","","","","","","","",""
"aa-learning-trial","208","776853","0.0-11.0-2.0-1.9","6380","2","17","Female","approach_avoid_spark_v1","""event"",""trial"",""time""
""fullscreenenter"",""1"",""3006""
","
","
","""event"",""trial"",""time""
""fullscreenenter"",""1"",""3006""
","
","","","","","","2067.7000000476837","images/straw2.png","","","learning","1","1","1","1","straw","fruit","1","1","","neutral","0"
"html-keyboard-response","209","777357","0.0-11.0-2.0-0.10","6380","2","17","Female","approach_avoid_spark_v1","""event"",""trial"",""time""
""fullscreenenter"",""1"",""3006""
","
","
","""event"",""trial"",""time""
""fullscreenenter"",""1"",""3006""
","
","","","","","","null","<div style=""font-size:60px;"">+</div>","null","","fixation","","","","","","","","","","",""
"aa-learning-trial","210","780365","0.0-11.0-2.0-1.10","6380","2","17","Female","approach_avoid_spark_v1","""event"",""trial"",""time""
""fullscreenenter"",""1"",""3006""
","
","
","""event"",""trial"",""time""
""fullscreenenter"",""1"",""3006""
","
","","","","","","780.7000000476837","images/straw2.png","","","learning","-1","-1","1","1","straw","fruit","1","1","","neutral","0"
"html-keyboard-response","211","780871","0.0-11.0-2.0-0.11","6380","2","17","Female","approach_avoid_spark_v1","""event"",""trial"",""time""
""fullscreenenter"",""1"",""3006""
","
","
","""event"",""trial"",""time""
""fullscreenenter"",""1"",""3006""
","
","","","","","","null","<div style=""font-size:60px;"">+</div>","null","","fixation","","","","","","","","","","",""
"aa-learning-trial","212","783876","0.0-11.0-2.0-1.11","6380","2","17","Female","approach_avoid_spark_v1","""event"",""trial"",""time""
""fullscreenenter"",""1"",""3006""
","
","
","""event"",""trial"",""time""
""fullscreenenter"",""1"",""3006""
","
","","","","","","782.2999999523163","images/banana6.png","","","learning","-3","0","0","0","banana","fruit","1","1","","bad","[-4]"
"html-keyboard-response","213","784383","0.0-11.0-2.0-0.12","6380","2","17","Female","approach_avoid_spark_v1","""event"",""trial"",""time""
""fullscreenenter"",""1"",""3006""
","
","
","""event"",""trial"",""time""
""fullscreenenter"",""1"",""3006""
","
","","","","","","null","<div style=""font-size:60px;"">+</div>","null","","fixation","","","","","","","","","","",""
"aa-learning-trial","214","787389","0.0-11.0-2.0-1.12","6380","2","17","Female","approach_avoid_spark_v1","""event"",""trial"",""time""
""fullscreenenter"",""1"",""3006""
","
","
","""event"",""trial"",""time""
""fullscreenenter"",""1"",""3006""
","
","","","","","","1771.4000000953674","images/apple7.png","","","learning","1","0","0","0","apple","fruit","1","1","","good","[3]"
"html-keyboard-response","215","787893","0.0-11.0-2.0-0.13","6380","2","17","Female","approach_avoid_spark_v1","""event"",""trial"",""time""
""fullscreenenter"",""1"",""3006""
","
","
","""event"",""trial"",""time""
""fullscreenenter"",""1"",""3006""
","
","","","","","","null","<div style=""font-size:60px;"">+</div>","null","","fixation","","","","","","","","","","",""
"aa-learning-trial","216","790903","0.0-11.0-2.0-1.13","6380","2","17","Female","approach_avoid_spark_v1","""event"",""trial"",""time""
""fullscreenenter"",""1"",""3006""
","
","
","""event"",""trial"",""time""
""fullscreenenter"",""1"",""3006""
","
","","","","","","1058.3000001907349","images/apple2.png","","","learning","3","3","1","1","apple","fruit","1","1","","good","[3]"
"html-keyboard-response","217","791407","0.0-11.0-2.0-0.14","6380","2","17","Female","approach_avoid_spark_v1","""event"",""trial"",""time""
""fullscreenenter"",""1"",""3006""
","
","
","""event"",""trial"",""time""
""fullscreenenter"",""1"",""3006""
","
","","","","","","null","<div style=""font-size:60px;"">+</div>","null","","fixation","","","","","","","","","","",""
"aa-learning-trial","218","794414","0.0-11.0-2.0-1.14","6380","2","17","Female","approach_avoid_spark_v1","""event"",""trial"",""time""
""fullscreenenter"",""1"",""3006""
","
","
","""event"",""trial"",""time""
""fullscreenenter"",""1"",""3006""
","
","","","","","","1201.7999999523163","images/banana8.png","","","learning","-5","0","0","0","banana","fruit","1","1","","bad","[-4]"
"html-keyboard-response","219","794918","0.0-11.0-2.0-0.15","6380","2","17","Female","approach_avoid_spark_v1","""event"",""trial"",""time""
""fullscreenenter"",""1"",""3006""
","
","
","""event"",""trial"",""time""
""fullscreenenter"",""1"",""3006""
","
","","","","","","null","<div style=""font-size:60px;"">+</div>","null","","fixation","","","","","","","","","","",""
"aa-learning-trial","220","797923","0.0-11.0-2.0-1.15","6380","2","17","Female","approach_avoid_spark_v1","""event"",""trial"",""time""
""fullscreenenter"",""1"",""3006""
","
","
","""event"",""trial"",""time""
""fullscreenenter"",""1"",""3006""
","
","","","","","","null","images/straw5.png","","","learning","-1","-5","","null","straw","fruit","1","1","","neutral","0"
"html-keyboard-response","221","798430","0.0-11.0-2.0-0.16","6380","2","17","Female","approach_avoid_spark_v1","""event"",""trial"",""time""
""fullscreenenter"",""1"",""3006""
","
","
","""event"",""trial"",""time""
""fullscreenenter"",""1"",""3006""
","
","","","","","","null","<div style=""font-size:60px;"">+</div>","null","","fixation","","","","","","","","","","",""
"aa-learning-trial","222","801439","0.0-11.0-2.0-1.16","6380","2","17","Female","approach_avoid_spark_v1","""event"",""trial"",""time""
""fullscreenenter"",""1"",""3006""
","
","
","""event"",""trial"",""time""
""fullscreenenter"",""1"",""3006""
","
","","","","","","738.8999998569489","images/banana6.png","","","learning","-4","-4","1","1","banana","fruit","1","1","","bad","[-4]"
"html-keyboard-response","223","801949","0.0-11.0-2.0-0.17","6380","2","17","Female","approach_avoid_spark_v1","""event"",""trial"",""time""
""fullscreenenter"",""1"",""3006""
","
","
","""event"",""trial"",""time""
""fullscreenenter"",""1"",""3006""
","
","","","","","","null","<div style=""font-size:60px;"">+</div>","null","","fixation","","","","","","","","","","",""
"aa-learning-trial","224","804953","0.0-11.0-2.0-1.17","6380","2","17","Female","approach_avoid_spark_v1","""event"",""trial"",""time""
""fullscreenenter"",""1"",""3006""
","
","
","""event"",""trial"",""time""
""fullscreenenter"",""1"",""3006""
","
","","","","","","780.7999999523163","images/banana2.png","","","learning","-4","0","0","0","banana","fruit","1","1","","bad","[-4]"
"html-keyboard-response","225","805462","0.0-11.0-2.0-0.18","6380","2","17","Female","approach_avoid_spark_v1","""event"",""trial"",""time""
""fullscreenenter"",""1"",""3006""
","
","
","""event"",""trial"",""time""
""fullscreenenter"",""1"",""3006""
","
","","","","","","null","<div style=""font-size:60px;"">+</div>","null","","fixation","","","","","","","","","","",""
"aa-learning-trial","226","808472","0.0-11.0-2.0-1.18","6380","2","17","Female","approach_avoid_spark_v1","""event"",""trial"",""time""
""fullscreenenter"",""1"",""3006""
","
","
","""event"",""trial"",""time""
""fullscreenenter"",""1"",""3006""
","
","","","","","","1091.5","images/apple4.png","","","learning","2","2","1","1","apple","fruit","1","1","","good","[3]"
"html-keyboard-response","227","808982","0.0-11.0-2.0-0.19","6380","2","17","Female","approach_avoid_spark_v1","""event"",""trial"",""time""
""fullscreenenter"",""1"",""3006""
","
","
","""event"",""trial"",""time""
""fullscreenenter"",""1"",""3006""
","
","","","","","","null","<div style=""font-size:60px;"">+</div>","null","","fixation","","","","","","","","","","",""
"aa-learning-trial","228","811986","0.0-11.0-2.0-1.19","6380","2","17","Female","approach_avoid_spark_v1","""event"",""trial"",""time""
""fullscreenenter"",""1"",""3006""
","
","
","""event"",""trial"",""time""
""fullscreenenter"",""1"",""3006""
","
","","","","","","1742.2999999523163","images/apple2.png","","","learning","1","1","1","1","apple","fruit","1","1","","good","[3]"
"html-keyboard-response","229","812494","0.0-11.0-2.0-0.20","6380","2","17","Female","approach_avoid_spark_v1","""event"",""trial"",""time""
""fullscreenenter"",""1"",""3006""
","
","
","""event"",""trial"",""time""
""fullscreenenter"",""1"",""3006""
","
","","","","","","null","<div style=""font-size:60px;"">+</div>","null","","fixation","","","","","","","","","","",""
"aa-learning-trial","230","815502","0.0-11.0-2.0-1.20","6380","2","17","Female","approach_avoid_spark_v1","""event"",""trial"",""time""
""fullscreenenter"",""1"",""3006""
","
","
","""event"",""trial"",""time""
""fullscreenenter"",""1"",""3006""
","
","","","","","","1678.7999999523163","images/straw8.png","","","learning","[1]","1","1","1","straw","fruit","1","1","","neutral","0"
"html-keyboard-response","231","816007","0.0-11.0-2.0-0.21","6380","2","17","Female","approach_avoid_spark_v1","""event"",""trial"",""time""
""fullscreenenter"",""1"",""3006""
","
","
","""event"",""trial"",""time""
""fullscreenenter"",""1"",""3006""
","
","","","","","","null","<div style=""font-size:60px;"">+</div>","null","","fixation","","","","","","","","","","",""
"aa-learning-trial","232","819014","0.0-11.0-2.0-1.21","6380","2","17","Female","approach_avoid_spark_v1","""event"",""trial"",""time""
""fullscreenenter"",""1"",""3006""
","
","
","""event"",""trial"",""time""
""fullscreenenter"",""1"",""3006""
","
","","","","","","2737.4000000953674","images/apple8.png","","","learning","3","0","0","0","apple","fruit","1","1","","good","[3]"
"html-keyboard-response","233","819518","0.0-11.0-2.0-0.22","6380","2","17","Female","approach_avoid_spark_v1","""event"",""trial"",""time""
""fullscreenenter"",""1"",""3006""
","
","
","""event"",""trial"",""time""
""fullscreenenter"",""1"",""3006""
","
","","","","","","null","<div style=""font-size:60px;"">+</div>","null","","fixation","","","","","","","","","","",""
"aa-learning-trial","234","822528","0.0-11.0-2.0-1.22","6380","2","17","Female","approach_avoid_spark_v1","""event"",""trial"",""time""
""fullscreenenter"",""1"",""3006""
","
","
","""event"",""trial"",""time""
""fullscreenenter"",""1"",""3006""
","
","","","","","","1493.2000000476837","images/straw2.png","","","learning","1","1","1","1","straw","fruit","1","1","","neutral","0"
"html-keyboard-response","235","823031","0.0-11.0-2.0-0.23","6380","2","17","Female","approach_avoid_spark_v1","""event"",""trial"",""time""
""fullscreenenter"",""1"",""3006""
","
","
","""event"",""trial"",""time""
""fullscreenenter"",""1"",""3006""
","
","","","","","","null","<div style=""font-size:60px;"">+</div>","null","","fixation","","","","","","","","","","",""
"aa-learning-trial","236","826040","0.0-11.0-2.0-1.23","6380","2","17","Female","approach_avoid_spark_v1","""event"",""trial"",""time""
""fullscreenenter"",""1"",""3006""
","
","
","""event"",""trial"",""time""
