"trial_type","trial_index","time_elapsed","internal_node_id","subject_id","task_condition","age","gender","task_version","interactions","blur_events","focus_events","fullscreenenter_events","fullscreenexit_events","success","timeout","failed_images","failed_audio","failed_video","rt","stimulus","response","button_pressed","task_part","approach_reward","points","key_press","option_selected","stim_cat","task_block","block_condition","block_number","correct","cat_type","mean_cat_reward"
"pavlovia","0","2","0.0-0.0","4050","2","18","Male","approach_avoid_spark_v1","""event"",""trial"",""time""
""fullscreenenter"",""1"",""2548""
","
","
","""event"",""trial"",""time""
""fullscreenenter"",""1"",""2548""
","
","","","","","","","","","","","","","","","","","","","","",""
"fullscreen","1","3546","0.0-1.0","4050","2","18","Male","approach_avoid_spark_v1","""event"",""trial"",""time""
""fullscreenenter"",""1"",""2548""
","
","
","""event"",""trial"",""time""
""fullscreenenter"",""1"",""2548""
","
","true","","","","","","","","","","","","","","","","","","","",""
"preload","2","6348","0.0-2.0","4050","2","18","Male","approach_avoid_spark_v1","""event"",""trial"",""time""
""fullscreenenter"",""1"",""2548""
","
","
","""event"",""trial"",""time""
""fullscreenenter"",""1"",""2548""
","
","true","false","[]","[]","[]","","","","","","","","","","","","","","","",""
"audio-keyboard-response","3","11941","0.0-3.0","4050","2","18","Male","approach_avoid_spark_v1","""event"",""trial"",""time""
""fullscreenenter"",""1"",""2548""
","
","
","""event"",""trial"",""time""
""fullscreenenter"",""1"",""2548""
","
","","","","","","5592.000000000001","audio/beep_loop.wav"," ","","","","","","","","","","","","",""
"audio-button-response","4","14315","0.0-4.0","4050","2","18","Male","approach_avoid_spark_v1","""event"",""trial"",""time""
""fullscreenenter"",""1"",""2548""
","
","
","""event"",""trial"",""time""
""fullscreenenter"",""1"",""2548""
","
","","","","","","2368","audio/shark.wav","4","","","","","","","","","","","","",""
"audio-button-response","5","16578","0.0-5.0","4050","2","18","Male","approach_avoid_spark_v1","""event"",""trial"",""time""
""fullscreenenter"",""1"",""2548""
","
","
","""event"",""trial"",""time""
""fullscreenenter"",""1"",""2548""
","
","","","","","","1272","audio/turtle.wav","1","","","","","","","","","","","","",""
"preload","6","18810","0.0-6.0","4050","2","18","Male","approach_avoid_spark_v1","""event"",""trial"",""time""
""fullscreenenter"",""1"",""2548""
","
","
","""event"",""trial"",""time""
""fullscreenenter"",""1"",""2548""
","
","true","false","[]","[]","[]","","","","","","","","","","","","","","","",""
"html-keyboard-response","7","20444","0.0-7.0","4050","2","18","Male","approach_avoid_spark_v1","""event"",""trial"",""time""
""fullscreenenter"",""1"",""2548""
","
","
","""event"",""trial"",""time""
""fullscreenenter"",""1"",""2548""
","
","","","","","","1633.6000000238419","Welcome to the experiment. Press any key to begin and to advance the instructions."," ","","","","","","","","","","","","",""
"learning-instructions","8","28618","0.0-8.0-0.0-0.0","4050","2","18","Male","approach_avoid_spark_v1","""event"",""trial"",""time""
""fullscreenenter"",""1"",""2548""
","
","
","""event"",""trial"",""time""
""fullscreenenter"",""1"",""2548""
","
","","","","","","1219.9000000357628","<p> Welcome! Today you are going to play 6 different rounds of a decision-making game. </p><p> Use the mouse to click next to continue. </p>","","0","instructions","","","","","","","","","","",""
"learning-instructions","9","31797","0.0-8.0-0.0-0.1","4050","2","18","Male","approach_avoid_spark_v1","""event"",""trial"",""time""
""fullscreenenter"",""1"",""2548""
","
","
","""event"",""trial"",""time""
""fullscreenenter"",""1"",""2548""
","
","","","","","","448.2000000476837","<p> You will start with a practice round to learn the rules. </p>","","0","instructions","","","","","","","","","","",""
"learning-instructions","10","36137","0.0-8.0-0.0-0.2","4050","2","18","Male","approach_avoid_spark_v1","""event"",""trial"",""time""
""fullscreenenter"",""1"",""2548""
","
","
","""event"",""trial"",""time""
""fullscreenenter"",""1"",""2548""
","
","","","","","","898.9000000357628","<p> Your goal in this round is to give out sports equipment to kids. </p></div>","","0","instructions","","","","","","","","","","",""
"learning-instructions","11","44482","0.0-8.0-0.0-0.3","4050","2","18","Male","approach_avoid_spark_v1","""event"",""trial"",""time""
""fullscreenenter"",""1"",""2548""
","
","
","""event"",""trial"",""time""
""fullscreenenter"",""1"",""2548""
","
","","","","","","793.8000000119209","<p> The kids only like some of the equipment.  </p><p> On each turn, you will see a piece of sports equipment.   </p><p> You need to decide whether to give it to the kids or not.  </p>","","0","instructions","","","","","","","","","","",""
"learning-instructions","12","50309","0.0-8.0-0.0-0.4","4050","2","18","Male","approach_avoid_spark_v1","""event"",""trial"",""time""
""fullscreenenter"",""1"",""2548""
","
","
","""event"",""trial"",""time""
""fullscreenenter"",""1"",""2548""
","
","","","","","","1070.5","<p> You can give them the equipment by pressing 1 and choose not to give it to them by pressing 0. </p><br><div class=""choice-instructions-grid""> <div class=""choice-option""><img src=""images/approach.png"" class=""choice-option-img"" stage=""instructions"" position=""0"" ><div class=""choice-option-text""> Press ""1."" </div></div><div class=""choice-option""><img src=""images/avoid.png"" class=""choice-option-img"" stage=""instructions"" position=""1"" ><div class=""choice-option-text""> Press ""0."" </div></div>","","0","instructions","","","","","","","","","","",""
"learning-instructions","13","58225","0.0-8.0-0.0-0.5","4050","2","18","Male","approach_avoid_spark_v1","""event"",""trial"",""time""
""fullscreenenter"",""1"",""2548""
","
","
","""event"",""trial"",""time""
""fullscreenenter"",""1"",""2548""
","
","","","","","","526.6999999880791","<p> If you give them a piece of equipment they like, they will be happy! </p><p> But if you give them a piece of equipment they do not like, they will be sad. </p>","","0","instructions","","","","","","","","","","",""
"learning-instructions","14","69756","0.0-8.0-0.0-0.6","4050","2","18","Male","approach_avoid_spark_v1","""event"",""trial"",""time""
""fullscreenenter"",""1"",""2548""
","
","
","""event"",""trial"",""time""
""fullscreenenter"",""1"",""2548""
","
","","","","","","1017.6999999880791","<p> You will earn points based on how you make kids feel. </p><p> If you make them happy, you will WIN anywhere from 1 - 9 points, </p><p> but if you make them sad, you will LOSE anywhere from 1 - 9 points. </p>","","0","instructions","","","","","","","","","","",""
"learning-instructions","15","80394","0.0-8.0-0.0-0.7","4050","2","18","Male","approach_avoid_spark_v1","""event"",""trial"",""time""
""fullscreenenter"",""1"",""2548""
","
","
","""event"",""trial"",""time""
""fullscreenenter"",""1"",""2548""
","
","","","","","","1075.800000011921","<p> You will see how many points you won or lost in the center of the screen. </p><p> Here is what you would see if you won 6 points: </p><p style=""color:green;font-size:50px;font-weight:bolder"">6</p><p style=""color:green"">The text is GREEN because you WON points.</p>","","0","instructions","","","","","","","","","","",""
"learning-instructions","16","86304","0.0-8.0-0.0-0.8","4050","2","18","Male","approach_avoid_spark_v1","""event"",""trial"",""time""
""fullscreenenter"",""1"",""2548""
","
","
","""event"",""trial"",""time""
""fullscreenenter"",""1"",""2548""
","
","","","","","","405.5","<p> And here is what you would see if you lost 4 points: </p><p style=""color:red;font-size:50px;font-weight:bolder"">-4</p><p style=""color:red"">The text is RED because you LOST points. </p>","","0","instructions","","","","","","","","","","",""
"learning-instructions","17","102574","0.0-8.0-0.0-0.9","4050","2","18","Male","approach_avoid_spark_v1","""event"",""trial"",""time""
""fullscreenenter"",""1"",""2548""
","
","
","""event"",""trial"",""time""
""fullscreenenter"",""1"",""2548""
","
","","","","","","1555.6000000238419","<p> Some of the equipment will make the kids VERY happy or sad. </p><p> These pieces of equipment will make you win or lose LOTS of points. </p><p> Other pieces of equipment will only make the kids a little happy or sad. </p><p> These pieces of equipment will make you win or lose small amounts of points. </p>","","0","instructions","","","","","","","","","","",""
"learning-instructions","18","118875","0.0-8.0-0.0-0.10","4050","2","18","Male","approach_avoid_spark_v1","""event"",""trial"",""time""
""fullscreenenter"",""1"",""2548""
","
","
","""event"",""trial"",""time""
""fullscreenenter"",""1"",""2548""
","
","","","","","","5666.5","<p> If you choose not to give them the equipment, you will not win or lose any points. </p><p>  However, in the center of the screen, you will see the number of points you WOULD HAVE won or lost if you had given them the equipment. </p>","","0","instructions","","","","","","","","","","",""
"learning-instructions","19","142934","0.0-8.0-0.0-0.11","4050","2","18","Male","approach_avoid_spark_v1","""event"",""trial"",""time""
""fullscreenenter"",""1"",""2548""
","
","
","""event"",""trial"",""time""
""fullscreenenter"",""1"",""2548""
","
","","","","","","2525.2999999523163","<p> Here is what you might see if you did not give the equipment to the kids but it would have made them happy: </p><p style=""color:grey; font-size:50px; display: inline-block; border-spacing: 15px; border-width:3px; border-style:solid; border-color:red"">  &nbsp; 7 &nbsp; </p><p> Remember, in this case, you would not win or lose ANY points because you did not give them the equipment.  </p><p style=""color:grey"">The text is GREY because you earned ZERO points. </p><p style=""color:red"">However, choosing to give the kids the equipment would have made you win points. The box around the text is RED because you chose the worse option. </p>","","0","instructions","","","","","","","","","","",""
"learning-instructions","20","167240","0.0-8.0-0.0-0.12","4050","2","18","Male","approach_avoid_spark_v1","""event"",""trial"",""time""
""fullscreenenter"",""1"",""2548""
","
","
","""event"",""trial"",""time""
""fullscreenenter"",""1"",""2548""
","
","","","","","","3221.2999999523163","<p> Here is what you might see if you did not give the equipment to the kids but it would have made them sad: </p><p style=""color:grey;font-size:50px; display: inline-block; border-spacing: 15px; border-width:3px; border-style:solid; border-color:green"">  &nbsp; -8 &nbsp; </p><p> Remember, in this case, you would not win or lose ANY points because you did not give them the equipment.  </p><p style=""color:grey"">The text is GREY because you earned ZERO points. </p><p  style=""color:green""> Choosing to give the kids the equipment would have made you lose points. The box around the text is GREEN because you chose the better option.</p>","","0","instructions","","","","","","","","","","",""
"learning-instructions","21","176383","0.0-8.0-0.0-0.13","4050","2","18","Male","approach_avoid_spark_v1","""event"",""trial"",""time""
""fullscreenenter"",""1"",""2548""
","
","
","""event"",""trial"",""time""
""fullscreenenter"",""1"",""2548""
","
","","","","","","404.5","<p> You will have 3 seconds to make each choice. Try to respond before time runs out! </p><p> You will lose 5 points each time you do not make a response. </p>","","0","instructions","","","","","","","","","","",""
"learning-instructions","22","182350","0.0-8.0-0.0-0.14","4050","2","18","Male","approach_avoid_spark_v1","""event"",""trial"",""time""
""fullscreenenter"",""1"",""2548""
","
","
","""event"",""trial"",""time""
""fullscreenenter"",""1"",""2548""
","
","","","","","","551.1999999880791","<p> This is just a practice round, but in the real game, your bonus payment will depend on your total number of points.","","0","instructions","","","","","","","","","","",""
"learning-instructions","23","188591","0.0-8.0-0.0-0.15","4050","2","18","Male","approach_avoid_spark_v1","""event"",""trial"",""time""
""fullscreenenter"",""1"",""2548""
","
","
","""event"",""trial"",""time""
""fullscreenenter"",""1"",""2548""
","
","","","","","","482.10000002384186","<p> Remember, you can give them the equipment by pressing 1 and choose not to give it to them by pressing 0. </p><br><div class=""choice-instructions-grid""> <div class=""choice-option""><img src=""images/approach.png"" class=""choice-option-img"" stage=""instructions"" position=""0"" ><div class=""choice-option-text""> Press ""1."" </div></div><div class=""choice-option""><img src=""images/avoid.png"" class=""choice-option-img"" stage=""instructions"" position=""1"" ><div class=""choice-option-text""> Press ""0."" </div></div>","","0","instructions","","","","","","","","","","",""
"html-button-response","24","190333","0.0-8.0-1.0","4050","2","18","Male","approach_avoid_spark_v1","""event"",""trial"",""time""
""fullscreenenter"",""1"",""2548""
","
","
","""event"",""trial"",""time""
""fullscreenenter"",""1"",""2548""
","
","","","","","","1640.7999999523163","<p> Ready to practice? </p>","0","","","","","","","","","","","","",""
"html-keyboard-response","25","190950","0.0-8.0-2.0-0.0","4050","2","18","Male","approach_avoid_spark_v1","""event"",""trial"",""time""
""fullscreenenter"",""1"",""2548""
","
","
","""event"",""trial"",""time""
""fullscreenenter"",""1"",""2548""
","
","","","","","","null","<div style=""font-size:60px;"">+</div>","null","","fixation","","","","","","","","","","",""
"aa-learning-trial","26","193961","0.0-8.0-2.0-1.0","4050","2","18","Male","approach_avoid_spark_v1","""event"",""trial"",""time""
""fullscreenenter"",""1"",""2548""
","
","
","""event"",""trial"",""time""
""fullscreenenter"",""1"",""2548""
","
","","","","","","1118.6000000238419","images/ball3.png","","","learning","-2","-2","1","1","practice","practice","practice","-1","","",""
"html-keyboard-response","27","194472","0.0-8.0-2.0-0.1","4050","2","18","Male","approach_avoid_spark_v1","""event"",""trial"",""time""
""fullscreenenter"",""1"",""2548""
","
","
","""event"",""trial"",""time""
""fullscreenenter"",""1"",""2548""
","
","","","","","","null","<div style=""font-size:60px;"">+</div>","null","","fixation","","","","","","","","","","",""
"aa-learning-trial","28","197477","0.0-8.0-2.0-1.1","4050","2","18","Male","approach_avoid_spark_v1","""event"",""trial"",""time""
""fullscreenenter"",""1"",""2548""
","
","
","""event"",""trial"",""time""
""fullscreenenter"",""1"",""2548""
","
","","","","","","1580.300000011921","images/racket4.png","","","learning","1","1","1","1","practice","practice","practice","-1","","",""
"html-keyboard-response","29","197998","0.0-8.0-2.0-0.2","4050","2","18","Male","approach_avoid_spark_v1","""event"",""trial"",""time""
""fullscreenenter"",""1"",""2548""
","
","
","""event"",""trial"",""time""
""fullscreenenter"",""1"",""2548""
","
","","","","","","null","<div style=""font-size:60px;"">+</div>","null","","fixation","","","","","","","","","","",""
"aa-learning-trial","30","201008","0.0-8.0-2.0-1.2","4050","2","18","Male","approach_avoid_spark_v1","""event"",""trial"",""time""
""fullscreenenter"",""1"",""2548""
","
","
","""event"",""trial"",""time""
""fullscreenenter"",""1"",""2548""
","
","","","","","","1219.699999988079","images/racket1.png","","","learning","-2","0","0","0","practice","practice","practice","-1","","",""
"html-keyboard-response","31","201515","0.0-8.0-2.0-0.3","4050","2","18","Male","approach_avoid_spark_v1","""event"",""trial"",""time""
""fullscreenenter"",""1"",""2548""
","
","
","""event"",""trial"",""time""
""fullscreenenter"",""1"",""2548""
","
","","","","","","null","<div style=""font-size:60px;"">+</div>","null","","fixation","","","","","","","","","","",""
"aa-learning-trial","32","204528","0.0-8.0-2.0-1.3","4050","2","18","Male","approach_avoid_spark_v1","""event"",""trial"",""time""
""fullscreenenter"",""1"",""2548""
","
","
","""event"",""trial"",""time""
""fullscreenenter"",""1"",""2548""
","
","","","","","","1473","images/ball1.png","","","learning","-5","0","0","0","practice","practice","practice","-1","","",""
"html-keyboard-response","33","205038","0.0-8.0-2.0-0.4","4050","2","18","Male","approach_avoid_spark_v1","""event"",""trial"",""time""
""fullscreenenter"",""1"",""2548""
","
","
","""event"",""trial"",""time""
""fullscreenenter"",""1"",""2548""
","
","","","","","","null","<div style=""font-size:60px;"">+</div>","null","","fixation","","","","","","","","","","",""
"aa-learning-trial","34","208045","0.0-8.0-2.0-1.4","4050","2","18","Male","approach_avoid_spark_v1","""event"",""trial"",""time""
""fullscreenenter"",""1"",""2548""
","
","
","""event"",""trial"",""time""
""fullscreenenter"",""1"",""2548""
","
","","","","","","834.3999999761581","images/ball2.png","","","learning","-8","-8","1","1","practice","practice","practice","-1","","",""
"html-keyboard-response","35","208554","0.0-8.0-2.0-0.5","4050","2","18","Male","approach_avoid_spark_v1","""event"",""trial"",""time""
""fullscreenenter"",""1"",""2548""
","
","
","""event"",""trial"",""time""
""fullscreenenter"",""1"",""2548""
","
","","","","","","null","<div style=""font-size:60px;"">+</div>","null","","fixation","","","","","","","","","","",""
"aa-learning-trial","36","211563","0.0-8.0-2.0-1.5","4050","2","18","Male","approach_avoid_spark_v1","""event"",""trial"",""time""
""fullscreenenter"",""1"",""2548""
","
","
","""event"",""trial"",""time""
""fullscreenenter"",""1"",""2548""
","
","","","","","","1515.8999999761581","images/ball3.png","","","learning","5","0","0","0","practice","practice","practice","-1","","",""
"html-keyboard-response","37","212072","0.0-8.0-2.0-0.6","4050","2","18","Male","approach_avoid_spark_v1","""event"",""trial"",""time""
""fullscreenenter"",""1"",""2548""
","
","
","""event"",""trial"",""time""
""fullscreenenter"",""1"",""2548""
","
","","","","","","null","<div style=""font-size:60px;"">+</div>","null","","fixation","","","","","","","","","","",""
"aa-learning-trial","38","215084","0.0-8.0-2.0-1.6","4050","2","18","Male","approach_avoid_spark_v1","""event"",""trial"",""time""
""fullscreenenter"",""1"",""2548""
","
","
","""event"",""trial"",""time""
""fullscreenenter"",""1"",""2548""
","
","","","","","","646.6000000238419","images/racket2.png","","","learning","-7","-7","1","1","practice","practice","practice","-1","","",""
"html-keyboard-response","39","215594","0.0-8.0-2.0-0.7","4050","2","18","Male","approach_avoid_spark_v1","""event"",""trial"",""time""
""fullscreenenter"",""1"",""2548""
","
","
","""event"",""trial"",""time""
""fullscreenenter"",""1"",""2548""
","
","","","","","","null","<div style=""font-size:60px;"">+</div>","null","","fixation","","","","","","","","","","",""
"aa-learning-trial","40","218601","0.0-8.0-2.0-1.7","4050","2","18","Male","approach_avoid_spark_v1","""event"",""trial"",""time""
""fullscreenenter"",""1"",""2548""
","
","
","""event"",""trial"",""time""
""fullscreenenter"",""1"",""2548""
","
","","","","","","764.2999999523163","images/ball2.png","","","learning","6","6","1","1","practice","practice","practice","-1","","",""
"html-keyboard-response","41","219106","0.0-8.0-2.0-0.8","4050","2","18","Male","approach_avoid_spark_v1","""event"",""trial"",""time""
""fullscreenenter"",""1"",""2548""
","
","
","""event"",""trial"",""time""
""fullscreenenter"",""1"",""2548""
","
","","","","","","null","<div style=""font-size:60px;"">+</div>","null","","fixation","","","","","","","","","","",""
"aa-learning-trial","42","222114","0.0-8.0-2.0-1.8","4050","2","18","Male","approach_avoid_spark_v1","""event"",""trial"",""time""
""fullscreenenter"",""1"",""2548""
","
","
","""event"",""trial"",""time""
""fullscreenenter"",""1"",""2548""
","
","","","","","","842.1999999880791","images/racket2.png","","","learning","-8","0","0","0","practice","practice","practice","-1","","",""
"html-keyboard-response","43","222617","0.0-8.0-2.0-0.9","4050","2","18","Male","approach_avoid_spark_v1","""event"",""trial"",""time""
""fullscreenenter"",""1"",""2548""
","
","
","""event"",""trial"",""time""
""fullscreenenter"",""1"",""2548""
","
","","","","","","null","<div style=""font-size:60px;"">+</div>","null","","fixation","","","","","","","","","","",""
"aa-learning-trial","44","225625","0.0-8.0-2.0-1.9","4050","2","18","Male","approach_avoid_spark_v1","""event"",""trial"",""time""
""fullscreenenter"",""1"",""2548""
","
","
","""event"",""trial"",""time""
""fullscreenenter"",""1"",""2548""
","
","","","","","","702.6999999880791","images/racket3.png","","","learning","1","1","1","1","practice","practice","practice","-1","","",""
"html-keyboard-response","45","226129","0.0-8.0-2.0-0.10","4050","2","18","Male","approach_avoid_spark_v1","""event"",""trial"",""time""
""fullscreenenter"",""1"",""2548""
","
","
","""event"",""trial"",""time""
""fullscreenenter"",""1"",""2548""
","
","","","","","","null","<div style=""font-size:60px;"">+</div>","null","","fixation","","","","","","","","","","",""
"aa-learning-trial","46","229137","0.0-8.0-2.0-1.10","4050","2","18","Male","approach_avoid_spark_v1","""event"",""trial"",""time""
""fullscreenenter"",""1"",""2548""
","
","
","""event"",""trial"",""time""
""fullscreenenter"",""1"",""2548""
","
","","","","","","811.6999999880791","images/ball4.png","","","learning","-2","-2","1","1","practice","practice","practice","-1","","",""
"html-keyboard-response","47","229642","0.0-8.0-2.0-0.11","4050","2","18","Male","approach_avoid_spark_v1","""event"",""trial"",""time""
""fullscreenenter"",""1"",""2548""
","
","
","""event"",""trial"",""time""
""fullscreenenter"",""1"",""2548""
","
","","","","","","null","<div style=""font-size:60px;"">+</div>","null","","fixation","","","","","","","","","","",""
"aa-learning-trial","48","232650","0.0-8.0-2.0-1.11","4050","2","18","Male","approach_avoid_spark_v1","""event"",""trial"",""time""
""fullscreenenter"",""1"",""2548""
","
","
","""event"",""trial"",""time""
""fullscreenenter"",""1"",""2548""
","
","","","","","","889.5","images/racket1.png","","","learning","8","8","1","1","practice","practice","practice","-1","","",""
"html-button-response","49","235500","0.0-8.0-3.0","4050","2","18","Male","approach_avoid_spark_v1","""event"",""trial"",""time""
""fullscreenenter"",""1"",""2548""
","
","
","""event"",""trial"",""time""
""fullscreenenter"",""1"",""2548""
","
","","","","","","2849.2000000476837","<p> You earned -3 points in the practice round! </p>","0","","break","","","","","","","","","","",""
"learning-instructions","50","242586","0.0-8.0-4.0-0.0","4050","2","18","Male","approach_avoid_spark_v1","""event"",""trial"",""time""
""fullscreenenter"",""1"",""2548""
","
","
","""event"",""trial"",""time""
""fullscreenenter"",""1"",""2548""
","
","","","","","","1120.5","<p> It's almost time to start the real game. </p><p> Before you start, we're going to ask you a few questions about how the game works. </p>","","0","instructions","","","","","","","","","","",""
"preload","51","243500","0.0-8.0-5.0","4050","2","18","Male","approach_avoid_spark_v1","""event"",""trial"",""time""
""fullscreenenter"",""1"",""2548""
","
","
","""event"",""trial"",""time""
""fullscreenenter"",""1"",""2548""
","
","true","false","[]","[]","[]","","","","","","","","","","","","","","","",""
"comp-q","52","249157","0.0-8.0-6.0-0.0","4050","2","18","Male","approach_avoid_spark_v1","""event"",""trial"",""time""
""fullscreenenter"",""1"",""2548""
","
","
","""event"",""trial"",""time""
""fullscreenenter"",""1"",""2548""
","
","","","","","","662.3999999761581","<p> <b> True or False? </b> </p><p> If you see a number in GREY, that means you earned that many points. </p>","","1","comp_question","","","","","","","","","true","",""
"comp-q","53","258590","0.0-8.0-6.0-1.0","4050","2","18","Male","approach_avoid_spark_v1","""event"",""trial"",""time""
""fullscreenenter"",""1"",""2548""
","
","
","""event"",""trial"",""time""
""fullscreenenter"",""1"",""2548""
","
","","","","","","1075.0999999642372","<p><b> That's right! </b> If you see a grey number, it means you earned ZERO points. <br> The grey numbers show the points you WOULD HAVE earned if you had made the other choice. </p>","","0","comp_answer","","","","","","","","","","",""
"comp-q","54","263987","0.0-8.0-7.0-0.0","4050","2","18","Male","approach_avoid_spark_v1","""event"",""trial"",""time""
""fullscreenenter"",""1"",""2548""
","
","
","""event"",""trial"",""time""
""fullscreenenter"",""1"",""2548""
","
","","","","","","692.0999999642372","<p> <b> True or False? </b> </p><p> You will have as much time as you want to make each choice. </p>","","1","comp_question","","","","","","","","","true","",""
"comp-q","55","269105","0.0-8.0-7.0-1.0","4050","2","18","Male","approach_avoid_spark_v1","""event"",""trial"",""time""
""fullscreenenter"",""1"",""2548""
","
","
","""event"",""trial"",""time""
""fullscreenenter"",""1"",""2548""
","
","","","","","","1070.0999999642372","<p> <b> That's right! </b> You will only have 3 seconds to make each choice. </p>","","0","comp_answer","","","","","","","","","","",""
"comp-q","56","274298","0.0-8.0-8.0-0.0","4050","2","18","Male","approach_avoid_spark_v1","""event"",""trial"",""time""
""fullscreenenter"",""1"",""2548""
","
","
","""event"",""trial"",""time""
""fullscreenenter"",""1"",""2548""
","
","","","","","","533.2999999523163","<p> <b> True or False? </b> </p><p> You should use the '1' and '0' keys to make your choices. </p>","","0","comp_question","","","","","","","","","true","",""
"comp-q","57","279924","0.0-8.0-8.0-1.0","4050","2","18","Male","approach_avoid_spark_v1","""event"",""trial"",""time""
""fullscreenenter"",""1"",""2548""
","
","
","""event"",""trial"",""time""
""fullscreenenter"",""1"",""2548""
","
","","","","","","1009.1999999880791","<p> <b> That's right! </b> You should use the '1' and '0' keys to make each choice. </p>","","0","comp_answer","","","","","","","","","","",""
"learning-instructions","58","287910","0.0-8.0-9.0-0.0","4050","2","18","Male","approach_avoid_spark_v1","""event"",""trial"",""time""
""fullscreenenter"",""1"",""2548""
","
","
","""event"",""trial"",""time""
""fullscreenenter"",""1"",""2548""
","
","","","","","","1705.1000000238419","<p> It's now time to start the real game. </p>Do your best, because the points you earn in the next rounds will influence your bonus payment. </p>","","0","instructions","","","","","","","","","","",""
"preload","59","288024","0.0-9.0-0.0","4050","2","18","Male","approach_avoid_spark_v1","""event"",""trial"",""time""
""fullscreenenter"",""1"",""2548""
","
","
","""event"",""trial"",""time""
""fullscreenenter"",""1"",""2548""
","
","true","false","[]","[]","[]","","","","","","","","","","","","","","","",""
"learning-instructions","60","294336","0.0-9.0-1.0-0.0","4050","2","18","Male","approach_avoid_spark_v1","""event"",""trial"",""time""
""fullscreenenter"",""1"",""2548""
","
","
","""event"",""trial"",""time""
""fullscreenenter"",""1"",""2548""
","
","","","","","","1491.199999988079","<p> Your goal in this round is to sell different plants to a picky customer. </p></div>","","0","instructions","","","","","","","","","","",""
"learning-instructions","61","303668","0.0-9.0-1.0-0.1","4050","2","18","Male","approach_avoid_spark_v1","""event"",""trial"",""time""
""fullscreenenter"",""1"",""2548""
","
","
","""event"",""trial"",""time""
""fullscreenenter"",""1"",""2548""
","
","","","","","","343.39999997615814","<p> The customer likes some plants and dislikes others.  </p><p> On each turn, you will see a plant.   </p><p> You need to decide whether to offer it to the customer or not.  </p>","","0","instructions","","","","","","","","","","",""
"learning-instructions","62","309421","0.0-9.0-1.0-0.2","4050","2","18","Male","approach_avoid_spark_v1","""event"",""trial"",""time""
""fullscreenenter"",""1"",""2548""
","
","
","""event"",""trial"",""time""
""fullscreenenter"",""1"",""2548""
","
","","","","","","405.80000001192093","<p> You can offer the plant by pressing 1 and decide to not offer it by pressing 0. </p><br><div class=""choice-instructions-grid""> <div class=""choice-option""><img src=""images/approach.png"" class=""choice-option-img"" stage=""instructions"" position=""0"" ><div class=""choice-option-text""> Press ""1."" </div></div><div class=""choice-option""><img src=""images/avoid.png"" class=""choice-option-img"" stage=""instructions"" position=""1"" ><div class=""choice-option-text""> Press ""0."" </div></div>","","0","instructions","","","","","","","","","","",""
"learning-instructions","63","318543","0.0-9.0-1.0-0.3","4050","2","18","Male","approach_avoid_spark_v1","""event"",""trial"",""time""
""fullscreenenter"",""1"",""2548""
","
","
","""event"",""trial"",""time""
""fullscreenenter"",""1"",""2548""
","
","","","","","","497.9000000357628","<p> If you offer a plant to the customer that she likes, she will be very pleased! </p><p> But if you offer a plant that she does NOT like, she will be annoyed. </p>","","0","instructions","","","","","","","","","","",""
"learning-instructions","64","331817","0.0-9.0-1.0-0.4","4050","2","18","Male","approach_avoid_spark_v1","""event"",""trial"",""time""
""fullscreenenter"",""1"",""2548""
","
","
","""event"",""trial"",""time""
""fullscreenenter"",""1"",""2548""
","
","","","","","","1182","<p> You will earn points based on how you made the customer feel. </p><p> If you made her pleased, you will WIN anywhere from 1 - 9 points, </p><p> but if you made her annoyed, you will LOSE anywhere from 1 - 9 points. </p>","","0","instructions","","","","","","","","","","",""
"learning-instructions","65","340436","0.0-9.0-1.0-0.5","4050","2","18","Male","approach_avoid_spark_v1","""event"",""trial"",""time""
""fullscreenenter"",""1"",""2548""
","
","
","""event"",""trial"",""time""
""fullscreenenter"",""1"",""2548""
","
","","","","","","1410.3999999761581","<p> You will see how many points you won or lost in the center of the screen. </p><p> Here is what you would see if you won 5 points: </p><p style=""color:green;font-size:50px;font-weight:bolder"">5</p>","","0","instructions","","","","","","","","","","",""
"learning-instructions","66","347430","0.0-9.0-1.0-0.6","4050","2","18","Male","approach_avoid_spark_v1","""event"",""trial"",""time""
""fullscreenenter"",""1"",""2548""
","
","
","""event"",""trial"",""time""
""fullscreenenter"",""1"",""2548""
","
","","","","","","3785","<p> And here is what you would see if you lost 3 points: </p><p style=""color:red;font-size:50px;font-weight:bolder"">-3</p>","","0","instructions","","","","","","","","","","",""
"learning-instructions","67","362577","0.0-9.0-1.0-0.7","4050","2","18","Male","approach_avoid_spark_v1","""event"",""trial"",""time""
""fullscreenenter"",""1"",""2548""
","
","
","""event"",""trial"",""time""
""fullscreenenter"",""1"",""2548""
","
","","","","","","822.1000000238419","<p> Some plants will make the customer VERY pleased or annoyed. </p><p> These plants will make you win or lose LOTS of points. </p><p> The customer will have less strong feelings about other plants. </p><p> These plants will make you win or lose small amounts of points. </p>","","0","instructions","","","","","","","","","","",""
"learning-instructions","68","376148","0.0-9.0-1.0-0.8","4050","2","18","Male","approach_avoid_spark_v1","""event"",""trial"",""time""
""fullscreenenter"",""1"",""2548""
","
","
","""event"",""trial"",""time""
""fullscreenenter"",""1"",""2548""
","
","","","","","","1372.800000011921","<p> If you choose to not offer the plant to the customer, you will not win or lose any points. </p><p>  However, in the center of the screen, you will see the number of points you WOULD HAVE won or lost if you had offered the plant. </p>","","0","instructions","","","","","","","","","","",""
"learning-instructions","69","391325","0.0-9.0-1.0-0.9","4050","2","18","Male","approach_avoid_spark_v1","""event"",""trial"",""time""
""fullscreenenter"",""1"",""2548""
","
","
","""event"",""trial"",""time""
""fullscreenenter"",""1"",""2548""
","
","","","","","","4100.800000011921","<p> Here is what you might see if you did not offer the plant but the customer would have liked it: </p><p style=""color:grey; font-size:50px; display: inline-block; border-spacing: 15px; border-width:3px; border-style:solid; border-color:red"">  &nbsp; 6 &nbsp; </p><p> Remember, in this case, you would not win or lose ANY points because you did not offer the plant.  </p>","","0","instructions","","","","","","","","","","",""
"learning-instructions","70","401498","0.0-9.0-1.0-0.10","4050","2","18","Male","approach_avoid_spark_v1","""event"",""trial"",""time""
""fullscreenenter"",""1"",""2548""
","
","
","""event"",""trial"",""time""
""fullscreenenter"",""1"",""2548""
","
","","","","","","2863.800000011921","<p> Try to make the best choice for each plant because </p><p> at the end of the game, you will earn bonus money based on how many points you earned. </p>","","0","instructions","","","","","","","","","","",""
"learning-instructions","71","413847","0.0-9.0-1.0-0.11","4050","2","18","Male","approach_avoid_spark_v1","""event"",""trial"",""time""
""fullscreenenter"",""1"",""2548""
","
","
","""event"",""trial"",""time""
""fullscreenenter"",""1"",""2548""
","
","","","","","","4162.899999976158","<p> You will have 3 seconds to make each choice. Try to respond before time runs out! </p><p> You will lose 5 points each time you do not make a response. </p>","","0","instructions","","","","","","","","","","",""
"html-keyboard-response","72","414463","0.0-9.0-2.0-0.0","4050","2","18","Male","approach_avoid_spark_v1","""event"",""trial"",""time""
""fullscreenenter"",""1"",""2548""
","
","
","""event"",""trial"",""time""
""fullscreenenter"",""1"",""2548""
","
","","","","","","null","<div style=""font-size:60px;"">+</div>","null","","fixation","","","","","","","","","","",""
"aa-learning-trial","73","417466","0.0-9.0-2.0-1.0","4050","2","18","Male","approach_avoid_spark_v1","""event"",""trial"",""time""
""fullscreenenter"",""1"",""2548""
","
","
","""event"",""trial"",""time""
""fullscreenenter"",""1"",""2548""
","
","","","","","","2101.800000011921","images/bush5.png","","","learning","-3","0","0","0","bush","plants","2","0","","neutral","0"
"html-keyboard-response","74","417975","0.0-9.0-2.0-0.1","4050","2","18","Male","approach_avoid_spark_v1","""event"",""trial"",""time""
""fullscreenenter"",""1"",""2548""
","
","
","""event"",""trial"",""time""
""fullscreenenter"",""1"",""2548""
","
","","","","","","null","<div style=""font-size:60px;"">+</div>","null","","fixation","","","","","","","","","","",""
"aa-learning-trial","75","420980","0.0-9.0-2.0-1.1","4050","2","18","Male","approach_avoid_spark_v1","""event"",""trial"",""time""
""fullscreenenter"",""1"",""2548""
","
","
","""event"",""trial"",""time""
""fullscreenenter"",""1"",""2548""
","
","","","","","","1678.699999988079","images/bush5.png","","","learning","-3","0","0","0","bush","plants","2","0","","neutral","0"
"html-keyboard-response","76","421490","0.0-9.0-2.0-0.2","4050","2","18","Male","approach_avoid_spark_v1","""event"",""trial"",""time""
""fullscreenenter"",""1"",""2548""
","
","
","""event"",""trial"",""time""
""fullscreenenter"",""1"",""2548""
","
","","","","","","null","<div style=""font-size:60px;"">+</div>","null","","fixation","","","","","","","","","","",""
"aa-learning-trial","77","424511","0.0-9.0-2.0-1.2","4050","2","18","Male","approach_avoid_spark_v1","""event"",""trial"",""time""
""fullscreenenter"",""1"",""2548""
","
","
","""event"",""trial"",""time""
""fullscreenenter"",""1"",""2548""
","
","","","","","","1850.8999999761581","images/bush1.png","","","learning","-1","0","0","0","bush","plants","2","0","","neutral","0"
"html-keyboard-response","78","425020","0.0-9.0-2.0-0.3","4050","2","18","Male","approach_avoid_spark_v1","""event"",""trial"",""time""
""fullscreenenter"",""1"",""2548""
","
","
","""event"",""trial"",""time""
""fullscreenenter"",""1"",""2548""
","
","","","","","","null","<div style=""font-size:60px;"">+</div>","null","","fixation","","","","","","","","","","",""
"aa-learning-trial","79","428039","0.0-9.0-2.0-1.3","4050","2","18","Male","approach_avoid_spark_v1","""event"",""trial"",""time""
""fullscreenenter"",""1"",""2548""
","
","
","""event"",""trial"",""time""
""fullscreenenter"",""1"",""2548""
","
","","","","","","1968.7999999523163","images/cactus2.png","","","learning","7","0","0","0","cactus","plants","2","0","","bad","[-3]"
"html-keyboard-response","80","428545","0.0-9.0-2.0-0.4","4050","2","18","Male","approach_avoid_spark_v1","""event"",""trial"",""time""
""fullscreenenter"",""1"",""2548""
","
","
","""event"",""trial"",""time""
""fullscreenenter"",""1"",""2548""
","
","","","","","","null","<div style=""font-size:60px;"">+</div>","null","","fixation","","","","","","","","","","",""
"aa-learning-trial","81","431565","0.0-9.0-2.0-1.4","4050","2","18","Male","approach_avoid_spark_v1","""event"",""trial"",""time""
""fullscreenenter"",""1"",""2548""
","
","
","""event"",""trial"",""time""
""fullscreenenter"",""1"",""2548""
","
","","","","","","812.0999999642372","images/tree6.png","","","learning","-6","-6","1","1","tree","plants","2","0","","good","[5]"
"html-keyboard-response","82","432088","0.0-9.0-2.0-0.5","4050","2","18","Male","approach_avoid_spark_v1","""event"",""trial"",""time""
""fullscreenenter"",""1"",""2548""
","
","
","""event"",""trial"",""time""
""fullscreenenter"",""1"",""2548""
","
","","","","","","null","<div style=""font-size:60px;"">+</div>","null","","fixation","","","","","","","","","","",""
"aa-learning-trial","83","435113","0.0-9.0-2.0-1.5","4050","2","18","Male","approach_avoid_spark_v1","""event"",""trial"",""time""
""fullscreenenter"",""1"",""2548""
","
","
","""event"",""trial"",""time""
""fullscreenenter"",""1"",""2548""
","
","","","","","","826.1999999880791","images/tree5.png","","","learning","-5","-5","1","1","tree","plants","2","0","","good","[5]"
"html-keyboard-response","84","435621","0.0-9.0-2.0-0.6","4050","2","18","Male","approach_avoid_spark_v1","""event"",""trial"",""time""
""fullscreenenter"",""1"",""2548""
","
","
","""event"",""trial"",""time""
""fullscreenenter"",""1"",""2548""
","
","","","","","","null","<div style=""font-size:60px;"">+</div>","null","","fixation","","","","","","","","","","",""
"aa-learning-trial","85","438630","0.0-9.0-2.0-1.6","4050","2","18","Male","approach_avoid_spark_v1","""event"",""trial"",""time""
""fullscreenenter"",""1"",""2548""
","
","
","""event"",""trial"",""time""
""fullscreenenter"",""1"",""2548""
","
","","","","","","776.6000000238419","images/tree2.png","","","learning","3","0","0","0","tree","plants","2","0","","good","[5]"
"html-keyboard-response","86","439139","0.0-9.0-2.0-0.7","4050","2","18","Male","approach_avoid_spark_v1","""event"",""trial"",""time""
""fullscreenenter"",""1"",""2548""
","
","
","""event"",""trial"",""time""
""fullscreenenter"",""1"",""2548""
","
","","","","","","null","<div style=""font-size:60px;"">+</div>","null","","fixation","","","","","","","","","","",""
"aa-learning-trial","87","442146","0.0-9.0-2.0-1.7","4050","2","18","Male","approach_avoid_spark_v1","""event"",""trial"",""time""
""fullscreenenter"",""1"",""2548""
","
","
","""event"",""trial"",""time""
""fullscreenenter"",""1"",""2548""
","
","","","","","","1018","images/bush8.png","","","learning","-8","0","0","0","bush","plants","2","0","","neutral","0"
"html-keyboard-response","88","442649","0.0-9.0-2.0-0.8","4050","2","18","Male","approach_avoid_spark_v1","""event"",""trial"",""time""
""fullscreenenter"",""1"",""2548""
","
","
","""event"",""trial"",""time""
""fullscreenenter"",""1"",""2548""
","
","","","","","","null","<div style=""font-size:60px;"">+</div>","null","","fixation","","","","","","","","","","",""
"aa-learning-trial","89","445668","0.0-9.0-2.0-1.8","4050","2","18","Male","approach_avoid_spark_v1","""event"",""trial"",""time""
""fullscreenenter"",""1"",""2548""
","
","
","""event"",""trial"",""time""
""fullscreenenter"",""1"",""2548""
","
","","","","","","897.3999999761581","images/cactus7.png","","","learning","-7","-7","1","1","cactus","plants","2","0","","bad","[-3]"
"html-keyboard-response","90","446170","0.0-9.0-2.0-0.9","4050","2","18","Male","approach_avoid_spark_v1","""event"",""trial"",""time""
""fullscreenenter"",""1"",""2548""
","
","
","""event"",""trial"",""time""
""fullscreenenter"",""1"",""2548""
","
","","","","","","null","<div style=""font-size:60px;"">+</div>","null","","fixation","","","","","","","","","","",""
"aa-learning-trial","91","449178","0.0-9.0-2.0-1.9","4050","2","18","Male","approach_avoid_spark_v1","""event"",""trial"",""time""
""fullscreenenter"",""1"",""2548""
","
","
","""event"",""trial"",""time""
""fullscreenenter"",""1"",""2548""
","
","","","","","","1273.6000000238419","images/bush8.png","","","learning","-8","0","0","0","bush","plants","2","0","","neutral","0"
"html-keyboard-response","92","449681","0.0-9.0-2.0-0.10","4050","2","18","Male","approach_avoid_spark_v1","""event"",""trial"",""time""
""fullscreenenter"",""1"",""2548""
","
","
","""event"",""trial"",""time""
""fullscreenenter"",""1"",""2548""
","
","","","","","","null","<div style=""font-size:60px;"">+</div>","null","","fixation","","","","","","","","","","",""
"aa-learning-trial","93","452689","0.0-9.0-2.0-1.10","4050","2","18","Male","approach_avoid_spark_v1","""event"",""trial"",""time""
""fullscreenenter"",""1"",""2548""
","
","
","""event"",""trial"",""time""
""fullscreenenter"",""1"",""2548""
","
","","","","","","641.6000000238419","images/cactus3.png","","","learning","-4","-4","1","1","cactus","plants","2","0","","bad","[-3]"
"html-keyboard-response","94","453194","0.0-9.0-2.0-0.11","4050","2","18","Male","approach_avoid_spark_v1","""event"",""trial"",""time""
""fullscreenenter"",""1"",""2548""
","
","
","""event"",""trial"",""time""
""fullscreenenter"",""1"",""2548""
","
","","","","","","null","<div style=""font-size:60px;"">+</div>","null","","fixation","","","","","","","","","","",""
"aa-learning-trial","95","456202","0.0-9.0-2.0-1.11","4050","2","18","Male","approach_avoid_spark_v1","""event"",""trial"",""time""
""fullscreenenter"",""1"",""2548""
","
","
","""event"",""trial"",""time""
""fullscreenenter"",""1"",""2548""
","
","","","","","","769.8000000119209","images/cactus3.png","","","learning","-4","-4","1","1","cactus","plants","2","0","","bad","[-3]"
"html-keyboard-response","96","456720","0.0-9.0-2.0-0.12","4050","2","18","Male","approach_avoid_spark_v1","""event"",""trial"",""time""
""fullscreenenter"",""1"",""2548""
","
","
","""event"",""trial"",""time""
""fullscreenenter"",""1"",""2548""
","
","","","","","","null","<div style=""font-size:60px;"">+</div>","null","","fixation","","","","","","","","","","",""
"aa-learning-trial","97","459722","0.0-9.0-2.0-1.12","4050","2","18","Male","approach_avoid_spark_v1","""event"",""trial"",""time""
""fullscreenenter"",""1"",""2548""
","
","
","""event"",""trial"",""time""
""fullscreenenter"",""1"",""2548""
","
","","","","","","919.6000000238419","images/tree5.png","","","learning","-5","-5","1","1","tree","plants","2","0","","good","[5]"
"html-keyboard-response","98","460226","0.0-9.0-2.0-0.13","4050","2","18","Male","approach_avoid_spark_v1","""event"",""trial"",""time""
""fullscreenenter"",""1"",""2548""
","
","
","""event"",""trial"",""time""
""fullscreenenter"",""1"",""2548""
","
","","","","","","null","<div style=""font-size:60px;"">+</div>","null","","fixation","","","","","","","","","","",""
"aa-learning-trial","99","463234","0.0-9.0-2.0-1.13","4050","2","18","Male","approach_avoid_spark_v1","""event"",""trial"",""time""
""fullscreenenter"",""1"",""2548""
","
","
","""event"",""trial"",""time""
""fullscreenenter"",""1"",""2548""
","
","","","","","","1030.1000000238419","images/cactus7.png","","","learning","-7","0","0","0","cactus","plants","2","0","","bad","[-3]"
"html-keyboard-response","100","463745","0.0-9.0-2.0-0.14","4050","2","18","Male","approach_avoid_spark_v1","""event"",""trial"",""time""
""fullscreenenter"",""1"",""2548""
","
","
","""event"",""trial"",""time""
""fullscreenenter"",""1"",""2548""
","
","","","","","","null","<div style=""font-size:60px;"">+</div>","null","","fixation","","","","","","","","","","",""
"aa-learning-trial","101","466754","0.0-9.0-2.0-1.14","4050","2","18","Male","approach_avoid_spark_v1","""event"",""trial"",""time""
""fullscreenenter"",""1"",""2548""
","
","
","""event"",""trial"",""time""
""fullscreenenter"",""1"",""2548""
","
","","","","","","999.1000000238419","images/tree6.png","","","learning","-6","0","0","0","tree","plants","2","0","","good","[5]"
"html-keyboard-response","102","467258","0.0-9.0-2.0-0.15","4050","2","18","Male","approach_avoid_spark_v1","""event"",""trial"",""time""
""fullscreenenter"",""1"",""2548""
","
","
","""event"",""trial"",""time""
""fullscreenenter"",""1"",""2548""
","
","","","","","","null","<div style=""font-size:60px;"">+</div>","null","","fixation","","","","","","","","","","",""
"aa-learning-trial","103","470265","0.0-9.0-2.0-1.15","4050","2","18","Male","approach_avoid_spark_v1","""event"",""trial"",""time""
""fullscreenenter"",""1"",""2548""
","
","
","""event"",""trial"",""time""
""fullscreenenter"",""1"",""2548""
","
","","","","","","679.1000000238419","images/cactus6.png","","","learning","2","2","1","1","cactus","plants","2","0","","bad","[-3]"
"html-keyboard-response","104","470769","0.0-9.0-2.0-0.16","4050","2","18","Male","approach_avoid_spark_v1","""event"",""trial"",""time""
""fullscreenenter"",""1"",""2548""
","
","
","""event"",""trial"",""time""
""fullscreenenter"",""1"",""2548""
","
","","","","","","null","<div style=""font-size:60px;"">+</div>","null","","fixation","","","","","","","","","","",""
"aa-learning-trial","105","473778","0.0-9.0-2.0-1.16","4050","2","18","Male","approach_avoid_spark_v1","""event"",""trial"",""time""
""fullscreenenter"",""1"",""2548""
","
","
","""event"",""trial"",""time""
""fullscreenenter"",""1"",""2548""
","
","","","","","","684.5","images/bush8.png","","","learning","-8","0","0","0","bush","plants","2","0","","neutral","0"
"html-keyboard-response","106","474282","0.0-9.0-2.0-0.17","4050","2","18","Male","approach_avoid_spark_v1","""event"",""trial"",""time""
""fullscreenenter"",""1"",""2548""
","
","
","""event"",""trial"",""time""
""fullscreenenter"",""1"",""2548""
","
","","","","","","null","<div style=""font-size:60px;"">+</div>","null","","fixation","","","","","","","","","","",""
"aa-learning-trial","107","477289","0.0-9.0-2.0-1.17","4050","2","18","Male","approach_avoid_spark_v1","""event"",""trial"",""time""
""fullscreenenter"",""1"",""2548""
","
","
","""event"",""trial"",""time""
""fullscreenenter"",""1"",""2548""
","
","","","","","","1188.9000000357628","images/cactus2.png","","","learning","7","7","1","1","cactus","plants","2","0","","bad","[-3]"
"html-keyboard-response","108","477803","0.0-9.0-2.0-0.18","4050","2","18","Male","approach_avoid_spark_v1","""event"",""trial"",""time""
""fullscreenenter"",""1"",""2548""
","
","
","""event"",""trial"",""time""
""fullscreenenter"",""1"",""2548""
","
","","","","","","null","<div style=""font-size:60px;"">+</div>","null","","fixation","","","","","","","","","","",""
"aa-learning-trial","109","480809","0.0-9.0-2.0-1.18","4050","2","18","Male","approach_avoid_spark_v1","""event"",""trial"",""time""
""fullscreenenter"",""1"",""2548""
","
","
","""event"",""trial"",""time""
""fullscreenenter"",""1"",""2548""
","
","","","","","","2064.300000011921","images/cactus3.png","","","learning","-4","0","0","0","cactus","plants","2","0","","bad","[-3]"
"html-keyboard-response","110","481313","0.0-9.0-2.0-0.19","4050","2","18","Male","approach_avoid_spark_v1","""event"",""trial"",""time""
""fullscreenenter"",""1"",""2548""
","
","
","""event"",""trial"",""time""
""fullscreenenter"",""1"",""2548""
","
","","","","","","null","<div style=""font-size:60px;"">+</div>","null","","fixation","","","","","","","","","","",""
"aa-learning-trial","111","484322","0.0-9.0-2.0-1.19","4050","2","18","Male","approach_avoid_spark_v1","""event"",""trial"",""time""
""fullscreenenter"",""1"",""2548""
","
","
","""event"",""trial"",""time""
""fullscreenenter"",""1"",""2548""
","
","","","","","","851.5999999642372","images/cactus7.png","","","learning","-7","0","0","0","cactus","plants","2","0","","bad","[-3]"
"html-keyboard-response","112","484826","0.0-9.0-2.0-0.20","4050","2","18","Male","approach_avoid_spark_v1","""event"",""trial"",""time""
""fullscreenenter"",""1"",""2548""
","
","
","""event"",""trial"",""time""
""fullscreenenter"",""1"",""2548""
","
","","","","","","null","<div style=""font-size:60px;"">+</div>","null","","fixation","","","","","","","","","","",""
"aa-learning-trial","113","487834","0.0-9.0-2.0-1.20","4050","2","18","Male","approach_avoid_spark_v1","""event"",""trial"",""time""
""fullscreenenter"",""1"",""2548""
","
","
","""event"",""trial"",""time""
""fullscreenenter"",""1"",""2548""
","
","","","","","","769","images/bush5.png","","","learning","-3","0","0","0","bush","plants","2","0","","neutral","0"
"html-keyboard-response","114","488337","0.0-9.0-2.0-0.21","4050","2","18","Male","approach_avoid_spark_v1","""event"",""trial"",""time""
""fullscreenenter"",""1"",""2548""
","
","
","""event"",""trial"",""time""
""fullscreenenter"",""1"",""2548""
","
","","","","","","null","<div style=""font-size:60px;"">+</div>","null","","fixation","","","","","","","","","","",""
"aa-learning-trial","115","491358","0.0-9.0-2.0-1.21","4050","2","18","Male","approach_avoid_spark_v1","""event"",""trial"",""time""
""fullscreenenter"",""1"",""2548""
","
","
","""event"",""trial"",""time""
""fullscreenenter"",""1"",""2548""
","
","","","","","","771.8000000119209","images/tree2.png","","","learning","3","3","1","1","tree","plants","2","0","","good","[5]"
"html-keyboard-response","116","491866","0.0-9.0-2.0-0.22","4050","2","18","Male","approach_avoid_spark_v1","""event"",""trial"",""time""
""fullscreenenter"",""1"",""2548""
","
","
","""event"",""trial"",""time""
""fullscreenenter"",""1"",""2548""
","
","","","","","","null","<div style=""font-size:60px;"">+</div>","null","","fixation","","","","","","","","","","",""
"aa-learning-trial","117","494874","0.0-9.0-2.0-1.22","4050","2","18","Male","approach_avoid_spark_v1","""event"",""trial"",""time""
""fullscreenenter"",""1"",""2548""
","
","
","""event"",""trial"",""time""
""fullscreenenter"",""1"",""2548""
","
","","","","","","685.8999999761581","images/tree6.png","","","learning","-6","0","0","0","tree","plants","2","0","","good","[5]"
"html-keyboard-response","118","495377","0.0-9.0-2.0-0.23","4050","2","18","Male","approach_avoid_spark_v1","""event"",""trial"",""time""
""fullscreenenter"",""1"",""2548""
","
","
","""event"",""trial"",""time""
""fullscreenenter"",""1"",""2548""
","
","","","","","","null","<div style=""font-size:60px;"">+</div>","null","","fixation","","","","","","","","","","",""
"aa-learning-trial","119","498386","0.0-9.0-2.0-1.23","4050","2","18","Male","approach_avoid_spark_v1","""event"",""trial"",""time""
""fullscreenenter"",""1"",""2548""
","
","
","""event"",""trial"",""time""
""fullscreenenter"",""1"",""2548""
","
","","","","","","776.3000000119209","images/cactus8.png","","","learning","4","4","1","1","cactus","plants","2","0","","bad","[-3]"
"html-keyboard-response","120","498889","0.0-9.0-2.0-0.24","4050","2","18","Male","approach_avoid_spark_v1","""event"",""trial"",""time""
""fullscreenenter"",""1"",""2548""
","
","
","""event"",""trial"",""time""
""fullscreenenter"",""1"",""2548""
","
","","","","","","null","<div style=""font-size:60px;"">+</div>","null","","fixation","","","","","","","","","","",""
"aa-learning-trial","121","501897","0.0-9.0-2.0-1.24","4050","2","18","Male","approach_avoid_spark_v1","""event"",""trial"",""time""
""fullscreenenter"",""1"",""2548""
","
","
","""event"",""trial"",""time""
""fullscreenenter"",""1"",""2548""
","
","","","","","","546.2000000476837","images/tree6.png","","","learning","-6","0","0","0","tree","plants","2","0","","good","[5]"
"html-keyboard-response","122","502402","0.0-9.0-2.0-0.25","4050","2","18","Male","approach_avoid_spark_v1","""event"",""trial"",""time""
""fullscreenenter"",""1"",""2548""
","
","
","""event"",""trial"",""time""
""fullscreenenter"",""1"",""2548""
","
","","","","","","null","<div style=""font-size:60px;"">+</div>","null","","fixation","","","","","","","","","","",""
"aa-learning-trial","123","505410","0.0-9.0-2.0-1.25","4050","2","18","Male","approach_avoid_spark_v1","""event"",""trial"",""time""
""fullscreenenter"",""1"",""2548""
","
","
","""event"",""trial"",""time""
""fullscreenenter"",""1"",""2548""
","
","","","","","","901.4000000357628","images/cactus7.png","","","learning","-7","0","0","0","cactus","plants","2","0","","bad","[-3]"
"html-keyboard-response","124","505913","0.0-9.0-2.0-0.26","4050","2","18","Male","approach_avoid_spark_v1","""event"",""trial"",""time""
""fullscreenenter"",""1"",""2548""
","
","
","""event"",""trial"",""time""
""fullscreenenter"",""1"",""2548""
","
","","","","","","null","<div style=""font-size:60px;"">+</div>","null","","fixation","","","","","","","","","","",""
"aa-learning-trial","125","508922","0.0-9.0-2.0-1.26","4050","2","18","Male","approach_avoid_spark_v1","""event"",""trial"",""time""
""fullscreenenter"",""1"",""2548""
","
","
","""event"",""trial"",""time""
""fullscreenenter"",""1"",""2548""
","
","","","","","","796.4000000357628","images/tree5.png","","","learning","-5","0","0","0","tree","plants","2","0","","good","[5]"
"html-keyboard-response","126","509426","0.0-9.0-2.0-0.27","4050","2","18","Male","approach_avoid_spark_v1","""event"",""trial"",""time""
""fullscreenenter"",""1"",""2548""
","
","
","""event"",""trial"",""time""
""fullscreenenter"",""1"",""2548""
","
","","","","","","null","<div style=""font-size:60px;"">+</div>","null","","fixation","","","","","","","","","","",""
"aa-learning-trial","127","512434","0.0-9.0-2.0-1.27","4050","2","18","Male","approach_avoid_spark_v1","""event"",""trial"",""time""
""fullscreenenter"",""1"",""2548""
","
","
","""event"",""trial"",""time""
""fullscreenenter"",""1"",""2548""
","
","","","","","","564.8000000119209","images/bush1.png","","","learning","-1","0","0","0","bush","plants","2","0","","neutral","0"
"html-keyboard-response","128","512938","0.0-9.0-2.0-0.28","4050","2","18","Male","approach_avoid_spark_v1","""event"",""trial"",""time""
""fullscreenenter"",""1"",""2548""
","
","
","""event"",""trial"",""time""
""fullscreenenter"",""1"",""2548""
","
","","","","","","null","<div style=""font-size:60px;"">+</div>","null","","fixation","","","","","","","","","","",""
"aa-learning-trial","129","515943","0.0-9.0-2.0-1.28","4050","2","18","Male","approach_avoid_spark_v1","""event"",""trial"",""time""
""fullscreenenter"",""1"",""2548""
","
","
","""event"",""trial"",""time""
""fullscreenenter"",""1"",""2548""
","
","","","","","","2034.0999999642372","images/cactus2.png","","","learning","7","7","1","1","cactus","plants","2","0","","bad","[-3]"
"html-keyboard-response","130","516449","0.0-9.0-2.0-0.29","4050","2","18","Male","approach_avoid_spark_v1","""event"",""trial"",""time""
""fullscreenenter"",""1"",""2548""
","
","
","""event"",""trial"",""time""
""fullscreenenter"",""1"",""2548""
","
","","","","","","null","<div style=""font-size:60px;"">+</div>","null","","fixation","","","","","","","","","","",""
"aa-learning-trial","131","519458","0.0-9.0-2.0-1.29","4050","2","18","Male","approach_avoid_spark_v1","""event"",""trial"",""time""
""fullscreenenter"",""1"",""2548""
","
","
","""event"",""trial"",""time""
""fullscreenenter"",""1"",""2548""
","
","","","","","","557.5","images/cactus7.png","","","learning","-7","0","0","0","cactus","plants","2","0","","bad","[-3]"
"html-keyboard-response","132","519969","0.0-9.0-2.0-0.30","4050","2","18","Male","approach_avoid_spark_v1","""event"",""trial"",""time""
""fullscreenenter"",""1"",""2548""
","
","
","""event"",""trial"",""time""
""fullscreenenter"",""1"",""2548""
","
","","","","","","null","<div style=""font-size:60px;"">+</div>","null","","fixation","","","","","","","","","","",""
"aa-learning-trial","133","522978","0.0-9.0-2.0-1.30","4050","2","18","Male","approach_avoid_spark_v1","""event"",""trial"",""time""
""fullscreenenter"",""1"",""2548""
","
","
","""event"",""trial"",""time""
""fullscreenenter"",""1"",""2548""
","
","","","","","","1058.300000011921","images/tree3.png","","","learning","6","0","0","0","tree","plants","2","0","","good","[5]"
"html-keyboard-response","134","523482","0.0-9.0-2.0-0.31","4050","2","18","Male","approach_avoid_spark_v1","""event"",""trial"",""time""
""fullscreenenter"",""1"",""2548""
","
","
","""event"",""trial"",""time""
""fullscreenenter"",""1"",""2548""
","
","","","","","","null","<div style=""font-size:60px;"">+</div>","null","","fixation","","","","","","","","","","",""
"aa-learning-trial","135","526490","0.0-9.0-2.0-1.31","4050","2","18","Male","approach_avoid_spark_v1","""event"",""trial"",""time""
""fullscreenenter"",""1"",""2548""
","
","
","""event"",""trial"",""time""
""fullscreenenter"",""1"",""2548""
","
","","","","","","629.8000000119209","images/bush8.png","","","learning","-8","0","0","0","bush","plants","2","0","","neutral","0"
"html-keyboard-response","136","527007","0.0-9.0-2.0-0.32","4050","2","18","Male","approach_avoid_spark_v1","""event"",""trial"",""time""
""fullscreenenter"",""1"",""2548""
","
","
","""event"",""trial"",""time""
""fullscreenenter"",""1"",""2548""
","
","","","","","","null","<div style=""font-size:60px;"">+</div>","null","","fixation","","","","","","","","","","",""
"aa-learning-trial","137","530010","0.0-9.0-2.0-1.32","4050","2","18","Male","approach_avoid_spark_v1","""event"",""trial"",""time""
""fullscreenenter"",""1"",""2548""
","
","
","""event"",""trial"",""time""
""fullscreenenter"",""1"",""2548""
","
","","","","","","539.5","images/tree5.png","","","learning","-5","0","0","0","tree","plants","2","0","","good","[5]"
"html-keyboard-response","138","530514","0.0-9.0-2.0-0.33","4050","2","18","Male","approach_avoid_spark_v1","""event"",""trial"",""time""
""fullscreenenter"",""1"",""2548""
","
","
","""event"",""trial"",""time""
""fullscreenenter"",""1"",""2548""
","
","","","","","","null","<div style=""font-size:60px;"">+</div>","null","","fixation","","","","","","","","","","",""
"aa-learning-trial","139","533521","0.0-9.0-2.0-1.33","4050","2","18","Male","approach_avoid_spark_v1","""event"",""trial"",""time""
""fullscreenenter"",""1"",""2548""
","
","
","""event"",""trial"",""time""
""fullscreenenter"",""1"",""2548""
","
","","","","","","1130.1000000238419","images/tree1.png","","","learning","1","1","1","1","tree","plants","2","0","","good","[5]"
"html-keyboard-response","140","534026","0.0-9.0-2.0-0.34","4050","2","18","Male","approach_avoid_spark_v1","""event"",""trial"",""time""
""fullscreenenter"",""1"",""2548""
","
","
","""event"",""trial"",""time""
""fullscreenenter"",""1"",""2548""
","
","","","","","","null","<div style=""font-size:60px;"">+</div>","null","","fixation","","","","","","","","","","",""
"aa-learning-trial","141","537033","0.0-9.0-2.0-1.34","4050","2","18","Male","approach_avoid_spark_v1","""event"",""trial"",""time""
""fullscreenenter"",""1"",""2548""
","
","
","""event"",""trial"",""time""
""fullscreenenter"",""1"",""2548""
","
","","","","","","1091.7000000476837","images/cactus3.png","","","learning","-4","0","0","0","cactus","plants","2","0","","bad","[-3]"
"html-keyboard-response","142","537538","0.0-9.0-2.0-0.35","4050","2","18","Male","approach_avoid_spark_v1","""event"",""trial"",""time""
""fullscreenenter"",""1"",""2548""
","
","
","""event"",""trial"",""time""
""fullscreenenter"",""1"",""2548""
","
","","","","","","null","<div style=""font-size:60px;"">+</div>","null","","fixation","","","","","","","","","","",""
"aa-learning-trial","143","540546","0.0-9.0-2.0-1.35","4050","2","18","Male","approach_avoid_spark_v1","""event"",""trial"",""time""
""fullscreenenter"",""1"",""2548""
","
","
","""event"",""trial"",""time""
""fullscreenenter"",""1"",""2548""
","
","","","","","","566.3999999761581","images/tree6.png","","","learning","-6","0","0","0","tree","plants","2","0","","good","[5]"
"html-keyboard-response","144","541050","0.0-9.0-2.0-0.36","4050","2","18","Male","approach_avoid_spark_v1","""event"",""trial"",""time""
""fullscreenenter"",""1"",""2548""
","
","
","""event"",""trial"",""time""
""fullscreenenter"",""1"",""2548""
","
","","","","","","null","<div style=""font-size:60px;"">+</div>","null","","fixation","","","","","","","","","","",""
"aa-learning-trial","145","544057","0.0-9.0-2.0-1.36","4050","2","18","Male","approach_avoid_spark_v1","""event"",""trial"",""time""
""fullscreenenter"",""1"",""2548""
","
","
","""event"",""trial"",""time""
""fullscreenenter"",""1"",""2548""
","
","","","","","","504.0999999642372","images/bush1.png","","","learning","-1","0","0","0","bush","plants","2","0","","neutral","0"
"html-keyboard-response","146","544569","0.0-9.0-2.0-0.37","4050","2","18","Male","approach_avoid_spark_v1","""event"",""trial"",""time""
""fullscreenenter"",""1"",""2548""
","
","
","""event"",""trial"",""time""
""fullscreenenter"",""1"",""2548""
","
","","","","","","null","<div style=""font-size:60px;"">+</div>","null","","fixation","","","","","","","","","","",""
"aa-learning-trial","147","547578","0.0-9.0-2.0-1.37","4050","2","18","Male","approach_avoid_spark_v1","""event"",""trial"",""time""
""fullscreenenter"",""1"",""2548""
","
","
","""event"",""trial"",""time""
""fullscreenenter"",""1"",""2548""
","
","","","","","","644.8000000119209","images/bush5.png","","","learning","-3","0","0","0","bush","plants","2","0","","neutral","0"
"html-keyboard-response","148","548082","0.0-9.0-2.0-0.38","4050","2","18","Male","approach_avoid_spark_v1","""event"",""trial"",""time""
""fullscreenenter"",""1"",""2548""
","
","
","""event"",""trial"",""time""
""fullscreenenter"",""1"",""2548""
","
","","","","","","null","<div style=""font-size:60px;"">+</div>","null","","fixation","","","","","","","","","","",""
"aa-learning-trial","149","551089","0.0-9.0-2.0-1.38","4050","2","18","Male","approach_avoid_spark_v1","""event"",""trial"",""time""
""fullscreenenter"",""1"",""2548""
","
","
","""event"",""trial"",""time""
""fullscreenenter"",""1"",""2548""
","
","","","","","","711.8000000119209","images/tree6.png","","","learning","-6","0","0","0","tree","plants","2","0","","good","[5]"
"html-keyboard-response","150","551594","0.0-9.0-2.0-0.39","4050","2","18","Male","approach_avoid_spark_v1","""event"",""trial"",""time""
""fullscreenenter"",""1"",""2548""
","
","
","""event"",""trial"",""time""
""fullscreenenter"",""1"",""2548""
","
","","","","","","null","<div style=""font-size:60px;"">+</div>","null","","fixation","","","","","","","","","","",""
"aa-learning-trial","151","554601","0.0-9.0-2.0-1.39","4050","2","18","Male","approach_avoid_spark_v1","""event"",""trial"",""time""
""fullscreenenter"",""1"",""2548""
","
","
","""event"",""trial"",""time""
""fullscreenenter"",""1"",""2548""
","
","","","","","","547.8999999761581","images/tree5.png","","","learning","-5","0","0","0","tree","plants","2","0","","good","[5]"
"html-keyboard-response","152","555105","0.0-9.0-2.0-0.40","4050","2","18","Male","approach_avoid_spark_v1","""event"",""trial"",""time""
""fullscreenenter"",""1"",""2548""
","
","
","""event"",""trial"",""time""
""fullscreenenter"",""1"",""2548""
","
","","","","","","null","<div style=""font-size:60px;"">+</div>","null","","fixation","","","","","","","","","","",""
"aa-learning-trial","153","558114","0.0-9.0-2.0-1.40","4050","2","18","Male","approach_avoid_spark_v1","""event"",""trial"",""time""
""fullscreenenter"",""1"",""2548""
","
","
","""event"",""trial"",""time""
""fullscreenenter"",""1"",""2548""
","
","","","","","","899.3999999761581","images/bush6.png","","","learning","9","9","1","1","bush","plants","2","0","","neutral","0"
"html-keyboard-response","154","558618","0.0-9.0-2.0-0.41","4050","2","18","Male","approach_avoid_spark_v1","""event"",""trial"",""time""
""fullscreenenter"",""1"",""2548""
","
","
","""event"",""trial"",""time""
""fullscreenenter"",""1"",""2548""
","
","","","","","","null","<div style=""font-size:60px;"">+</div>","null","","fixation","","","","","","","","","","",""
"aa-learning-trial","155","561626","0.0-9.0-2.0-1.41","4050","2","18","Male","approach_avoid_spark_v1","""event"",""trial"",""time""
""fullscreenenter"",""1"",""2548""
","
","
","""event"",""trial"",""time""
""fullscreenenter"",""1"",""2548""
","
","","","","","","503.5999999642372","images/tree5.png","","","learning","-5","0","0","0","tree","plants","2","0","","good","[5]"
"html-keyboard-response","156","562139","0.0-9.0-2.0-0.42","4050","2","18","Male","approach_avoid_spark_v1","""event"",""trial"",""time""
""fullscreenenter"",""1"",""2548""
","
","
","""event"",""trial"",""time""
""fullscreenenter"",""1"",""2548""
","
","","","","","","null","<div style=""font-size:60px;"">+</div>","null","","fixation","","","","","","","","","","",""
"aa-learning-trial","157","565146","0.0-9.0-2.0-1.42","4050","2","18","Male","approach_avoid_spark_v1","""event"",""trial"",""time""
""fullscreenenter"",""1"",""2548""
","
","
","""event"",""trial"",""time""
""fullscreenenter"",""1"",""2548""
","
","","","","","","499.89999997615814","images/bush5.png","","","learning","-3","0","0","0","bush","plants","2","0","","neutral","0"
"html-keyboard-response","158","565650","0.0-9.0-2.0-0.43","4050","2","18","Male","approach_avoid_spark_v1","""event"",""trial"",""time""
""fullscreenenter"",""1"",""2548""
","
","
","""event"",""trial"",""time""
""fullscreenenter"",""1"",""2548""
","
","","","","","","null","<div style=""font-size:60px;"">+</div>","null","","fixation","","","","","","","","","","",""
"aa-learning-trial","159","568657","0.0-9.0-2.0-1.43","4050","2","18","Male","approach_avoid_spark_v1","""event"",""trial"",""time""
""fullscreenenter"",""1"",""2548""
","
","
","""event"",""trial"",""time""
""fullscreenenter"",""1"",""2548""
","
","","","","","","1042.4000000357628","images/cactus3.png","","","learning","-4","0","0","0","cactus","plants","2","0","","bad","[-3]"
"html-keyboard-response","160","569162","0.0-9.0-2.0-0.44","4050","2","18","Male","approach_avoid_spark_v1","""event"",""trial"",""time""
""fullscreenenter"",""1"",""2548""
","
","
","""event"",""trial"",""time""
""fullscreenenter"",""1"",""2548""
","
","","","","","","null","<div style=""font-size:60px;"">+</div>","null","","fixation","","","","","","","","","","",""
"aa-learning-trial","161","572169","0.0-9.0-2.0-1.44","4050","2","18","Male","approach_avoid_spark_v1","""event"",""trial"",""time""
""fullscreenenter"",""1"",""2548""
","
","
","""event"",""trial"",""time""
""fullscreenenter"",""1"",""2548""
","
","","","","","","512.3000000119209","images/cactus3.png","","","learning","-4","0","0","0","cactus","plants","2","0","","bad","[-3]"
"html-keyboard-response","162","572684","0.0-9.0-2.0-0.45","4050","2","18","Male","approach_avoid_spark_v1","""event"",""trial"",""time""
""fullscreenenter"",""1"",""2548""
","
","
","""event"",""trial"",""time""
""fullscreenenter"",""1"",""2548""
","
","","","","","","null","<div style=""font-size:60px;"">+</div>","null","","fixation","","","","","","","","","","",""
"aa-learning-trial","163","575690","0.0-9.0-2.0-1.45","4050","2","18","Male","approach_avoid_spark_v1","""event"",""trial"",""time""
""fullscreenenter"",""1"",""2548""
","
","
","""event"",""trial"",""time""
""fullscreenenter"",""1"",""2548""
","
","","","","","","568.6999999880791","images/bush8.png","","","learning","-8","0","0","0","bush","plants","2","0","","neutral","0"
"html-keyboard-response","164","576194","0.0-9.0-2.0-0.46","4050","2","18","Male","approach_avoid_spark_v1","""event"",""trial"",""time""
""fullscreenenter"",""1"",""2548""
","
","
","""event"",""trial"",""time""
""fullscreenenter"",""1"",""2548""
","
","","","","","","null","<div style=""font-size:60px;"">+</div>","null","","fixation","","","","","","","","","","",""
"aa-learning-trial","165","579202","0.0-9.0-2.0-1.46","4050","2","18","Male","approach_avoid_spark_v1","""event"",""trial"",""time""
""fullscreenenter"",""1"",""2548""
","
","
","""event"",""trial"",""time""
""fullscreenenter"",""1"",""2548""
","
","","","","","","1011.5","images/bush3.png","","","learning","5","5","1","1","bush","plants","2","0","","neutral","0"
"html-keyboard-response","166","579705","0.0-9.0-2.0-0.47","4050","2","18","Male","approach_avoid_spark_v1","""event"",""trial"",""time""
""fullscreenenter"",""1"",""2548""
","
","
","""event"",""trial"",""time""
""fullscreenenter"",""1"",""2548""
","
","","","","","","null","<div style=""font-size:60px;"">+</div>","null","","fixation","","","","","","","","","","",""
"aa-learning-trial","167","582713","0.0-9.0-2.0-1.47","4050","2","18","Male","approach_avoid_spark_v1","""event"",""trial"",""time""
""fullscreenenter"",""1"",""2548""
","
","
","""event"",""trial"",""time""
""fullscreenenter"",""1"",""2548""
","
","","","","","","514.5","images/bush5.png","","","learning","-3","0","0","0","bush","plants","2","0","","neutral","0"
"html-keyboard-response","168","583217","0.0-9.0-2.0-0.48","4050","2","18","Male","approach_avoid_spark_v1","""event"",""trial"",""time""
""fullscreenenter"",""1"",""2548""
","
","
","""event"",""trial"",""time""
""fullscreenenter"",""1"",""2548""
","
","","","","","","null","<div style=""font-size:60px;"">+</div>","null","","fixation","","","","","","","","","","",""
"aa-learning-trial","169","586226","0.0-9.0-2.0-1.48","4050","2","18","Male","approach_avoid_spark_v1","""event"",""trial"",""time""
""fullscreenenter"",""1"",""2548""
","
","
","""event"",""trial"",""time""
""fullscreenenter"",""1"",""2548""
","
","","","","","","610.1999999880791","images/bush8.png","","","learning","-8","0","0","0","bush","plants","2","0","","neutral","0"
"html-keyboard-response","170","586729","0.0-9.0-2.0-0.49","4050","2","18","Male","approach_avoid_spark_v1","""event"",""trial"",""time""
""fullscreenenter"",""1"",""2548""
","
","
","""event"",""trial"",""time""
""fullscreenenter"",""1"",""2548""
","
","","","","","","null","<div style=""font-size:60px;"">+</div>","null","","fixation","","","","","","","","","","",""
"aa-learning-trial","171","589738","0.0-9.0-2.0-1.49","4050","2","18","Male","approach_avoid_spark_v1","""event"",""trial"",""time""
""fullscreenenter"",""1"",""2548""
","
","
","""event"",""trial"",""time""
""fullscreenenter"",""1"",""2548""
","
","","","","","","1036.3999999761581","images/cactus7.png","","","learning","-7","0","0","0","cactus","plants","2","0","","bad","[-3]"
"html-keyboard-response","172","590242","0.0-9.0-2.0-0.50","4050","2","18","Male","approach_avoid_spark_v1","""event"",""trial"",""time""
""fullscreenenter"",""1"",""2548""
","
","
","""event"",""trial"",""time""
""fullscreenenter"",""1"",""2548""
","
","","","","","","null","<div style=""font-size:60px;"">+</div>","null","","fixation","","","","","","","","","","",""
"aa-learning-trial","173","593247","0.0-9.0-2.0-1.50","4050","2","18","Male","approach_avoid_spark_v1","""event"",""trial"",""time""
""fullscreenenter"",""1"",""2548""
","
","
","""event"",""trial"",""time""
""fullscreenenter"",""1"",""2548""
","
","","","","","","1499.8999999761581","images/tree2.png","","","learning","3","3","1","1","tree","plants","2","0","","good","[5]"
"html-button-response","174","596167","0.0-9.0-3.0","4050","2","18","Male","approach_avoid_spark_v1","""event"",""trial"",""time""
""fullscreenenter"",""1"",""2548""
","
","
","""event"",""trial"",""time""
""fullscreenenter"",""1"",""2548""
","
","","","","","","2919.900000035763","<p> You have completed the round! <p> In this round, you earned 10 points! </p>","0","","break","","","","","","","","","","",""
"html-button-response","175","597446","0.0-10.0","4050","2","18","Male","approach_avoid_spark_v1","""event"",""trial"",""time""
""fullscreenenter"",""1"",""2548""
","
","
","""event"",""trial"",""time""
""fullscreenenter"",""1"",""2548""
","
","","","","","","1278.3999999761581","<p> Now it's time to play another round. </p>","0","","transition_screen","","","","","","","","","","",""
"preload","176","597560","0.0-11.0-0.0","4050","2","18","Male","approach_avoid_spark_v1","""event"",""trial"",""time""
""fullscreenenter"",""1"",""2548""
","
","
","""event"",""trial"",""time""
""fullscreenenter"",""1"",""2548""
","
","true","false","[]","[]","[]","","","","","","","","","","","","","","","",""
"learning-instructions","177","602797","0.0-11.0-1.0-0.0","4050","2","18","Male","approach_avoid_spark_v1","""event"",""trial"",""time""
""fullscreenenter"",""1"",""2548""
","
","
","""event"",""trial"",""time""
""fullscreenenter"",""1"",""2548""
","
","","","","","","623.3999999761581","<p> Your goal in this round is to decorate your friend's new house with furniture. </p></div>","","0","instructions","","","","","","","","","","",""
"learning-instructions","178","614996","0.0-11.0-1.0-0.1","4050","2","18","Male","approach_avoid_spark_v1","""event"",""trial"",""time""
""fullscreenenter"",""1"",""2548""
","
","
","""event"",""trial"",""time""
""fullscreenenter"",""1"",""2548""
","
","","","","","","2792.399999976158","<p> Your friend likes some pieces of furniture but not others.  </p><p> On each turn, you will see a piece of furniture.   </p><p> You need to decide whether to put it in your friend's house or not.  </p>","","0","instructions","","","","","","","","","","",""
"learning-instructions","179","627115","0.0-11.0-1.0-0.2","4050","2","18","Male","approach_avoid_spark_v1","""event"",""trial"",""time""
""fullscreenenter"",""1"",""2548""
","
","
","""event"",""trial"",""time""
""fullscreenenter"",""1"",""2548""
","
","","","","","","6750.899999976158","<p> You can put the furniture in her house by pressing 1 and deliver it elsewhere by pressing 0. </p><br><div class=""choice-instructions-grid""> <div class=""choice-option""><img src=""images/approach.png"" class=""choice-option-img"" stage=""instructions"" position=""0"" ><div class=""choice-option-text""> Press ""1."" </div></div><div class=""choice-option""><img src=""images/avoid.png"" class=""choice-option-img"" stage=""instructions"" position=""1"" ><div class=""choice-option-text""> Press ""0."" </div></div>","","0","instructions","","","","","","","","","","",""
"learning-instructions","180","637600","0.0-11.0-1.0-0.3","4050","2","18","Male","approach_avoid_spark_v1","""event"",""trial"",""time""
""fullscreenenter"",""1"",""2548""
","
","
","""event"",""trial"",""time""
""fullscreenenter"",""1"",""2548""
","
","","","","","","2056.100000023842","<p> If you decorate your friend's house with furniture she likes, she will be happy! </p><p> But if you give her furniture that she does not like, she will be annoyed. </p>","","0","instructions","","","","","","","","","","",""
"learning-instructions","181","654076","0.0-11.0-1.0-0.4","4050","2","18","Male","approach_avoid_spark_v1","""event"",""trial"",""time""
""fullscreenenter"",""1"",""2548""
","
","
","""event"",""trial"",""time""
""fullscreenenter"",""1"",""2548""
","
","","","","","","4712.100000023842","<p> You will earn points based on how you made your friend feel. </p><p> If you made her happy, you will WIN anywhere from 1 - 9 points, </p><p> but if you made her annoyed you will LOSE anywhere from 1 - 9 points. </p>","","0","instructions","","","","","","","","","","",""
"learning-instructions","182","665564","0.0-11.0-1.0-0.5","4050","2","18","Male","approach_avoid_spark_v1","""event"",""trial"",""time""
""fullscreenenter"",""1"",""2548""
","
","
","""event"",""trial"",""time""
""fullscreenenter"",""1"",""2548""
","
","","","","","","4829.899999976158","<p> You will see how many points you won or lost in the center of the screen. </p><p> Here is what you would see if you won 5 points: </p><p style=""color:green;font-size:50px;font-weight:bolder"">5</p>","","0","instructions","","","","","","","","","","",""
"learning-instructions","183","669655","0.0-11.0-1.0-0.6","4050","2","18","Male","approach_avoid_spark_v1","""event"",""trial"",""time""
""fullscreenenter"",""1"",""2548""
","
","
","""event"",""trial"",""time""
""fullscreenenter"",""1"",""2548""
","
","","","","","","1240.300000011921","<p> And here is what you would see if you lost 3 points: </p><p style=""color:red;font-size:50px;font-weight:bolder"">-3</p>","","0","instructions","","","","","","","","","","",""
"learning-instructions","184","689352","0.0-11.0-1.0-0.7","4050","2","18","Male","approach_avoid_spark_v1","""event"",""trial"",""time""
""fullscreenenter"",""1"",""2548""
","
","
","""event"",""trial"",""time""
""fullscreenenter"",""1"",""2548""
","
","","","","","","2877.199999988079","<p> Some pieces of furniture will make her feel very happy or very annoyed. </p><p> These pieces of furniture will make you win or lose LOTS of points. </p><p> Other pieces of furniture will only make her feel a little happy or a little annoyed. </p><p> These pieces of furniture will make you win or lose small amounts of points. </p>","","0","instructions","","","","","","","","","","",""
"learning-instructions","185","704600","0.0-11.0-1.0-0.8","4050","2","18","Male","approach_avoid_spark_v1","""event"",""trial"",""time""
""fullscreenenter"",""1"",""2548""
","
","
","""event"",""trial"",""time""
""fullscreenenter"",""1"",""2548""
","
","","","","","","2895.899999976158","<p> If you choose to deliver a piece of furniture elsewhere, you will not win or lose any points. </p><p>  However, in the center of the screen, you will see the number of points you WOULD HAVE won or lost if you had given the furniture to your friend. </p>","","0","instructions","","","","","","","","","","",""
"learning-instructions","186","719858","0.0-11.0-1.0-0.9","4050","2","18","Male","approach_avoid_spark_v1","""event"",""trial"",""time""
""fullscreenenter"",""1"",""2548""
","
","
","""event"",""trial"",""time""
""fullscreenenter"",""1"",""2548""
","
","","","","","","4214","<p> Here is what you might see if you did not give a piece of furniture to your friend that would have made her happy: </p><p style=""color:grey; font-size:50px; display: inline-block; border-spacing: 15px; border-width:3px; border-style:solid; border-color:red"">  &nbsp; 6 &nbsp; </p><p> Remember, in this case, you would not win or lose ANY points because you did not give her the furniture.  </p>","","0","instructions","","","","","","","","","","",""
"learning-instructions","187","729802","0.0-11.0-1.0-0.10","4050","2","18","Male","approach_avoid_spark_v1","""event"",""trial"",""time""
""fullscreenenter"",""1"",""2548""
","
","
","""event"",""trial"",""time""
""fullscreenenter"",""1"",""2548""
","
","","","","","","2707.900000035763","<p> Try to make the best choice for each piece of furniture because </p><p> at the end of the game, you will earn bonus money based on how many points you earned. </p>","","0","instructions","","","","","","","","","","",""
"learning-instructions","188","739288","0.0-11.0-1.0-0.11","4050","2","18","Male","approach_avoid_spark_v1","""event"",""trial"",""time""
""fullscreenenter"",""1"",""2548""
","
","
","""event"",""trial"",""time""
""fullscreenenter"",""1"",""2548""
","
","","","","","","1293.8999999761581","<p> You will have 3 seconds to make each choice. Try to respond before time runs out! </p><p> You will lose 5 points each time you do not make a response. </p>","","0","instructions","","","","","","","","","","",""
"html-keyboard-response","189","739928","0.0-11.0-2.0-0.0","4050","2","18","Male","approach_avoid_spark_v1","""event"",""trial"",""time""
""fullscreenenter"",""1"",""2548""
","
","
","""event"",""trial"",""time""
""fullscreenenter"",""1"",""2548""
","
","","","","","","null","<div style=""font-size:60px;"">+</div>","null","","fixation","","","","","","","","","","",""
"aa-learning-trial","190","742937","0.0-11.0-2.0-1.0","4050","2","18","Male","approach_avoid_spark_v1","""event"",""trial"",""time""
""fullscreenenter"",""1"",""2548""
","
","
","""event"",""trial"",""time""
""fullscreenenter"",""1"",""2548""
","
","","","","","","977.4000000357628","images/chair2.png","","","learning","3","3","1","1","chair","furniture","1","1","","good","[5]"
"html-keyboard-response","191","743456","0.0-11.0-2.0-0.1","4050","2","18","Male","approach_avoid_spark_v1","""event"",""trial"",""time""
""fullscreenenter"",""1"",""2548""
","
","
","""event"",""trial"",""time""
""fullscreenenter"",""1"",""2548""
","
","","","","","","null","<div style=""font-size:60px;"">+</div>","null","","fixation","","","","","","","","","","",""
"aa-learning-trial","192","746471","0.0-11.0-2.0-1.1","4050","2","18","Male","approach_avoid_spark_v1","""event"",""trial"",""time""
""fullscreenenter"",""1"",""2548""
","
","
","""event"",""trial"",""time""
""fullscreenenter"",""1"",""2548""
","
","","","","","","688.1999999880791","images/chair7.png","","","learning","5","0","0","0","chair","furniture","1","1","","good","[5]"
"html-keyboard-response","193","746979","0.0-11.0-2.0-0.2","4050","2","18","Male","approach_avoid_spark_v1","""event"",""trial"",""time""
""fullscreenenter"",""1"",""2548""
","
","
","""event"",""trial"",""time""
""fullscreenenter"",""1"",""2548""
","
","","","","","","null","<div style=""font-size:60px;"">+</div>","null","","fixation","","","","","","","","","","",""
"aa-learning-trial","194","749986","0.0-11.0-2.0-1.2","4050","2","18","Male","approach_avoid_spark_v1","""event"",""trial"",""time""
""fullscreenenter"",""1"",""2548""
","
","
","""event"",""trial"",""time""
""fullscreenenter"",""1"",""2548""
","
","","","","","","667.8000000119209","images/bed1.png","","","learning","1","1","1","1","bed","furniture","1","1","","neutral","0"
"html-keyboard-response","195","750494","0.0-11.0-2.0-0.3","4050","2","18","Male","approach_avoid_spark_v1","""event"",""trial"",""time""
""fullscreenenter"",""1"",""2548""
","
","
","""event"",""trial"",""time""
""fullscreenenter"",""1"",""2548""
","
","","","","","","null","<div style=""font-size:60px;"">+</div>","null","","fixation","","","","","","","","","","",""
"aa-learning-trial","196","753512","0.0-11.0-2.0-1.3","4050","2","18","Male","approach_avoid_spark_v1","""event"",""trial"",""time""
""fullscreenenter"",""1"",""2548""
","
","
","""event"",""trial"",""time""
""fullscreenenter"",""1"",""2548""
","
","","","","","","716.5999999642372","images/bed1.png","","","learning","-1","-1","1","1","bed","furniture","1","1","","neutral","0"
"html-keyboard-response","197","754020","0.0-11.0-2.0-0.4","4050","2","18","Male","approach_avoid_spark_v1","""event"",""trial"",""time""
""fullscreenenter"",""1"",""2548""
","
","
","""event"",""trial"",""time""
""fullscreenenter"",""1"",""2548""
","
","","","","","","null","<div style=""font-size:60px;"">+</div>","null","","fixation","","","","","","","","","","",""
"aa-learning-trial","198","757025","0.0-11.0-2.0-1.4","4050","2","18","Male","approach_avoid_spark_v1","""event"",""trial"",""time""
""fullscreenenter"",""1"",""2548""
","
","
","""event"",""trial"",""time""
""fullscreenenter"",""1"",""2548""
","
","","","","","","1050","images/chair6.png","","","learning","6","6","1","1","chair","furniture","1","1","","good","[5]"
"html-keyboard-response","199","757533","0.0-11.0-2.0-0.5","4050","2","18","Male","approach_avoid_spark_v1","""event"",""trial"",""time""
""fullscreenenter"",""1"",""2548""
","
","
","""event"",""trial"",""time""
""fullscreenenter"",""1"",""2548""
","
","","","","","","null","<div style=""font-size:60px;"">+</div>","null","","fixation","","","","","","","","","","",""
"aa-learning-trial","200","760552","0.0-11.0-2.0-1.5","4050","2","18","Male","approach_avoid_spark_v1","""event"",""trial"",""time""
""fullscreenenter"",""1"",""2548""
","
","
","""event"",""trial"",""time""
""fullscreenenter"",""1"",""2548""
","
","","","","","","649.3999999761581","images/sofa7.png","","","learning","-5","-5","1","1","sofa","furniture","1","1","","bad","[-4]"
"html-keyboard-response","201","761060","0.0-11.0-2.0-0.6","4050","2","18","Male","approach_avoid_spark_v1","""event"",""trial"",""time""
""fullscreenenter"",""1"",""2548""
","
","
","""event"",""trial"",""time""
""fullscreenenter"",""1"",""2548""
","
","","","","","","null","<div style=""font-size:60px;"">+</div>","null","","fixation","","","","","","","","","","",""
"aa-learning-trial","202","764079","0.0-11.0-2.0-1.6","4050","2","18","Male","approach_avoid_spark_v1","""event"",""trial"",""time""
""fullscreenenter"",""1"",""2548""
","
","
","""event"",""trial"",""time""
""fullscreenenter"",""1"",""2548""
","
","","","","","","855.5","images/chair7.png","","","learning","3","3","1","1","chair","furniture","1","1","","good","[5]"
"html-keyboard-response","203","764588","0.0-11.0-2.0-0.7","4050","2","18","Male","approach_avoid_spark_v1","""event"",""trial"",""time""
""fullscreenenter"",""1"",""2548""
","
","
","""event"",""trial"",""time""
""fullscreenenter"",""1"",""2548""
","
","","","","","","null","<div style=""font-size:60px;"">+</div>","null","","fixation","","","","","","","","","","",""
"aa-learning-trial","204","767597","0.0-11.0-2.0-1.7","4050","2","18","Male","approach_avoid_spark_v1","""event"",""trial"",""time""
""fullscreenenter"",""1"",""2548""
","
","
","""event"",""trial"",""time""
""fullscreenenter"",""1"",""2548""
","
","","","","","","967.2999999523163","images/bed3.png","","","learning","-2","-2","1","1","bed","furniture","1","1","","neutral","0"
"html-keyboard-response","205","768105","0.0-11.0-2.0-0.8","4050","2","18","Male","approach_avoid_spark_v1","""event"",""trial"",""time""
""fullscreenenter"",""1"",""2548""
","
","
","""event"",""trial"",""time""
""fullscreenenter"",""1"",""2548""
","
","","","","","","null","<div style=""font-size:60px;"">+</div>","null","","fixation","","","","","","","","","","",""
"aa-learning-trial","206","771114","0.0-11.0-2.0-1.8","4050","2","18","Male","approach_avoid_spark_v1","""event"",""trial"",""time""
""fullscreenenter"",""1"",""2548""
","
","
","""event"",""trial"",""time""
""fullscreenenter"",""1"",""2548""
","
","","","","","","842.8000000119209","images/chair2.png","","","learning","5","5","1","1","chair","furniture","1","1","","good","[5]"
"html-keyboard-response","207","771617","0.0-11.0-2.0-0.9","4050","2","18","Male","approach_avoid_spark_v1","""event"",""trial"",""time""
""fullscreenenter"",""1"",""2548""
","
","
","""event"",""trial"",""time""
""fullscreenenter"",""1"",""2548""
","
","","","","","","null","<div style=""font-size:60px;"">+</div>","null","","fixation","","","","","","","","","","",""
"aa-learning-trial","208","774626","0.0-11.0-2.0-1.9","4050","2","18","Male","approach_avoid_spark_v1","""event"",""trial"",""time""
""fullscreenenter"",""1"",""2548""
","
","
","""event"",""trial"",""time""
""fullscreenenter"",""1"",""2548""
","
","","","","","","1050.0999999642372","images/sofa3.png","","","learning","-3","0","0","0","sofa","furniture","1","1","","bad","[-4]"
"html-keyboard-response","209","775143","0.0-11.0-2.0-0.10","4050","2","18","Male","approach_avoid_spark_v1","""event"",""trial"",""time""
""fullscreenenter"",""1"",""2548""
","
","
","""event"",""trial"",""time""
""fullscreenenter"",""1"",""2548""
","
","","","","","","null","<div style=""font-size:60px;"">+</div>","null","","fixation","","","","","","","","","","",""
"aa-learning-trial","210","778146","0.0-11.0-2.0-1.10","4050","2","18","Male","approach_avoid_spark_v1","""event"",""trial"",""time""
""fullscreenenter"",""1"",""2548""
","
","
","""event"",""trial"",""time""
""fullscreenenter"",""1"",""2548""
","
","","","","","","1004","images/bed5.png","","","learning","-2","0","0","0","bed","furniture","1","1","","neutral","0"
"html-keyboard-response","211","778659","0.0-11.0-2.0-0.11","4050","2","18","Male","approach_avoid_spark_v1","""event"",""trial"",""time""
""fullscreenenter"",""1"",""2548""
","
","
","""event"",""trial"",""time""
""fullscreenenter"",""1"",""2548""
","
","","","","","","null","<div style=""font-size:60px;"">+</div>","null","","fixation","","","","","","","","","","",""
"aa-learning-trial","212","781666","0.0-11.0-2.0-1.11","4050","2","18","Male","approach_avoid_spark_v1","""event"",""trial"",""time""
""fullscreenenter"",""1"",""2548""
","
","
","""event"",""trial"",""time""
""fullscreenenter"",""1"",""2548""
","
","","","","","","949.1999999880791","images/sofa7.png","","","learning","-5","0","0","0","sofa","furniture","1","1","","bad","[-4]"
"html-keyboard-response","213","782169","0.0-11.0-2.0-0.12","4050","2","18","Male","approach_avoid_spark_v1","""event"",""trial"",""time""
""fullscreenenter"",""1"",""2548""
","
","
","""event"",""trial"",""time""
""fullscreenenter"",""1"",""2548""
","
","","","","","","null","<div style=""font-size:60px;"">+</div>","null","","fixation","","","","","","","","","","",""
"aa-learning-trial","214","785177","0.0-11.0-2.0-1.12","4050","2","18","Male","approach_avoid_spark_v1","""event"",""trial"",""time""
""fullscreenenter"",""1"",""2548""
","
","
","""event"",""trial"",""time""
""fullscreenenter"",""1"",""2548""
","
","","","","","","1129.5","images/sofa3.png","","","learning","-4","0","0","0","sofa","furniture","1","1","","bad","[-4]"
"html-keyboard-response","215","785692","0.0-11.0-2.0-0.13","4050","2","18","Male","approach_avoid_spark_v1","""event"",""trial"",""time""
""fullscreenenter"",""1"",""2548""
","
","
","""event"",""trial"",""time""
""fullscreenenter"",""1"",""2548""
","
","","","","","","null","<div style=""font-size:60px;"">+</div>","null","","fixation","","","","","","","","","","",""
"aa-learning-trial","216","788701","0.0-11.0-2.0-1.13","4050","2","18","Male","approach_avoid_spark_v1","""event"",""trial"",""time""
""fullscreenenter"",""1"",""2548""
","
","
","""event"",""trial"",""time""
""fullscreenenter"",""1"",""2548""
","
","","","","","","508.7999999523163","images/sofa5.png","","","learning","-7","-7","1","1","sofa","furniture","1","1","","bad","[-4]"
"html-keyboard-response","217","789209","0.0-11.0-2.0-0.14","4050","2","18","Male","approach_avoid_spark_v1","""event"",""trial"",""time""
""fullscreenenter"",""1"",""2548""
","
","
","""event"",""trial"",""time""
""fullscreenenter"",""1"",""2548""
","
","","","","","","null","<div style=""font-size:60px;"">+</div>","null","","fixation","","","","","","","","","","",""
"aa-learning-trial","218","792218","0.0-11.0-2.0-1.14","4050","2","18","Male","approach_avoid_spark_v1","""event"",""trial"",""time""
""fullscreenenter"",""1"",""2548""
","
","
","""event"",""trial"",""time""
""fullscreenenter"",""1"",""2548""
","
","","","","","","844.8999999761581","images/bed3.png","","","learning","-1","0","0","0","bed","furniture","1","1","","neutral","0"
"html-keyboard-response","219","792737","0.0-11.0-2.0-0.15","4050","2","18","Male","approach_avoid_spark_v1","""event"",""trial"",""time""
""fullscreenenter"",""1"",""2548""
","
","
","""event"",""trial"",""time""
""fullscreenenter"",""1"",""2548""
","
","","","","","","null","<div style=""font-size:60px;"">+</div>","null","","fixation","","","","","","","","","","",""
"aa-learning-trial","220","795746","0.0-11.0-2.0-1.15","4050","2","18","Male","approach_avoid_spark_v1","""event"",""trial"",""time""
""fullscreenenter"",""1"",""2548""
","
","
","""event"",""trial"",""time""
""fullscreenenter"",""1"",""2548""
","
","","","","","","556.5","images/sofa7.png","","","learning","-4","0","0","0","sofa","furniture","1","1","","bad","[-4]"
"html-keyboard-response","221","796249","0.0-11.0-2.0-0.16","4050","2","18","Male","approach_avoid_spark_v1","""event"",""trial"",""time""
""fullscreenenter"",""1"",""2548""
","
","
","""event"",""trial"",""time""
""fullscreenenter"",""1"",""2548""
","
","","","","","","null","<div style=""font-size:60px;"">+</div>","null","","fixation","","","","","","","","","","",""
"aa-learning-trial","222","799257","0.0-11.0-2.0-1.16","4050","2","18","Male","approach_avoid_spark_v1","""event"",""trial"",""time""
""fullscreenenter"",""1"",""2548""
","
","
","""event"",""trial"",""time""
""fullscreenenter"",""1"",""2548""
","
","","","","","","1011","images/chair6.png","","","learning","8","8","1","1","chair","furniture","1","1","","good","[5]"
"html-keyboard-response","223","799763","0.0-11.0-2.0-0.17","4050","2","18","Male","approach_avoid_spark_v1","""event"",""trial"",""time""
""fullscreenenter"",""1"",""2548""
","
","
","""event"",""trial"",""time""
""fullscreenenter"",""1"",""2548""
","
","","","","","","null","<div style=""font-size:60px;"">+</div>","null","","fixation","","","","","","","","","","",""
"aa-learning-trial","224","802770","0.0-11.0-2.0-1.17","4050","2","18","Male","approach_avoid_spark_v1","""event"",""trial"",""time""
""fullscreenenter"",""1"",""2548""
","
","
","""event"",""trial"",""time""
""fullscreenenter"",""1"",""2548""
","
","","","","","","909.6999999880791","images/chair7.png","","","learning","5","5","1","1","chair","furniture","1","1","","good","[5]"
"html-keyboard-response","225","803274","0.0-11.0-2.0-0.18","4050","2","18","Male","approach_avoid_spark_v1","""event"",""trial"",""time""
""fullscreenenter"",""1"",""2548""
","
","
","""event"",""trial"",""time""
""fullscreenenter"",""1"",""2548""
","
","","","","","","null","<div style=""font-size:60px;"">+</div>","null","","fixation","","","","","","","","","","",""
"aa-learning-trial","226","806276","0.0-11.0-2.0-1.18","4050","2","18","Male","approach_avoid_spark_v1","""event"",""trial"",""time""
""fullscreenenter"",""1"",""2548""
","
","
","""event"",""trial"",""time""
""fullscreenenter"",""1"",""2548""
","
","","","","","","2294.900000035763","images/chair8.png","","","learning","5","5","1","1","chair","furniture","1","1","","good","[5]"
"html-keyboard-response","227","806777","0.0-11.0-2.0-0.19","4050","2","18","Male","approach_avoid_spark_v1","""event"",""trial"",""time""
""fullscreenenter"",""1"",""2548""
","
","
","""event"",""trial"",""time""
""fullscreenenter"",""1"",""2548""
","
","","","","","","null","<div style=""font-size:60px;"">+</div>","null","","fixation","","","","","","","","","","",""
"aa-learning-trial","228","809786","0.0-11.0-2.0-1.19","4050","2","18","Male","approach_avoid_spark_v1","""event"",""trial"",""time""
""fullscreenenter"",""1"",""2548""
","
","
","""event"",""trial"",""time""
""fullscreenenter"",""1"",""2548""
","
","","","","","","711.1000000238419","images/bed5.png","","","learning","1","0","0","0","bed","furniture","1","1","","neutral","0"
"html-keyboard-response","229","810290","0.0-11.0-2.0-0.20","4050","2","18","Male","approach_avoid_spark_v1","""event"",""trial"",""time""
""fullscreenenter"",""1"",""2548""
","
","
","""event"",""trial"",""time""
""fullscreenenter"",""1"",""2548""
","
","","","","","","null","<div style=""font-size:60px;"">+</div>","null","","fixation","","","","","","","","","","",""
"aa-learning-trial","230","813298","0.0-11.0-2.0-1.20","4050","2","18","Male","approach_avoid_spark_v1","""event"",""trial"",""time""
""fullscreenenter"",""1"",""2548""
","
","
","""event"",""trial"",""time""
""fullscreenenter"",""1"",""2548""
","
","","","","","","633.4000000357628","images/sofa3.png","","","learning","-3","0","0","0","sofa","furniture","1","1","","bad","[-4]"
"html-keyboard-response","231","813801","0.0-11.0-2.0-0.21","4050","2","18","Male","approach_avoid_spark_v1","""event"",""trial"",""time""
""fullscreenenter"",""1"",""2548""
","
","
","""event"",""trial"",""time""
""fullscreenenter"",""1"",""2548""
","
","","","","","","null","<div style=""font-size:60px;"">+</div>","null","","fixation","","","","","","","","","","",""
"aa-learning-trial","232","816805","0.0-11.0-2.0-1.21","4050","2","18","Male","approach_avoid_spark_v1","""event"",""trial"",""time""
""fullscreenenter"",""1"",""2548""
","
","
","""event"",""trial"",""time""
""fullscreenenter"",""1"",""2548""
","
","","","","","","1797.1000000238419","images/chair2.png","","","learning","3","3","1","1","chair","furniture","1","1","","good","[5]"
"html-keyboard-response","233","817314","0.0-11.0-2.0-0.22","4050","2","18","Male","approach_avoid_spark_v1","""event"",""trial"",""time""
""fullscreenenter"",""1"",""2548""
","
","
","""event"",""trial"",""time""
""fullscreenenter"",""1"",""2548""
","
","","","","","","null","<div style=""font-size:60px;"">+</div>","null","","fixation","","","","","","","","","","",""
"aa-learning-trial","234","820321","0.0-11.0-2.0-1.22","4050","2","18","Male","approach_avoid_spark_v1","""event"",""trial"",""time""
""fullscreenenter"",""1"",""2548""
","
","
","""event"",""trial"",""time""
""fullscreenenter"",""1"",""2548""
","
","","","","","","1208.699999988079","images/sofa5.png","","","learning","-3","0","0","0","sofa","furniture","1","1","","bad","[-4]"
"html-keyboard-response","235","820835","0.0-11.0-2.0-0.23","4050","2","18","Male","approach_avoid_spark_v1","""event"",""trial"",""time""
""fullscreenenter"",""1"",""2548""
","
","
","""event"",""trial"",""time""
""fullscreenenter"",""1"",""2548""
","
","","","","","","null","<div style=""font-size:60px;"">+</div>","null","","fixation","","","","","","","","","","",""
"aa-learning-trial","236","823842","0.0-11.0-2.0-1.23","4050","2","18","Male","approach_avoid_spark_v1","""event"",""trial"",""time""
""fullscreenenter"",""1"",""2548""
","
","
","""event"",""trial"",""time""
""fullscreenenter"",""1"",""2548""
","
","","","","","","935.0999999642372","images/bed3.png","","","learning","-4","0","0","0","bed","furniture","1","1","","neutral","0"
