"trial_type","trial_index","time_elapsed","internal_node_id","subject_id","task_condition","age","gender","task_version","interactions","blur_events","focus_events","fullscreenenter_events","fullscreenexit_events","success","timeout","failed_images","failed_audio","failed_video","rt","stimulus","response","button_pressed","task_part","approach_reward","points","key_press","option_selected","stim_cat","task_block","block_condition","block_number","correct","cat_type","mean_cat_reward"
"pavlovia","0","4","0.0-0.0","6471","1","8","Male","approach_avoid_spark_v1","""event"",""trial"",""time""
""fullscreenenter"",""1"",""23252""
","
","
","""event"",""trial"",""time""
""fullscreenenter"",""1"",""23252""
","
","","","","","","","","","","","","","","","","","","","","",""
"fullscreen","1","24242","0.0-1.0","6471","1","8","Male","approach_avoid_spark_v1","""event"",""trial"",""time""
""fullscreenenter"",""1"",""23252""
","
","
","""event"",""trial"",""time""
""fullscreenenter"",""1"",""23252""
","
","true","","","","","","","","","","","","","","","","","","","",""
"preload","2","29449","0.0-2.0","6471","1","8","Male","approach_avoid_spark_v1","""event"",""trial"",""time""
""fullscreenenter"",""1"",""23252""
","
","
","""event"",""trial"",""time""
""fullscreenenter"",""1"",""23252""
","
","true","false","[]","[]","[]","","","","","","","","","","","","","","","",""
"audio-keyboard-response","3","40409","0.0-3.0","6471","1","8","Male","approach_avoid_spark_v1","""event"",""trial"",""time""
""fullscreenenter"",""1"",""23252""
","
","
","""event"",""trial"",""time""
""fullscreenenter"",""1"",""23252""
","
","","","","","","10960","audio/beep_loop.wav"," ","","","","","","","","","","","","",""
"audio-button-response","4","45041","0.0-4.0","6471","1","8","Male","approach_avoid_spark_v1","""event"",""trial"",""time""
""fullscreenenter"",""1"",""23252""
","
","
","""event"",""trial"",""time""
""fullscreenenter"",""1"",""23252""
","
","","","","","","4640","audio/shark.wav","4","","","","","","","","","","","","",""
"audio-button-response","5","49247","0.0-5.0","6471","1","8","Male","approach_avoid_spark_v1","""event"",""trial"",""time""
""fullscreenenter"",""1"",""23252""
","
","
","""event"",""trial"",""time""
""fullscreenenter"",""1"",""23252""
","
","","","","","","3200","audio/turtle.wav","1","","","","","","","","","","","","",""
"preload","6","52667","0.0-6.0","6471","1","8","Male","approach_avoid_spark_v1","""event"",""trial"",""time""
""fullscreenenter"",""1"",""23252""
","
","
","""event"",""trial"",""time""
""fullscreenenter"",""1"",""23252""
","
","true","false","[]","[]","[]","","","","","","","","","","","","","","","",""
"html-keyboard-response","7","65798","0.0-7.0","6471","1","8","Male","approach_avoid_spark_v1","""event"",""trial"",""time""
""fullscreenenter"",""1"",""23252""
","
","
","""event"",""trial"",""time""
""fullscreenenter"",""1"",""23252""
","
","","","","","","13129.5","Welcome to the experiment. Press any key to begin and to advance the instructions.","h","","","","","","","","","","","","",""
"learning-instructions","8","75558","0.0-8.0-0.0-0.0","6471","1","8","Male","approach_avoid_spark_v1","""event"",""trial"",""time""
""fullscreenenter"",""1"",""23252""
","
","
","""event"",""trial"",""time""
""fullscreenenter"",""1"",""23252""
","
","","","","","","2805.9000000953674","<p> Welcome! Today you are going to play 6 different rounds of a decision-making game. </p><p> Use the mouse to click next to continue. </p>","","0","instructions","","","","","","","","","","",""
"learning-instructions","9","81226","0.0-8.0-0.0-0.1","6471","1","8","Male","approach_avoid_spark_v1","""event"",""trial"",""time""
""fullscreenenter"",""1"",""23252""
","
","
","""event"",""trial"",""time""
""fullscreenenter"",""1"",""23252""
","
","","","","","","2935.399999856949","<p> You will start with a practice round to learn the rules. </p>","","0","instructions","","","","","","","","","","",""
"learning-instructions","10","86878","0.0-8.0-0.0-0.2","6471","1","8","Male","approach_avoid_spark_v1","""event"",""trial"",""time""
""fullscreenenter"",""1"",""23252""
","
","
","""event"",""trial"",""time""
""fullscreenenter"",""1"",""23252""
","
","","","","","","2197.2999999523163","<p> Your goal in this round is to give out sports equipment to kids. </p></div>","","0","instructions","","","","","","","","","","",""
"learning-instructions","11","98891","0.0-8.0-0.0-0.3","6471","1","8","Male","approach_avoid_spark_v1","""event"",""trial"",""time""
""fullscreenenter"",""1"",""23252""
","
","
","""event"",""trial"",""time""
""fullscreenenter"",""1"",""23252""
","
","","","","","","4459.799999952316","<p> The kids only like some of the equipment.  </p><p> On each turn, you will see a piece of sports equipment.   </p><p> You need to decide whether to give it to the kids or not.  </p>","","0","instructions","","","","","","","","","","",""
"learning-instructions","12","106026","0.0-8.0-0.0-0.4","6471","1","8","Male","approach_avoid_spark_v1","""event"",""trial"",""time""
""fullscreenenter"",""1"",""23252""
","
","
","""event"",""trial"",""time""
""fullscreenenter"",""1"",""23252""
","
","","","","","","2364.5999999046326","<p> You can give them the equipment by pressing 1 and choose not to give it to them by pressing 0. </p><br><div class=""choice-instructions-grid""> <div class=""choice-option""><img src=""images/approach.png"" class=""choice-option-img"" stage=""instructions"" position=""0"" ><div class=""choice-option-text""> Press ""1."" </div></div><div class=""choice-option""><img src=""images/avoid.png"" class=""choice-option-img"" stage=""instructions"" position=""1"" ><div class=""choice-option-text""> Press ""0."" </div></div>","","0","instructions","","","","","","","","","","",""
"learning-instructions","13","114883","0.0-8.0-0.0-0.5","6471","1","8","Male","approach_avoid_spark_v1","""event"",""trial"",""time""
""fullscreenenter"",""1"",""23252""
","
","
","""event"",""trial"",""time""
""fullscreenenter"",""1"",""23252""
","
","","","","","","1471.9000000953674","<p> If you give them a piece of equipment they like, they will be happy! </p><p> But if you give them a piece of equipment they do not like, they will be sad. </p>","","0","instructions","","","","","","","","","","",""
"learning-instructions","14","126795","0.0-8.0-0.0-0.6","6471","1","8","Male","approach_avoid_spark_v1","""event"",""trial"",""time""
""fullscreenenter"",""1"",""23252""
","
","
","""event"",""trial"",""time""
""fullscreenenter"",""1"",""23252""
","
","","","","","","1400.1000001430511","<p> You will earn points based on how you make kids feel. </p><p> If you make them happy, you will WIN anywhere from 1 - 9 points, </p><p> but if you make them sad, you will LOSE anywhere from 1 - 9 points. </p>","","0","instructions","","","","","","","","","","",""
"learning-instructions","15","137213","0.0-8.0-0.0-0.7","6471","1","8","Male","approach_avoid_spark_v1","""event"",""trial"",""time""
""fullscreenenter"",""1"",""23252""
","
","
","""event"",""trial"",""time""
""fullscreenenter"",""1"",""23252""
","
","","","","","","857.6000001430511","<p> You will see how many points you won or lost in the center of the screen. </p><p> Here is what you would see if you won 6 points: </p><p style=""color:green;font-size:50px;font-weight:bolder"">6</p><p style=""color:green"">The text is GREEN because you WON points.</p>","","0","instructions","","","","","","","","","","",""
"learning-instructions","16","143288","0.0-8.0-0.0-0.8","6471","1","8","Male","approach_avoid_spark_v1","""event"",""trial"",""time""
""fullscreenenter"",""1"",""23252""
","
","
","""event"",""trial"",""time""
""fullscreenenter"",""1"",""23252""
","
","","","","","","562","<p> And here is what you would see if you lost 4 points: </p><p style=""color:red;font-size:50px;font-weight:bolder"">-4</p><p style=""color:red"">The text is RED because you LOST points. </p>","","0","instructions","","","","","","","","","","",""
"learning-instructions","17","159468","0.0-8.0-0.0-0.9","6471","1","8","Male","approach_avoid_spark_v1","""event"",""trial"",""time""
""fullscreenenter"",""1"",""23252""
","
","
","""event"",""trial"",""time""
""fullscreenenter"",""1"",""23252""
","
","","","","","","1452.0999999046326","<p> Some of the equipment will make the kids VERY happy or sad. </p><p> These pieces of equipment will make you win or lose LOTS of points. </p><p> Other pieces of equipment will only make the kids a little happy or sad. </p><p> These pieces of equipment will make you win or lose small amounts of points. </p>","","0","instructions","","","","","","","","","","",""
"learning-instructions","18","171355","0.0-8.0-0.0-0.10","6471","1","8","Male","approach_avoid_spark_v1","""event"",""trial"",""time""
""fullscreenenter"",""1"",""23252""
","
","
","""event"",""trial"",""time""
""fullscreenenter"",""1"",""23252""
","
","","","","","","1249.3999998569489","<p> If you choose not to give them the equipment, you will not win or lose any points. </p><p>  However, in the center of the screen, you will see the number of points you WOULD HAVE won or lost if you had given them the equipment. </p>","","0","instructions","","","","","","","","","","",""
"learning-instructions","19","195012","0.0-8.0-0.0-0.11","6471","1","8","Male","approach_avoid_spark_v1","""event"",""trial"",""time""
""fullscreenenter"",""1"",""23252""
","
","
","""event"",""trial"",""time""
""fullscreenenter"",""1"",""23252""
","
","","","","","","2099.5999999046326","<p> Here is what you might see if you did not give the equipment to the kids but it would have made them happy: </p><p style=""color:grey; font-size:50px; display: inline-block; border-spacing: 15px; border-width:3px; border-style:solid; border-color:red"">  &nbsp; 7 &nbsp; </p><p> Remember, in this case, you would not win or lose ANY points because you did not give them the equipment.  </p><p style=""color:grey"">The text is GREY because you earned ZERO points. </p><p style=""color:red"">However, choosing to give the kids the equipment would have made you win points. The box around the text is RED because you chose the worse option. </p>","","0","instructions","","","","","","","","","","",""
"learning-instructions","20","218063","0.0-8.0-0.0-0.12","6471","1","8","Male","approach_avoid_spark_v1","""event"",""trial"",""time""
""fullscreenenter"",""1"",""23252""
","
","
","""event"",""trial"",""time""
""fullscreenenter"",""1"",""23252""
","
","","","","","","1961.0999999046326","<p> Here is what you might see if you did not give the equipment to the kids but it would have made them sad: </p><p style=""color:grey;font-size:50px; display: inline-block; border-spacing: 15px; border-width:3px; border-style:solid; border-color:green"">  &nbsp; -8 &nbsp; </p><p> Remember, in this case, you would not win or lose ANY points because you did not give them the equipment.  </p><p style=""color:grey"">The text is GREY because you earned ZERO points. </p><p  style=""color:green""> Choosing to give the kids the equipment would have made you lose points. The box around the text is GREEN because you chose the better option.</p>","","0","instructions","","","","","","","","","","",""
"learning-instructions","21","229128","0.0-8.0-0.0-0.13","6471","1","8","Male","approach_avoid_spark_v1","""event"",""trial"",""time""
""fullscreenenter"",""1"",""23252""
","
","
","""event"",""trial"",""time""
""fullscreenenter"",""1"",""23252""
","
","","","","","","2125.899999856949","<p> You will have 3 seconds to make each choice. Try to respond before time runs out! </p><p> You will lose 5 points each time you do not make a response. </p>","","0","instructions","","","","","","","","","","",""
"learning-instructions","22","235630","0.0-8.0-0.0-0.14","6471","1","8","Male","approach_avoid_spark_v1","""event"",""trial"",""time""
""fullscreenenter"",""1"",""23252""
","
","
","""event"",""trial"",""time""
""fullscreenenter"",""1"",""23252""
","
","","","","","","1077.4000000953674","<p> This is just a practice round, but in the real game, your bonus payment will depend on your total number of points.","","0","instructions","","","","","","","","","","",""
"learning-instructions","23","243566","0.0-8.0-0.0-0.15","6471","1","8","Male","approach_avoid_spark_v1","""event"",""trial"",""time""
""fullscreenenter"",""1"",""23252""
","
","
","""event"",""trial"",""time""
""fullscreenenter"",""1"",""23252""
","
","","","","","","2154.399999856949","<p> Remember, you can give them the equipment by pressing 1 and choose not to give it to them by pressing 0. </p><br><div class=""choice-instructions-grid""> <div class=""choice-option""><img src=""images/approach.png"" class=""choice-option-img"" stage=""instructions"" position=""0"" ><div class=""choice-option-text""> Press ""1."" </div></div><div class=""choice-option""><img src=""images/avoid.png"" class=""choice-option-img"" stage=""instructions"" position=""1"" ><div class=""choice-option-text""> Press ""0."" </div></div>","","0","instructions","","","","","","","","","","",""
"html-button-response","24","246119","0.0-8.0-1.0","6471","1","8","Male","approach_avoid_spark_v1","""event"",""trial"",""time""
""fullscreenenter"",""1"",""23252""
","
","
","""event"",""trial"",""time""
""fullscreenenter"",""1"",""23252""
","
","","","","","","2436.4000000953674","<p> Ready to practice? </p>","0","","","","","","","","","","","","",""
"html-keyboard-response","25","246751","0.0-8.0-2.0-0.0","6471","1","8","Male","approach_avoid_spark_v1","""event"",""trial"",""time""
""fullscreenenter"",""1"",""23252""
","
","
","""event"",""trial"",""time""
""fullscreenenter"",""1"",""23252""
","
","","","","","","null","<div style=""font-size:60px;"">+</div>","null","","fixation","","","","","","","","","","",""
"aa-learning-trial","26","249761","0.0-8.0-2.0-1.0","6471","1","8","Male","approach_avoid_spark_v1","""event"",""trial"",""time""
""fullscreenenter"",""1"",""23252""
","
","
","""event"",""trial"",""time""
""fullscreenenter"",""1"",""23252""
","
","","","","","","null","images/ball4.png","","","learning","9","-5","","null","practice","practice","practice","-1","","",""
"html-keyboard-response","27","250263","0.0-8.0-2.0-0.1","6471","1","8","Male","approach_avoid_spark_v1","""event"",""trial"",""time""
""fullscreenenter"",""1"",""23252""
","
","
","""event"",""trial"",""time""
""fullscreenenter"",""1"",""23252""
","
","","","","","","null","<div style=""font-size:60px;"">+</div>","null","","fixation","","","","","","","","","","",""
"aa-learning-trial","28","253271","0.0-8.0-2.0-1.1","6471","1","8","Male","approach_avoid_spark_v1","""event"",""trial"",""time""
""fullscreenenter"",""1"",""23252""
","
","
","""event"",""trial"",""time""
""fullscreenenter"",""1"",""23252""
","
","","","","","","null","images/ball2.png","","","learning","-6","-5","","null","practice","practice","practice","-1","","",""
"html-keyboard-response","29","253780","0.0-8.0-2.0-0.2","6471","1","8","Male","approach_avoid_spark_v1","""event"",""trial"",""time""
""fullscreenenter"",""1"",""23252""
","
","
","""event"",""trial"",""time""
""fullscreenenter"",""1"",""23252""
","
","","","","","","null","<div style=""font-size:60px;"">+</div>","null","","fixation","","","","","","","","","","",""
"aa-learning-trial","30","256800","0.0-8.0-2.0-1.2","6471","1","8","Male","approach_avoid_spark_v1","""event"",""trial"",""time""
""fullscreenenter"",""1"",""23252""
","
","
","""event"",""trial"",""time""
""fullscreenenter"",""1"",""23252""
","
","","","","","","null","images/racket2.png","","","learning","-8","-5","","null","practice","practice","practice","-1","","",""
"html-keyboard-response","31","257311","0.0-8.0-2.0-0.3","6471","1","8","Male","approach_avoid_spark_v1","""event"",""trial"",""time""
""fullscreenenter"",""1"",""23252""
","
","
","""event"",""trial"",""time""
""fullscreenenter"",""1"",""23252""
","
","","","","","","null","<div style=""font-size:60px;"">+</div>","null","","fixation","","","","","","","","","","",""
"aa-learning-trial","32","260321","0.0-8.0-2.0-1.3","6471","1","8","Male","approach_avoid_spark_v1","""event"",""trial"",""time""
""fullscreenenter"",""1"",""23252""
","
","
","""event"",""trial"",""time""
""fullscreenenter"",""1"",""23252""
","
","","","","","","null","images/ball4.png","","","learning","1","-5","","null","practice","practice","practice","-1","","",""
"html-keyboard-response","33","260830","0.0-8.0-2.0-0.4","6471","1","8","Male","approach_avoid_spark_v1","""event"",""trial"",""time""
""fullscreenenter"",""1"",""23252""
","
","
","""event"",""trial"",""time""
""fullscreenenter"",""1"",""23252""
","
","","","","","","null","<div style=""font-size:60px;"">+</div>","null","","fixation","","","","","","","","","","",""
"aa-learning-trial","34","263850","0.0-8.0-2.0-1.4","6471","1","8","Male","approach_avoid_spark_v1","""event"",""trial"",""time""
""fullscreenenter"",""1"",""23252""
","
","
","""event"",""trial"",""time""
""fullscreenenter"",""1"",""23252""
","
","","","","","","null","images/ball1.png","","","learning","-4","-5","","null","practice","practice","practice","-1","","",""
"html-keyboard-response","35","264369","0.0-8.0-2.0-0.5","6471","1","8","Male","approach_avoid_spark_v1","""event"",""trial"",""time""
""fullscreenenter"",""1"",""23252""
","
","
","""event"",""trial"",""time""
""fullscreenenter"",""1"",""23252""
","
","","","","","","null","<div style=""font-size:60px;"">+</div>","null","","fixation","","","","","","","","","","",""
"aa-learning-trial","36","267390","0.0-8.0-2.0-1.5","6471","1","8","Male","approach_avoid_spark_v1","""event"",""trial"",""time""
""fullscreenenter"",""1"",""23252""
","
","
","""event"",""trial"",""time""
""fullscreenenter"",""1"",""23252""
","
","","","","","","null","images/ball4.png","","","learning","1","-5","","null","practice","practice","practice","-1","","",""
"html-keyboard-response","37","267911","0.0-8.0-2.0-0.6","6471","1","8","Male","approach_avoid_spark_v1","""event"",""trial"",""time""
""fullscreenenter"",""1"",""23252""
","
","
","""event"",""trial"",""time""
""fullscreenenter"",""1"",""23252""
","
","","","","","","null","<div style=""font-size:60px;"">+</div>","null","","fixation","","","","","","","","","","",""
"aa-learning-trial","38","270930","0.0-8.0-2.0-1.6","6471","1","8","Male","approach_avoid_spark_v1","""event"",""trial"",""time""
""fullscreenenter"",""1"",""23252""
","
","
","""event"",""trial"",""time""
""fullscreenenter"",""1"",""23252""
","
","","","","","","null","images/ball1.png","","","learning","-4","-5","","null","practice","practice","practice","-1","","",""
"html-keyboard-response","39","271440","0.0-8.0-2.0-0.7","6471","1","8","Male","approach_avoid_spark_v1","""event"",""trial"",""time""
""fullscreenenter"",""1"",""23252""
","
","
","""event"",""trial"",""time""
""fullscreenenter"",""1"",""23252""
","
","","","","","","null","<div style=""font-size:60px;"">+</div>","null","","fixation","","","","","","","","","","",""
"aa-learning-trial","40","274443","0.0-8.0-2.0-1.7","6471","1","8","Male","approach_avoid_spark_v1","""event"",""trial"",""time""
""fullscreenenter"",""1"",""23252""
","
","
","""event"",""trial"",""time""
""fullscreenenter"",""1"",""23252""
","
","","","","","","null","images/racket4.png","","","learning","-3","-5","","null","practice","practice","practice","-1","","",""
"html-keyboard-response","41","274944","0.0-8.0-2.0-0.8","6471","1","8","Male","approach_avoid_spark_v1","""event"",""trial"",""time""
""fullscreenenter"",""1"",""23252""
","
","
","""event"",""trial"",""time""
""fullscreenenter"",""1"",""23252""
","
","","","","","","null","<div style=""font-size:60px;"">+</div>","null","","fixation","","","","","","","","","","",""
"aa-learning-trial","42","277946","0.0-8.0-2.0-1.8","6471","1","8","Male","approach_avoid_spark_v1","""event"",""trial"",""time""
""fullscreenenter"",""1"",""23252""
","
","
","""event"",""trial"",""time""
""fullscreenenter"",""1"",""23252""
","
","","","","","","null","images/ball4.png","","","learning","9","-5","","null","practice","practice","practice","-1","","",""
"html-keyboard-response","43","278447","0.0-8.0-2.0-0.9","6471","1","8","Male","approach_avoid_spark_v1","""event"",""trial"",""time""
""fullscreenenter"",""1"",""23252""
","
","
","""event"",""trial"",""time""
""fullscreenenter"",""1"",""23252""
","
","","","","","","null","<div style=""font-size:60px;"">+</div>","null","","fixation","","","","","","","","","","",""
"aa-learning-trial","44","281449","0.0-8.0-2.0-1.9","6471","1","8","Male","approach_avoid_spark_v1","""event"",""trial"",""time""
""fullscreenenter"",""1"",""23252""
","
","
","""event"",""trial"",""time""
""fullscreenenter"",""1"",""23252""
","
","","","","","","null","images/ball2.png","","","learning","-7","-5","","null","practice","practice","practice","-1","","",""
"html-keyboard-response","45","281951","0.0-8.0-2.0-0.10","6471","1","8","Male","approach_avoid_spark_v1","""event"",""trial"",""time""
""fullscreenenter"",""1"",""23252""
","
","
","""event"",""trial"",""time""
""fullscreenenter"",""1"",""23252""
","
","","","","","","null","<div style=""font-size:60px;"">+</div>","null","","fixation","","","","","","","","","","",""
"aa-learning-trial","46","284954","0.0-8.0-2.0-1.10","6471","1","8","Male","approach_avoid_spark_v1","""event"",""trial"",""time""
""fullscreenenter"",""1"",""23252""
","
","
","""event"",""trial"",""time""
""fullscreenenter"",""1"",""23252""
","
","","","","","","null","images/ball1.png","","","learning","-9","-5","","null","practice","practice","practice","-1","","",""
"html-keyboard-response","47","285456","0.0-8.0-2.0-0.11","6471","1","8","Male","approach_avoid_spark_v1","""event"",""trial"",""time""
""fullscreenenter"",""1"",""23252""
","
","
","""event"",""trial"",""time""
""fullscreenenter"",""1"",""23252""
","
","","","","","","null","<div style=""font-size:60px;"">+</div>","null","","fixation","","","","","","","","","","",""
"aa-learning-trial","48","288459","0.0-8.0-2.0-1.11","6471","1","8","Male","approach_avoid_spark_v1","""event"",""trial"",""time""
""fullscreenenter"",""1"",""23252""
","
","
","""event"",""trial"",""time""
""fullscreenenter"",""1"",""23252""
","
","","","","","","null","images/ball1.png","","","learning","6","-5","","null","practice","practice","practice","-1","","",""
"html-button-response","49","295132","0.0-8.0-3.0","6471","1","8","Male","approach_avoid_spark_v1","""event"",""trial"",""time""
""fullscreenenter"",""1"",""23252""
","
","
","""event"",""trial"",""time""
""fullscreenenter"",""1"",""23252""
","
","","","","","","6671","<p> You earned -60 points in the practice round! </p>","0","","break","","","","","","","","","","",""
"learning-instructions","50","304329","0.0-8.0-4.0-0.0","6471","1","8","Male","approach_avoid_spark_v1","""event"",""trial"",""time""
""fullscreenenter"",""1"",""23252""
","
","
","""event"",""trial"",""time""
""fullscreenenter"",""1"",""23252""
","
","","","","","","2768.5","<p> It's almost time to start the real game. </p><p> Before you start, we're going to ask you a few questions about how the game works. </p>","","0","instructions","","","","","","","","","","",""
"preload","51","305501","0.0-8.0-5.0","6471","1","8","Male","approach_avoid_spark_v1","""event"",""trial"",""time""
""fullscreenenter"",""1"",""23252""
","
","
","""event"",""trial"",""time""
""fullscreenenter"",""1"",""23252""
","
","true","false","[]","[]","[]","","","","","","","","","","","","","","","",""
"comp-q","52","314467","0.0-8.0-6.0-0.0","6471","1","8","Male","approach_avoid_spark_v1","""event"",""trial"",""time""
""fullscreenenter"",""1"",""23252""
","
","
","""event"",""trial"",""time""
""fullscreenenter"",""1"",""23252""
","
","","","","","","3965.9000000953674","<p> <b> True or False? </b> </p><p> If you see a number in GREY, that means you earned that many points. </p>","","1","comp_question","","","","","","","","","true","",""
"comp-q","53","324673","0.0-8.0-6.0-1.0","6471","1","8","Male","approach_avoid_spark_v1","""event"",""trial"",""time""
""fullscreenenter"",""1"",""23252""
","
","
","""event"",""trial"",""time""
""fullscreenenter"",""1"",""23252""
","
","","","","","","1831.3999998569489","<p><b> That's right! </b> If you see a grey number, it means you earned ZERO points. <br> The grey numbers show the points you WOULD HAVE earned if you had made the other choice. </p>","","0","comp_answer","","","","","","","","","","",""
"comp-q","54","330915","0.0-8.0-7.0-0.0","6471","1","8","Male","approach_avoid_spark_v1","""event"",""trial"",""time""
""fullscreenenter"",""1"",""23252""
","
","
","""event"",""trial"",""time""
""fullscreenenter"",""1"",""23252""
","
","","","","","","1543.7000000476837","<p> <b> True or False? </b> </p><p> You will have as much time as you want to make each choice. </p>","","1","comp_question","","","","","","","","","true","",""
"comp-q","55","336431","0.0-8.0-7.0-1.0","6471","1","8","Male","approach_avoid_spark_v1","""event"",""trial"",""time""
""fullscreenenter"",""1"",""23252""
","
","
","""event"",""trial"",""time""
""fullscreenenter"",""1"",""23252""
","
","","","","","","1479.5999999046326","<p> <b> That's right! </b> You will only have 3 seconds to make each choice. </p>","","0","comp_answer","","","","","","","","","","",""
"comp-q","56","355131","0.0-8.0-8.0-0.0","6471","1","8","Male","approach_avoid_spark_v1","""event"",""trial"",""time""
""fullscreenenter"",""1"",""23252""
","
","
","""event"",""trial"",""time""
""fullscreenenter"",""1"",""23252""
","
","","","","","","14029.900000095367","<p> <b> True or False? </b> </p><p> You should use the '1' and '0' keys to make your choices. </p>","","1","comp_question","","","","","","","","","false","",""
"comp-q","57","361149","0.0-8.0-8.0-1.0","6471","1","8","Male","approach_avoid_spark_v1","""event"",""trial"",""time""
""fullscreenenter"",""1"",""23252""
","
","
","""event"",""trial"",""time""
""fullscreenenter"",""1"",""23252""
","
","","","","","","1457.8999998569489","<p> <b>Incorrect.</b> You <i>should</i> use the '1' and '0' keys to make each choice. </p>","","0","comp_answer","","","","","","","","","","",""
"comp-q","58","367482","0.0-8.0-8.1-0.1","6471","1","8","Male","approach_avoid_spark_v1","""event"",""trial"",""time""
""fullscreenenter"",""1"",""23252""
","
","
","""event"",""trial"",""time""
""fullscreenenter"",""1"",""23252""
","
","","","","","","1660.2999999523163","<p> <b> True or False? </b> </p><p> You should use the '1' and '0' keys to make your choices. </p>","","0","comp_question","","","","","","","","","true","",""
"comp-q","59","373560","0.0-8.0-8.1-1.1","6471","1","8","Male","approach_avoid_spark_v1","""event"",""trial"",""time""
""fullscreenenter"",""1"",""23252""
","
","
","""event"",""trial"",""time""
""fullscreenenter"",""1"",""23252""
","
","","","","","","1449","<p> <b> That's right! </b> You should use the '1' and '0' keys to make each choice. </p>","","0","comp_answer","","","","","","","","","","",""
"learning-instructions","60","381432","0.0-8.0-9.0-0.0","6471","1","8","Male","approach_avoid_spark_v1","""event"",""trial"",""time""
""fullscreenenter"",""1"",""23252""
","
","
","""event"",""trial"",""time""
""fullscreenenter"",""1"",""23252""
","
","","","","","","1590.2999999523163","<p> It's now time to start the real game. </p>Do your best, because the points you earn in the next rounds will influence your bonus payment. </p>","","0","instructions","","","","","","","","","","",""
"preload","61","381567","0.0-9.0-0.0","6471","1","8","Male","approach_avoid_spark_v1","""event"",""trial"",""time""
""fullscreenenter"",""1"",""23252""
","
","
","""event"",""trial"",""time""
""fullscreenenter"",""1"",""23252""
","
","true","false","[]","[]","[]","","","","","","","","","","","","","","","",""
"learning-instructions","62","388152","0.0-9.0-1.0-0.0","6471","1","8","Male","approach_avoid_spark_v1","""event"",""trial"",""time""
""fullscreenenter"",""1"",""23252""
","
","
","""event"",""trial"",""time""
""fullscreenenter"",""1"",""23252""
","
","","","","","","2111.2999999523163","<p> Your goal in this round is to decorate your friend's new house with furniture. </p></div>","","0","instructions","","","","","","","","","","",""
"learning-instructions","63","399259","0.0-9.0-1.0-0.1","6471","1","8","Male","approach_avoid_spark_v1","""event"",""trial"",""time""
""fullscreenenter"",""1"",""23252""
","
","
","""event"",""trial"",""time""
""fullscreenenter"",""1"",""23252""
","
","","","","","","1558","<p> Your friend likes some pieces of furniture but not others.  </p><p> On each turn, you will see a piece of furniture.   </p><p> You need to decide whether to put it in your friend's house or not.  </p>","","0","instructions","","","","","","","","","","",""
"learning-instructions","64","407389","0.0-9.0-1.0-0.2","6471","1","8","Male","approach_avoid_spark_v1","""event"",""trial"",""time""
""fullscreenenter"",""1"",""23252""
","
","
","""event"",""trial"",""time""
""fullscreenenter"",""1"",""23252""
","
","","","","","","2497.4000000953674","<p> You can put the furniture in her house by pressing 1 and deliver it elsewhere by pressing 0. </p><br><div class=""choice-instructions-grid""> <div class=""choice-option""><img src=""images/approach.png"" class=""choice-option-img"" stage=""instructions"" position=""0"" ><div class=""choice-option-text""> Press ""1."" </div></div><div class=""choice-option""><img src=""images/avoid.png"" class=""choice-option-img"" stage=""instructions"" position=""1"" ><div class=""choice-option-text""> Press ""0."" </div></div>","","0","instructions","","","","","","","","","","",""
"learning-instructions","65","418345","0.0-9.0-1.0-0.3","6471","1","8","Male","approach_avoid_spark_v1","""event"",""trial"",""time""
""fullscreenenter"",""1"",""23252""
","
","
","""event"",""trial"",""time""
""fullscreenenter"",""1"",""23252""
","
","","","","","","2263.600000143051","<p> If you decorate your friend's house with furniture she likes, she will be happy! </p><p> But if you give her furniture that she does not like, she will be annoyed. </p>","","0","instructions","","","","","","","","","","",""
"learning-instructions","66","430699","0.0-9.0-1.0-0.4","6471","1","8","Male","approach_avoid_spark_v1","""event"",""trial"",""time""
""fullscreenenter"",""1"",""23252""
","
","
","""event"",""trial"",""time""
""fullscreenenter"",""1"",""23252""
","
","","","","","","436.7999999523163","<p> You will earn points based on how you made your friend feel. </p><p> If you made her happy, you will WIN anywhere from 1 - 9 points, </p><p> but if you made her annoyed you will LOSE anywhere from 1 - 9 points. </p>","","0","instructions","","","","","","","","","","",""
"learning-instructions","67","438789","0.0-9.0-1.0-0.5","6471","1","8","Male","approach_avoid_spark_v1","""event"",""trial"",""time""
""fullscreenenter"",""1"",""23252""
","
","
","""event"",""trial"",""time""
""fullscreenenter"",""1"",""23252""
","
","","","","","","707.6000001430511","<p> You will see how many points you won or lost in the center of the screen. </p><p> Here is what you would see if you won 5 points: </p><p style=""color:green;font-size:50px;font-weight:bolder"">5</p>","","0","instructions","","","","","","","","","","",""
"learning-instructions","68","443066","0.0-9.0-1.0-0.6","6471","1","8","Male","approach_avoid_spark_v1","""event"",""trial"",""time""
""fullscreenenter"",""1"",""23252""
","
","
","""event"",""trial"",""time""
""fullscreenenter"",""1"",""23252""
","
","","","","","","954.2000000476837","<p> And here is what you would see if you lost 3 points: </p><p style=""color:red;font-size:50px;font-weight:bolder"">-3</p>","","0","instructions","","","","","","","","","","",""
"learning-instructions","69","466055","0.0-9.0-1.0-0.7","6471","1","8","Male","approach_avoid_spark_v1","""event"",""trial"",""time""
""fullscreenenter"",""1"",""23252""
","
","
","""event"",""trial"",""time""
""fullscreenenter"",""1"",""23252""
","
","","","","","","5992.799999952316","<p> Some pieces of furniture will make her feel very happy or very annoyed. </p><p> These pieces of furniture will make you win or lose LOTS of points. </p><p> Other pieces of furniture will only make her feel a little happy or a little annoyed. </p><p> These pieces of furniture will make you win or lose small amounts of points. </p>","","0","instructions","","","","","","","","","","",""
"learning-instructions","70","479316","0.0-9.0-1.0-0.8","6471","1","8","Male","approach_avoid_spark_v1","""event"",""trial"",""time""
""fullscreenenter"",""1"",""23252""
","
","
","""event"",""trial"",""time""
""fullscreenenter"",""1"",""23252""
","
","","","","","","763.7999999523163","<p> If you choose to deliver a piece of furniture elsewhere, you will not win or lose any points. </p><p>  However, in the center of the screen, you will see the number of points you WOULD HAVE won or lost if you had given the furniture to your friend. </p>","","0","instructions","","","","","","","","","","",""
"learning-instructions","71","492323","0.0-9.0-1.0-0.9","6471","1","8","Male","approach_avoid_spark_v1","""event"",""trial"",""time""
""fullscreenenter"",""1"",""23252""
","
","
","""event"",""trial"",""time""
""fullscreenenter"",""1"",""23252""
","
","","","","","","1830","<p> Here is what you might see if you did not give a piece of furniture to your friend that would have made her happy: </p><p style=""color:grey; font-size:50px; display: inline-block; border-spacing: 15px; border-width:3px; border-style:solid; border-color:red"">  &nbsp; 6 &nbsp; </p><p> Remember, in this case, you would not win or lose ANY points because you did not give her the furniture.  </p>","","0","instructions","","","","","","","","","","",""
"learning-instructions","72","500373","0.0-9.0-1.0-0.10","6471","1","8","Male","approach_avoid_spark_v1","""event"",""trial"",""time""
""fullscreenenter"",""1"",""23252""
","
","
","""event"",""trial"",""time""
""fullscreenenter"",""1"",""23252""
","
","","","","","","590.4000000953674","<p> Try to make the best choice for each piece of furniture because </p><p> at the end of the game, you will earn bonus money based on how many points you earned. </p>","","0","instructions","","","","","","","","","","",""
"learning-instructions","73","510098","0.0-9.0-1.0-0.11","6471","1","8","Male","approach_avoid_spark_v1","""event"",""trial"",""time""
""fullscreenenter"",""1"",""23252""
","
","
","""event"",""trial"",""time""
""fullscreenenter"",""1"",""23252""
","
","","","","","","1525.5","<p> You will have 3 seconds to make each choice. Try to respond before time runs out! </p><p> You will lose 5 points each time you do not make a response. </p>","","0","instructions","","","","","","","","","","",""
"html-keyboard-response","74","510710","0.0-9.0-2.0-0.0","6471","1","8","Male","approach_avoid_spark_v1","""event"",""trial"",""time""
""fullscreenenter"",""1"",""23252""
","
","
","""event"",""trial"",""time""
""fullscreenenter"",""1"",""23252""
","
","","","","","","null","<div style=""font-size:60px;"">+</div>","null","","fixation","","","","","","","","","","",""
"aa-learning-trial","75","513721","0.0-9.0-2.0-1.0","6471","1","8","Male","approach_avoid_spark_v1","""event"",""trial"",""time""
""fullscreenenter"",""1"",""23252""
","
","
","""event"",""trial"",""time""
""fullscreenenter"",""1"",""23252""
","
","","","","","","null","images/table2.png","","","learning","5","-5","","null","table","furniture","1","0","","good","[4]"
"html-keyboard-response","76","514231","0.0-9.0-2.0-0.1","6471","1","8","Male","approach_avoid_spark_v1","""event"",""trial"",""time""
""fullscreenenter"",""1"",""23252""
","
","
","""event"",""trial"",""time""
""fullscreenenter"",""1"",""23252""
","
","","","","","","null","<div style=""font-size:60px;"">+</div>","null","","fixation","","","","","","","","","","",""
"aa-learning-trial","77","517251","0.0-9.0-2.0-1.1","6471","1","8","Male","approach_avoid_spark_v1","""event"",""trial"",""time""
""fullscreenenter"",""1"",""23252""
","
","
","""event"",""trial"",""time""
""fullscreenenter"",""1"",""23252""
","
","","","","","","null","images/sofa4.png","","","learning","-3","-5","","null","sofa","furniture","1","0","","neutral","0"
"html-keyboard-response","78","517761","0.0-9.0-2.0-0.2","6471","1","8","Male","approach_avoid_spark_v1","""event"",""trial"",""time""
""fullscreenenter"",""1"",""23252""
","
","
","""event"",""trial"",""time""
""fullscreenenter"",""1"",""23252""
","
","","","","","","null","<div style=""font-size:60px;"">+</div>","null","","fixation","","","","","","","","","","",""
"aa-learning-trial","79","520781","0.0-9.0-2.0-1.2","6471","1","8","Male","approach_avoid_spark_v1","""event"",""trial"",""time""
""fullscreenenter"",""1"",""23252""
","
","
","""event"",""trial"",""time""
""fullscreenenter"",""1"",""23252""
","
","","","","","","null","images/table8.png","","","learning","3","-5","","null","table","furniture","1","0","","good","[4]"
"html-keyboard-response","80","521301","0.0-9.0-2.0-0.3","6471","1","8","Male","approach_avoid_spark_v1","""event"",""trial"",""time""
""fullscreenenter"",""1"",""23252""
","
","
","""event"",""trial"",""time""
""fullscreenenter"",""1"",""23252""
","
","","","","","","null","<div style=""font-size:60px;"">+</div>","null","","fixation","","","","","","","","","","",""
"aa-learning-trial","81","524321","0.0-9.0-2.0-1.3","6471","1","8","Male","approach_avoid_spark_v1","""event"",""trial"",""time""
""fullscreenenter"",""1"",""23252""
","
","
","""event"",""trial"",""time""
""fullscreenenter"",""1"",""23252""
","
","","","","","","null","images/sofa6.png","","","learning","-3","-5","","null","sofa","furniture","1","0","","neutral","0"
"html-keyboard-response","82","524841","0.0-9.0-2.0-0.4","6471","1","8","Male","approach_avoid_spark_v1","""event"",""trial"",""time""
""fullscreenenter"",""1"",""23252""
","
","
","""event"",""trial"",""time""
""fullscreenenter"",""1"",""23252""
","
","","","","","","null","<div style=""font-size:60px;"">+</div>","null","","fixation","","","","","","","","","","",""
"aa-learning-trial","83","527861","0.0-9.0-2.0-1.4","6471","1","8","Male","approach_avoid_spark_v1","""event"",""trial"",""time""
""fullscreenenter"",""1"",""23252""
","
","
","""event"",""trial"",""time""
""fullscreenenter"",""1"",""23252""
","
","","","","","","null","images/bed8.png","","","learning","-5","-5","","null","bed","furniture","1","0","","bad","[-5]"
"html-keyboard-response","84","528371","0.0-9.0-2.0-0.5","6471","1","8","Male","approach_avoid_spark_v1","""event"",""trial"",""time""
""fullscreenenter"",""1"",""23252""
","
","
","""event"",""trial"",""time""
""fullscreenenter"",""1"",""23252""
","
","","","","","","null","<div style=""font-size:60px;"">+</div>","null","","fixation","","","","","","","","","","",""
"aa-learning-trial","85","531381","0.0-9.0-2.0-1.5","6471","1","8","Male","approach_avoid_spark_v1","""event"",""trial"",""time""
""fullscreenenter"",""1"",""23252""
","
","
","""event"",""trial"",""time""
""fullscreenenter"",""1"",""23252""
","
","","","","","","null","images/sofa1.png","","","learning","1","-5","","null","sofa","furniture","1","0","","neutral","0"
"html-keyboard-response","86","531891","0.0-9.0-2.0-0.6","6471","1","8","Male","approach_avoid_spark_v1","""event"",""trial"",""time""
""fullscreenenter"",""1"",""23252""
","
","
","""event"",""trial"",""time""
""fullscreenenter"",""1"",""23252""
","
","","","","","","null","<div style=""font-size:60px;"">+</div>","null","","fixation","","","","","","","","","","",""
"aa-learning-trial","87","534901","0.0-9.0-2.0-1.6","6471","1","8","Male","approach_avoid_spark_v1","""event"",""trial"",""time""
""fullscreenenter"",""1"",""23252""
","
","
","""event"",""trial"",""time""
""fullscreenenter"",""1"",""23252""
","
","","","","","","null","images/bed5.png","","","learning","-5","-5","","null","bed","furniture","1","0","","bad","[-5]"
"html-keyboard-response","88","535411","0.0-9.0-2.0-0.7","6471","1","8","Male","approach_avoid_spark_v1","""event"",""trial"",""time""
""fullscreenenter"",""1"",""23252""
","
","
","""event"",""trial"",""time""
""fullscreenenter"",""1"",""23252""
","
","","","","","","null","<div style=""font-size:60px;"">+</div>","null","","fixation","","","","","","","","","","",""
"aa-learning-trial","89","538422","0.0-9.0-2.0-1.7","6471","1","8","Male","approach_avoid_spark_v1","""event"",""trial"",""time""
""fullscreenenter"",""1"",""23252""
","
","
","""event"",""trial"",""time""
""fullscreenenter"",""1"",""23252""
","
","","","","","","null","images/table8.png","","","learning","2","-5","","null","table","furniture","1","0","","good","[4]"
"html-keyboard-response","90","538924","0.0-9.0-2.0-0.8","6471","1","8","Male","approach_avoid_spark_v1","""event"",""trial"",""time""
""fullscreenenter"",""1"",""23252""
","
","
","""event"",""trial"",""time""
""fullscreenenter"",""1"",""23252""
","
","","","","","","null","<div style=""font-size:60px;"">+</div>","null","","fixation","","","","","","","","","","",""
"aa-learning-trial","91","541926","0.0-9.0-2.0-1.8","6471","1","8","Male","approach_avoid_spark_v1","""event"",""trial"",""time""
""fullscreenenter"",""1"",""23252""
","
","
","""event"",""trial"",""time""
""fullscreenenter"",""1"",""23252""
","
","","","","","","null","images/bed4.png","","","learning","-6","-5","","null","bed","furniture","1","0","","bad","[-5]"
"html-keyboard-response","92","542427","0.0-9.0-2.0-0.9","6471","1","8","Male","approach_avoid_spark_v1","""event"",""trial"",""time""
""fullscreenenter"",""1"",""23252""
","
","
","""event"",""trial"",""time""
""fullscreenenter"",""1"",""23252""
","
","","","","","","null","<div style=""font-size:60px;"">+</div>","null","","fixation","","","","","","","","","","",""
"aa-learning-trial","93","545430","0.0-9.0-2.0-1.9","6471","1","8","Male","approach_avoid_spark_v1","""event"",""trial"",""time""
""fullscreenenter"",""1"",""23252""
","
","
","""event"",""trial"",""time""
""fullscreenenter"",""1"",""23252""
","
","","","","","","null","images/bed5.png","","","learning","-4","-5","","null","bed","furniture","1","0","","bad","[-5]"
"html-keyboard-response","94","545931","0.0-9.0-2.0-0.10","6471","1","8","Male","approach_avoid_spark_v1","""event"",""trial"",""time""
""fullscreenenter"",""1"",""23252""
","
","
","""event"",""trial"",""time""
""fullscreenenter"",""1"",""23252""
","
","","","","","","null","<div style=""font-size:60px;"">+</div>","null","","fixation","","","","","","","","","","",""
"aa-learning-trial","95","548934","0.0-9.0-2.0-1.10","6471","1","8","Male","approach_avoid_spark_v1","""event"",""trial"",""time""
""fullscreenenter"",""1"",""23252""
","
","
","""event"",""trial"",""time""
""fullscreenenter"",""1"",""23252""
","
","","","","","","null","images/sofa4.png","","","learning","2","-5","","null","sofa","furniture","1","0","","neutral","0"
"html-keyboard-response","96","549435","0.0-9.0-2.0-0.11","6471","1","8","Male","approach_avoid_spark_v1","""event"",""trial"",""time""
""fullscreenenter"",""1"",""23252""
","
","
","""event"",""trial"",""time""
""fullscreenenter"",""1"",""23252""
","
","","","","","","null","<div style=""font-size:60px;"">+</div>","null","","fixation","","","","","","","","","","",""
"aa-learning-trial","97","552437","0.0-9.0-2.0-1.11","6471","1","8","Male","approach_avoid_spark_v1","""event"",""trial"",""time""
""fullscreenenter"",""1"",""23252""
","
","
","""event"",""trial"",""time""
""fullscreenenter"",""1"",""23252""
","
","","","","","","null","images/bed4.png","","","learning","-5","-5","","null","bed","furniture","1","0","","bad","[-5]"
"html-keyboard-response","98","552937","0.0-9.0-2.0-0.12","6471","1","8","Male","approach_avoid_spark_v1","""event"",""trial"",""time""
""fullscreenenter"",""1"",""23252""
","
","
","""event"",""trial"",""time""
""fullscreenenter"",""1"",""23252""
","
","","","","","","null","<div style=""font-size:60px;"">+</div>","null","","fixation","","","","","","","","","","",""
"aa-learning-trial","99","555939","0.0-9.0-2.0-1.12","6471","1","8","Male","approach_avoid_spark_v1","""event"",""trial"",""time""
""fullscreenenter"",""1"",""23252""
","
","
","""event"",""trial"",""time""
""fullscreenenter"",""1"",""23252""
","
","","","","","","null","images/sofa1.png","","","learning","-2","-5","","null","sofa","furniture","1","0","","neutral","0"
"html-keyboard-response","100","556441","0.0-9.0-2.0-0.13","6471","1","8","Male","approach_avoid_spark_v1","""event"",""trial"",""time""
""fullscreenenter"",""1"",""23252""
","
","
","""event"",""trial"",""time""
""fullscreenenter"",""1"",""23252""
","
","","","","","","null","<div style=""font-size:60px;"">+</div>","null","","fixation","","","","","","","","","","",""
"aa-learning-trial","101","559443","0.0-9.0-2.0-1.13","6471","1","8","Male","approach_avoid_spark_v1","""event"",""trial"",""time""
""fullscreenenter"",""1"",""23252""
","
","
","""event"",""trial"",""time""
""fullscreenenter"",""1"",""23252""
","
","","","","","","null","images/table2.png","","","learning","4","-5","","null","table","furniture","1","0","","good","[4]"
"html-keyboard-response","102","559945","0.0-9.0-2.0-0.14","6471","1","8","Male","approach_avoid_spark_v1","""event"",""trial"",""time""
""fullscreenenter"",""1"",""23252""
","
","
","""event"",""trial"",""time""
""fullscreenenter"",""1"",""23252""
","
","","","","","","null","<div style=""font-size:60px;"">+</div>","null","","fixation","","","","","","","","","","",""
"aa-learning-trial","103","562947","0.0-9.0-2.0-1.14","6471","1","8","Male","approach_avoid_spark_v1","""event"",""trial"",""time""
""fullscreenenter"",""1"",""23252""
","
","
","""event"",""trial"",""time""
""fullscreenenter"",""1"",""23252""
","
","","","","","","null","images/table3.png","","","learning","4","-5","","null","table","furniture","1","0","","good","[4]"
"html-keyboard-response","104","563449","0.0-9.0-2.0-0.15","6471","1","8","Male","approach_avoid_spark_v1","""event"",""trial"",""time""
""fullscreenenter"",""1"",""23252""
","
","
","""event"",""trial"",""time""
""fullscreenenter"",""1"",""23252""
","
","","","","","","null","<div style=""font-size:60px;"">+</div>","null","","fixation","","","","","","","","","","",""
"aa-learning-trial","105","566451","0.0-9.0-2.0-1.15","6471","1","8","Male","approach_avoid_spark_v1","""event"",""trial"",""time""
""fullscreenenter"",""1"",""23252""
","
","
","""event"",""trial"",""time""
""fullscreenenter"",""1"",""23252""
","
","","","","","","null","images/bed5.png","","","learning","-7","-5","","null","bed","furniture","1","0","","bad","[-5]"
"html-keyboard-response","106","566953","0.0-9.0-2.0-0.16","6471","1","8","Male","approach_avoid_spark_v1","""event"",""trial"",""time""
""fullscreenenter"",""1"",""23252""
","
","
","""event"",""trial"",""time""
""fullscreenenter"",""1"",""23252""
","
","","","","","","null","<div style=""font-size:60px;"">+</div>","null","","fixation","","","","","","","","","","",""
"aa-learning-trial","107","569956","0.0-9.0-2.0-1.16","6471","1","8","Male","approach_avoid_spark_v1","""event"",""trial"",""time""
""fullscreenenter"",""1"",""23252""
","
","
","""event"",""trial"",""time""
""fullscreenenter"",""1"",""23252""
","
","","","","","","null","images/table2.png","","","learning","5","-5","","null","table","furniture","1","0","","good","[4]"
"html-keyboard-response","108","570458","0.0-9.0-2.0-0.17","6471","1","8","Male","approach_avoid_spark_v1","""event"",""trial"",""time""
""fullscreenenter"",""1"",""23252""
","
","
","""event"",""trial"",""time""
""fullscreenenter"",""1"",""23252""
","
","","","","","","null","<div style=""font-size:60px;"">+</div>","null","","fixation","","","","","","","","","","",""
"aa-learning-trial","109","573460","0.0-9.0-2.0-1.17","6471","1","8","Male","approach_avoid_spark_v1","""event"",""trial"",""time""
""fullscreenenter"",""1"",""23252""
","
","
","""event"",""trial"",""time""
""fullscreenenter"",""1"",""23252""
","
","","","","","","null","images/table8.png","","","learning","5","-5","","null","table","furniture","1","0","","good","[4]"
"html-keyboard-response","110","573962","0.0-9.0-2.0-0.18","6471","1","8","Male","approach_avoid_spark_v1","""event"",""trial"",""time""
""fullscreenenter"",""1"",""23252""
","
","
","""event"",""trial"",""time""
""fullscreenenter"",""1"",""23252""
","
","","","","","","null","<div style=""font-size:60px;"">+</div>","null","","fixation","","","","","","","","","","",""
"aa-learning-trial","111","576965","0.0-9.0-2.0-1.18","6471","1","8","Male","approach_avoid_spark_v1","""event"",""trial"",""time""
""fullscreenenter"",""1"",""23252""
","
","
","""event"",""trial"",""time""
""fullscreenenter"",""1"",""23252""
","
","","","","","","null","images/sofa6.png","","","learning","3","-5","","null","sofa","furniture","1","0","","neutral","0"
"html-keyboard-response","112","577466","0.0-9.0-2.0-0.19","6471","1","8","Male","approach_avoid_spark_v1","""event"",""trial"",""time""
""fullscreenenter"",""1"",""23252""
","
","
","""event"",""trial"",""time""
""fullscreenenter"",""1"",""23252""
","
","","","","","","null","<div style=""font-size:60px;"">+</div>","null","","fixation","","","","","","","","","","",""
"aa-learning-trial","113","580468","0.0-9.0-2.0-1.19","6471","1","8","Male","approach_avoid_spark_v1","""event"",""trial"",""time""
""fullscreenenter"",""1"",""23252""
","
","
","""event"",""trial"",""time""
""fullscreenenter"",""1"",""23252""
","
","","","","","","null","images/bed8.png","","","learning","-4","-5","","null","bed","furniture","1","0","","bad","[-5]"
"html-keyboard-response","114","580970","0.0-9.0-2.0-0.20","6471","1","8","Male","approach_avoid_spark_v1","""event"",""trial"",""time""
""fullscreenenter"",""1"",""23252""
","
","
","""event"",""trial"",""time""
""fullscreenenter"",""1"",""23252""
","
","","","","","","null","<div style=""font-size:60px;"">+</div>","null","","fixation","","","","","","","","","","",""
"aa-learning-trial","115","583973","0.0-9.0-2.0-1.20","6471","1","8","Male","approach_avoid_spark_v1","""event"",""trial"",""time""
""fullscreenenter"",""1"",""23252""
","
","
","""event"",""trial"",""time""
""fullscreenenter"",""1"",""23252""
","
","","","","","","null","images/bed4.png","","","learning","-5","-5","","null","bed","furniture","1","0","","bad","[-5]"
"html-keyboard-response","116","584474","0.0-9.0-2.0-0.21","6471","1","8","Male","approach_avoid_spark_v1","""event"",""trial"",""time""
""fullscreenenter"",""1"",""23252""
","
","
","""event"",""trial"",""time""
""fullscreenenter"",""1"",""23252""
","
","","","","","","null","<div style=""font-size:60px;"">+</div>","null","","fixation","","","","","","","","","","",""
"aa-learning-trial","117","587477","0.0-9.0-2.0-1.21","6471","1","8","Male","approach_avoid_spark_v1","""event"",""trial"",""time""
""fullscreenenter"",""1"",""23252""
","
","
","""event"",""trial"",""time""
""fullscreenenter"",""1"",""23252""
","
","","","","","","null","images/sofa1.png","","","learning","2","-5","","null","sofa","furniture","1","0","","neutral","0"
"html-keyboard-response","118","587977","0.0-9.0-2.0-0.22","6471","1","8","Male","approach_avoid_spark_v1","""event"",""trial"",""time""
""fullscreenenter"",""1"",""23252""
","
","
","""event"",""trial"",""time""
""fullscreenenter"",""1"",""23252""
","
","","","","","","null","<div style=""font-size:60px;"">+</div>","null","","fixation","","","","","","","","","","",""
"aa-learning-trial","119","590980","0.0-9.0-2.0-1.22","6471","1","8","Male","approach_avoid_spark_v1","""event"",""trial"",""time""
""fullscreenenter"",""1"",""23252""
","
","
","""event"",""trial"",""time""
""fullscreenenter"",""1"",""23252""
","
","","","","","","null","images/sofa6.png","","","learning","2","-5","","null","sofa","furniture","1","0","","neutral","0"
"html-keyboard-response","120","591493","0.0-9.0-2.0-0.23","6471","1","8","Male","approach_avoid_spark_v1","""event"",""trial"",""time""
""fullscreenenter"",""1"",""23252""
","
","
","""event"",""trial"",""time""
""fullscreenenter"",""1"",""23252""
","
","","","","","","null","<div style=""font-size:60px;"">+</div>","null","","fixation","","","","","","","","","","",""
"aa-learning-trial","121","594495","0.0-9.0-2.0-1.23","6471","1","8","Male","approach_avoid_spark_v1","""event"",""trial"",""time""
""fullscreenenter"",""1"",""23252""
","
","
","""event"",""trial"",""time""
""fullscreenenter"",""1"",""23252""
","
","","","","","","null","images/table2.png","","","learning","2","-5","","null","table","furniture","1","0","","good","[4]"
"html-keyboard-response","122","594996","0.0-9.0-2.0-0.24","6471","1","8","Male","approach_avoid_spark_v1","""event"",""trial"",""time""
""fullscreenenter"",""1"",""23252""
","
","
","""event"",""trial"",""time""
""fullscreenenter"",""1"",""23252""
","
","","","","","","null","<div style=""font-size:60px;"">+</div>","null","","fixation","","","","","","","","","","",""
"aa-learning-trial","123","597999","0.0-9.0-2.0-1.24","6471","1","8","Male","approach_avoid_spark_v1","""event"",""trial"",""time""
""fullscreenenter"",""1"",""23252""
","
","
","""event"",""trial"",""time""
""fullscreenenter"",""1"",""23252""
","
","","","","","","null","images/sofa4.png","","","learning","2","-5","","null","sofa","furniture","1","0","","neutral","0"
"html-keyboard-response","124","598500","0.0-9.0-2.0-0.25","6471","1","8","Male","approach_avoid_spark_v1","""event"",""trial"",""time""
""fullscreenenter"",""1"",""23252""
","
","
","""event"",""trial"",""time""
""fullscreenenter"",""1"",""23252""
","
","","","","","","null","<div style=""font-size:60px;"">+</div>","null","","fixation","","","","","","","","","","",""
"aa-learning-trial","125","601503","0.0-9.0-2.0-1.25","6471","1","8","Male","approach_avoid_spark_v1","""event"",""trial"",""time""
""fullscreenenter"",""1"",""23252""
","
","
","""event"",""trial"",""time""
""fullscreenenter"",""1"",""23252""
","
","","","","","","null","images/bed5.png","","","learning","-3","-5","","null","bed","furniture","1","0","","bad","[-5]"
"html-keyboard-response","126","602005","0.0-9.0-2.0-0.26","6471","1","8","Male","approach_avoid_spark_v1","""event"",""trial"",""time""
""fullscreenenter"",""1"",""23252""
","
","
","""event"",""trial"",""time""
""fullscreenenter"",""1"",""23252""
","
","","","","","","null","<div style=""font-size:60px;"">+</div>","null","","fixation","","","","","","","","","","",""
"aa-learning-trial","127","605007","0.0-9.0-2.0-1.26","6471","1","8","Male","approach_avoid_spark_v1","""event"",""trial"",""time""
""fullscreenenter"",""1"",""23252""
","
","
","""event"",""trial"",""time""
""fullscreenenter"",""1"",""23252""
","
","","","","","","null","images/sofa4.png","","","learning","-1","-5","","null","sofa","furniture","1","0","","neutral","0"
"html-keyboard-response","128","605509","0.0-9.0-2.0-0.27","6471","1","8","Male","approach_avoid_spark_v1","""event"",""trial"",""time""
""fullscreenenter"",""1"",""23252""
","
","
","""event"",""trial"",""time""
""fullscreenenter"",""1"",""23252""
","
","","","","","","null","<div style=""font-size:60px;"">+</div>","null","","fixation","","","","","","","","","","",""
"aa-learning-trial","129","608511","0.0-9.0-2.0-1.27","6471","1","8","Male","approach_avoid_spark_v1","""event"",""trial"",""time""
""fullscreenenter"",""1"",""23252""
","
","
","""event"",""trial"",""time""
""fullscreenenter"",""1"",""23252""
","
","","","","","","null","images/bed8.png","","","learning","-6","-5","","null","bed","furniture","1","0","","bad","[-5]"
"html-keyboard-response","130","609012","0.0-9.0-2.0-0.28","6471","1","8","Male","approach_avoid_spark_v1","""event"",""trial"",""time""
""fullscreenenter"",""1"",""23252""
","
","
","""event"",""trial"",""time""
""fullscreenenter"",""1"",""23252""
","
","","","","","","null","<div style=""font-size:60px;"">+</div>","null","","fixation","","","","","","","","","","",""
"aa-learning-trial","131","612014","0.0-9.0-2.0-1.28","6471","1","8","Male","approach_avoid_spark_v1","""event"",""trial"",""time""
""fullscreenenter"",""1"",""23252""
","
","
","""event"",""trial"",""time""
""fullscreenenter"",""1"",""23252""
","
","","","","","","null","images/bed4.png","","","learning","-6","-5","","null","bed","furniture","1","0","","bad","[-5]"
"html-keyboard-response","132","612516","0.0-9.0-2.0-0.29","6471","1","8","Male","approach_avoid_spark_v1","""event"",""trial"",""time""
""fullscreenenter"",""1"",""23252""
","
","
","""event"",""trial"",""time""
""fullscreenenter"",""1"",""23252""
","
","","","","","","null","<div style=""font-size:60px;"">+</div>","null","","fixation","","","","","","","","","","",""
"aa-learning-trial","133","615518","0.0-9.0-2.0-1.29","6471","1","8","Male","approach_avoid_spark_v1","""event"",""trial"",""time""
""fullscreenenter"",""1"",""23252""
","
","
","""event"",""trial"",""time""
""fullscreenenter"",""1"",""23252""
","
","","","","","","null","images/table2.png","","","learning","4","-5","","null","table","furniture","1","0","","good","[4]"
"html-keyboard-response","134","616020","0.0-9.0-2.0-0.30","6471","1","8","Male","approach_avoid_spark_v1","""event"",""trial"",""time""
""fullscreenenter"",""1"",""23252""
","
","
","""event"",""trial"",""time""
""fullscreenenter"",""1"",""23252""
","
","","","","","","null","<div style=""font-size:60px;"">+</div>","null","","fixation","","","","","","","","","","",""
"aa-learning-trial","135","619023","0.0-9.0-2.0-1.30","6471","1","8","Male","approach_avoid_spark_v1","""event"",""trial"",""time""
""fullscreenenter"",""1"",""23252""
","
","
","""event"",""trial"",""time""
""fullscreenenter"",""1"",""23252""
","
","","","","","","null","images/bed2.png","","","learning","-6","-5","","null","bed","furniture","1","0","","bad","[-5]"
"html-keyboard-response","136","619525","0.0-9.0-2.0-0.31","6471","1","8","Male","approach_avoid_spark_v1","""event"",""trial"",""time""
""fullscreenenter"",""1"",""23252""
","
","
","""event"",""trial"",""time""
""fullscreenenter"",""1"",""23252""
","
","","","","","","null","<div style=""font-size:60px;"">+</div>","null","","fixation","","","","","","","","","","",""
"aa-learning-trial","137","622528","0.0-9.0-2.0-1.31","6471","1","8","Male","approach_avoid_spark_v1","""event"",""trial"",""time""
""fullscreenenter"",""1"",""23252""
","
","
","""event"",""trial"",""time""
""fullscreenenter"",""1"",""23252""
","
","","","","","","null","images/bed5.png","","","learning","-8","-5","","null","bed","furniture","1","0","","bad","[-5]"
"html-keyboard-response","138","623029","0.0-9.0-2.0-0.32","6471","1","8","Male","approach_avoid_spark_v1","""event"",""trial"",""time""
""fullscreenenter"",""1"",""23252""
","
","
","""event"",""trial"",""time""
""fullscreenenter"",""1"",""23252""
","
","","","","","","null","<div style=""font-size:60px;"">+</div>","null","","fixation","","","","","","","","","","",""
"aa-learning-trial","139","626032","0.0-9.0-2.0-1.32","6471","1","8","Male","approach_avoid_spark_v1","""event"",""trial"",""time""
""fullscreenenter"",""1"",""23252""
","
","
","""event"",""trial"",""time""
""fullscreenenter"",""1"",""23252""
","
","","","","","","null","images/table4.png","","","learning","5","-5","","null","table","furniture","1","0","","good","[4]"
"html-keyboard-response","140","626533","0.0-9.0-2.0-0.33","6471","1","8","Male","approach_avoid_spark_v1","""event"",""trial"",""time""
""fullscreenenter"",""1"",""23252""
","
","
","""event"",""trial"",""time""
""fullscreenenter"",""1"",""23252""
","
","","","","","","null","<div style=""font-size:60px;"">+</div>","null","","fixation","","","","","","","","","","",""
"aa-learning-trial","141","629535","0.0-9.0-2.0-1.33","6471","1","8","Male","approach_avoid_spark_v1","""event"",""trial"",""time""
""fullscreenenter"",""1"",""23252""
","
","
","""event"",""trial"",""time""
""fullscreenenter"",""1"",""23252""
","
","","","","","","null","images/bed7.png","","","learning","-6","-5","","null","bed","furniture","1","0","","bad","[-5]"
"html-keyboard-response","142","630036","0.0-9.0-2.0-0.34","6471","1","8","Male","approach_avoid_spark_v1","""event"",""trial"",""time""
""fullscreenenter"",""1"",""23252""
","
","
","""event"",""trial"",""time""
""fullscreenenter"",""1"",""23252""
","
","","","","","","null","<div style=""font-size:60px;"">+</div>","null","","fixation","","","","","","","","","","",""
"aa-learning-trial","143","633039","0.0-9.0-2.0-1.34","6471","1","8","Male","approach_avoid_spark_v1","""event"",""trial"",""time""
""fullscreenenter"",""1"",""23252""
","
","
","""event"",""trial"",""time""
""fullscreenenter"",""1"",""23252""
","
","","","","","","null","images/sofa5.png","","","learning","-1","-5","","null","sofa","furniture","1","0","","neutral","0"
"html-keyboard-response","144","633540","0.0-9.0-2.0-0.35","6471","1","8","Male","approach_avoid_spark_v1","""event"",""trial"",""time""
""fullscreenenter"",""1"",""23252""
","
","
","""event"",""trial"",""time""
""fullscreenenter"",""1"",""23252""
","
","","","","","","null","<div style=""font-size:60px;"">+</div>","null","","fixation","","","","","","","","","","",""
"aa-learning-trial","145","636543","0.0-9.0-2.0-1.35","6471","1","8","Male","approach_avoid_spark_v1","""event"",""trial"",""time""
""fullscreenenter"",""1"",""23252""
","
","
","""event"",""trial"",""time""
""fullscreenenter"",""1"",""23252""
","
","","","","","","null","images/sofa4.png","","","learning","-2","-5","","null","sofa","furniture","1","0","","neutral","0"
"html-keyboard-response","146","637045","0.0-9.0-2.0-0.36","6471","1","8","Male","approach_avoid_spark_v1","""event"",""trial"",""time""
""fullscreenenter"",""1"",""23252""
","
","
","""event"",""trial"",""time""
""fullscreenenter"",""1"",""23252""
","
","","","","","","null","<div style=""font-size:60px;"">+</div>","null","","fixation","","","","","","","","","","",""
"aa-learning-trial","147","640047","0.0-9.0-2.0-1.36","6471","1","8","Male","approach_avoid_spark_v1","""event"",""trial"",""time""
""fullscreenenter"",""1"",""23252""
","
","
","""event"",""trial"",""time""
""fullscreenenter"",""1"",""23252""
","
","","","","","","null","images/table8.png","","","learning","3","-5","","null","table","furniture","1","0","","good","[4]"
"html-keyboard-response","148","640548","0.0-9.0-2.0-0.37","6471","1","8","Male","approach_avoid_spark_v1","""event"",""trial"",""time""
""fullscreenenter"",""1"",""23252""
","
","
","""event"",""trial"",""time""
""fullscreenenter"",""1"",""23252""
","
","","","","","","null","<div style=""font-size:60px;"">+</div>","null","","fixation","","","","","","","","","","",""
"aa-learning-trial","149","643551","0.0-9.0-2.0-1.37","6471","1","8","Male","approach_avoid_spark_v1","""event"",""trial"",""time""
""fullscreenenter"",""1"",""23252""
","
","
","""event"",""trial"",""time""
""fullscreenenter"",""1"",""23252""
","
","","","","","","null","images/table8.png","","","learning","4","-5","","null","table","furniture","1","0","","good","[4]"
"html-keyboard-response","150","644053","0.0-9.0-2.0-0.38","6471","1","8","Male","approach_avoid_spark_v1","""event"",""trial"",""time""
""fullscreenenter"",""1"",""23252""
","
","
","""event"",""trial"",""time""
""fullscreenenter"",""1"",""23252""
","
","","","","","","null","<div style=""font-size:60px;"">+</div>","null","","fixation","","","","","","","","","","",""
"aa-learning-trial","151","647056","0.0-9.0-2.0-1.38","6471","1","8","Male","approach_avoid_spark_v1","""event"",""trial"",""time""
""fullscreenenter"",""1"",""23252""
","
","
","""event"",""trial"",""time""
""fullscreenenter"",""1"",""23252""
","
","","","","","","null","images/sofa1.png","","","learning","1","-5","","null","sofa","furniture","1","0","","neutral","0"
"html-keyboard-response","152","647557","0.0-9.0-2.0-0.39","6471","1","8","Male","approach_avoid_spark_v1","""event"",""trial"",""time""
""fullscreenenter"",""1"",""23252""
","
","
","""event"",""trial"",""time""
""fullscreenenter"",""1"",""23252""
","
","","","","","","null","<div style=""font-size:60px;"">+</div>","null","","fixation","","","","","","","","","","",""
"aa-learning-trial","153","650560","0.0-9.0-2.0-1.39","6471","1","8","Male","approach_avoid_spark_v1","""event"",""trial"",""time""
""fullscreenenter"",""1"",""23252""
","
","
","""event"",""trial"",""time""
""fullscreenenter"",""1"",""23252""
","
","","","","","","null","images/bed5.png","","","learning","-7","-5","","null","bed","furniture","1","0","","bad","[-5]"
"html-keyboard-response","154","651077","0.0-9.0-2.0-0.40","6471","1","8","Male","approach_avoid_spark_v1","""event"",""trial"",""time""
""fullscreenenter"",""1"",""23252""
","
","
","""event"",""trial"",""time""
""fullscreenenter"",""1"",""23252""
","
","","","","","","null","<div style=""font-size:60px;"">+</div>","null","","fixation","","","","","","","","","","",""
"aa-learning-trial","155","654080","0.0-9.0-2.0-1.40","6471","1","8","Male","approach_avoid_spark_v1","""event"",""trial"",""time""
""fullscreenenter"",""1"",""23252""
","
","
","""event"",""trial"",""time""
""fullscreenenter"",""1"",""23252""
","
","","","","","","null","images/table2.png","","","learning","5","-5","","null","table","furniture","1","0","","good","[4]"
"html-keyboard-response","156","654582","0.0-9.0-2.0-0.41","6471","1","8","Male","approach_avoid_spark_v1","""event"",""trial"",""time""
""fullscreenenter"",""1"",""23252""
","
","
","""event"",""trial"",""time""
""fullscreenenter"",""1"",""23252""
","
","","","","","","null","<div style=""font-size:60px;"">+</div>","null","","fixation","","","","","","","","","","",""
"aa-learning-trial","157","657585","0.0-9.0-2.0-1.41","6471","1","8","Male","approach_avoid_spark_v1","""event"",""trial"",""time""
""fullscreenenter"",""1"",""23252""
","
","
","""event"",""trial"",""time""
""fullscreenenter"",""1"",""23252""
","
","","","","","","null","images/sofa1.png","","","learning","-1","-5","","null","sofa","furniture","1","0","","neutral","0"
"html-keyboard-response","158","658086","0.0-9.0-2.0-0.42","6471","1","8","Male","approach_avoid_spark_v1","""event"",""trial"",""time""
""fullscreenenter"",""1"",""23252""
","
","
","""event"",""trial"",""time""
""fullscreenenter"",""1"",""23252""
","
","","","","","","null","<div style=""font-size:60px;"">+</div>","null","","fixation","","","","","","","","","","",""
"aa-learning-trial","159","661089","0.0-9.0-2.0-1.42","6471","1","8","Male","approach_avoid_spark_v1","""event"",""trial"",""time""
""fullscreenenter"",""1"",""23252""
","
","
","""event"",""trial"",""time""
""fullscreenenter"",""1"",""23252""
","
","","","","","","null","images/sofa4.png","","","learning","-2","-5","","null","sofa","furniture","1","0","","neutral","0"
"html-keyboard-response","160","661590","0.0-9.0-2.0-0.43","6471","1","8","Male","approach_avoid_spark_v1","""event"",""trial"",""time""
""fullscreenenter"",""1"",""23252""
","
","
","""event"",""trial"",""time""
""fullscreenenter"",""1"",""23252""
","
","","","","","","null","<div style=""font-size:60px;"">+</div>","null","","fixation","","","","","","","","","","",""
"aa-learning-trial","161","664594","0.0-9.0-2.0-1.43","6471","1","8","Male","approach_avoid_spark_v1","""event"",""trial"",""time""
""fullscreenenter"",""1"",""23252""
","
","
","""event"",""trial"",""time""
""fullscreenenter"",""1"",""23252""
","
","","","","","","null","images/table6.png","","","learning","4","-5","","null","table","furniture","1","0","","good","[4]"
"html-keyboard-response","162","665095","0.0-9.0-2.0-0.44","6471","1","8","Male","approach_avoid_spark_v1","""event"",""trial"",""time""
""fullscreenenter"",""1"",""23252""
","
","
","""event"",""trial"",""time""
""fullscreenenter"",""1"",""23252""
","
","","","","","","null","<div style=""font-size:60px;"">+</div>","null","","fixation","","","","","","","","","","",""
"aa-learning-trial","163","668097","0.0-9.0-2.0-1.44","6471","1","8","Male","approach_avoid_spark_v1","""event"",""trial"",""time""
""fullscreenenter"",""1"",""23252""
","
","
","""event"",""trial"",""time""
""fullscreenenter"",""1"",""23252""
","
","","","","","","null","images/table8.png","","","learning","3","-5","","null","table","furniture","1","0","","good","[4]"
"html-keyboard-response","164","668598","0.0-9.0-2.0-0.45","6471","1","8","Male","approach_avoid_spark_v1","""event"",""trial"",""time""
""fullscreenenter"",""1"",""23252""
","
","
","""event"",""trial"",""time""
""fullscreenenter"",""1"",""23252""
","
","","","","","","null","<div style=""font-size:60px;"">+</div>","null","","fixation","","","","","","","","","","",""
"aa-learning-trial","165","671601","0.0-9.0-2.0-1.45","6471","1","8","Male","approach_avoid_spark_v1","""event"",""trial"",""time""
""fullscreenenter"",""1"",""23252""
","
","
","""event"",""trial"",""time""
""fullscreenenter"",""1"",""23252""
","
","","","","","","null","images/bed4.png","","","learning","-4","-5","","null","bed","furniture","1","0","","bad","[-5]"
"html-keyboard-response","166","672104","0.0-9.0-2.0-0.46","6471","1","8","Male","approach_avoid_spark_v1","""event"",""trial"",""time""
""fullscreenenter"",""1"",""23252""
","
","
","""event"",""trial"",""time""
""fullscreenenter"",""1"",""23252""
","
","","","","","","null","<div style=""font-size:60px;"">+</div>","null","","fixation","","","","","","","","","","",""
"aa-learning-trial","167","675106","0.0-9.0-2.0-1.46","6471","1","8","Male","approach_avoid_spark_v1","""event"",""trial"",""time""
""fullscreenenter"",""1"",""23252""
","
","
","""event"",""trial"",""time""
""fullscreenenter"",""1"",""23252""
","
","","","","","","null","images/bed4.png","","","learning","-5","-5","","null","bed","furniture","1","0","","bad","[-5]"
"html-keyboard-response","168","675608","0.0-9.0-2.0-0.47","6471","1","8","Male","approach_avoid_spark_v1","""event"",""trial"",""time""
""fullscreenenter"",""1"",""23252""
","
","
","""event"",""trial"",""time""
""fullscreenenter"",""1"",""23252""
","
","","","","","","null","<div style=""font-size:60px;"">+</div>","null","","fixation","","","","","","","","","","",""
"aa-learning-trial","169","678611","0.0-9.0-2.0-1.47","6471","1","8","Male","approach_avoid_spark_v1","""event"",""trial"",""time""
""fullscreenenter"",""1"",""23252""
","
","
","""event"",""trial"",""time""
""fullscreenenter"",""1"",""23252""
","
","","","","","","null","images/table3.png","","","learning","4","-5","","null","table","furniture","1","0","","good","[4]"
"html-keyboard-response","170","679112","0.0-9.0-2.0-0.48","6471","1","8","Male","approach_avoid_spark_v1","""event"",""trial"",""time""
""fullscreenenter"",""1"",""23252""
","
","
","""event"",""trial"",""time""
""fullscreenenter"",""1"",""23252""
","
","","","","","","null","<div style=""font-size:60px;"">+</div>","null","","fixation","","","","","","","","","","",""
"aa-learning-trial","171","682115","0.0-9.0-2.0-1.48","6471","1","8","Male","approach_avoid_spark_v1","""event"",""trial"",""time""
""fullscreenenter"",""1"",""23252""
","
","
","""event"",""trial"",""time""
""fullscreenenter"",""1"",""23252""
","
","","","","","","null","images/sofa1.png","","","learning","1","-5","","null","sofa","furniture","1","0","","neutral","0"
"html-keyboard-response","172","682616","0.0-9.0-2.0-0.49","6471","1","8","Male","approach_avoid_spark_v1","""event"",""trial"",""time""
""fullscreenenter"",""1"",""23252""
","
","
","""event"",""trial"",""time""
""fullscreenenter"",""1"",""23252""
","
","","","","","","null","<div style=""font-size:60px;"">+</div>","null","","fixation","","","","","","","","","","",""
"aa-learning-trial","173","685617","0.0-9.0-2.0-1.49","6471","1","8","Male","approach_avoid_spark_v1","""event"",""trial"",""time""
""fullscreenenter"",""1"",""23252""
","
","
","""event"",""trial"",""time""
""fullscreenenter"",""1"",""23252""
","
","","","","","","null","images/sofa8.png","","","learning","2","-5","","null","sofa","furniture","1","0","","neutral","0"
"html-keyboard-response","174","686118","0.0-9.0-2.0-0.50","6471","1","8","Male","approach_avoid_spark_v1","""event"",""trial"",""time""
""fullscreenenter"",""1"",""23252""
","
","
","""event"",""trial"",""time""
""fullscreenenter"",""1"",""23252""
","
","","","","","","null","<div style=""font-size:60px;"">+</div>","null","","fixation","","","","","","","","","","",""
"aa-learning-trial","175","689122","0.0-9.0-2.0-1.50","6471","1","8","Male","approach_avoid_spark_v1","""event"",""trial"",""time""
""fullscreenenter"",""1"",""23252""
","
","
","""event"",""trial"",""time""
""fullscreenenter"",""1"",""23252""
","
","","","","","","null","images/table3.png","","","learning","6","-5","","null","table","furniture","1","0","","good","[4]"
"html-button-response","176","704067","0.0-9.0-3.0","6471","1","8","Male","approach_avoid_spark_v1","""event"",""trial"",""time""
""fullscreenenter"",""1"",""23252""
","
","
","""event"",""trial"",""time""
""fullscreenenter"",""1"",""23252""
","
","","","","","","14944","<p> You have completed the round! <p> In this round, you earned -255 points! </p>","0","","break","","","","","","","","","","",""
"html-button-response","177","706462","0.0-10.0","6471","1","8","Male","approach_avoid_spark_v1","""event"",""trial"",""time""
""fullscreenenter"",""1"",""23252""
","
","
","""event"",""trial"",""time""
""fullscreenenter"",""1"",""23252""
","
","","","","","","2394.2999999523163","<p> Now it's time to play another round. </p>","0","","transition_screen","","","","","","","","","","",""
"preload","178","706579","0.0-11.0-0.0","6471","1","8","Male","approach_avoid_spark_v1","""event"",""trial"",""time""
""fullscreenenter"",""1"",""23252""
","
","
","""event"",""trial"",""time""
""fullscreenenter"",""1"",""23252""
","
","true","false","[]","[]","[]","","","","","","","","","","","","","","","",""
"learning-instructions","179","715141","0.0-11.0-1.0-0.0","6471","1","8","Male","approach_avoid_spark_v1","""event"",""trial"",""time""
""fullscreenenter"",""1"",""23252""
","
","
","""event"",""trial"",""time""
""fullscreenenter"",""1"",""23252""
","
","","","","","","2659.7999999523163","<p> Your goal in this round is to take your friend for rides in different vehicles. </p></div>","","0","instructions","","","","","","","","","","",""
"learning-instructions","180","726001","0.0-11.0-1.0-0.1","6471","1","8","Male","approach_avoid_spark_v1","""event"",""trial"",""time""
""fullscreenenter"",""1"",""23252""
","
","
","""event"",""trial"",""time""
""fullscreenenter"",""1"",""23252""
","
","","","","","","1000.4000000953674","<p> Your friend enjoys riding in some vehicles but not in others.  </p><p> On each turn, you will see a vehicle.   </p><p> You need to decide whether to take your friend for a ride or not.  </p>","","0","instructions","","","","","","","","","","",""
"learning-instructions","181","742611","0.0-11.0-1.0-0.2","6471","1","8","Male","approach_avoid_spark_v1","""event"",""trial"",""time""
""fullscreenenter"",""1"",""23252""
","
","
","""event"",""trial"",""time""
""fullscreenenter"",""1"",""23252""
","
","","","","","","10159.900000095367","<p> You can take your friend for a ride in the vehicle by pressing 1 and skip the ride by pressing 0. </p><br><div class=""choice-instructions-grid""> <div class=""choice-option""><img src=""images/approach.png"" class=""choice-option-img"" stage=""instructions"" position=""0"" ><div class=""choice-option-text""> Press ""1."" </div></div><div class=""choice-option""><img src=""images/avoid.png"" class=""choice-option-img"" stage=""instructions"" position=""1"" ><div class=""choice-option-text""> Press ""0."" </div></div>","","0","instructions","","","","","","","","","","",""
"learning-instructions","182","752136","0.0-11.0-1.0-0.3","6471","1","8","Male","approach_avoid_spark_v1","""event"",""trial"",""time""
""fullscreenenter"",""1"",""23252""
","
","
","""event"",""trial"",""time""
""fullscreenenter"",""1"",""23252""
","
","","","","","","825.4000000953674","<p> If you take them for a ride in a vehicle they like, they will be thrilled! </p><p> But if you take them for a ride in a vehicle they do not like, they will be upset. </p>","","0","instructions","","","","","","","","","","",""
"learning-instructions","183","764641","0.0-11.0-1.0-0.4","6471","1","8","Male","approach_avoid_spark_v1","""event"",""trial"",""time""
""fullscreenenter"",""1"",""23252""
","
","
","""event"",""trial"",""time""
""fullscreenenter"",""1"",""23252""
","
","","","","","","870.2999999523163","<p> You will earn points based on how you made your friend feel. </p><p> If you made him thrilled, you will WIN anywhere from 1 - 9 points, </p><p> but if you made him upset, you will LOSE anywhere from 1 - 9 points. </p>","","0","instructions","","","","","","","","","","",""
"learning-instructions","184","773153","0.0-11.0-1.0-0.5","6471","1","8","Male","approach_avoid_spark_v1","""event"",""trial"",""time""
""fullscreenenter"",""1"",""23252""
","
","
","""event"",""trial"",""time""
""fullscreenenter"",""1"",""23252""
","
","","","","","","1852.3000001907349","<p> You will see how many points you won or lost in the center of the screen. </p><p> Here is what you would see if you won 5 points: </p><p style=""color:green;font-size:50px;font-weight:bolder"">5</p>","","0","instructions","","","","","","","","","","",""
"learning-instructions","185","780103","0.0-11.0-1.0-0.6","6471","1","8","Male","approach_avoid_spark_v1","""event"",""trial"",""time""
""fullscreenenter"",""1"",""23252""
","
","
","""event"",""trial"",""time""
""fullscreenenter"",""1"",""23252""
","
","","","","","","4102","<p> And here is what you would see if you lost 3 points: </p><p style=""color:red;font-size:50px;font-weight:bolder"">-3</p>","","0","instructions","","","","","","","","","","",""
"learning-instructions","186","797650","0.0-11.0-1.0-0.7","6471","1","8","Male","approach_avoid_spark_v1","""event"",""trial"",""time""
""fullscreenenter"",""1"",""23252""
","
","
","""event"",""trial"",""time""
""fullscreenenter"",""1"",""23252""
","
","","","","","","2369.399999856949","<p> Some vehicles will make your friend REALLY thrilled or upset. </p><p> These vehicles will make you win or lose LOTS of points. </p><p> Other vehicles will only make him feel a little thrilled or upset. </p><p> These vehicles will make you win or lose small amounts of points. </p>","","0","instructions","","","","","","","","","","",""
"learning-instructions","187","810146","0.0-11.0-1.0-0.8","6471","1","8","Male","approach_avoid_spark_v1","""event"",""trial"",""time""
""fullscreenenter"",""1"",""23252""
","
","
","""event"",""trial"",""time""
""fullscreenenter"",""1"",""23252""
","
","","","","","","744.5999999046326","<p> If you choose to skip the ride, you will not win or lose any points. </p><p>  However, in the center of the screen, you will see the number of points you WOULD HAVE won or lost if you had taken your friend for a ride. </p>","","0","instructions","","","","","","","","","","",""
"learning-instructions","188","824577","0.0-11.0-1.0-0.9","6471","1","8","Male","approach_avoid_spark_v1","""event"",""trial"",""time""
""fullscreenenter"",""1"",""23252""
","
","
","""event"",""trial"",""time""
""fullscreenenter"",""1"",""23252""
","
","","","","","","3715.2000000476837","<p> Here is what you might see if you did not take your friend for a ride but he would have enjoyed it: </p><p style=""color:grey; font-size:50px; display: inline-block; border-spacing: 15px; border-width:3px; border-style:solid; border-color:red"">  &nbsp; 6 &nbsp; </p><p> Remember, in this case, you would not win or lose ANY points because you skipped the ride.  </p>","","0","instructions","","","","","","","","","","",""
"learning-instructions","189","833454","0.0-11.0-1.0-0.10","6471","1","8","Male","approach_avoid_spark_v1","""event"",""trial"",""time""
""fullscreenenter"",""1"",""23252""
","
","
","""event"",""trial"",""time""
""fullscreenenter"",""1"",""23252""
","
","","","","","","1042.5","<p> Try to make the best choice for each vehicle because </p><p> at the end of the game, you will earn bonus money based on how many points you earned. </p>","","0","instructions","","","","","","","","","","",""
"learning-instructions","190","843144","0.0-11.0-1.0-0.11","6471","1","8","Male","approach_avoid_spark_v1","""event"",""trial"",""time""
""fullscreenenter"",""1"",""23252""
","
","
","""event"",""trial"",""time""
""fullscreenenter"",""1"",""23252""
","
","","","","","","1492.8000001907349","<p> You will have 3 seconds to make each choice. Try to respond before time runs out! </p><p> You will lose 5 points each time you do not make a response. </p>","","0","instructions","","","","","","","","","","",""
"html-keyboard-response","191","843760","0.0-11.0-2.0-0.0","6471","1","8","Male","approach_avoid_spark_v1","""event"",""trial"",""time""
""fullscreenenter"",""1"",""23252""
","
","
","""event"",""trial"",""time""
""fullscreenenter"",""1"",""23252""
","
","","","","","","null","<div style=""font-size:60px;"">+</div>","null","","fixation","","","","","","","","","","",""
"aa-learning-trial","192","846770","0.0-11.0-2.0-1.0","6471","1","8","Male","approach_avoid_spark_v1","""event"",""trial"",""time""
""fullscreenenter"",""1"",""23252""
","
","
","""event"",""trial"",""time""
""fullscreenenter"",""1"",""23252""
","
","","","","","","1829.2999999523163","images/plane6.png","","","learning","-4","-4","1","1","plane","vehicles","2","1","","bad","[-4]"
"html-keyboard-response","193","847280","0.0-11.0-2.0-0.1","6471","1","8","Male","approach_avoid_spark_v1","""event"",""trial"",""time""
""fullscreenenter"",""1"",""23252""
","
","
","""event"",""trial"",""time""
""fullscreenenter"",""1"",""23252""
","
","","","","","","null","<div style=""font-size:60px;"">+</div>","null","","fixation","","","","","","","","","","",""
"aa-learning-trial","194","850290","0.0-11.0-2.0-1.1","6471","1","8","Male","approach_avoid_spark_v1","""event"",""trial"",""time""
""fullscreenenter"",""1"",""23252""
","
","
","""event"",""trial"",""time""
""fullscreenenter"",""1"",""23252""
","
","","","","","","null","images/plane4.png","","","learning","6","-5","","null","plane","vehicles","2","1","","bad","[-4]"
"html-keyboard-response","195","850810","0.0-11.0-2.0-0.2","6471","1","8","Male","approach_avoid_spark_v1","""event"",""trial"",""time""
""fullscreenenter"",""1"",""23252""
","
","
","""event"",""trial"",""time""
""fullscreenenter"",""1"",""23252""
","
","","","","","","null","<div style=""font-size:60px;"">+</div>","null","","fixation","","","","","","","","","","",""
"aa-learning-trial","196","853813","0.0-11.0-2.0-1.2","6471","1","8","Male","approach_avoid_spark_v1","""event"",""trial"",""time""
""fullscreenenter"",""1"",""23252""
","
","
","""event"",""trial"",""time""
""fullscreenenter"",""1"",""23252""
","
","","","","","","2206","images/train7.png","","","learning","2","2","1","1","train","vehicles","2","1","","good","[3]"
"html-keyboard-response","197","854320","0.0-11.0-2.0-0.3","6471","1","8","Male","approach_avoid_spark_v1","""event"",""trial"",""time""
""fullscreenenter"",""1"",""23252""
","
","
","""event"",""trial"",""time""
""fullscreenenter"",""1"",""23252""
","
","","","","","","null","<div style=""font-size:60px;"">+</div>","null","","fixation","","","","","","","","","","",""
"aa-learning-trial","198","857340","0.0-11.0-2.0-1.3","6471","1","8","Male","approach_avoid_spark_v1","""event"",""trial"",""time""
""fullscreenenter"",""1"",""23252""
","
","
","""event"",""trial"",""time""
""fullscreenenter"",""1"",""23252""
","
","","","","","","1473.2999999523163","images/plane6.png","","","learning","-4","-4","1","1","plane","vehicles","2","1","","bad","[-4]"
"html-keyboard-response","199","857860","0.0-11.0-2.0-0.4","6471","1","8","Male","approach_avoid_spark_v1","""event"",""trial"",""time""
""fullscreenenter"",""1"",""23252""
","
","
","""event"",""trial"",""time""
""fullscreenenter"",""1"",""23252""
","
","","","","","","null","<div style=""font-size:60px;"">+</div>","null","","fixation","","","","","","","","","","",""
"aa-learning-trial","200","860867","0.0-11.0-2.0-1.4","6471","1","8","Male","approach_avoid_spark_v1","""event"",""trial"",""time""
""fullscreenenter"",""1"",""23252""
","
","
","""event"",""trial"",""time""
""fullscreenenter"",""1"",""23252""
","
","","","","","","1104.5999999046326","images/boat8.png","","","learning","1","1","1","1","boat","vehicles","2","1","","neutral","0"
"html-keyboard-response","201","861390","0.0-11.0-2.0-0.5","6471","1","8","Male","approach_avoid_spark_v1","""event"",""trial"",""time""
""fullscreenenter"",""1"",""23252""
","
","
","""event"",""trial"",""time""
""fullscreenenter"",""1"",""23252""
","
","","","","","","null","<div style=""font-size:60px;"">+</div>","null","","fixation","","","","","","","","","","",""
"aa-learning-trial","202","864410","0.0-11.0-2.0-1.5","6471","1","8","Male","approach_avoid_spark_v1","""event"",""trial"",""time""
""fullscreenenter"",""1"",""23252""
","
","
","""event"",""trial"",""time""
""fullscreenenter"",""1"",""23252""
","
","","","","","","872.5","images/plane2.png","","","learning","4","0","0","0","plane","vehicles","2","1","","bad","[-4]"
"html-keyboard-response","203","864920","0.0-11.0-2.0-0.6","6471","1","8","Male","approach_avoid_spark_v1","""event"",""trial"",""time""
""fullscreenenter"",""1"",""23252""
","
","
","""event"",""trial"",""time""
""fullscreenenter"",""1"",""23252""
","
","","","","","","null","<div style=""font-size:60px;"">+</div>","null","","fixation","","","","","","","","","","",""
"aa-learning-trial","204","867941","0.0-11.0-2.0-1.6","6471","1","8","Male","approach_avoid_spark_v1","""event"",""trial"",""time""
""fullscreenenter"",""1"",""23252""
","
","
","""event"",""trial"",""time""
""fullscreenenter"",""1"",""23252""
","
","","","","","","779.1999998092651","images/boat7.png","","","learning","-6","-6","1","1","boat","vehicles","2","1","","neutral","0"
"html-keyboard-response","205","868459","0.0-11.0-2.0-0.7","6471","1","8","Male","approach_avoid_spark_v1","""event"",""trial"",""time""
""fullscreenenter"",""1"",""23252""
","
","
","""event"",""trial"",""time""
""fullscreenenter"",""1"",""23252""
","
","","","","","","null","<div style=""font-size:60px;"">+</div>","null","","fixation","","","","","","","","","","",""
"aa-learning-trial","206","871470","0.0-11.0-2.0-1.7","6471","1","8","Male","approach_avoid_spark_v1","""event"",""trial"",""time""
""fullscreenenter"",""1"",""23252""
","
","
","""event"",""trial"",""time""
""fullscreenenter"",""1"",""23252""
","
","","","","","","1030","images/train4.png","","","learning","5","5","1","1","train","vehicles","2","1","","good","[3]"
"html-keyboard-response","207","871972","0.0-11.0-2.0-0.8","6471","1","8","Male","approach_avoid_spark_v1","""event"",""trial"",""time""
""fullscreenenter"",""1"",""23252""
","
","
","""event"",""trial"",""time""
""fullscreenenter"",""1"",""23252""
","
","","","","","","null","<div style=""font-size:60px;"">+</div>","null","","fixation","","","","","","","","","","",""
"aa-learning-trial","208","874974","0.0-11.0-2.0-1.8","6471","1","8","Male","approach_avoid_spark_v1","""event"",""trial"",""time""
""fullscreenenter"",""1"",""23252""
","
","
","""event"",""trial"",""time""
""fullscreenenter"",""1"",""23252""
","
","","","","","","735","images/train3.png","","","learning","-5","0","0","0","train","vehicles","2","1","","good","[3]"
"html-keyboard-response","209","875475","0.0-11.0-2.0-0.9","6471","1","8","Male","approach_avoid_spark_v1","""event"",""trial"",""time""
""fullscreenenter"",""1"",""23252""
","
","
","""event"",""trial"",""time""
""fullscreenenter"",""1"",""23252""
","
","","","","","","null","<div style=""font-size:60px;"">+</div>","null","","fixation","","","","","","","","","","",""
"aa-learning-trial","210","878477","0.0-11.0-2.0-1.9","6471","1","8","Male","approach_avoid_spark_v1","""event"",""trial"",""time""
""fullscreenenter"",""1"",""23252""
","
","
","""event"",""trial"",""time""
""fullscreenenter"",""1"",""23252""
","
","","","","","","1010.2999999523163","images/boat3.png","","","learning","-3","-3","1","1","boat","vehicles","2","1","","neutral","0"
"html-keyboard-response","211","878978","0.0-11.0-2.0-0.10","6471","1","8","Male","approach_avoid_spark_v1","""event"",""trial"",""time""
""fullscreenenter"",""1"",""23252""
","
","
","""event"",""trial"",""time""
""fullscreenenter"",""1"",""23252""
","
","","","","","","null","<div style=""font-size:60px;"">+</div>","null","","fixation","","","","","","","","","","",""
"aa-learning-trial","212","881982","0.0-11.0-2.0-1.10","6471","1","8","Male","approach_avoid_spark_v1","""event"",""trial"",""time""
""fullscreenenter"",""1"",""23252""
","
","
","""event"",""trial"",""time""
""fullscreenenter"",""1"",""23252""
","
","","","","","","943.3999998569489","images/train4.png","","","learning","5","5","1","1","train","vehicles","2","1","","good","[3]"
"html-keyboard-response","213","882483","0.0-11.0-2.0-0.11","6471","1","8","Male","approach_avoid_spark_v1","""event"",""trial"",""time""
""fullscreenenter"",""1"",""23252""
","
","
","""event"",""trial"",""time""
""fullscreenenter"",""1"",""23252""
","
","","","","","","null","<div style=""font-size:60px;"">+</div>","null","","fixation","","","","","","","","","","",""
"aa-learning-trial","214","885485","0.0-11.0-2.0-1.11","6471","1","8","Male","approach_avoid_spark_v1","""event"",""trial"",""time""
""fullscreenenter"",""1"",""23252""
","
","
","""event"",""trial"",""time""
""fullscreenenter"",""1"",""23252""
","
","","","","","","1304.6999998092651","images/train3.png","","","learning","-5","-5","1","1","train","vehicles","2","1","","good","[3]"
"html-keyboard-response","215","885987","0.0-11.0-2.0-0.12","6471","1","8","Male","approach_avoid_spark_v1","""event"",""trial"",""time""
""fullscreenenter"",""1"",""23252""
","
","
","""event"",""trial"",""time""
""fullscreenenter"",""1"",""23252""
","
","","","","","","null","<div style=""font-size:60px;"">+</div>","null","","fixation","","","","","","","","","","",""
"aa-learning-trial","216","888991","0.0-11.0-2.0-1.12","6471","1","8","Male","approach_avoid_spark_v1","""event"",""trial"",""time""
""fullscreenenter"",""1"",""23252""
","
","
","""event"",""trial"",""time""
""fullscreenenter"",""1"",""23252""
","
","","","","","","1389.4000000953674","images/boat8.png","","","learning","1","0","0","0","boat","vehicles","2","1","","neutral","0"
"html-keyboard-response","217","889493","0.0-11.0-2.0-0.13","6471","1","8","Male","approach_avoid_spark_v1","""event"",""trial"",""time""
""fullscreenenter"",""1"",""23252""
","
","
","""event"",""trial"",""time""
""fullscreenenter"",""1"",""23252""
","
","","","","","","null","<div style=""font-size:60px;"">+</div>","null","","fixation","","","","","","","","","","",""
"aa-learning-trial","218","892495","0.0-11.0-2.0-1.13","6471","1","8","Male","approach_avoid_spark_v1","""event"",""trial"",""time""
""fullscreenenter"",""1"",""23252""
","
","
","""event"",""trial"",""time""
""fullscreenenter"",""1"",""23252""
","
","","","","","","1074.7999999523163","images/boat7.png","","","learning","-6","-6","1","1","boat","vehicles","2","1","","neutral","0"
"html-keyboard-response","219","892997","0.0-11.0-2.0-0.14","6471","1","8","Male","approach_avoid_spark_v1","""event"",""trial"",""time""
""fullscreenenter"",""1"",""23252""
","
","
","""event"",""trial"",""time""
""fullscreenenter"",""1"",""23252""
","
","","","","","","null","<div style=""font-size:60px;"">+</div>","null","","fixation","","","","","","","","","","",""
"aa-learning-trial","220","896000","0.0-11.0-2.0-1.14","6471","1","8","Male","approach_avoid_spark_v1","""event"",""trial"",""time""
""fullscreenenter"",""1"",""23252""
","
","
","""event"",""trial"",""time""
""fullscreenenter"",""1"",""23252""
","
","","","","","","1058","images/plane4.png","","","learning","6","0","0","0","plane","vehicles","2","1","","bad","[-4]"
"html-keyboard-response","221","896501","0.0-11.0-2.0-0.15","6471","1","8","Male","approach_avoid_spark_v1","""event"",""trial"",""time""
""fullscreenenter"",""1"",""23252""
","
","
","""event"",""trial"",""time""
""fullscreenenter"",""1"",""23252""
","
","","","","","","null","<div style=""font-size:60px;"">+</div>","null","","fixation","","","","","","","","","","",""
"aa-learning-trial","222","899503","0.0-11.0-2.0-1.15","6471","1","8","Male","approach_avoid_spark_v1","""event"",""trial"",""time""
""fullscreenenter"",""1"",""23252""
","
","
","""event"",""trial"",""time""
""fullscreenenter"",""1"",""23252""
","
","","","","","","897.7999999523163","images/boat7.png","","","learning","-6","-6","1","1","boat","vehicles","2","1","","neutral","0"
"html-keyboard-response","223","900004","0.0-11.0-2.0-0.16","6471","1","8","Male","approach_avoid_spark_v1","""event"",""trial"",""time""
""fullscreenenter"",""1"",""23252""
","
","
","""event"",""trial"",""time""
""fullscreenenter"",""1"",""23252""
","
","","","","","","null","<div style=""font-size:60px;"">+</div>","null","","fixation","","","","","","","","","","",""
"aa-learning-trial","224","903007","0.0-11.0-2.0-1.16","6471","1","8","Male","approach_avoid_spark_v1","""event"",""trial"",""time""
""fullscreenenter"",""1"",""23252""
","
","
","""event"",""trial"",""time""
""fullscreenenter"",""1"",""23252""
","
","","","","","","1813","images/boat6.png","","","learning","3","3","1","1","boat","vehicles","2","1","","neutral","0"
"html-keyboard-response","225","903508","0.0-11.0-2.0-0.17","6471","1","8","Male","approach_avoid_spark_v1","""event"",""trial"",""time""
""fullscreenenter"",""1"",""23252""
","
","
","""event"",""trial"",""time""
""fullscreenenter"",""1"",""23252""
","
","","","","","","null","<div style=""font-size:60px;"">+</div>","null","","fixation","","","","","","","","","","",""
"aa-learning-trial","226","906510","0.0-11.0-2.0-1.17","6471","1","8","Male","approach_avoid_spark_v1","""event"",""trial"",""time""
""fullscreenenter"",""1"",""23252""
","
","
","""event"",""trial"",""time""
""fullscreenenter"",""1"",""23252""
","
","","","","","","990.6000001430511","images/plane8.png","","","learning","-9","0","0","0","plane","vehicles","2","1","","bad","[-4]"
"html-keyboard-response","227","907012","0.0-11.0-2.0-0.18","6471","1","8","Male","approach_avoid_spark_v1","""event"",""trial"",""time""
""fullscreenenter"",""1"",""23252""
","
","
","""event"",""trial"",""time""
""fullscreenenter"",""1"",""23252""
","
","","","","","","null","<div style=""font-size:60px;"">+</div>","null","","fixation","","","","","","","","","","",""
"aa-learning-trial","228","910015","0.0-11.0-2.0-1.18","6471","1","8","Male","approach_avoid_spark_v1","""event"",""trial"",""time""
""fullscreenenter"",""1"",""23252""
","
","
","""event"",""trial"",""time""
""fullscreenenter"",""1"",""23252""
","
","","","","","","1431.0999999046326","images/plane2.png","","","learning","4","4","1","1","plane","vehicles","2","1","","bad","[-4]"
"html-keyboard-response","229","910517","0.0-11.0-2.0-0.19","6471","1","8","Male","approach_avoid_spark_v1","""event"",""trial"",""time""
""fullscreenenter"",""1"",""23252""
","
","
","""event"",""trial"",""time""
""fullscreenenter"",""1"",""23252""
","
","","","","","","null","<div style=""font-size:60px;"">+</div>","null","","fixation","","","","","","","","","","",""
"aa-learning-trial","230","913520","0.0-11.0-2.0-1.19","6471","1","8","Male","approach_avoid_spark_v1","""event"",""trial"",""time""
""fullscreenenter"",""1"",""23252""
","
","
","""event"",""trial"",""time""
""fullscreenenter"",""1"",""23252""
","
","","","","","","1459.7000000476837","images/boat3.png","","","learning","-3","-3","1","1","boat","vehicles","2","1","","neutral","0"
"html-keyboard-response","231","914020","0.0-11.0-2.0-0.20","6471","1","8","Male","approach_avoid_spark_v1","""event"",""trial"",""time""
""fullscreenenter"",""1"",""23252""
","
","
","""event"",""trial"",""time""
""fullscreenenter"",""1"",""23252""
","
","","","","","","null","<div style=""font-size:60px;"">+</div>","null","","fixation","","","","","","","","","","",""
"aa-learning-trial","232","917023","0.0-11.0-2.0-1.20","6471","1","8","Male","approach_avoid_spark_v1","""event"",""trial"",""time""
""fullscreenenter"",""1"",""23252""
","
","
","""event"",""trial"",""time""
""fullscreenenter"",""1"",""23252""
","
","","","","","","1152.6000001430511","images/train4.png","","","learning","5","5","1","1","train","vehicles","2","1","","good","[3]"
"html-keyboard-response","233","917524","0.0-11.0-2.0-0.21","6471","1","8","Male","approach_avoid_spark_v1","""event"",""trial"",""time""
""fullscreenenter"",""1"",""23252""
","
","
","""event"",""trial"",""time""
""fullscreenenter"",""1"",""23252""
","
","","","","","","null","<div style=""font-size:60px;"">+</div>","null","","fixation","","","","","","","","","","",""
"aa-learning-trial","234","920527","0.0-11.0-2.0-1.21","6471","1","8","Male","approach_avoid_spark_v1","""event"",""trial"",""time""
""fullscreenenter"",""1"",""23252""
","
","
","""event"",""trial"",""time""
""fullscreenenter"",""1"",""23252""
","
","","","","","","1108.5","images/train3.png","","","learning","-5","-5","1","1","train","vehicles","2","1","","good","[3]"
"html-keyboard-response","235","921029","0.0-11.0-2.0-0.22","6471","1","8","Male","approach_avoid_spark_v1","""event"",""trial"",""time""
""fullscreenenter"",""1"",""23252""
","
","
","""event"",""trial"",""time""
""fullscreenenter"",""1"",""23252""
","
","","","","","","null","<div style=""font-size:60px;"">+</div>","null","","fixation","","","","","","","","","","",""
"aa-learning-trial","236","924031","0.0-11.0-2.0-1.22","6471","1","8","Male","approach_avoid_spark_v1","""event"",""trial"",""time""
""fullscreenenter"",""1"",""23252""
","
","
","""event"",""trial"",""time""
""fullscreenenter"",""1"",""23252""
","
","","","","","","1060.7999999523163","images/plane6.png","","","learning","-4","-4","1","1","plane","vehicles","2","1","","bad","[-4]"
"html-keyboard-response","237","924533","0.0-11.0-2.0-0.23","6471","1","8","Male","approach_avoid_spark_v1","""event"",""trial"",""time""
""fullscreenenter"",""1"",""23252""
","
","
","""event"",""trial"",""time""
""fullscreenenter"",""1"",""23252""