"trial_type","trial_index","time_elapsed","internal_node_id","subject_id","task_condition","age","gender","task_version","interactions","blur_events","focus_events","fullscreenenter_events","fullscreenexit_events","success","timeout","failed_images","failed_audio","failed_video","rt","stimulus","response","button_pressed","task_part","approach_reward","points","key_press","option_selected","stim_cat","task_block","block_condition","block_number","correct","cat_type","mean_cat_reward"
"pavlovia","0","2","0.0-0.0","5757","2","9","Female","approach_avoid_spark_v1","""event"",""trial"",""time""
""fullscreenenter"",""1"",""2911""
","
","
","""event"",""trial"",""time""
""fullscreenenter"",""1"",""2911""
","
","","","","","","","","","","","","","","","","","","","","",""
"fullscreen","1","3921","0.0-1.0","5757","2","9","Female","approach_avoid_spark_v1","""event"",""trial"",""time""
""fullscreenenter"",""1"",""2911""
","
","
","""event"",""trial"",""time""
""fullscreenenter"",""1"",""2911""
","
","true","","","","","","","","","","","","","","","","","","","",""
"preload","2","4137","0.0-2.0","5757","2","9","Female","approach_avoid_spark_v1","""event"",""trial"",""time""
""fullscreenenter"",""1"",""2911""
","
","
","""event"",""trial"",""time""
""fullscreenenter"",""1"",""2911""
","
","true","false","[]","[]","[]","","","","","","","","","","","","","","","",""
"audio-keyboard-response","3","8165","0.0-3.0","5757","2","9","Female","approach_avoid_spark_v1","""event"",""trial"",""time""
""fullscreenenter"",""1"",""2911""
","
","
","""event"",""trial"",""time""
""fullscreenenter"",""1"",""2911""
","
","","","","","","4029.3333333333326","audio/beep_loop.wav"," ","","","","","","","","","","","","",""
"audio-button-response","4","10954","0.0-4.0","5757","2","9","Female","approach_avoid_spark_v1","""event"",""trial"",""time""
""fullscreenenter"",""1"",""2911""
","
","
","""event"",""trial"",""time""
""fullscreenenter"",""1"",""2911""
","
","","","","","","2779","audio/shark.wav","4","","","","","","","","","","","","",""
"audio-button-response","5","14610","0.0-5.0","5757","2","9","Female","approach_avoid_spark_v1","""event"",""trial"",""time""
""fullscreenenter"",""1"",""2911""
","
","
","""event"",""trial"",""time""
""fullscreenenter"",""1"",""2911""
","
","","","","","","2640","audio/turtle.wav","1","","","","","","","","","","","","",""
"preload","6","15748","0.0-6.0","5757","2","9","Female","approach_avoid_spark_v1","""event"",""trial"",""time""
""fullscreenenter"",""1"",""2911""
","
","
","""event"",""trial"",""time""
""fullscreenenter"",""1"",""2911""
","
","true","false","[]","[]","[]","","","","","","","","","","","","","","","",""
"html-keyboard-response","7","17484","0.0-7.0","5757","2","9","Female","approach_avoid_spark_v1","""event"",""trial"",""time""
""fullscreenenter"",""1"",""2911""
","
","
","""event"",""trial"",""time""
""fullscreenenter"",""1"",""2911""
","
","","","","","","1735.4000000059605","Welcome to the experiment. Press any key to begin and to advance the instructions."," ","","","","","","","","","","","","",""
"learning-instructions","8","32891","0.0-8.0-0.0-0.0","5757","2","9","Female","approach_avoid_spark_v1","""event"",""trial"",""time""
""fullscreenenter"",""1"",""2911""
","
","
","""event"",""trial"",""time""
""fullscreenenter"",""1"",""2911""
","
","","","","","","8444.90000000596","<p> Welcome! Today you are going to play 6 different rounds of a decision-making game. </p><p> Use the mouse to click next to continue. </p>","","0","instructions","","","","","","","","","","",""
"learning-instructions","9","36251","0.0-8.0-0.0-0.1","5757","2","9","Female","approach_avoid_spark_v1","""event"",""trial"",""time""
""fullscreenenter"",""1"",""2911""
","
","
","""event"",""trial"",""time""
""fullscreenenter"",""1"",""2911""
","
","","","","","","634.8999999761581","<p> You will start with a practice round to learn the rules. </p>","","0","instructions","","","","","","","","","","",""
"learning-instructions","10","40379","0.0-8.0-0.0-0.2","5757","2","9","Female","approach_avoid_spark_v1","""event"",""trial"",""time""
""fullscreenenter"",""1"",""2911""
","
","
","""event"",""trial"",""time""
""fullscreenenter"",""1"",""2911""
","
","","","","","","663.3000000119209","<p> Your goal in this round is to give out sports equipment to kids. </p></div>","","0","instructions","","","","","","","","","","",""
"learning-instructions","11","48483","0.0-8.0-0.0-0.3","5757","2","9","Female","approach_avoid_spark_v1","""event"",""trial"",""time""
""fullscreenenter"",""1"",""2911""
","
","
","""event"",""trial"",""time""
""fullscreenenter"",""1"",""2911""
","
","","","","","","546.8999999761581","<p> The kids only like some of the equipment.  </p><p> On each turn, you will see a piece of sports equipment.   </p><p> You need to decide whether to give it to the kids or not.  </p>","","0","instructions","","","","","","","","","","",""
"learning-instructions","12","54348","0.0-8.0-0.0-0.4","5757","2","9","Female","approach_avoid_spark_v1","""event"",""trial"",""time""
""fullscreenenter"",""1"",""2911""
","
","
","""event"",""trial"",""time""
""fullscreenenter"",""1"",""2911""
","
","","","","","","1100","<p> You can give them the equipment by pressing 1 and choose not to give it to them by pressing 0. </p><br><div class=""choice-instructions-grid""> <div class=""choice-option""><img src=""images/approach.png"" class=""choice-option-img"" stage=""instructions"" position=""0"" ><div class=""choice-option-text""> Press ""1."" </div></div><div class=""choice-option""><img src=""images/avoid.png"" class=""choice-option-img"" stage=""instructions"" position=""1"" ><div class=""choice-option-text""> Press ""0."" </div></div>","","0","instructions","","","","","","","","","","",""
"learning-instructions","13","64260","0.0-8.0-0.0-0.5","5757","2","9","Female","approach_avoid_spark_v1","""event"",""trial"",""time""
""fullscreenenter"",""1"",""2911""
","
","
","""event"",""trial"",""time""
""fullscreenenter"",""1"",""2911""
","
","","","","","","2513.2999999821186","<p> If you give them a piece of equipment they like, they will be happy! </p><p> But if you give them a piece of equipment they do not like, they will be sad. </p>","","0","instructions","","","","","","","","","","",""
"learning-instructions","14","75492","0.0-8.0-0.0-0.6","5757","2","9","Female","approach_avoid_spark_v1","""event"",""trial"",""time""
""fullscreenenter"",""1"",""2911""
","
","
","""event"",""trial"",""time""
""fullscreenenter"",""1"",""2911""
","
","","","","","","704.7999999821186","<p> You will earn points based on how you make kids feel. </p><p> If you make them happy, you will WIN anywhere from 1 - 9 points, </p><p> but if you make them sad, you will LOSE anywhere from 1 - 9 points. </p>","","0","instructions","","","","","","","","","","",""
"learning-instructions","15","86332","0.0-8.0-0.0-0.7","5757","2","9","Female","approach_avoid_spark_v1","""event"",""trial"",""time""
""fullscreenenter"",""1"",""2911""
","
","
","""event"",""trial"",""time""
""fullscreenenter"",""1"",""2911""
","
","","","","","","1285.300000011921","<p> You will see how many points you won or lost in the center of the screen. </p><p> Here is what you would see if you won 6 points: </p><p style=""color:green;font-size:50px;font-weight:bolder"">6</p><p style=""color:green"">The text is GREEN because you WON points.</p>","","0","instructions","","","","","","","","","","",""
"learning-instructions","16","93548","0.0-8.0-0.0-0.8","5757","2","9","Female","approach_avoid_spark_v1","""event"",""trial"",""time""
""fullscreenenter"",""1"",""2911""
","
","
","""event"",""trial"",""time""
""fullscreenenter"",""1"",""2911""
","
","","","","","","1700.5999999940395","<p> And here is what you would see if you lost 4 points: </p><p style=""color:red;font-size:50px;font-weight:bolder"">-4</p><p style=""color:red"">The text is RED because you LOST points. </p>","","0","instructions","","","","","","","","","","",""
"learning-instructions","17","108885","0.0-8.0-0.0-0.9","5757","2","9","Female","approach_avoid_spark_v1","""event"",""trial"",""time""
""fullscreenenter"",""1"",""2911""
","
","
","""event"",""trial"",""time""
""fullscreenenter"",""1"",""2911""
","
","","","","","","626.6999999880791","<p> Some of the equipment will make the kids VERY happy or sad. </p><p> These pieces of equipment will make you win or lose LOTS of points. </p><p> Other pieces of equipment will only make the kids a little happy or sad. </p><p> These pieces of equipment will make you win or lose small amounts of points. </p>","","0","instructions","","","","","","","","","","",""
"learning-instructions","18","120165","0.0-8.0-0.0-0.10","5757","2","9","Female","approach_avoid_spark_v1","""event"",""trial"",""time""
""fullscreenenter"",""1"",""2911""
","
","
","""event"",""trial"",""time""
""fullscreenenter"",""1"",""2911""
","
","","","","","","657.2999999821186","<p> If you choose not to give them the equipment, you will not win or lose any points. </p><p>  However, in the center of the screen, you will see the number of points you WOULD HAVE won or lost if you had given them the equipment. </p>","","0","instructions","","","","","","","","","","",""
"learning-instructions","19","150863","0.0-8.0-0.0-0.11","5757","2","9","Female","approach_avoid_spark_v1","""event"",""trial"",""time""
""fullscreenenter"",""1"",""2911""
","
","
","""event"",""trial"",""time""
""fullscreenenter"",""1"",""2911""
","
","","","","","","9173.5","<p> Here is what you might see if you did not give the equipment to the kids but it would have made them happy: </p><p style=""color:grey; font-size:50px; display: inline-block; border-spacing: 15px; border-width:3px; border-style:solid; border-color:red"">  &nbsp; 7 &nbsp; </p><p> Remember, in this case, you would not win or lose ANY points because you did not give them the equipment.  </p><p style=""color:grey"">The text is GREY because you earned ZERO points. </p><p style=""color:red"">However, choosing to give the kids the equipment would have made you win points. The box around the text is RED because you chose the worse option. </p>","","0","instructions","","","","","","","","","","",""
"learning-instructions","20","173703","0.0-8.0-0.0-0.12","5757","2","9","Female","approach_avoid_spark_v1","""event"",""trial"",""time""
""fullscreenenter"",""1"",""2911""
","
","
","""event"",""trial"",""time""
""fullscreenenter"",""1"",""2911""
","
","","","","","","1752.300000011921","<p> Here is what you might see if you did not give the equipment to the kids but it would have made them sad: </p><p style=""color:grey;font-size:50px; display: inline-block; border-spacing: 15px; border-width:3px; border-style:solid; border-color:green"">  &nbsp; -8 &nbsp; </p><p> Remember, in this case, you would not win or lose ANY points because you did not give them the equipment.  </p><p style=""color:grey"">The text is GREY because you earned ZERO points. </p><p  style=""color:green""> Choosing to give the kids the equipment would have made you lose points. The box around the text is GREEN because you chose the better option.</p>","","0","instructions","","","","","","","","","","",""
"learning-instructions","21","182784","0.0-8.0-0.0-0.13","5757","2","9","Female","approach_avoid_spark_v1","""event"",""trial"",""time""
""fullscreenenter"",""1"",""2911""
","
","
","""event"",""trial"",""time""
""fullscreenenter"",""1"",""2911""
","
","","","","","","832.5999999940395","<p> You will have 3 seconds to make each choice. Try to respond before time runs out! </p><p> You will lose 5 points each time you do not make a response. </p>","","0","instructions","","","","","","","","","","",""
"learning-instructions","22","193896","0.0-8.0-0.0-0.14","5757","2","9","Female","approach_avoid_spark_v1","""event"",""trial"",""time""
""fullscreenenter"",""1"",""2911""
","
","
","""event"",""trial"",""time""
""fullscreenenter"",""1"",""2911""
","
","","","","","","5695.299999982119","<p> This is just a practice round, but in the real game, your bonus payment will depend on your total number of points.","","0","instructions","","","","","","","","","","",""
"learning-instructions","23","200712","0.0-8.0-0.0-0.15","5757","2","9","Female","approach_avoid_spark_v1","""event"",""trial"",""time""
""fullscreenenter"",""1"",""2911""
","
","
","""event"",""trial"",""time""
""fullscreenenter"",""1"",""2911""
","
","","","","","","1039.800000011921","<p> Remember, you can give them the equipment by pressing 1 and choose not to give it to them by pressing 0. </p><br><div class=""choice-instructions-grid""> <div class=""choice-option""><img src=""images/approach.png"" class=""choice-option-img"" stage=""instructions"" position=""0"" ><div class=""choice-option-text""> Press ""1."" </div></div><div class=""choice-option""><img src=""images/avoid.png"" class=""choice-option-img"" stage=""instructions"" position=""1"" ><div class=""choice-option-text""> Press ""0."" </div></div>","","0","instructions","","","","","","","","","","",""
"html-button-response","24","212945","0.0-8.0-1.0","5757","2","9","Female","approach_avoid_spark_v1","""event"",""trial"",""time""
""fullscreenenter"",""1"",""2911""
","
","
","""event"",""trial"",""time""
""fullscreenenter"",""1"",""2911""
","
","","","","","","12117.800000011921","<p> Ready to practice? </p>","0","","","","","","","","","","","","",""
"html-keyboard-response","25","213586","0.0-8.0-2.0-0.0","5757","2","9","Female","approach_avoid_spark_v1","""event"",""trial"",""time""
""fullscreenenter"",""1"",""2911""
","
","
","""event"",""trial"",""time""
""fullscreenenter"",""1"",""2911""
","
","","","","","","null","<div style=""font-size:60px;"">+</div>","null","","fixation","","","","","","","","","","",""
"aa-learning-trial","26","216607","0.0-8.0-2.0-1.0","5757","2","9","Female","approach_avoid_spark_v1","""event"",""trial"",""time""
""fullscreenenter"",""1"",""2911""
","
","
","""event"",""trial"",""time""
""fullscreenenter"",""1"",""2911""
","
","","","","","","987.5","images/racket4.png","","","learning","1","0","0","0","practice","practice","practice","-1","","",""
"html-keyboard-response","27","217126","0.0-8.0-2.0-0.1","5757","2","9","Female","approach_avoid_spark_v1","""event"",""trial"",""time""
""fullscreenenter"",""1"",""2911""
","
","
","""event"",""trial"",""time""
""fullscreenenter"",""1"",""2911""
","
","","","","","","null","<div style=""font-size:60px;"">+</div>","null","","fixation","","","","","","","","","","",""
"aa-learning-trial","28","220147","0.0-8.0-2.0-1.1","5757","2","9","Female","approach_avoid_spark_v1","""event"",""trial"",""time""
""fullscreenenter"",""1"",""2911""
","
","
","""event"",""trial"",""time""
""fullscreenenter"",""1"",""2911""
","
","","","","","","698.1999999880791","images/ball4.png","","","learning","6","6","1","1","practice","practice","practice","-1","","",""
"html-keyboard-response","29","220657","0.0-8.0-2.0-0.2","5757","2","9","Female","approach_avoid_spark_v1","""event"",""trial"",""time""
""fullscreenenter"",""1"",""2911""
","
","
","""event"",""trial"",""time""
""fullscreenenter"",""1"",""2911""
","
","","","","","","null","<div style=""font-size:60px;"">+</div>","null","","fixation","","","","","","","","","","",""
"aa-learning-trial","30","223677","0.0-8.0-2.0-1.2","5757","2","9","Female","approach_avoid_spark_v1","""event"",""trial"",""time""
""fullscreenenter"",""1"",""2911""
","
","
","""event"",""trial"",""time""
""fullscreenenter"",""1"",""2911""
","
","","","","","","1094.8999999761581","images/racket2.png","","","learning","6","6","1","1","practice","practice","practice","-1","","",""
"html-keyboard-response","31","224196","0.0-8.0-2.0-0.3","5757","2","9","Female","approach_avoid_spark_v1","""event"",""trial"",""time""
""fullscreenenter"",""1"",""2911""
","
","
","""event"",""trial"",""time""
""fullscreenenter"",""1"",""2911""
","
","","","","","","null","<div style=""font-size:60px;"">+</div>","null","","fixation","","","","","","","","","","",""
"aa-learning-trial","32","227217","0.0-8.0-2.0-1.3","5757","2","9","Female","approach_avoid_spark_v1","""event"",""trial"",""time""
""fullscreenenter"",""1"",""2911""
","
","
","""event"",""trial"",""time""
""fullscreenenter"",""1"",""2911""
","
","","","","","","556.4000000059605","images/ball3.png","","","learning","5","5","1","1","practice","practice","practice","-1","","",""
"html-keyboard-response","33","227737","0.0-8.0-2.0-0.4","5757","2","9","Female","approach_avoid_spark_v1","""event"",""trial"",""time""
""fullscreenenter"",""1"",""2911""
","
","
","""event"",""trial"",""time""
""fullscreenenter"",""1"",""2911""
","
","","","","","","null","<div style=""font-size:60px;"">+</div>","null","","fixation","","","","","","","","","","",""
"aa-learning-trial","34","230748","0.0-8.0-2.0-1.4","5757","2","9","Female","approach_avoid_spark_v1","""event"",""trial"",""time""
""fullscreenenter"",""1"",""2911""
","
","
","""event"",""trial"",""time""
""fullscreenenter"",""1"",""2911""
","
","","","","","","776.5","images/racket3.png","","","learning","8","0","0","0","practice","practice","practice","-1","","",""
"html-keyboard-response","35","231251","0.0-8.0-2.0-0.5","5757","2","9","Female","approach_avoid_spark_v1","""event"",""trial"",""time""
""fullscreenenter"",""1"",""2911""
","
","
","""event"",""trial"",""time""
""fullscreenenter"",""1"",""2911""
","
","","","","","","null","<div style=""font-size:60px;"">+</div>","null","","fixation","","","","","","","","","","",""
"aa-learning-trial","36","234260","0.0-8.0-2.0-1.5","5757","2","9","Female","approach_avoid_spark_v1","""event"",""trial"",""time""
""fullscreenenter"",""1"",""2911""
","
","
","""event"",""trial"",""time""
""fullscreenenter"",""1"",""2911""
","
","","","","","","679.5","images/racket1.png","","","learning","4","4","1","1","practice","practice","practice","-1","","",""
"html-keyboard-response","37","234763","0.0-8.0-2.0-0.6","5757","2","9","Female","approach_avoid_spark_v1","""event"",""trial"",""time""
""fullscreenenter"",""1"",""2911""
","
","
","""event"",""trial"",""time""
""fullscreenenter"",""1"",""2911""
","
","","","","","","null","<div style=""font-size:60px;"">+</div>","null","","fixation","","","","","","","","","","",""
"aa-learning-trial","38","237771","0.0-8.0-2.0-1.6","5757","2","9","Female","approach_avoid_spark_v1","""event"",""trial"",""time""
""fullscreenenter"",""1"",""2911""
","
","
","""event"",""trial"",""time""
""fullscreenenter"",""1"",""2911""
","
","","","","","","669.4000000059605","images/ball2.png","","","learning","-8","-8","1","1","practice","practice","practice","-1","","",""
"html-keyboard-response","39","238276","0.0-8.0-2.0-0.7","5757","2","9","Female","approach_avoid_spark_v1","""event"",""trial"",""time""
""fullscreenenter"",""1"",""2911""
","
","
","""event"",""trial"",""time""
""fullscreenenter"",""1"",""2911""
","
","","","","","","null","<div style=""font-size:60px;"">+</div>","null","","fixation","","","","","","","","","","",""
"aa-learning-trial","40","241283","0.0-8.0-2.0-1.7","5757","2","9","Female","approach_avoid_spark_v1","""event"",""trial"",""time""
""fullscreenenter"",""1"",""2911""
","
","
","""event"",""trial"",""time""
""fullscreenenter"",""1"",""2911""
","
","","","","","","1196.6000000238419","images/racket3.png","","","learning","2","0","0","0","practice","practice","practice","-1","","",""
"html-keyboard-response","41","241787","0.0-8.0-2.0-0.8","5757","2","9","Female","approach_avoid_spark_v1","""event"",""trial"",""time""
""fullscreenenter"",""1"",""2911""
","
","
","""event"",""trial"",""time""
""fullscreenenter"",""1"",""2911""
","
","","","","","","null","<div style=""font-size:60px;"">+</div>","null","","fixation","","","","","","","","","","",""
"aa-learning-trial","42","244796","0.0-8.0-2.0-1.8","5757","2","9","Female","approach_avoid_spark_v1","""event"",""trial"",""time""
""fullscreenenter"",""1"",""2911""
","
","
","""event"",""trial"",""time""
""fullscreenenter"",""1"",""2911""
","
","","","","","","1276.800000011921","images/racket3.png","","","learning","-9","-9","1","1","practice","practice","practice","-1","","",""
"html-keyboard-response","43","245300","0.0-8.0-2.0-0.9","5757","2","9","Female","approach_avoid_spark_v1","""event"",""trial"",""time""
""fullscreenenter"",""1"",""2911""
","
","
","""event"",""trial"",""time""
""fullscreenenter"",""1"",""2911""
","
","","","","","","null","<div style=""font-size:60px;"">+</div>","null","","fixation","","","","","","","","","","",""
"aa-learning-trial","44","248308","0.0-8.0-2.0-1.9","5757","2","9","Female","approach_avoid_spark_v1","""event"",""trial"",""time""
""fullscreenenter"",""1"",""2911""
","
","
","""event"",""trial"",""time""
""fullscreenenter"",""1"",""2911""
","
","","","","","","1229.800000011921","images/racket4.png","","","learning","-7","-7","1","1","practice","practice","practice","-1","","",""
"html-keyboard-response","45","248811","0.0-8.0-2.0-0.10","5757","2","9","Female","approach_avoid_spark_v1","""event"",""trial"",""time""
""fullscreenenter"",""1"",""2911""
","
","
","""event"",""trial"",""time""
""fullscreenenter"",""1"",""2911""
","
","","","","","","null","<div style=""font-size:60px;"">+</div>","null","","fixation","","","","","","","","","","",""
"aa-learning-trial","46","251819","0.0-8.0-2.0-1.10","5757","2","9","Female","approach_avoid_spark_v1","""event"",""trial"",""time""
""fullscreenenter"",""1"",""2911""
","
","
","""event"",""trial"",""time""
""fullscreenenter"",""1"",""2911""
","
","","","","","","1028.800000011921","images/ball1.png","","","learning","4","0","0","0","practice","practice","practice","-1","","",""
"html-keyboard-response","47","252323","0.0-8.0-2.0-0.11","5757","2","9","Female","approach_avoid_spark_v1","""event"",""trial"",""time""
""fullscreenenter"",""1"",""2911""
","
","
","""event"",""trial"",""time""
""fullscreenenter"",""1"",""2911""
","
","","","","","","null","<div style=""font-size:60px;"">+</div>","null","","fixation","","","","","","","","","","",""
"aa-learning-trial","48","255331","0.0-8.0-2.0-1.11","5757","2","9","Female","approach_avoid_spark_v1","""event"",""trial"",""time""
""fullscreenenter"",""1"",""2911""
","
","
","""event"",""trial"",""time""
""fullscreenenter"",""1"",""2911""
","
","","","","","","605","images/ball4.png","","","learning","-5","-5","1","1","practice","practice","practice","-1","","",""
"html-button-response","49","263963","0.0-8.0-3.0","5757","2","9","Female","approach_avoid_spark_v1","""event"",""trial"",""time""
""fullscreenenter"",""1"",""2911""
","
","
","""event"",""trial"",""time""
""fullscreenenter"",""1"",""2911""
","
","","","","","","8629","<p> You earned -8 points in the practice round! </p>","0","","break","","","","","","","","","","",""
"learning-instructions","50","279751","0.0-8.0-4.0-0.0","5757","2","9","Female","approach_avoid_spark_v1","""event"",""trial"",""time""
""fullscreenenter"",""1"",""2911""
","
","
","""event"",""trial"",""time""
""fullscreenenter"",""1"",""2911""
","
","","","","","","9822.799999982119","<p> It's almost time to start the real game. </p><p> Before you start, we're going to ask you a few questions about how the game works. </p>","","0","instructions","","","","","","","","","","",""
"preload","51","279926","0.0-8.0-5.0","5757","2","9","Female","approach_avoid_spark_v1","""event"",""trial"",""time""
""fullscreenenter"",""1"",""2911""
","
","
","""event"",""trial"",""time""
""fullscreenenter"",""1"",""2911""
","
","true","false","[]","[]","[]","","","","","","","","","","","","","","","",""
"comp-q","52","288695","0.0-8.0-6.0-0.0","5757","2","9","Female","approach_avoid_spark_v1","""event"",""trial"",""time""
""fullscreenenter"",""1"",""2911""
","
","
","""event"",""trial"",""time""
""fullscreenenter"",""1"",""2911""
","
","","","","","","3777","<p> <b> True or False? </b> </p><p> If you see a number in GREY, that means you earned that many points. </p>","","1","comp_question","","","","","","","","","true","",""
"comp-q","53","299351","0.0-8.0-6.0-1.0","5757","2","9","Female","approach_avoid_spark_v1","""event"",""trial"",""time""
""fullscreenenter"",""1"",""2911""
","
","
","""event"",""trial"",""time""
""fullscreenenter"",""1"",""2911""
","
","","","","","","2282.5","<p><b> That's right! </b> If you see a grey number, it means you earned ZERO points. <br> The grey numbers show the points you WOULD HAVE earned if you had made the other choice. </p>","","0","comp_answer","","","","","","","","","","",""
"comp-q","54","310416","0.0-8.0-7.0-0.0","5757","2","9","Female","approach_avoid_spark_v1","""event"",""trial"",""time""
""fullscreenenter"",""1"",""2911""
","
","
","""event"",""trial"",""time""
""fullscreenenter"",""1"",""2911""
","
","","","","","","6356.799999982119","<p> <b> True or False? </b> </p><p> You will have as much time as you want to make each choice. </p>","","1","comp_question","","","","","","","","","true","",""
"comp-q","55","315744","0.0-8.0-7.0-1.0","5757","2","9","Female","approach_avoid_spark_v1","""event"",""trial"",""time""
""fullscreenenter"",""1"",""2911""
","
","
","""event"",""trial"",""time""
""fullscreenenter"",""1"",""2911""
","
","","","","","","1275","<p> <b> That's right! </b> You will only have 3 seconds to make each choice. </p>","","0","comp_answer","","","","","","","","","","",""
"comp-q","56","321376","0.0-8.0-8.0-0.0","5757","2","9","Female","approach_avoid_spark_v1","""event"",""trial"",""time""
""fullscreenenter"",""1"",""2911""
","
","
","""event"",""trial"",""time""
""fullscreenenter"",""1"",""2911""
","
","","","","","","956.3000000119209","<p> <b> True or False? </b> </p><p> You should use the '1' and '0' keys to make your choices. </p>","","0","comp_question","","","","","","","","","true","",""
"comp-q","57","327584","0.0-8.0-8.0-1.0","5757","2","9","Female","approach_avoid_spark_v1","""event"",""trial"",""time""
""fullscreenenter"",""1"",""2911""
","
","
","""event"",""trial"",""time""
""fullscreenenter"",""1"",""2911""
","
","","","","","","1594.3999999761581","<p> <b> That's right! </b> You should use the '1' and '0' keys to make each choice. </p>","","0","comp_answer","","","","","","","","","","",""
"learning-instructions","58","339537","0.0-8.0-9.0-0.0","5757","2","9","Female","approach_avoid_spark_v1","""event"",""trial"",""time""
""fullscreenenter"",""1"",""2911""
","
","
","""event"",""trial"",""time""
""fullscreenenter"",""1"",""2911""
","
","","","","","","5667.0999999940395","<p> It's now time to start the real game. </p>Do your best, because the points you earn in the next rounds will influence your bonus payment. </p>","","0","instructions","","","","","","","","","","",""
"preload","59","339648","0.0-9.0-0.0","5757","2","9","Female","approach_avoid_spark_v1","""event"",""trial"",""time""
""fullscreenenter"",""1"",""2911""
","
","
","""event"",""trial"",""time""
""fullscreenenter"",""1"",""2911""
","
","true","false","[]","[]","[]","","","","","","","","","","","","","","","",""
"learning-instructions","60","345114","0.0-9.0-1.0-0.0","5757","2","9","Female","approach_avoid_spark_v1","""event"",""trial"",""time""
""fullscreenenter"",""1"",""2911""
","
","
","""event"",""trial"",""time""
""fullscreenenter"",""1"",""2911""
","
","","","","","","1042.7999999821186","<p> Your goal in this round is to take your friend for rides in different vehicles. </p></div>","","0","instructions","","","","","","","","","","",""
"learning-instructions","61","356138","0.0-9.0-1.0-0.1","5757","2","9","Female","approach_avoid_spark_v1","""event"",""trial"",""time""
""fullscreenenter"",""1"",""2911""
","
","
","""event"",""trial"",""time""
""fullscreenenter"",""1"",""2911""
","
","","","","","","1826.3999999761581","<p> Your friend enjoys riding in some vehicles but not in others.  </p><p> On each turn, you will see a vehicle.   </p><p> You need to decide whether to take your friend for a ride or not.  </p>","","0","instructions","","","","","","","","","","",""
"learning-instructions","62","363378","0.0-9.0-1.0-0.2","5757","2","9","Female","approach_avoid_spark_v1","""event"",""trial"",""time""
""fullscreenenter"",""1"",""2911""
","
","
","""event"",""trial"",""time""
""fullscreenenter"",""1"",""2911""
","
","","","","","","1335.800000011921","<p> You can take your friend for a ride in the vehicle by pressing 1 and skip the ride by pressing 0. </p><br><div class=""choice-instructions-grid""> <div class=""choice-option""><img src=""images/approach.png"" class=""choice-option-img"" stage=""instructions"" position=""0"" ><div class=""choice-option-text""> Press ""1."" </div></div><div class=""choice-option""><img src=""images/avoid.png"" class=""choice-option-img"" stage=""instructions"" position=""1"" ><div class=""choice-option-text""> Press ""0."" </div></div>","","0","instructions","","","","","","","","","","",""
"learning-instructions","63","372899","0.0-9.0-1.0-0.3","5757","2","9","Female","approach_avoid_spark_v1","""event"",""trial"",""time""
""fullscreenenter"",""1"",""2911""
","
","
","""event"",""trial"",""time""
""fullscreenenter"",""1"",""2911""
","
","","","","","","1476.9000000059605","<p> If you take them for a ride in a vehicle they like, they will be thrilled! </p><p> But if you take them for a ride in a vehicle they do not like, they will be upset. </p>","","0","instructions","","","","","","","","","","",""
"learning-instructions","64","384435","0.0-9.0-1.0-0.4","5757","2","9","Female","approach_avoid_spark_v1","""event"",""trial"",""time""
""fullscreenenter"",""1"",""2911""
","
","
","""event"",""trial"",""time""
""fullscreenenter"",""1"",""2911""
","
","","","","","","562.0999999940395","<p> You will earn points based on how you made your friend feel. </p><p> If you made him thrilled, you will WIN anywhere from 1 - 9 points, </p><p> but if you made him upset, you will LOSE anywhere from 1 - 9 points. </p>","","0","instructions","","","","","","","","","","",""
"learning-instructions","65","392171","0.0-9.0-1.0-0.5","5757","2","9","Female","approach_avoid_spark_v1","""event"",""trial"",""time""
""fullscreenenter"",""1"",""2911""
","
","
","""event"",""trial"",""time""
""fullscreenenter"",""1"",""2911""
","
","","","","","","1018.3000000119209","<p> You will see how many points you won or lost in the center of the screen. </p><p> Here is what you would see if you won 5 points: </p><p style=""color:green;font-size:50px;font-weight:bolder"">5</p>","","0","instructions","","","","","","","","","","",""
"learning-instructions","66","395591","0.0-9.0-1.0-0.6","5757","2","9","Female","approach_avoid_spark_v1","""event"",""trial"",""time""
""fullscreenenter"",""1"",""2911""
","
","
","""event"",""trial"",""time""
""fullscreenenter"",""1"",""2911""
","
","","","","","","534.4000000059605","<p> And here is what you would see if you lost 3 points: </p><p style=""color:red;font-size:50px;font-weight:bolder"">-3</p>","","0","instructions","","","","","","","","","","",""
"learning-instructions","67","412191","0.0-9.0-1.0-0.7","5757","2","9","Female","approach_avoid_spark_v1","""event"",""trial"",""time""
""fullscreenenter"",""1"",""2911""
","
","
","""event"",""trial"",""time""
""fullscreenenter"",""1"",""2911""
","
","","","","","","2164.5","<p> Some vehicles will make your friend REALLY thrilled or upset. </p><p> These vehicles will make you win or lose LOTS of points. </p><p> Other vehicles will only make him feel a little thrilled or upset. </p><p> These vehicles will make you win or lose small amounts of points. </p>","","0","instructions","","","","","","","","","","",""
"learning-instructions","68","423936","0.0-9.0-1.0-0.8","5757","2","9","Female","approach_avoid_spark_v1","""event"",""trial"",""time""
""fullscreenenter"",""1"",""2911""
","
","
","""event"",""trial"",""time""
""fullscreenenter"",""1"",""2911""
","
","","","","","","668.3000000119209","<p> If you choose to skip the ride, you will not win or lose any points. </p><p>  However, in the center of the screen, you will see the number of points you WOULD HAVE won or lost if you had taken your friend for a ride. </p>","","0","instructions","","","","","","","","","","",""
"learning-instructions","69","438712","0.0-9.0-1.0-0.9","5757","2","9","Female","approach_avoid_spark_v1","""event"",""trial"",""time""
""fullscreenenter"",""1"",""2911""
","
","
","""event"",""trial"",""time""
""fullscreenenter"",""1"",""2911""
","
","","","","","","4734.5","<p> Here is what you might see if you did not take your friend for a ride but he would have enjoyed it: </p><p style=""color:grey; font-size:50px; display: inline-block; border-spacing: 15px; border-width:3px; border-style:solid; border-color:red"">  &nbsp; 6 &nbsp; </p><p> Remember, in this case, you would not win or lose ANY points because you skipped the ride.  </p>","","0","instructions","","","","","","","","","","",""
"learning-instructions","70","446112","0.0-9.0-1.0-0.10","5757","2","9","Female","approach_avoid_spark_v1","""event"",""trial"",""time""
""fullscreenenter"",""1"",""2911""
","
","
","""event"",""trial"",""time""
""fullscreenenter"",""1"",""2911""
","
","","","","","","514.5","<p> Try to make the best choice for each vehicle because </p><p> at the end of the game, you will earn bonus money based on how many points you earned. </p>","","0","instructions","","","","","","","","","","",""
"learning-instructions","71","455025","0.0-9.0-1.0-0.11","5757","2","9","Female","approach_avoid_spark_v1","""event"",""trial"",""time""
""fullscreenenter"",""1"",""2911""
","
","
","""event"",""trial"",""time""
""fullscreenenter"",""1"",""2911""
","
","","","","","","706.6999999880791","<p> You will have 3 seconds to make each choice. Try to respond before time runs out! </p><p> You will lose 5 points each time you do not make a response. </p>","","0","instructions","","","","","","","","","","",""
"html-keyboard-response","72","455652","0.0-9.0-2.0-0.0","5757","2","9","Female","approach_avoid_spark_v1","""event"",""trial"",""time""
""fullscreenenter"",""1"",""2911""
","
","
","""event"",""trial"",""time""
""fullscreenenter"",""1"",""2911""
","
","","","","","","null","<div style=""font-size:60px;"">+</div>","null","","fixation","","","","","","","","","","",""
"aa-learning-trial","73","458673","0.0-9.0-2.0-1.0","5757","2","9","Female","approach_avoid_spark_v1","""event"",""trial"",""time""
""fullscreenenter"",""1"",""2911""
","
","
","""event"",""trial"",""time""
""fullscreenenter"",""1"",""2911""
","
","","","","","","1674.4000000059605","images/train5.png","","","learning","3","0","0","0","train","vehicles","2","0","","neutral","0"
"html-keyboard-response","74","459193","0.0-9.0-2.0-0.1","5757","2","9","Female","approach_avoid_spark_v1","""event"",""trial"",""time""
""fullscreenenter"",""1"",""2911""
","
","
","""event"",""trial"",""time""
""fullscreenenter"",""1"",""2911""
","
","","","","","","null","<div style=""font-size:60px;"">+</div>","null","","fixation","","","","","","","","","","",""
"aa-learning-trial","75","462213","0.0-9.0-2.0-1.1","5757","2","9","Female","approach_avoid_spark_v1","""event"",""trial"",""time""
""fullscreenenter"",""1"",""2911""
","
","
","""event"",""trial"",""time""
""fullscreenenter"",""1"",""2911""
","
","","","","","","607.2000000178814","images/truck1.png","","","learning","-3","-3","1","1","truck","vehicles","2","0","","bad","[-3]"
"html-keyboard-response","76","462733","0.0-9.0-2.0-0.2","5757","2","9","Female","approach_avoid_spark_v1","""event"",""trial"",""time""
""fullscreenenter"",""1"",""2911""
","
","
","""event"",""trial"",""time""
""fullscreenenter"",""1"",""2911""
","
","","","","","","null","<div style=""font-size:60px;"">+</div>","null","","fixation","","","","","","","","","","",""
"aa-learning-trial","77","465753","0.0-9.0-2.0-1.2","5757","2","9","Female","approach_avoid_spark_v1","""event"",""trial"",""time""
""fullscreenenter"",""1"",""2911""
","
","
","""event"",""trial"",""time""
""fullscreenenter"",""1"",""2911""
","
","","","","","","652.3000000119209","images/truck1.png","","","learning","-3","-3","1","1","truck","vehicles","2","0","","bad","[-3]"
"html-keyboard-response","78","466273","0.0-9.0-2.0-0.3","5757","2","9","Female","approach_avoid_spark_v1","""event"",""trial"",""time""
""fullscreenenter"",""1"",""2911""
","
","
","""event"",""trial"",""time""
""fullscreenenter"",""1"",""2911""
","
","","","","","","null","<div style=""font-size:60px;"">+</div>","null","","fixation","","","","","","","","","","",""
"aa-learning-trial","79","469293","0.0-9.0-2.0-1.3","5757","2","9","Female","approach_avoid_spark_v1","""event"",""trial"",""time""
""fullscreenenter"",""1"",""2911""
","
","
","""event"",""trial"",""time""
""fullscreenenter"",""1"",""2911""
","
","","","","","","726.7000000178814","images/truck5.png","","","learning","5","5","1","1","truck","vehicles","2","0","","bad","[-3]"
"html-keyboard-response","80","469813","0.0-9.0-2.0-0.4","5757","2","9","Female","approach_avoid_spark_v1","""event"",""trial"",""time""
""fullscreenenter"",""1"",""2911""
","
","
","""event"",""trial"",""time""
""fullscreenenter"",""1"",""2911""
","
","","","","","","null","<div style=""font-size:60px;"">+</div>","null","","fixation","","","","","","","","","","",""
"aa-learning-trial","81","472823","0.0-9.0-2.0-1.4","5757","2","9","Female","approach_avoid_spark_v1","""event"",""trial"",""time""
""fullscreenenter"",""1"",""2911""
","
","
","""event"",""trial"",""time""
""fullscreenenter"",""1"",""2911""
","
","","","","","","649.5","images/train3.png","","","learning","9","9","1","1","train","vehicles","2","0","","neutral","0"
"html-keyboard-response","82","473343","0.0-9.0-2.0-0.5","5757","2","9","Female","approach_avoid_spark_v1","""event"",""trial"",""time""
""fullscreenenter"",""1"",""2911""
","
","
","""event"",""trial"",""time""
""fullscreenenter"",""1"",""2911""
","
","","","","","","null","<div style=""font-size:60px;"">+</div>","null","","fixation","","","","","","","","","","",""
"aa-learning-trial","83","476353","0.0-9.0-2.0-1.5","5757","2","9","Female","approach_avoid_spark_v1","""event"",""trial"",""time""
""fullscreenenter"",""1"",""2911""
","
","
","""event"",""trial"",""time""
""fullscreenenter"",""1"",""2911""
","
","","","","","","865.6000000238419","images/train7.png","","","learning","1","0","0","0","train","vehicles","2","0","","neutral","0"
"html-keyboard-response","84","476873","0.0-9.0-2.0-0.6","5757","2","9","Female","approach_avoid_spark_v1","""event"",""trial"",""time""
""fullscreenenter"",""1"",""2911""
","
","
","""event"",""trial"",""time""
""fullscreenenter"",""1"",""2911""
","
","","","","","","null","<div style=""font-size:60px;"">+</div>","null","","fixation","","","","","","","","","","",""
"aa-learning-trial","85","479894","0.0-9.0-2.0-1.6","5757","2","9","Female","approach_avoid_spark_v1","""event"",""trial"",""time""
""fullscreenenter"",""1"",""2911""
","
","
","""event"",""trial"",""time""
""fullscreenenter"",""1"",""2911""
","
","","","","","","757.2999999821186","images/boat5.png","","","learning","-5","-5","1","1","boat","vehicles","2","0","","good","[4]"
"html-keyboard-response","86","480414","0.0-9.0-2.0-0.7","5757","2","9","Female","approach_avoid_spark_v1","""event"",""trial"",""time""
""fullscreenenter"",""1"",""2911""
","
","
","""event"",""trial"",""time""
""fullscreenenter"",""1"",""2911""
","
","","","","","","null","<div style=""font-size:60px;"">+</div>","null","","fixation","","","","","","","","","","",""
"aa-learning-trial","87","483434","0.0-9.0-2.0-1.7","5757","2","9","Female","approach_avoid_spark_v1","""event"",""trial"",""time""
""fullscreenenter"",""1"",""2911""
","
","
","""event"",""trial"",""time""
""fullscreenenter"",""1"",""2911""
","
","","","","","","1208.199999988079","images/boat6.png","","","learning","4","0","0","0","boat","vehicles","2","0","","good","[4]"
"html-keyboard-response","88","483953","0.0-9.0-2.0-0.8","5757","2","9","Female","approach_avoid_spark_v1","""event"",""trial"",""time""
""fullscreenenter"",""1"",""2911""
","
","
","""event"",""trial"",""time""
""fullscreenenter"",""1"",""2911""
","
","","","","","","null","<div style=""font-size:60px;"">+</div>","null","","fixation","","","","","","","","","","",""
"aa-learning-trial","89","486962","0.0-9.0-2.0-1.8","5757","2","9","Female","approach_avoid_spark_v1","""event"",""trial"",""time""
""fullscreenenter"",""1"",""2911""
","
","
","""event"",""trial"",""time""
""fullscreenenter"",""1"",""2911""
","
","","","","","","854.7999999821186","images/truck5.png","","","learning","5","5","1","1","truck","vehicles","2","0","","bad","[-3]"
"html-keyboard-response","90","487468","0.0-9.0-2.0-0.9","5757","2","9","Female","approach_avoid_spark_v1","""event"",""trial"",""time""
""fullscreenenter"",""1"",""2911""
","
","
","""event"",""trial"",""time""
""fullscreenenter"",""1"",""2911""
","
","","","","","","null","<div style=""font-size:60px;"">+</div>","null","","fixation","","","","","","","","","","",""
"aa-learning-trial","91","490474","0.0-9.0-2.0-1.9","5757","2","9","Female","approach_avoid_spark_v1","""event"",""trial"",""time""
""fullscreenenter"",""1"",""2911""
","
","
","""event"",""trial"",""time""
""fullscreenenter"",""1"",""2911""
","
","","","","","","1060.4000000059605","images/boat5.png","","","learning","-5","0","0","0","boat","vehicles","2","0","","good","[4]"
"html-keyboard-response","92","490978","0.0-9.0-2.0-0.10","5757","2","9","Female","approach_avoid_spark_v1","""event"",""trial"",""time""
""fullscreenenter"",""1"",""2911""
","
","
","""event"",""trial"",""time""
""fullscreenenter"",""1"",""2911""
","
","","","","","","null","<div style=""font-size:60px;"">+</div>","null","","fixation","","","","","","","","","","",""
"aa-learning-trial","93","493997","0.0-9.0-2.0-1.10","5757","2","9","Female","approach_avoid_spark_v1","""event"",""trial"",""time""
""fullscreenenter"",""1"",""2911""
","
","
","""event"",""trial"",""time""
""fullscreenenter"",""1"",""2911""
","
","","","","","","1182.4000000059605","images/boat1.png","","","learning","8","0","0","0","boat","vehicles","2","0","","good","[4]"
"html-keyboard-response","94","494499","0.0-9.0-2.0-0.11","5757","2","9","Female","approach_avoid_spark_v1","""event"",""trial"",""time""
""fullscreenenter"",""1"",""2911""
","
","
","""event"",""trial"",""time""
""fullscreenenter"",""1"",""2911""
","
","","","","","","null","<div style=""font-size:60px;"">+</div>","null","","fixation","","","","","","","","","","",""
"aa-learning-trial","95","497507","0.0-9.0-2.0-1.11","5757","2","9","Female","approach_avoid_spark_v1","""event"",""trial"",""time""
""fullscreenenter"",""1"",""2911""
","
","
","""event"",""trial"",""time""
""fullscreenenter"",""1"",""2911""
","
","","","","","","1086.9000000059605","images/train7.png","","","learning","1","0","0","0","train","vehicles","2","0","","neutral","0"
"html-keyboard-response","96","498011","0.0-9.0-2.0-0.12","5757","2","9","Female","approach_avoid_spark_v1","""event"",""trial"",""time""
""fullscreenenter"",""1"",""2911""
","
","
","""event"",""trial"",""time""
""fullscreenenter"",""1"",""2911""
","
","","","","","","null","<div style=""font-size:60px;"">+</div>","null","","fixation","","","","","","","","","","",""
"aa-learning-trial","97","501020","0.0-9.0-2.0-1.12","5757","2","9","Female","approach_avoid_spark_v1","""event"",""trial"",""time""
""fullscreenenter"",""1"",""2911""
","
","
","""event"",""trial"",""time""
""fullscreenenter"",""1"",""2911""
","
","","","","","","1072.699999988079","images/truck6.png","","","learning","-8","-8","1","1","truck","vehicles","2","0","","bad","[-3]"
"html-keyboard-response","98","501522","0.0-9.0-2.0-0.13","5757","2","9","Female","approach_avoid_spark_v1","""event"",""trial"",""time""
""fullscreenenter"",""1"",""2911""
","
","
","""event"",""trial"",""time""
""fullscreenenter"",""1"",""2911""
","
","","","","","","null","<div style=""font-size:60px;"">+</div>","null","","fixation","","","","","","","","","","",""
"aa-learning-trial","99","504531","0.0-9.0-2.0-1.13","5757","2","9","Female","approach_avoid_spark_v1","""event"",""trial"",""time""
""fullscreenenter"",""1"",""2911""
","
","
","""event"",""trial"",""time""
""fullscreenenter"",""1"",""2911""
","
","","","","","","1319.300000011921","images/boat1.png","","","learning","8","8","1","1","boat","vehicles","2","0","","good","[4]"
"html-keyboard-response","100","505035","0.0-9.0-2.0-0.14","5757","2","9","Female","approach_avoid_spark_v1","""event"",""trial"",""time""
""fullscreenenter"",""1"",""2911""
","
","
","""event"",""trial"",""time""
""fullscreenenter"",""1"",""2911""
","
","","","","","","null","<div style=""font-size:60px;"">+</div>","null","","fixation","","","","","","","","","","",""
"aa-learning-trial","101","508040","0.0-9.0-2.0-1.14","5757","2","9","Female","approach_avoid_spark_v1","""event"",""trial"",""time""
""fullscreenenter"",""1"",""2911""
","
","
","""event"",""trial"",""time""
""fullscreenenter"",""1"",""2911""
","
","","","","","","1477.9000000059605","images/train3.png","","","learning","9","9","1","1","train","vehicles","2","0","","neutral","0"
"html-keyboard-response","102","508547","0.0-9.0-2.0-0.15","5757","2","9","Female","approach_avoid_spark_v1","""event"",""trial"",""time""
""fullscreenenter"",""1"",""2911""
","
","
","""event"",""trial"",""time""
""fullscreenenter"",""1"",""2911""
","
","","","","","","null","<div style=""font-size:60px;"">+</div>","null","","fixation","","","","","","","","","","",""
"aa-learning-trial","103","511555","0.0-9.0-2.0-1.15","5757","2","9","Female","approach_avoid_spark_v1","""event"",""trial"",""time""
""fullscreenenter"",""1"",""2911""
","
","
","""event"",""trial"",""time""
""fullscreenenter"",""1"",""2911""
","
","","","","","","1425","images/boat1.png","","","learning","8","0","0","0","boat","vehicles","2","0","","good","[4]"
"html-keyboard-response","104","512058","0.0-9.0-2.0-0.16","5757","2","9","Female","approach_avoid_spark_v1","""event"",""trial"",""time""
""fullscreenenter"",""1"",""2911""
","
","
","""event"",""trial"",""time""
""fullscreenenter"",""1"",""2911""
","
","","","","","","null","<div style=""font-size:60px;"">+</div>","null","","fixation","","","","","","","","","","",""
"aa-learning-trial","105","515067","0.0-9.0-2.0-1.16","5757","2","9","Female","approach_avoid_spark_v1","""event"",""trial"",""time""
""fullscreenenter"",""1"",""2911""
","
","
","""event"",""trial"",""time""
""fullscreenenter"",""1"",""2911""
","
","","","","","","934.6999999880791","images/truck8.png","","","learning","7","7","1","1","truck","vehicles","2","0","","bad","[-3]"
"html-keyboard-response","106","515571","0.0-9.0-2.0-0.17","5757","2","9","Female","approach_avoid_spark_v1","""event"",""trial"",""time""
""fullscreenenter"",""1"",""2911""
","
","
","""event"",""trial"",""time""
""fullscreenenter"",""1"",""2911""
","
","","","","","","null","<div style=""font-size:60px;"">+</div>","null","","fixation","","","","","","","","","","",""
"aa-learning-trial","107","518579","0.0-9.0-2.0-1.17","5757","2","9","Female","approach_avoid_spark_v1","""event"",""trial"",""time""
""fullscreenenter"",""1"",""2911""
","
","
","""event"",""trial"",""time""
""fullscreenenter"",""1"",""2911""
","
","","","","","","991.4000000059605","images/train3.png","","","learning","9","0","0","0","train","vehicles","2","0","","neutral","0"
"html-keyboard-response","108","519084","0.0-9.0-2.0-0.18","5757","2","9","Female","approach_avoid_spark_v1","""event"",""trial"",""time""
""fullscreenenter"",""1"",""2911""
","
","
","""event"",""trial"",""time""
""fullscreenenter"",""1"",""2911""
","
","","","","","","null","<div style=""font-size:60px;"">+</div>","null","","fixation","","","","","","","","","","",""
"aa-learning-trial","109","522092","0.0-9.0-2.0-1.18","5757","2","9","Female","approach_avoid_spark_v1","""event"",""trial"",""time""
""fullscreenenter"",""1"",""2911""
","
","
","""event"",""trial"",""time""
""fullscreenenter"",""1"",""2911""
","
","","","","","","718","images/boat8.png","","","learning","2","2","1","1","boat","vehicles","2","0","","good","[4]"
"html-keyboard-response","110","522595","0.0-9.0-2.0-0.19","5757","2","9","Female","approach_avoid_spark_v1","""event"",""trial"",""time""
""fullscreenenter"",""1"",""2911""
","
","
","""event"",""trial"",""time""
""fullscreenenter"",""1"",""2911""
","
","","","","","","null","<div style=""font-size:60px;"">+</div>","null","","fixation","","","","","","","","","","",""
"aa-learning-trial","111","525603","0.0-9.0-2.0-1.19","5757","2","9","Female","approach_avoid_spark_v1","""event"",""trial"",""time""
""fullscreenenter"",""1"",""2911""
","
","
","""event"",""trial"",""time""
""fullscreenenter"",""1"",""2911""
","
","","","","","","1017.0999999940395","images/truck6.png","","","learning","-8","0","0","0","truck","vehicles","2","0","","bad","[-3]"
"html-keyboard-response","112","526107","0.0-9.0-2.0-0.20","5757","2","9","Female","approach_avoid_spark_v1","""event"",""trial"",""time""
""fullscreenenter"",""1"",""2911""
","
","
","""event"",""trial"",""time""
""fullscreenenter"",""1"",""2911""
","
","","","","","","null","<div style=""font-size:60px;"">+</div>","null","","fixation","","","","","","","","","","",""
"aa-learning-trial","113","529115","0.0-9.0-2.0-1.20","5757","2","9","Female","approach_avoid_spark_v1","""event"",""trial"",""time""
""fullscreenenter"",""1"",""2911""
","
","
","""event"",""trial"",""time""
""fullscreenenter"",""1"",""2911""
","
","","","","","","613.5","images/truck5.png","","","learning","5","5","1","1","truck","vehicles","2","0","","bad","[-3]"
"html-keyboard-response","114","529619","0.0-9.0-2.0-0.21","5757","2","9","Female","approach_avoid_spark_v1","""event"",""trial"",""time""
""fullscreenenter"",""1"",""2911""
","
","
","""event"",""trial"",""time""
""fullscreenenter"",""1"",""2911""
","
","","","","","","null","<div style=""font-size:60px;"">+</div>","null","","fixation","","","","","","","","","","",""
"aa-learning-trial","115","532627","0.0-9.0-2.0-1.21","5757","2","9","Female","approach_avoid_spark_v1","""event"",""trial"",""time""
""fullscreenenter"",""1"",""2911""
","
","
","""event"",""trial"",""time""
""fullscreenenter"",""1"",""2911""
","
","","","","","","527.8999999761581","images/truck1.png","","","learning","-3","-3","1","1","truck","vehicles","2","0","","bad","[-3]"
"html-keyboard-response","116","533142","0.0-9.0-2.0-0.22","5757","2","9","Female","approach_avoid_spark_v1","""event"",""trial"",""time""
""fullscreenenter"",""1"",""2911""
","
","
","""event"",""trial"",""time""
""fullscreenenter"",""1"",""2911""
","
","","","","","","null","<div style=""font-size:60px;"">+</div>","null","","fixation","","","","","","","","","","",""
"aa-learning-trial","117","536147","0.0-9.0-2.0-1.22","5757","2","9","Female","approach_avoid_spark_v1","""event"",""trial"",""time""
""fullscreenenter"",""1"",""2911""
","
","
","""event"",""trial"",""time""
""fullscreenenter"",""1"",""2911""
","
","","","","","","620.0999999940395","images/boat5.png","","","learning","-5","0","0","0","boat","vehicles","2","0","","good","[4]"
"html-keyboard-response","118","536665","0.0-9.0-2.0-0.23","5757","2","9","Female","approach_avoid_spark_v1","""event"",""trial"",""time""
""fullscreenenter"",""1"",""2911""
","
","
","""event"",""trial"",""time""
""fullscreenenter"",""1"",""2911""
","
","","","","","","null","<div style=""font-size:60px;"">+</div>","null","","fixation","","","","","","","","","","",""
"aa-learning-trial","119","539675","0.0-9.0-2.0-1.23","5757","2","9","Female","approach_avoid_spark_v1","""event"",""trial"",""time""
""fullscreenenter"",""1"",""2911""
","
","
","""event"",""trial"",""time""
""fullscreenenter"",""1"",""2911""
","
","","","","","","641.3000000119209","images/boat5.png","","","learning","-5","0","0","0","boat","vehicles","2","0","","good","[4]"
"html-keyboard-response","120","540180","0.0-9.0-2.0-0.24","5757","2","9","Female","approach_avoid_spark_v1","""event"",""trial"",""time""
""fullscreenenter"",""1"",""2911""
","
","
","""event"",""trial"",""time""
""fullscreenenter"",""1"",""2911""
","
","","","","","","null","<div style=""font-size:60px;"">+</div>","null","","fixation","","","","","","","","","","",""
"aa-learning-trial","121","543188","0.0-9.0-2.0-1.24","5757","2","9","Female","approach_avoid_spark_v1","""event"",""trial"",""time""
""fullscreenenter"",""1"",""2911""
","
","
","""event"",""trial"",""time""
""fullscreenenter"",""1"",""2911""
","
","","","","","","990.9000000059605","images/truck5.png","","","learning","5","5","1","1","truck","vehicles","2","0","","bad","[-3]"
"html-keyboard-response","122","543705","0.0-9.0-2.0-0.25","5757","2","9","Female","approach_avoid_spark_v1","""event"",""trial"",""time""
""fullscreenenter"",""1"",""2911""
","
","
","""event"",""trial"",""time""
""fullscreenenter"",""1"",""2911""
","
","","","","","","null","<div style=""font-size:60px;"">+</div>","null","","fixation","","","","","","","","","","",""
"aa-learning-trial","123","546708","0.0-9.0-2.0-1.25","5757","2","9","Female","approach_avoid_spark_v1","""event"",""trial"",""time""
""fullscreenenter"",""1"",""2911""
","
","
","""event"",""trial"",""time""
""fullscreenenter"",""1"",""2911""
","
","","","","","","708.4000000059605","images/truck5.png","","","learning","5","5","1","1","truck","vehicles","2","0","","bad","[-3]"
"html-keyboard-response","124","547213","0.0-9.0-2.0-0.26","5757","2","9","Female","approach_avoid_spark_v1","""event"",""trial"",""time""
""fullscreenenter"",""1"",""2911""
","
","
","""event"",""trial"",""time""
""fullscreenenter"",""1"",""2911""
","
","","","","","","null","<div style=""font-size:60px;"">+</div>","null","","fixation","","","","","","","","","","",""
"aa-learning-trial","125","550219","0.0-9.0-2.0-1.26","5757","2","9","Female","approach_avoid_spark_v1","""event"",""trial"",""time""
""fullscreenenter"",""1"",""2911""
","
","
","""event"",""trial"",""time""
""fullscreenenter"",""1"",""2911""
","
","","","","","","693.4000000059605","images/boat6.png","","","learning","4","4","1","1","boat","vehicles","2","0","","good","[4]"
"html-keyboard-response","126","550723","0.0-9.0-2.0-0.27","5757","2","9","Female","approach_avoid_spark_v1","""event"",""trial"",""time""
""fullscreenenter"",""1"",""2911""
","
","
","""event"",""trial"",""time""
""fullscreenenter"",""1"",""2911""
","
","","","","","","null","<div style=""font-size:60px;"">+</div>","null","","fixation","","","","","","","","","","",""
"aa-learning-trial","127","553732","0.0-9.0-2.0-1.27","5757","2","9","Female","approach_avoid_spark_v1","""event"",""trial"",""time""
""fullscreenenter"",""1"",""2911""
","
","
","""event"",""trial"",""time""
""fullscreenenter"",""1"",""2911""
","
","","","","","","706.1000000238419","images/train3.png","","","learning","9","0","0","0","train","vehicles","2","0","","neutral","0"
"html-keyboard-response","128","554235","0.0-9.0-2.0-0.28","5757","2","9","Female","approach_avoid_spark_v1","""event"",""trial"",""time""
""fullscreenenter"",""1"",""2911""
","
","
","""event"",""trial"",""time""
""fullscreenenter"",""1"",""2911""
","
","","","","","","null","<div style=""font-size:60px;"">+</div>","null","","fixation","","","","","","","","","","",""
"aa-learning-trial","129","557243","0.0-9.0-2.0-1.28","5757","2","9","Female","approach_avoid_spark_v1","""event"",""trial"",""time""
""fullscreenenter"",""1"",""2911""
","
","
","""event"",""trial"",""time""
""fullscreenenter"",""1"",""2911""
","
","","","","","","1232.2000000178814","images/train7.png","","","learning","1","0","0","0","train","vehicles","2","0","","neutral","0"
"html-keyboard-response","130","557747","0.0-9.0-2.0-0.29","5757","2","9","Female","approach_avoid_spark_v1","""event"",""trial"",""time""
""fullscreenenter"",""1"",""2911""
","
","
","""event"",""trial"",""time""
""fullscreenenter"",""1"",""2911""
","
","","","","","","null","<div style=""font-size:60px;"">+</div>","null","","fixation","","","","","","","","","","",""
"aa-learning-trial","131","560755","0.0-9.0-2.0-1.29","5757","2","9","Female","approach_avoid_spark_v1","""event"",""trial"",""time""
""fullscreenenter"",""1"",""2911""
","
","
","""event"",""trial"",""time""
""fullscreenenter"",""1"",""2911""
","
","","","","","","809.5999999940395","images/truck1.png","","","learning","-3","-3","1","1","truck","vehicles","2","0","","bad","[-3]"
"html-keyboard-response","132","561259","0.0-9.0-2.0-0.30","5757","2","9","Female","approach_avoid_spark_v1","""event"",""trial"",""time""
""fullscreenenter"",""1"",""2911""
","
","
","""event"",""trial"",""time""
""fullscreenenter"",""1"",""2911""
","
","","","","","","null","<div style=""font-size:60px;"">+</div>","null","","fixation","","","","","","","","","","",""
"aa-learning-trial","133","564268","0.0-9.0-2.0-1.30","5757","2","9","Female","approach_avoid_spark_v1","""event"",""trial"",""time""
""fullscreenenter"",""1"",""2911""
","
","
","""event"",""trial"",""time""
""fullscreenenter"",""1"",""2911""
","
","","","","","","952.5","images/boat1.png","","","learning","8","8","1","1","boat","vehicles","2","0","","good","[4]"
"html-keyboard-response","134","564774","0.0-9.0-2.0-0.31","5757","2","9","Female","approach_avoid_spark_v1","""event"",""trial"",""time""
""fullscreenenter"",""1"",""2911""
","
","
","""event"",""trial"",""time""
""fullscreenenter"",""1"",""2911""
","
","","","","","","null","<div style=""font-size:60px;"">+</div>","null","","fixation","","","","","","","","","","",""
"aa-learning-trial","135","567779","0.0-9.0-2.0-1.31","5757","2","9","Female","approach_avoid_spark_v1","""event"",""trial"",""time""
""fullscreenenter"",""1"",""2911""
","
","
","""event"",""trial"",""time""
""fullscreenenter"",""1"",""2911""
","
","","","","","","907.6000000238419","images/truck7.png","","","learning","-1","-1","1","1","truck","vehicles","2","0","","bad","[-3]"
"html-keyboard-response","136","568283","0.0-9.0-2.0-0.32","5757","2","9","Female","approach_avoid_spark_v1","""event"",""trial"",""time""
""fullscreenenter"",""1"",""2911""
","
","
","""event"",""trial"",""time""
""fullscreenenter"",""1"",""2911""
","
","","","","","","null","<div style=""font-size:60px;"">+</div>","null","","fixation","","","","","","","","","","",""
"aa-learning-trial","137","571291","0.0-9.0-2.0-1.32","5757","2","9","Female","approach_avoid_spark_v1","""event"",""trial"",""time""
""fullscreenenter"",""1"",""2911""
","
","
","""event"",""trial"",""time""
""fullscreenenter"",""1"",""2911""
","
","","","","","","816.4000000059605","images/boat5.png","","","learning","-5","-5","1","1","boat","vehicles","2","0","","good","[4]"
"html-keyboard-response","138","571795","0.0-9.0-2.0-0.33","5757","2","9","Female","approach_avoid_spark_v1","""event"",""trial"",""time""
""fullscreenenter"",""1"",""2911""
","
","
","""event"",""trial"",""time""
""fullscreenenter"",""1"",""2911""
","
","","","","","","null","<div style=""font-size:60px;"">+</div>","null","","fixation","","","","","","","","","","",""
"aa-learning-trial","139","574803","0.0-9.0-2.0-1.33","5757","2","9","Female","approach_avoid_spark_v1","""event"",""trial"",""time""
""fullscreenenter"",""1"",""2911""
","
","
","""event"",""trial"",""time""
""fullscreenenter"",""1"",""2911""
","
","","","","","","911.6000000238419","images/truck1.png","","","learning","-3","0","0","0","truck","vehicles","2","0","","bad","[-3]"
"html-keyboard-response","140","575307","0.0-9.0-2.0-0.34","5757","2","9","Female","approach_avoid_spark_v1","""event"",""trial"",""time""
""fullscreenenter"",""1"",""2911""
","
","
","""event"",""trial"",""time""
""fullscreenenter"",""1"",""2911""
","
","","","","","","null","<div style=""font-size:60px;"">+</div>","null","","fixation","","","","","","","","","","",""
"aa-learning-trial","141","578315","0.0-9.0-2.0-1.34","5757","2","9","Female","approach_avoid_spark_v1","""event"",""trial"",""time""
""fullscreenenter"",""1"",""2911""
","
","
","""event"",""trial"",""time""
""fullscreenenter"",""1"",""2911""
","
","","","","","","991.5999999940395","images/train7.png","","","learning","1","1","1","1","train","vehicles","2","0","","neutral","0"
"html-keyboard-response","142","578819","0.0-9.0-2.0-0.35","5757","2","9","Female","approach_avoid_spark_v1","""event"",""trial"",""time""
""fullscreenenter"",""1"",""2911""
","
","
","""event"",""trial"",""time""
""fullscreenenter"",""1"",""2911""
","
","","","","","","null","<div style=""font-size:60px;"">+</div>","null","","fixation","","","","","","","","","","",""
"aa-learning-trial","143","581828","0.0-9.0-2.0-1.35","5757","2","9","Female","approach_avoid_spark_v1","""event"",""trial"",""time""
""fullscreenenter"",""1"",""2911""
","
","
","""event"",""trial"",""time""
""fullscreenenter"",""1"",""2911""
","
","","","","","","944.8000000119209","images/train3.png","","","learning","9","9","1","1","train","vehicles","2","0","","neutral","0"
"html-keyboard-response","144","582331","0.0-9.0-2.0-0.36","5757","2","9","Female","approach_avoid_spark_v1","""event"",""trial"",""time""
""fullscreenenter"",""1"",""2911""
","
","
","""event"",""trial"",""time""
""fullscreenenter"",""1"",""2911""
","
","","","","","","null","<div style=""font-size:60px;"">+</div>","null","","fixation","","","","","","","","","","",""
"aa-learning-trial","145","585340","0.0-9.0-2.0-1.36","5757","2","9","Female","approach_avoid_spark_v1","""event"",""trial"",""time""
""fullscreenenter"",""1"",""2911""
","
","
","""event"",""trial"",""time""
""fullscreenenter"",""1"",""2911""
","
","","","","","","1344.7999999821186","images/truck6.png","","","learning","-8","-8","1","1","truck","vehicles","2","0","","bad","[-3]"
"html-keyboard-response","146","585843","0.0-9.0-2.0-0.37","5757","2","9","Female","approach_avoid_spark_v1","""event"",""trial"",""time""
""fullscreenenter"",""1"",""2911""
","
","
","""event"",""trial"",""time""
""fullscreenenter"",""1"",""2911""
","
","","","","","","null","<div style=""font-size:60px;"">+</div>","null","","fixation","","","","","","","","","","",""
"aa-learning-trial","147","588865","0.0-9.0-2.0-1.37","5757","2","9","Female","approach_avoid_spark_v1","""event"",""trial"",""time""
""fullscreenenter"",""1"",""2911""
","
","
","""event"",""trial"",""time""
""fullscreenenter"",""1"",""2911""
","
","","","","","","840.1000000238419","images/train3.png","","","learning","9","9","1","1","train","vehicles","2","0","","neutral","0"
"html-keyboard-response","148","589372","0.0-9.0-2.0-0.38","5757","2","9","Female","approach_avoid_spark_v1","""event"",""trial"",""time""
""fullscreenenter"",""1"",""2911""
","
","
","""event"",""trial"",""time""
""fullscreenenter"",""1"",""2911""
","
","","","","","","null","<div style=""font-size:60px;"">+</div>","null","","fixation","","","","","","","","","","",""
"aa-learning-trial","149","592379","0.0-9.0-2.0-1.38","5757","2","9","Female","approach_avoid_spark_v1","""event"",""trial"",""time""
""fullscreenenter"",""1"",""2911""
","
","
","""event"",""trial"",""time""
""fullscreenenter"",""1"",""2911""
","
","","","","","","890.5999999940395","images/train4.png","","","learning","-7","-7","1","1","train","vehicles","2","0","","neutral","0"
"html-keyboard-response","150","592883","0.0-9.0-2.0-0.39","5757","2","9","Female","approach_avoid_spark_v1","""event"",""trial"",""time""
""fullscreenenter"",""1"",""2911""
","
","
","""event"",""trial"",""time""
""fullscreenenter"",""1"",""2911""
","
","","","","","","null","<div style=""font-size:60px;"">+</div>","null","","fixation","","","","","","","","","","",""
"aa-learning-trial","151","595892","0.0-9.0-2.0-1.39","5757","2","9","Female","approach_avoid_spark_v1","""event"",""trial"",""time""
""fullscreenenter"",""1"",""2911""
","
","
","""event"",""trial"",""time""
""fullscreenenter"",""1"",""2911""
","
","","","","","","1401.300000011921","images/boat1.png","","","learning","8","0","0","0","boat","vehicles","2","0","","good","[4]"
"html-keyboard-response","152","596395","0.0-9.0-2.0-0.40","5757","2","9","Female","approach_avoid_spark_v1","""event"",""trial"",""time""
""fullscreenenter"",""1"",""2911""
","
","
","""event"",""trial"",""time""
""fullscreenenter"",""1"",""2911""
","
","","","","","","null","<div style=""font-size:60px;"">+</div>","null","","fixation","","","","","","","","","","",""
"aa-learning-trial","153","599413","0.0-9.0-2.0-1.40","5757","2","9","Female","approach_avoid_spark_v1","""event"",""trial"",""time""
""fullscreenenter"",""1"",""2911""
","
","
","""event"",""trial"",""time""
""fullscreenenter"",""1"",""2911""
","
","","","","","","801.3999999761581","images/train7.png","","","learning","1","1","1","1","train","vehicles","2","0","","neutral","0"
"html-keyboard-response","154","599914","0.0-9.0-2.0-0.41","5757","2","9","Female","approach_avoid_spark_v1","""event"",""trial"",""time""
""fullscreenenter"",""1"",""2911""
","
","
","""event"",""trial"",""time""
""fullscreenenter"",""1"",""2911""
","
","","","","","","null","<div style=""font-size:60px;"">+</div>","null","","fixation","","","","","","","","","","",""
"aa-learning-trial","155","602923","0.0-9.0-2.0-1.41","5757","2","9","Female","approach_avoid_spark_v1","""event"",""trial"",""time""
""fullscreenenter"",""1"",""2911""
","
","
","""event"",""trial"",""time""
""fullscreenenter"",""1"",""2911""
","
","","","","","","1067.199999988079","images/boat7.png","","","learning","-9","0","0","0","boat","vehicles","2","0","","good","[4]"
"html-keyboard-response","156","603428","0.0-9.0-2.0-0.42","5757","2","9","Female","approach_avoid_spark_v1","""event"",""trial"",""time""
""fullscreenenter"",""1"",""2911""
","
","
","""event"",""trial"",""time""
""fullscreenenter"",""1"",""2911""
","
","","","","","","null","<div style=""font-size:60px;"">+</div>","null","","fixation","","","","","","","","","","",""
"aa-learning-trial","157","606435","0.0-9.0-2.0-1.42","5757","2","9","Female","approach_avoid_spark_v1","""event"",""trial"",""time""
""fullscreenenter"",""1"",""2911""
","
","
","""event"",""trial"",""time""
""fullscreenenter"",""1"",""2911""
","
","","","","","","808.6999999880791","images/boat6.png","","","learning","4","4","1","1","boat","vehicles","2","0","","good","[4]"
"html-keyboard-response","158","606939","0.0-9.0-2.0-0.43","5757","2","9","Female","approach_avoid_spark_v1","""event"",""trial"",""time""
""fullscreenenter"",""1"",""2911""
","
","
","""event"",""trial"",""time""
""fullscreenenter"",""1"",""2911""
","
","","","","","","null","<div style=""font-size:60px;"">+</div>","null","","fixation","","","","","","","","","","",""
"aa-learning-trial","159","609948","0.0-9.0-2.0-1.43","5757","2","9","Female","approach_avoid_spark_v1","""event"",""trial"",""time""
""fullscreenenter"",""1"",""2911""
","
","
","""event"",""trial"",""time""
""fullscreenenter"",""1"",""2911""
","
","","","","","","713.5","images/train7.png","","","learning","1","1","1","1","train","vehicles","2","0","","neutral","0"
"html-keyboard-response","160","610451","0.0-9.0-2.0-0.44","5757","2","9","Female","approach_avoid_spark_v1","""event"",""trial"",""time""
""fullscreenenter"",""1"",""2911""
","
","
","""event"",""trial"",""time""
""fullscreenenter"",""1"",""2911""
","
","","","","","","null","<div style=""font-size:60px;"">+</div>","null","","fixation","","","","","","","","","","",""
"aa-learning-trial","161","613460","0.0-9.0-2.0-1.44","5757","2","9","Female","approach_avoid_spark_v1","""event"",""trial"",""time""
""fullscreenenter"",""1"",""2911""
","
","
","""event"",""trial"",""time""
""fullscreenenter"",""1"",""2911""
","
","","","","","","817.5","images/boat1.png","","","learning","8","8","1","1","boat","vehicles","2","0","","good","[4]"
"html-keyboard-response","162","613963","0.0-9.0-2.0-0.45","5757","2","9","Female","approach_avoid_spark_v1","""event"",""trial"",""time""
""fullscreenenter"",""1"",""2911""
","
","
","""event"",""trial"",""time""
""fullscreenenter"",""1"",""2911""
","
","","","","","","null","<div style=""font-size:60px;"">+</div>","null","","fixation","","","","","","","","","","",""
"aa-learning-trial","163","616972","0.0-9.0-2.0-1.45","5757","2","9","Female","approach_avoid_spark_v1","""event"",""trial"",""time""
""fullscreenenter"",""1"",""2911""
","
","
","""event"",""trial"",""time""
""fullscreenenter"",""1"",""2911""
","
","","","","","","1010.6999999880791","images/train5.png","","","learning","3","0","0","0","train","vehicles","2","0","","neutral","0"
"html-keyboard-response","164","617476","0.0-9.0-2.0-0.46","5757","2","9","Female","approach_avoid_spark_v1","""event"",""trial"",""time""
""fullscreenenter"",""1"",""2911""
","
","
","""event"",""trial"",""time""
""fullscreenenter"",""1"",""2911""
","
","","","","","","null","<div style=""font-size:60px;"">+</div>","null","","fixation","","","","","","","","","","",""
"aa-learning-trial","165","620484","0.0-9.0-2.0-1.46","5757","2","9","Female","approach_avoid_spark_v1","""event"",""trial"",""time""
""fullscreenenter"",""1"",""2911""
","
","
","""event"",""trial"",""time""
""fullscreenenter"",""1"",""2911""
","
","","","","","","1009.4000000059605","images/train2.png","","","learning","-4","-4","1","1","train","vehicles","2","0","","neutral","0"
"html-keyboard-response","166","620988","0.0-9.0-2.0-0.47","5757","2","9","Female","approach_avoid_spark_v1","""event"",""trial"",""time""
""fullscreenenter"",""1"",""2911""
","
","
","""event"",""trial"",""time""
""fullscreenenter"",""1"",""2911""
","
","","","","","","null","<div style=""font-size:60px;"">+</div>","null","","fixation","","","","","","","","","","",""
"aa-learning-trial","167","623995","0.0-9.0-2.0-1.47","5757","2","9","Female","approach_avoid_spark_v1","""event"",""trial"",""time""
""fullscreenenter"",""1"",""2911""
","
","
","""event"",""trial"",""time""
""fullscreenenter"",""1"",""2911""
","
","","","","","","881.0999999940395","images/boat5.png","","","learning","-5","-5","1","1","boat","vehicles","2","0","","good","[4]"
"html-keyboard-response","168","624499","0.0-9.0-2.0-0.48","5757","2","9","Female","approach_avoid_spark_v1","""event"",""trial"",""time""
""fullscreenenter"",""1"",""2911""
","
","
","""event"",""trial"",""time""
""fullscreenenter"",""1"",""2911""
","
","","","","","","null","<div style=""font-size:60px;"">+</div>","null","","fixation","","","","","","","","","","",""
"aa-learning-trial","169","627511","0.0-9.0-2.0-1.48","5757","2","9","Female","approach_avoid_spark_v1","""event"",""trial"",""time""
""fullscreenenter"",""1"",""2911""
","
","
","""event"",""trial"",""time""
""fullscreenenter"",""1"",""2911""
","
","","","","","","1298.2999999821186","images/truck1.png","","","learning","-3","0","0","0","truck","vehicles","2","0","","bad","[-3]"
"html-keyboard-response","170","628020","0.0-9.0-2.0-0.49","5757","2","9","Female","approach_avoid_spark_v1","""event"",""trial"",""time""
""fullscreenenter"",""1"",""2911""
","
","
","""event"",""trial"",""time""
""fullscreenenter"",""1"",""2911""
","
","","","","","","null","<div style=""font-size:60px;"">+</div>","null","","fixation","","","","","","","","","","",""
"aa-learning-trial","171","631027","0.0-9.0-2.0-1.49","5757","2","9","Female","approach_avoid_spark_v1","""event"",""trial"",""time""
""fullscreenenter"",""1"",""2911""
","
","
","""event"",""trial"",""time""
""fullscreenenter"",""1"",""2911""
","
","","","","","","1563.4000000059605","images/train5.png","","","learning","3","3","1","1","train","vehicles","2","0","","neutral","0"
"html-keyboard-response","172","631531","0.0-9.0-2.0-0.50","5757","2","9","Female","approach_avoid_spark_v1","""event"",""trial"",""time""
""fullscreenenter"",""1"",""2911""
","
","
","""event"",""trial"",""time""
""fullscreenenter"",""1"",""2911""
","
","","","","","","null","<div style=""font-size:60px;"">+</div>","null","","fixation","","","","","","","","","","",""
"aa-learning-trial","173","634540","0.0-9.0-2.0-1.50","5757","2","9","Female","approach_avoid_spark_v1","""event"",""trial"",""time""
""fullscreenenter"",""1"",""2911""
","
","
","""event"",""trial"",""time""
""fullscreenenter"",""1"",""2911""
","
","","","","","","913.5","images/truck5.png","","","learning","5","5","1","1","truck","vehicles","2","0","","bad","[-3]"
"html-button-response","174","642047","0.0-9.0-3.0","5757","2","9","Female","approach_avoid_spark_v1","""event"",""trial"",""time""
""fullscreenenter"",""1"",""2911""
","
","
","""event"",""trial"",""time""
""fullscreenenter"",""1"",""2911""
","
","","","","","","7505.4000000059605","<p> You have completed the round! <p> In this round, you earned 58 points! </p>","0","","break","","","","","","","","","","",""
"html-button-response","175","645007","0.0-10.0","5757","2","9","Female","approach_avoid_spark_v1","""event"",""trial"",""time""
""fullscreenenter"",""1"",""2911""
","
","
","""event"",""trial"",""time""
""fullscreenenter"",""1"",""2911""
","
","","","","","","2959.699999988079","<p> Now it's time to play another round. </p>","0","","transition_screen","","","","","","","","","","",""
"preload","176","645124","0.0-11.0-0.0","5757","2","9","Female","approach_avoid_spark_v1","""event"",""trial"",""time""
""fullscreenenter"",""1"",""2911""
","
","
","""event"",""trial"",""time""
""fullscreenenter"",""1"",""2911""
","
","true","false","[]","[]","[]","","","","","","","","","","","","","","","",""
"learning-instructions","177","652528","0.0-11.0-1.0-0.0","5757","2","9","Female","approach_avoid_spark_v1","""event"",""trial"",""time""
""fullscreenenter"",""1"",""2911""
","
","
","""event"",""trial"",""time""
""fullscreenenter"",""1"",""2911""
","
","","","","","","3850","<p> Your goal in this round is to take care of lots of farm animals. </p></div>","","0","instructions","","","","","","","","","","",""
"learning-instructions","178","664128","0.0-11.0-1.0-0.1","5757","2","9","Female","approach_avoid_spark_v1","""event"",""trial"",""time""
""fullscreenenter"",""1"",""2911""
","
","
","""event"",""trial"",""time""
""fullscreenenter"",""1"",""2911""
","
","","","","","","2570.0999999940395","<p> Some farm animals are hungry, while other farm animals are already full.  </p><p> On each turn, you will see a farm animal.   </p><p> You need to decide whether to feed it or not.  </p>","","0","instructions","","","","","","","","","","",""
"learning-instructions","179","670216","0.0-11.0-1.0-0.2","5757","2","9","Female","approach_avoid_spark_v1","""event"",""trial"",""time""
""fullscreenenter"",""1"",""2911""
","
","
","""event"",""trial"",""time""
""fullscreenenter"",""1"",""2911""
","
","","","","","","937.0999999940395","<p> You can feed the farm animal by pressing 1 and leave the farm animal alone by pressing 0. </p><br><div class=""choice-instructions-grid""> <div class=""choice-option""><img src=""images/approach.png"" class=""choice-option-img"" stage=""instructions"" position=""0"" ><div class=""choice-option-text""> Press ""1."" </div></div><div class=""choice-option""><img src=""images/avoid.png"" class=""choice-option-img"" stage=""instructions"" position=""1"" ><div class=""choice-option-text""> Press ""0."" </div></div>","","0","instructions","","","","","","","","","","",""
"learning-instructions","180","680048","0.0-11.0-1.0-0.3","5757","2","9","Female","approach_avoid_spark_v1","""event"",""trial"",""time""
""fullscreenenter"",""1"",""2911""
","
","
","""event"",""trial"",""time""
""fullscreenenter"",""1"",""2911""
","
","","","","","","1159.800000011921","<p> If you feed a hungry farm animal, you will make it feel satisfied! </p><p> But if you feed the farm animal and it was already full, you will make it feel sick. </p>","","0","instructions","","","","","","","","","","",""
"learning-instructions","181","692009","0.0-11.0-1.0-0.4","5757","2","9","Female","approach_avoid_spark_v1","""event"",""trial"",""time""
""fullscreenenter"",""1"",""2911""
","
","
","""event"",""trial"",""time""
""fullscreenenter"",""1"",""2911""
","
","","","","","","529.6999999880791","<p> You will earn points based on how you made the farm animal feel. </p><p> If you made it satisfied, you will WIN anywhere from 1 - 9 points, </p><p> but if you made it sick, you will LOSE anywhere from 1 - 9 points. </p>","","0","instructions","","","","","","","","","","",""
"learning-instructions","182","699393","0.0-11.0-1.0-0.5","5757","2","9","Female","approach_avoid_spark_v1","""event"",""trial"",""time""
""fullscreenenter"",""1"",""2911""
","
","
","""event"",""trial"",""time""
""fullscreenenter"",""1"",""2911""
","
","","","","","","723.8000000119209","<p> You will see how many points you won or lost in the center of the screen. </p><p> Here is what you would see if you won 5 points: </p><p style=""color:green;font-size:50px;font-weight:bolder"">5</p>","","0","instructions","","","","","","","","","","",""
"learning-instructions","183","702753","0.0-11.0-1.0-0.6","5757","2","9","Female","approach_avoid_spark_v1","""event"",""trial"",""time""
""fullscreenenter"",""1"",""2911""
","
","
","""event"",""trial"",""time""
""fullscreenenter"",""1"",""2911""
","
","","","","","","523.9000000059605","<p> And here is what you would see if you lost 3 points: </p><p style=""color:red;font-size:50px;font-weight:bolder"">-3</p>","","0","instructions","","","","","","","","","","",""
"learning-instructions","184","717810","0.0-11.0-1.0-0.7","5757","2","9","Female","approach_avoid_spark_v1","""event"",""trial"",""time""
""fullscreenenter"",""1"",""2911""
","
","
","""event"",""trial"",""time""
""fullscreenenter"",""1"",""2911""
","
","","","","","","559.6999999880791","<p> Some farm animals will become very satisfied or very sick. </p><p> These farm animals will make you win or lose LOTS of points. </p><p> Other farm animals have less strong feelings. </p><p> These farm animals will make you win or lose small amounts of points. </p>","","0","instructions","","","","","","","","","","",""
"learning-instructions","185","729514","0.0-11.0-1.0-0.8","5757","2","9","Female","approach_avoid_spark_v1","""event"",""trial"",""time""
""fullscreenenter"",""1"",""2911""
","
","
","""event"",""trial"",""time""
""fullscreenenter"",""1"",""2911""
","
","","","","","","553.7000000178814","<p> If you choose to leave the farm animal alone, you will not win or lose any points. </p><p>  However, in the center of the screen, you will see the number of points you WOULD HAVE won or lost if you had fed the farm animal. </p>","","0","instructions","","","","","","","","","","",""
"learning-instructions","186","740530","0.0-11.0-1.0-0.9","5757","2","9","Female","approach_avoid_spark_v1","""event"",""trial"",""time""
""fullscreenenter"",""1"",""2911""
","
","
","""event"",""trial"",""time""
""fullscreenenter"",""1"",""2911""
","
","","","","","","549.6000000238419","<p> Here is what you might see if you did not feed the farm animal but the animal was hungry: </p><p style=""color:grey; font-size:50px; display: inline-block; border-spacing: 15px; border-width:3px; border-style:solid; border-color:red"">  &nbsp; 6 &nbsp; </p><p> Remember, in this case, you would not win or lose ANY points because you did not feed the farm animal.  </p>","","0","instructions","","","","","","","","","","",""
"learning-instructions","187","748267","0.0-11.0-1.0-0.10","5757","2","9","Female","approach_avoid_spark_v1","""event"",""trial"",""time""
""fullscreenenter"",""1"",""2911""
","
","
","""event"",""trial"",""time""
""fullscreenenter"",""1"",""2911""
","
","","","","","","775.6999999880791","<p> Try to make the best choice for each farm animal because </p><p> at the end of the game, you will earn bonus money based on how many points you earned. </p>","","0","instructions","","","","","","","","","","",""
"learning-instructions","188","756971","0.0-11.0-1.0-0.11","5757","2","9","Female","approach_avoid_spark_v1","""event"",""trial"",""time""
""fullscreenenter"",""1"",""2911""
","
","
","""event"",""trial"",""time""
""fullscreenenter"",""1"",""2911""
","
","","","","","","499.60000002384186","<p> You will have 3 seconds to make each choice. Try to respond before time runs out! </p><p> You will lose 5 points each time you do not make a response. </p>","","0","instructions","","","","","","","","","","",""
"html-keyboard-response","189","757595","0.0-11.0-2.0-0.0","5757","2","9","Female","approach_avoid_spark_v1","""event"",""trial"",""time""
""fullscreenenter"",""1"",""2911""
","
","
","""event"",""trial"",""time""
""fullscreenenter"",""1"",""2911""
","
","","","","","","null","<div style=""font-size:60px;"">+</div>","null","","fixation","","","","","","","","","","",""
"aa-learning-trial","190","760605","0.0-11.0-2.0-1.0","5757","2","9","Female","approach_avoid_spark_v1","""event"",""trial"",""time""
""fullscreenenter"",""1"",""2911""
","
","
","""event"",""trial"",""time""
""fullscreenenter"",""1"",""2911""
","
","","","","","","1316.699999988079","images/sheep5.png","","","learning","[1]","0","0","0","sheep","animals","1","1","","neutral","0"
"html-keyboard-response","191","761125","0.0-11.0-2.0-0.1","5757","2","9","Female","approach_avoid_spark_v1","""event"",""trial"",""time""
""fullscreenenter"",""1"",""2911""
","
","
","""event"",""trial"",""time""
""fullscreenenter"",""1"",""2911""
","
","","","","","","null","<div style=""font-size:60px;"">+</div>","null","","fixation","","","","","","","","","","",""
"aa-learning-trial","192","764145","0.0-11.0-2.0-1.1","5757","2","9","Female","approach_avoid_spark_v1","""event"",""trial"",""time""
""fullscreenenter"",""1"",""2911""
","
","
","""event"",""trial"",""time""
""fullscreenenter"",""1"",""2911""
","
","","","","","","572.9000000059605","images/cow4.png","","","learning","7","7","1","1","cow","animals","1","1","","good","[6]"
"html-keyboard-response","193","764665","0.0-11.0-2.0-0.2","5757","2","9","Female","approach_avoid_spark_v1","""event"",""trial"",""time""
""fullscreenenter"",""1"",""2911""
","
","
","""event"",""trial"",""time""
""fullscreenenter"",""1"",""2911""
","
","","","","","","null","<div style=""font-size:60px;"">+</div>","null","","fixation","","","","","","","","","","",""
"aa-learning-trial","194","767685","0.0-11.0-2.0-1.2","5757","2","9","Female","approach_avoid_spark_v1","""event"",""trial"",""time""
""fullscreenenter"",""1"",""2911""
","
","
","""event"",""trial"",""time""
""fullscreenenter"",""1"",""2911""
","
","","","","","","921.2999999821186","images/cow8.png","","","learning","6","6","1","1","cow","animals","1","1","","good","[6]"
"html-keyboard-response","195","768205","0.0-11.0-2.0-0.3","5757","2","9","Female","approach_avoid_spark_v1","""event"",""trial"",""time""
""fullscreenenter"",""1"",""2911""
","
","
","""event"",""trial"",""time""
""fullscreenenter"",""1"",""2911""
","
","","","","","","null","<div style=""font-size:60px;"">+</div>","null","","fixation","","","","","","","","","","",""
"aa-learning-trial","196","771215","0.0-11.0-2.0-1.3","5757","2","9","Female","approach_avoid_spark_v1","""event"",""trial"",""time""
""fullscreenenter"",""1"",""2911""
","
","
","""event"",""trial"",""time""
""fullscreenenter"",""1"",""2911""
","
","","","","","","724.5","images/horse6.png","","","learning","-4","-4","1","1","horse","animals","1","1","","bad","[-5]"
"html-keyboard-response","197","771735","0.0-11.0-2.0-0.4","5757","2","9","Female","approach_avoid_spark_v1","""event"",""trial"",""time""
""fullscreenenter"",""1"",""2911""
","
","
","""event"",""trial"",""time""
""fullscreenenter"",""1"",""2911""
","
","","","","","","null","<div style=""font-size:60px;"">+</div>","null","","fixation","","","","","","","","","","",""
"aa-learning-trial","198","774756","0.0-11.0-2.0-1.4","5757","2","9","Female","approach_avoid_spark_v1","""event"",""trial"",""time""
""fullscreenenter"",""1"",""2911""
","
","
","""event"",""trial"",""time""
""fullscreenenter"",""1"",""2911""
","
","","","","","","976.8999999761581","images/horse8.png","","","learning","-5","0","0","0","horse","animals","1","1","","bad","[-5]"
"html-keyboard-response","199","775275","0.0-11.0-2.0-0.5","5757","2","9","Female","approach_avoid_spark_v1","""event"",""trial"",""time""
""fullscreenenter"",""1"",""2911""
","
","
","""event"",""trial"",""time""
""fullscreenenter"",""1"",""2911""
","
","","","","","","null","<div style=""font-size:60px;"">+</div>","null","","fixation","","","","","","","","","","",""
"aa-learning-trial","200","778296","0.0-11.0-2.0-1.5","5757","2","9","Female","approach_avoid_spark_v1","""event"",""trial"",""time""
""fullscreenenter"",""1"",""2911""
","
","
","""event"",""trial"",""time""
""fullscreenenter"",""1"",""2911""
","
","","","","","","790.8000000119209","images/cow4.png","","","learning","7","7","1","1","cow","animals","1","1","","good","[6]"
"html-keyboard-response","201","778815","0.0-11.0-2.0-0.6","5757","2","9","Female","approach_avoid_spark_v1","""event"",""trial"",""time""
""fullscreenenter"",""1"",""2911""
","
","
","""event"",""trial"",""time""
""fullscreenenter"",""1"",""2911""
","
","","","","","","null","<div style=""font-size:60px;"">+</div>","null","","fixation","","","","","","","","","","",""
"aa-learning-trial","202","781836","0.0-11.0-2.0-1.6","5757","2","9","Female","approach_avoid_spark_v1","""event"",""trial"",""time""
""fullscreenenter"",""1"",""2911""
","
","
","""event"",""trial"",""time""
""fullscreenenter"",""1"",""2911""
","
","","","","","","913","images/sheep1.png","","","learning","3","3","1","1","sheep","animals","1","1","","neutral","0"
"html-keyboard-response","203","782355","0.0-11.0-2.0-0.7","5757","2","9","Female","approach_avoid_spark_v1","""event"",""trial"",""time""
""fullscreenenter"",""1"",""2911""
","
","
","""event"",""trial"",""time""
""fullscreenenter"",""1"",""2911""
","
","","","","","","null","<div style=""font-size:60px;"">+</div>","null","","fixation","","","","","","","","","","",""
"aa-learning-trial","204","785376","0.0-11.0-2.0-1.7","5757","2","9","Female","approach_avoid_spark_v1","""event"",""trial"",""time""
""fullscreenenter"",""1"",""2911""
","
","
","""event"",""trial"",""time""
""fullscreenenter"",""1"",""2911""
","
","","","","","","725.6999999880791","images/sheep5.png","","","learning","1","1","1","1","sheep","animals","1","1","","neutral","0"
"html-keyboard-response","205","785896","0.0-11.0-2.0-0.8","5757","2","9","Female","approach_avoid_spark_v1","""event"",""trial"",""time""
""fullscreenenter"",""1"",""2911""
","
","
","""event"",""trial"",""time""
""fullscreenenter"",""1"",""2911""
","
","","","","","","null","<div style=""font-size:60px;"">+</div>","null","","fixation","","","","","","","","","","",""
"aa-learning-trial","206","788906","0.0-11.0-2.0-1.8","5757","2","9","Female","approach_avoid_spark_v1","""event"",""trial"",""time""
""fullscreenenter"",""1"",""2911""
","
","
","""event"",""trial"",""time""
""fullscreenenter"",""1"",""2911""
","
","","","","","","737.5","images/cow1.png","","","learning","4","4","1","1","cow","animals","1","1","","good","[6]"
"html-keyboard-response","207","789411","0.0-11.0-2.0-0.9","5757","2","9","Female","approach_avoid_spark_v1","""event"",""trial"",""time""
""fullscreenenter"",""1"",""2911""
","
","
","""event"",""trial"",""time""
""fullscreenenter"",""1"",""2911""
","
","","","","","","null","<div style=""font-size:60px;"">+</div>","null","","fixation","","","","","","","","","","",""
"aa-learning-trial","208","792418","0.0-11.0-2.0-1.9","5757","2","9","Female","approach_avoid_spark_v1","""event"",""trial"",""time""
""fullscreenenter"",""1"",""2911""
","
","
","""event"",""trial"",""time""
""fullscreenenter"",""1"",""2911""
","
","","","","","","616","images/horse8.png","","","learning","-6","0","0","0","horse","animals","1","1","","bad","[-5]"
"html-keyboard-response","209","792926","0.0-11.0-2.0-0.10","5757","2","9","Female","approach_avoid_spark_v1","""event"",""trial"",""time""
""fullscreenenter"",""1"",""2911""
","
","
","""event"",""trial"",""time""
""fullscreenenter"",""1"",""2911""
","
","","","","","","null","<div style=""font-size:60px;"">+</div>","null","","fixation","","","","","","","","","","",""
"aa-learning-trial","210","795944","0.0-11.0-2.0-1.10","5757","2","9","Female","approach_avoid_spark_v1","""event"",""trial"",""time""
""fullscreenenter"",""1"",""2911""
","
","
","""event"",""trial"",""time""
""fullscreenenter"",""1"",""2911""
","
","","","","","","902.5","images/horse5.png","","","learning","-6","0","0","0","horse","animals","1","1","","bad","[-5]"
"html-keyboard-response","211","796450","0.0-11.0-2.0-0.11","5757","2","9","Female","approach_avoid_spark_v1","""event"",""trial"",""time""
""fullscreenenter"",""1"",""2911""
","
","
","""event"",""trial"",""time""
""fullscreenenter"",""1"",""2911""
","
","","","","","","null","<div style=""font-size:60px;"">+</div>","null","","fixation","","","","","","","","","","",""
"aa-learning-trial","212","799459","0.0-11.0-2.0-1.11","5757","2","9","Female","approach_avoid_spark_v1","""event"",""trial"",""time""
""fullscreenenter"",""1"",""2911""
","
","
","""event"",""trial"",""time""
""fullscreenenter"",""1"",""2911""
","
","","","","","","655.9000000059605","images/horse6.png","","","learning","-5","0","0","0","horse","animals","1","1","","bad","[-5]"
"html-keyboard-response","213","799962","0.0-11.0-2.0-0.12","5757","2","9","Female","approach_avoid_spark_v1","""event"",""trial"",""time""
""fullscreenenter"",""1"",""2911""
","
","
","""event"",""trial"",""time""
""fullscreenenter"",""1"",""2911""
","
","","","","","","null","<div style=""font-size:60px;"">+</div>","null","","fixation","","","","","","","","","","",""
"aa-learning-trial","214","802971","0.0-11.0-2.0-1.12","5757","2","9","Female","approach_avoid_spark_v1","""event"",""trial"",""time""
""fullscreenenter"",""1"",""2911""
","
","
","""event"",""trial"",""time""
""fullscreenenter"",""1"",""2911""
","
","","","","","","606.6999999880791","images/cow1.png","","","learning","5","5","1","1","cow","animals","1","1","","good","[6]"
"html-keyboard-response","215","803474","0.0-11.0-2.0-0.13","5757","2","9","Female","approach_avoid_spark_v1","""event"",""trial"",""time""
""fullscreenenter"",""1"",""2911""
","
","
","""event"",""trial"",""time""
""fullscreenenter"",""1"",""2911""
","
","","","","","","null","<div style=""font-size:60px;"">+</div>","null","","fixation","","","","","","","","","","",""
"aa-learning-trial","216","806482","0.0-11.0-2.0-1.13","5757","2","9","Female","approach_avoid_spark_v1","""event"",""trial"",""time""
""fullscreenenter"",""1"",""2911""
","
","
","""event"",""trial"",""time""
""fullscreenenter"",""1"",""2911""
","
","","","","","","871.8000000119209","images/sheep8.png","","","learning","[1]","1","1","1","sheep","animals","1","1","","neutral","0"
"html-keyboard-response","217","806986","0.0-11.0-2.0-0.14","5757","2","9","Female","approach_avoid_spark_v1","""event"",""trial"",""time""
""fullscreenenter"",""1"",""2911""
","
","
","""event"",""trial"",""time""
""fullscreenenter"",""1"",""2911""
","
","","","","","","null","<div style=""font-size:60px;"">+</div>","null","","fixation","","","","","","","","","","",""
"aa-learning-trial","218","809995","0.0-11.0-2.0-1.14","5757","2","9","Female","approach_avoid_spark_v1","""event"",""trial"",""time""
""fullscreenenter"",""1"",""2911""
","
","
","""event"",""trial"",""time""
""fullscreenenter"",""1"",""2911""
","
","","","","","","577.5","images/sheep8.png","","","learning","-1","-1","1","1","sheep","animals","1","1","","neutral","0"
"html-keyboard-response","219","810498","0.0-11.0-2.0-0.15","5757","2","9","Female","approach_avoid_spark_v1","""event"",""trial"",""time""
""fullscreenenter"",""1"",""2911""
","
","
","""event"",""trial"",""time""
""fullscreenenter"",""1"",""2911""
","
","","","","","","null","<div style=""font-size:60px;"">+</div>","null","","fixation","","","","","","","","","","",""
"aa-learning-trial","220","813507","0.0-11.0-2.0-1.15","5757","2","9","Female","approach_avoid_spark_v1","""event"",""trial"",""time""
""fullscreenenter"",""1"",""2911""
","
","
","""event"",""trial"",""time""
""fullscreenenter"",""1"",""2911""
","
","","","","","","1112.9000000059605","images/sheep8.png","","","learning","-1","0","0","0","sheep","animals","1","1","","neutral","0"
"html-keyboard-response","221","814010","0.0-11.0-2.0-0.16","5757","2","9","Female","approach_avoid_spark_v1","""event"",""trial"",""time""
""fullscreenenter"",""1"",""2911""
","
","
","""event"",""trial"",""time""
""fullscreenenter"",""1"",""2911""
","
","","","","","","null","<div style=""font-size:60px;"">+</div>","null","","fixation","","","","","","","","","","",""
"aa-learning-trial","222","817018","0.0-11.0-2.0-1.16","5757","2","9","Female","approach_avoid_spark_v1","""event"",""trial"",""time""
""fullscreenenter"",""1"",""2911""
","
","
","""event"",""trial"",""time""
""fullscreenenter"",""1"",""2911""
","
","","","","","","897.5","images/horse2.png","","","learning","-5","0","0","0","horse","animals","1","1","","bad","[-5]"
"html-keyboard-response","223","817521","0.0-11.0-2.0-0.17","5757","2","9","Female","approach_avoid_spark_v1","""event"",""trial"",""time""
""fullscreenenter"",""1"",""2911""
","
","
","""event"",""trial"",""time""
""fullscreenenter"",""1"",""2911""
","
","","","","","","null","<div style=""font-size:60px;"">+</div>","null","","fixation","","","","","","","","","","",""
"aa-learning-trial","224","820532","0.0-11.0-2.0-1.17","5757","2","9","Female","approach_avoid_spark_v1","""event"",""trial"",""time""
""fullscreenenter"",""1"",""2911""
","
","
","""event"",""trial"",""time""
""fullscreenenter"",""1"",""2911""
","
","","","","","","690.1999999880791","images/horse6.png","","","learning","-5","0","0","0","horse","animals","1","1","","bad","[-5]"
"html-keyboard-response","225","821035","0.0-11.0-2.0-0.18","5757","2","9","Female","approach_avoid_spark_v1","""event"",""trial"",""time""
""fullscreenenter"",""1"",""2911""
","
","
","""event"",""trial"",""time""
""fullscreenenter"",""1"",""2911""
","
","","","","","","null","<div style=""font-size:60px;"">+</div>","null","","fixation","","","","","","","","","","",""
"aa-learning-trial","226","824043","0.0-11.0-2.0-1.18","5757","2","9","Female","approach_avoid_spark_v1","""event"",""trial"",""time""
""fullscreenenter"",""1"",""2911""
","
","
","""event"",""trial"",""time""
""fullscreenenter"",""1"",""2911""
","
","","","","","","555.4000000059605","images/horse8.png","","","learning","-8","0","0","0","horse","animals","1","1","","bad","[-5]"
"html-keyboard-response","227","824547","0.0-11.0-2.0-0.19","5757","2","9","Female","approach_avoid_spark_v1","""event"",""trial"",""time""
""fullscreenenter"",""1"",""2911""
","
","
","""event"",""trial"",""time""
""fullscreenenter"",""1"",""2911""
","
","","","","","","null","<div style=""font-size:60px;"">+</div>","null","","fixation","","","","","","","","","","",""
"aa-learning-trial","228","827555","0.0-11.0-2.0-1.19","5757","2","9","Female","approach_avoid_spark_v1","""event"",""trial"",""time""
""fullscreenenter"",""1"",""2911""
","
","
","""event"",""trial"",""time""
""fullscreenenter"",""1"",""2911""
","
","","","","","","903.9000000059605","images/cow6.png","","","learning","7","7","1","1","cow","animals","1","1","","good","[6]"
"html-keyboard-response","229","828059","0.0-11.0-2.0-0.20","5757","2","9","Female","approach_avoid_spark_v1","""event"",""trial"",""time""
""fullscreenenter"",""1"",""2911""
","
","
","""event"",""trial"",""time""
""fullscreenenter"",""1"",""2911""
","
","","","","","","null","<div style=""font-size:60px;"">+</div>","null","","fixation","","","","","","","","","","",""
"aa-learning-trial","230","831067","0.0-11.0-2.0-1.20","5757","2","9","Female","approach_avoid_spark_v1","""event"",""trial"",""time""
""fullscreenenter"",""1"",""2911""
","
","
","""event"",""trial"",""time""
""fullscreenenter"",""1"",""2911""
","
","","","","","","689.1999999880791","images/sheep5.png","","","learning","-2","-2","1","1","sheep","animals","1","1","","neutral","0"
"html-keyboard-response","231","831571","0.0-11.0-2.0-0.21","5757","2","9","Female","approach_avoid_spark_v1","""event"",""trial"",""time""
""fullscreenenter"",""1"",""2911""
","
","
","""event"",""trial"",""time""
""fullscreenenter"",""1"",""2911""
","
","","","","","","null","<div style=""font-size:60px;"">+</div>","null","","fixation","","","","","","","","","","",""
"aa-learning-trial","232","834580","0.0-11.0-2.0-1.21","5757","2","9","Female","approach_avoid_spark_v1","""event"",""trial"",""time""
""fullscreenenter"",""1"",""2911""
","
","
","""event"",""trial"",""time""
""fullscreenenter"",""1"",""2911""
","
","","","","","","1034.300000011921","images/horse7.png","","","learning","-6","0","0","0","horse","animals","1","1","","bad","[-5]"
"html-keyboard-response","233","835083","0.0-11.0-2.0-0.22","5757","2","9","Female","approach_avoid_spark_v1","""event"",""trial"",""time""
""fullscreenenter"",""1"",""2911""
","
","
","""event"",""trial"",""time""
""fullscreenenter"",""1"",""2911""
","
","","","","","","null","<div style=""font-size:60px;"">+</div>","null","","fixation","","","","","","","","","","",""
"aa-learning-trial","234","838091","0.0-11.0-2.0-1.22","5757","2","9","Female","approach_avoid_spark_v1","""event"",""trial"",""time""
""fullscreenenter"",""1"",""2911""
","
","
","""event"",""trial"",""time""
""fullscreenenter"",""1"",""2911""
","
","","","","","","803.5","images/cow4.png","","","learning","8","8","1","1","cow","animals","1","1","","good","[6]"
"html-keyboard-response","235","838595","0.0-11.0-2.0-0.23","5757","2","9","Female","approach_avoid_spark_v1","""event"",""trial"",""time""
""fullscreenenter"",""1"",""2911""
","
","
","""event"",""trial"",""time""
""fullscreenenter"",""1"",""2911""
","
","","","","","","null","<div style=""font-size:60px;"">+</div>","null","","fixation","","","","","","","","","","",""
"aa-learning-trial","236","841603","0.0-11.0-2.0-1.23","5757","2","9","Female","approach_avoid_spark_v1","""event"",""trial"",""time""
""fullscreenenter"",""1"",""2911""
","
","
","""event"",""trial"",""time""
""fullscreenenter"",""1"",""2911""
","
","","","","","","1016.8999999761581","images/sheep7.png","","","learning","-1","-1","1","1","sheep","animals","1","1","","neutral","0"
