"trial_type","trial_index","time_elapsed","internal_node_id","subject_id","task_condition","age","gender","task_version","interactions","blur_events","focus_events","fullscreenenter_events","fullscreenexit_events","success","timeout","failed_images","failed_audio","failed_video","rt","stimulus","response","button_pressed","task_part","approach_reward","points","key_press","option_selected","stim_cat","task_block","block_condition","block_number","correct","cat_type","mean_cat_reward"
"pavlovia","0","2","0.0-0.0","7200","2","19","Male","approach_avoid_spark_v1","""event"",""trial"",""time""
""fullscreenenter"",""1"",""3329""
","
","
","""event"",""trial"",""time""
""fullscreenenter"",""1"",""3329""
","
","","","","","","","","","","","","","","","","","","","","",""
"fullscreen","1","4316","0.0-1.0","7200","2","19","Male","approach_avoid_spark_v1","""event"",""trial"",""time""
""fullscreenenter"",""1"",""3329""
","
","
","""event"",""trial"",""time""
""fullscreenenter"",""1"",""3329""
","
","true","","","","","","","","","","","","","","","","","","","",""
"preload","2","38935","0.0-2.0","7200","2","19","Male","approach_avoid_spark_v1","""event"",""trial"",""time""
""fullscreenenter"",""1"",""3329""
","
","
","""event"",""trial"",""time""
""fullscreenenter"",""1"",""3329""
","
","true","false","[]","[]","[]","","","","","","","","","","","","","","","",""
"audio-keyboard-response","3","43899","0.0-3.0","7200","2","19","Male","approach_avoid_spark_v1","""event"",""trial"",""time""
""fullscreenenter"",""1"",""3329""
","
","
","""event"",""trial"",""time""
""fullscreenenter"",""1"",""3329""
","
","","","","","","4970.666666666666","audio/beep_loop.wav"," ","","","","","","","","","","","","",""
"audio-button-response","4","45477","0.0-4.0","7200","2","19","Male","approach_avoid_spark_v1","""event"",""trial"",""time""
""fullscreenenter"",""1"",""3329""
","
","
","""event"",""trial"",""time""
""fullscreenenter"",""1"",""3329""
","
","","","","","","1581","audio/shark.wav","4","","","","","","","","","","","","",""
"audio-button-response","5","47675","0.0-5.0","7200","2","19","Male","approach_avoid_spark_v1","""event"",""trial"",""time""
""fullscreenenter"",""1"",""3329""
","
","
","""event"",""trial"",""time""
""fullscreenenter"",""1"",""3329""
","
","","","","","","1189","audio/turtle.wav","1","","","","","","","","","","","","",""
"preload","6","54970","0.0-6.0","7200","2","19","Male","approach_avoid_spark_v1","""event"",""trial"",""time""
""fullscreenenter"",""1"",""3329""
","
","
","""event"",""trial"",""time""
""fullscreenenter"",""1"",""3329""
","
","true","false","[]","[]","[]","","","","","","","","","","","","","","","",""
"html-keyboard-response","7","61108","0.0-7.0","7200","2","19","Male","approach_avoid_spark_v1","""event"",""trial"",""time""
""fullscreenenter"",""1"",""3329""
","
","
","""event"",""trial"",""time""
""fullscreenenter"",""1"",""3329""
","
","","","","","","6137","Welcome to the experiment. Press any key to begin and to advance the instructions."," ","","","","","","","","","","","","",""
"learning-instructions","8","69359","0.0-8.0-0.0-0.0","7200","2","19","Male","approach_avoid_spark_v1","""event"",""trial"",""time""
""fullscreenenter"",""1"",""3329""
","
","
","""event"",""trial"",""time""
""fullscreenenter"",""1"",""3329""
","
","","","","","","1292","<p> Welcome! Today you are going to play 6 different rounds of a decision-making game. </p><p> Use the mouse to click next to continue. </p>","","0","instructions","","","","","","","","","","",""
"learning-instructions","9","73094","0.0-8.0-0.0-0.1","7200","2","19","Male","approach_avoid_spark_v1","""event"",""trial"",""time""
""fullscreenenter"",""1"",""3329""
","
","
","""event"",""trial"",""time""
""fullscreenenter"",""1"",""3329""
","
","","","","","","996","<p> You will start with a practice round to learn the rules. </p>","","0","instructions","","","","","","","","","","",""
"learning-instructions","10","77479","0.0-8.0-0.0-0.2","7200","2","19","Male","approach_avoid_spark_v1","""event"",""trial"",""time""
""fullscreenenter"",""1"",""3329""
","
","
","""event"",""trial"",""time""
""fullscreenenter"",""1"",""3329""
","
","","","","","","933","<p> Your goal in this round is to give out sports equipment to kids. </p></div>","","0","instructions","","","","","","","","","","",""
"learning-instructions","11","85843","0.0-8.0-0.0-0.3","7200","2","19","Male","approach_avoid_spark_v1","""event"",""trial"",""time""
""fullscreenenter"",""1"",""3329""
","
","
","""event"",""trial"",""time""
""fullscreenenter"",""1"",""3329""
","
","","","","","","808","<p> The kids only like some of the equipment.  </p><p> On each turn, you will see a piece of sports equipment.   </p><p> You need to decide whether to give it to the kids or not.  </p>","","0","instructions","","","","","","","","","","",""
"learning-instructions","12","92537","0.0-8.0-0.0-0.4","7200","2","19","Male","approach_avoid_spark_v1","""event"",""trial"",""time""
""fullscreenenter"",""1"",""3329""
","
","
","""event"",""trial"",""time""
""fullscreenenter"",""1"",""3329""
","
","","","","","","1941","<p> You can give them the equipment by pressing 1 and choose not to give it to them by pressing 0. </p><br><div class=""choice-instructions-grid""> <div class=""choice-option""><img src=""images/approach.png"" class=""choice-option-img"" stage=""instructions"" position=""0"" ><div class=""choice-option-text""> Press ""1."" </div></div><div class=""choice-option""><img src=""images/avoid.png"" class=""choice-option-img"" stage=""instructions"" position=""1"" ><div class=""choice-option-text""> Press ""0."" </div></div>","","0","instructions","","","","","","","","","","",""
"learning-instructions","13","101017","0.0-8.0-0.0-0.5","7200","2","19","Male","approach_avoid_spark_v1","""event"",""trial"",""time""
""fullscreenenter"",""1"",""3329""
","
","
","""event"",""trial"",""time""
""fullscreenenter"",""1"",""3329""
","
","","","","","","1091","<p> If you give them a piece of equipment they like, they will be happy! </p><p> But if you give them a piece of equipment they do not like, they will be sad. </p>","","0","instructions","","","","","","","","","","",""
"learning-instructions","14","112504","0.0-8.0-0.0-0.6","7200","2","19","Male","approach_avoid_spark_v1","""event"",""trial"",""time""
""fullscreenenter"",""1"",""3329""
","
","
","""event"",""trial"",""time""
""fullscreenenter"",""1"",""3329""
","
","","","","","","979","<p> You will earn points based on how you make kids feel. </p><p> If you make them happy, you will WIN anywhere from 1 - 9 points, </p><p> but if you make them sad, you will LOSE anywhere from 1 - 9 points. </p>","","0","instructions","","","","","","","","","","",""
"learning-instructions","15","123375","0.0-8.0-0.0-0.7","7200","2","19","Male","approach_avoid_spark_v1","""event"",""trial"",""time""
""fullscreenenter"",""1"",""3329""
","
","
","""event"",""trial"",""time""
""fullscreenenter"",""1"",""3329""
","
","","","","","","1317","<p> You will see how many points you won or lost in the center of the screen. </p><p> Here is what you would see if you won 6 points: </p><p style=""color:green;font-size:50px;font-weight:bolder"">6</p><p style=""color:green"">The text is GREEN because you WON points.</p>","","0","instructions","","","","","","","","","","",""
"learning-instructions","16","129818","0.0-8.0-0.0-0.8","7200","2","19","Male","approach_avoid_spark_v1","""event"",""trial"",""time""
""fullscreenenter"",""1"",""3329""
","
","
","""event"",""trial"",""time""
""fullscreenenter"",""1"",""3329""
","
","","","","","","941","<p> And here is what you would see if you lost 4 points: </p><p style=""color:red;font-size:50px;font-weight:bolder"">-4</p><p style=""color:red"">The text is RED because you LOST points. </p>","","0","instructions","","","","","","","","","","",""
"learning-instructions","17","145615","0.0-8.0-0.0-0.9","7200","2","19","Male","approach_avoid_spark_v1","""event"",""trial"",""time""
""fullscreenenter"",""1"",""3329""
","
","
","""event"",""trial"",""time""
""fullscreenenter"",""1"",""3329""
","
","","","","","","1079","<p> Some of the equipment will make the kids VERY happy or sad. </p><p> These pieces of equipment will make you win or lose LOTS of points. </p><p> Other pieces of equipment will only make the kids a little happy or sad. </p><p> These pieces of equipment will make you win or lose small amounts of points. </p>","","0","instructions","","","","","","","","","","",""
"learning-instructions","18","157075","0.0-8.0-0.0-0.10","7200","2","19","Male","approach_avoid_spark_v1","""event"",""trial"",""time""
""fullscreenenter"",""1"",""3329""
","
","
","""event"",""trial"",""time""
""fullscreenenter"",""1"",""3329""
","
","","","","","","848","<p> If you choose not to give them the equipment, you will not win or lose any points. </p><p>  However, in the center of the screen, you will see the number of points you WOULD HAVE won or lost if you had given them the equipment. </p>","","0","instructions","","","","","","","","","","",""
"learning-instructions","19","179330","0.0-8.0-0.0-0.11","7200","2","19","Male","approach_avoid_spark_v1","""event"",""trial"",""time""
""fullscreenenter"",""1"",""3329""
","
","
","""event"",""trial"",""time""
""fullscreenenter"",""1"",""3329""
","
","","","","","","734","<p> Here is what you might see if you did not give the equipment to the kids but it would have made them happy: </p><p style=""color:grey; font-size:50px; display: inline-block; border-spacing: 15px; border-width:3px; border-style:solid; border-color:red"">  &nbsp; 7 &nbsp; </p><p> Remember, in this case, you would not win or lose ANY points because you did not give them the equipment.  </p><p style=""color:grey"">The text is GREY because you earned ZERO points. </p><p style=""color:red"">However, choosing to give the kids the equipment would have made you win points. The box around the text is RED because you chose the worse option. </p>","","0","instructions","","","","","","","","","","",""
"learning-instructions","20","203863","0.0-8.0-0.0-0.12","7200","2","19","Male","approach_avoid_spark_v1","""event"",""trial"",""time""
""fullscreenenter"",""1"",""3329""
","
","
","""event"",""trial"",""time""
""fullscreenenter"",""1"",""3329""
","
","","","","","","3465","<p> Here is what you might see if you did not give the equipment to the kids but it would have made them sad: </p><p style=""color:grey;font-size:50px; display: inline-block; border-spacing: 15px; border-width:3px; border-style:solid; border-color:green"">  &nbsp; -8 &nbsp; </p><p> Remember, in this case, you would not win or lose ANY points because you did not give them the equipment.  </p><p style=""color:grey"">The text is GREY because you earned ZERO points. </p><p  style=""color:green""> Choosing to give the kids the equipment would have made you lose points. The box around the text is GREEN because you chose the better option.</p>","","0","instructions","","","","","","","","","","",""
"learning-instructions","21","214354","0.0-8.0-0.0-0.13","7200","2","19","Male","approach_avoid_spark_v1","""event"",""trial"",""time""
""fullscreenenter"",""1"",""3329""
","
","
","""event"",""trial"",""time""
""fullscreenenter"",""1"",""3329""
","
","","","","","","1318","<p> You will have 3 seconds to make each choice. Try to respond before time runs out! </p><p> You will lose 5 points each time you do not make a response. </p>","","0","instructions","","","","","","","","","","",""
"learning-instructions","22","220822","0.0-8.0-0.0-0.14","7200","2","19","Male","approach_avoid_spark_v1","""event"",""trial"",""time""
""fullscreenenter"",""1"",""3329""
","
","
","""event"",""trial"",""time""
""fullscreenenter"",""1"",""3329""
","
","","","","","","1045","<p> This is just a practice round, but in the real game, your bonus payment will depend on your total number of points.","","0","instructions","","","","","","","","","","",""
"learning-instructions","23","227085","0.0-8.0-0.0-0.15","7200","2","19","Male","approach_avoid_spark_v1","""event"",""trial"",""time""
""fullscreenenter"",""1"",""3329""
","
","
","""event"",""trial"",""time""
""fullscreenenter"",""1"",""3329""
","
","","","","","","509","<p> Remember, you can give them the equipment by pressing 1 and choose not to give it to them by pressing 0. </p><br><div class=""choice-instructions-grid""> <div class=""choice-option""><img src=""images/approach.png"" class=""choice-option-img"" stage=""instructions"" position=""0"" ><div class=""choice-option-text""> Press ""1."" </div></div><div class=""choice-option""><img src=""images/avoid.png"" class=""choice-option-img"" stage=""instructions"" position=""1"" ><div class=""choice-option-text""> Press ""0."" </div></div>","","0","instructions","","","","","","","","","","",""
"html-button-response","24","228511","0.0-8.0-1.0","7200","2","19","Male","approach_avoid_spark_v1","""event"",""trial"",""time""
""fullscreenenter"",""1"",""3329""
","
","
","""event"",""trial"",""time""
""fullscreenenter"",""1"",""3329""
","
","","","","","","1322","<p> Ready to practice? </p>","0","","","","","","","","","","","","",""
"html-keyboard-response","25","229130","0.0-8.0-2.0-0.0","7200","2","19","Male","approach_avoid_spark_v1","""event"",""trial"",""time""
""fullscreenenter"",""1"",""3329""
","
","
","""event"",""trial"",""time""
""fullscreenenter"",""1"",""3329""
","
","","","","","","null","<div style=""font-size:60px;"">+</div>","null","","fixation","","","","","","","","","","",""
"aa-learning-trial","26","232132","0.0-8.0-2.0-1.0","7200","2","19","Male","approach_avoid_spark_v1","""event"",""trial"",""time""
""fullscreenenter"",""1"",""3329""
","
","
","""event"",""trial"",""time""
""fullscreenenter"",""1"",""3329""
","
","","","","","","null","images/ball4.png","","","learning","-2","-5","","null","practice","practice","practice","-1","","",""
"html-keyboard-response","27","232636","0.0-8.0-2.0-0.1","7200","2","19","Male","approach_avoid_spark_v1","""event"",""trial"",""time""
""fullscreenenter"",""1"",""3329""
","
","
","""event"",""trial"",""time""
""fullscreenenter"",""1"",""3329""
","
","","","","","","null","<div style=""font-size:60px;"">+</div>","null","","fixation","","","","","","","","","","",""
"aa-learning-trial","28","235639","0.0-8.0-2.0-1.1","7200","2","19","Male","approach_avoid_spark_v1","""event"",""trial"",""time""
""fullscreenenter"",""1"",""3329""
","
","
","""event"",""trial"",""time""
""fullscreenenter"",""1"",""3329""
","
","","","","","","null","images/racket2.png","","","learning","5","-5","","null","practice","practice","practice","-1","","",""
"html-keyboard-response","29","236140","0.0-8.0-2.0-0.2","7200","2","19","Male","approach_avoid_spark_v1","""event"",""trial"",""time""
""fullscreenenter"",""1"",""3329""
","
","
","""event"",""trial"",""time""
""fullscreenenter"",""1"",""3329""
","
","","","","","","null","<div style=""font-size:60px;"">+</div>","null","","fixation","","","","","","","","","","",""
"aa-learning-trial","30","239141","0.0-8.0-2.0-1.2","7200","2","19","Male","approach_avoid_spark_v1","""event"",""trial"",""time""
""fullscreenenter"",""1"",""3329""
","
","
","""event"",""trial"",""time""
""fullscreenenter"",""1"",""3329""
","
","","","","","","null","images/racket2.png","","","learning","8","-5","","null","practice","practice","practice","-1","","",""
"html-keyboard-response","31","239642","0.0-8.0-2.0-0.3","7200","2","19","Male","approach_avoid_spark_v1","""event"",""trial"",""time""
""fullscreenenter"",""1"",""3329""
","
","
","""event"",""trial"",""time""
""fullscreenenter"",""1"",""3329""
","
","","","","","","null","<div style=""font-size:60px;"">+</div>","null","","fixation","","","","","","","","","","",""
"aa-learning-trial","32","242654","0.0-8.0-2.0-1.3","7200","2","19","Male","approach_avoid_spark_v1","""event"",""trial"",""time""
""fullscreenenter"",""1"",""3329""
","
","
","""event"",""trial"",""time""
""fullscreenenter"",""1"",""3329""
","
","","","","","","null","images/racket1.png","","","learning","8","-5","","null","practice","practice","practice","-1","","",""
"html-keyboard-response","33","243155","0.0-8.0-2.0-0.4","7200","2","19","Male","approach_avoid_spark_v1","""event"",""trial"",""time""
""fullscreenenter"",""1"",""3329""
","
","
","""event"",""trial"",""time""
""fullscreenenter"",""1"",""3329""
","
","","","","","","null","<div style=""font-size:60px;"">+</div>","null","","fixation","","","","","","","","","","",""
"aa-learning-trial","34","246171","0.0-8.0-2.0-1.4","7200","2","19","Male","approach_avoid_spark_v1","""event"",""trial"",""time""
""fullscreenenter"",""1"",""3329""
","
","
","""event"",""trial"",""time""
""fullscreenenter"",""1"",""3329""
","
","","","","","","null","images/racket1.png","","","learning","5","-5","","null","practice","practice","practice","-1","","",""
"html-keyboard-response","35","246685","0.0-8.0-2.0-0.5","7200","2","19","Male","approach_avoid_spark_v1","""event"",""trial"",""time""
""fullscreenenter"",""1"",""3329""
","
","
","""event"",""trial"",""time""
""fullscreenenter"",""1"",""3329""
","
","","","","","","null","<div style=""font-size:60px;"">+</div>","null","","fixation","","","","","","","","","","",""
"aa-learning-trial","36","249691","0.0-8.0-2.0-1.5","7200","2","19","Male","approach_avoid_spark_v1","""event"",""trial"",""time""
""fullscreenenter"",""1"",""3329""
","
","
","""event"",""trial"",""time""
""fullscreenenter"",""1"",""3329""
","
","","","","","","null","images/racket4.png","","","learning","-4","-5","","null","practice","practice","practice","-1","","",""
"html-keyboard-response","37","250192","0.0-8.0-2.0-0.6","7200","2","19","Male","approach_avoid_spark_v1","""event"",""trial"",""time""
""fullscreenenter"",""1"",""3329""
","
","
","""event"",""trial"",""time""
""fullscreenenter"",""1"",""3329""
","
","","","","","","null","<div style=""font-size:60px;"">+</div>","null","","fixation","","","","","","","","","","",""
"aa-learning-trial","38","253194","0.0-8.0-2.0-1.6","7200","2","19","Male","approach_avoid_spark_v1","""event"",""trial"",""time""
""fullscreenenter"",""1"",""3329""
","
","
","""event"",""trial"",""time""
""fullscreenenter"",""1"",""3329""
","
","","","","","","null","images/ball3.png","","","learning","-4","-5","","null","practice","practice","practice","-1","","",""
"html-keyboard-response","39","253695","0.0-8.0-2.0-0.7","7200","2","19","Male","approach_avoid_spark_v1","""event"",""trial"",""time""
""fullscreenenter"",""1"",""3329""
","
","
","""event"",""trial"",""time""
""fullscreenenter"",""1"",""3329""
","
","","","","","","null","<div style=""font-size:60px;"">+</div>","null","","fixation","","","","","","","","","","",""
"aa-learning-trial","40","256696","0.0-8.0-2.0-1.7","7200","2","19","Male","approach_avoid_spark_v1","""event"",""trial"",""time""
""fullscreenenter"",""1"",""3329""
","
","
","""event"",""trial"",""time""
""fullscreenenter"",""1"",""3329""
","
","","","","","","null","images/racket1.png","","","learning","9","-5","","null","practice","practice","practice","-1","","",""
"html-keyboard-response","41","257197","0.0-8.0-2.0-0.8","7200","2","19","Male","approach_avoid_spark_v1","""event"",""trial"",""time""
""fullscreenenter"",""1"",""3329""
","
","
","""event"",""trial"",""time""
""fullscreenenter"",""1"",""3329""
","
","","","","","","null","<div style=""font-size:60px;"">+</div>","null","","fixation","","","","","","","","","","",""
"aa-learning-trial","42","260199","0.0-8.0-2.0-1.8","7200","2","19","Male","approach_avoid_spark_v1","""event"",""trial"",""time""
""fullscreenenter"",""1"",""3329""
","
","
","""event"",""trial"",""time""
""fullscreenenter"",""1"",""3329""
","
","","","","","","null","images/ball1.png","","","learning","2","-5","","null","practice","practice","practice","-1","","",""
"html-keyboard-response","43","260701","0.0-8.0-2.0-0.9","7200","2","19","Male","approach_avoid_spark_v1","""event"",""trial"",""time""
""fullscreenenter"",""1"",""3329""
","
","
","""event"",""trial"",""time""
""fullscreenenter"",""1"",""3329""
","
","","","","","","null","<div style=""font-size:60px;"">+</div>","null","","fixation","","","","","","","","","","",""
"aa-learning-trial","44","263703","0.0-8.0-2.0-1.9","7200","2","19","Male","approach_avoid_spark_v1","""event"",""trial"",""time""
""fullscreenenter"",""1"",""3329""
","
","
","""event"",""trial"",""time""
""fullscreenenter"",""1"",""3329""
","
","","","","","","null","images/racket1.png","","","learning","5","-5","","null","practice","practice","practice","-1","","",""
"html-keyboard-response","45","264205","0.0-8.0-2.0-0.10","7200","2","19","Male","approach_avoid_spark_v1","""event"",""trial"",""time""
""fullscreenenter"",""1"",""3329""
","
","
","""event"",""trial"",""time""
""fullscreenenter"",""1"",""3329""
","
","","","","","","null","<div style=""font-size:60px;"">+</div>","null","","fixation","","","","","","","","","","",""
"aa-learning-trial","46","267207","0.0-8.0-2.0-1.10","7200","2","19","Male","approach_avoid_spark_v1","""event"",""trial"",""time""
""fullscreenenter"",""1"",""3329""
","
","
","""event"",""trial"",""time""
""fullscreenenter"",""1"",""3329""
","
","","","","","","null","images/racket4.png","","","learning","-5","-5","","null","practice","practice","practice","-1","","",""
"html-keyboard-response","47","267708","0.0-8.0-2.0-0.11","7200","2","19","Male","approach_avoid_spark_v1","""event"",""trial"",""time""
""fullscreenenter"",""1"",""3329""
","
","
","""event"",""trial"",""time""
""fullscreenenter"",""1"",""3329""
","
","","","","","","null","<div style=""font-size:60px;"">+</div>","null","","fixation","","","","","","","","","","",""
"aa-learning-trial","48","270710","0.0-8.0-2.0-1.11","7200","2","19","Male","approach_avoid_spark_v1","""event"",""trial"",""time""
""fullscreenenter"",""1"",""3329""
","
","
","""event"",""trial"",""time""
""fullscreenenter"",""1"",""3329""
","
","","","","","","null","images/ball3.png","","","learning","-9","-5","","null","practice","practice","practice","-1","","",""
"html-button-response","49","278954","0.0-8.0-3.0","7200","2","19","Male","approach_avoid_spark_v1","""event"",""trial"",""time""
""fullscreenenter"",""1"",""3329""
","
","
","""event"",""trial"",""time""
""fullscreenenter"",""1"",""3329""
","
","","","","","","8239","<p> You earned -60 points in the practice round! </p>","0","","break","","","","","","","","","","",""
"learning-instructions","50","286410","0.0-8.0-4.0-0.0","7200","2","19","Male","approach_avoid_spark_v1","""event"",""trial"",""time""
""fullscreenenter"",""1"",""3329""
","
","
","""event"",""trial"",""time""
""fullscreenenter"",""1"",""3329""
","
","","","","","","1435","<p> It's almost time to start the real game. </p><p> Before you start, we're going to ask you a few questions about how the game works. </p>","","0","instructions","","","","","","","","","","",""
"preload","51","288722","0.0-8.0-5.0","7200","2","19","Male","approach_avoid_spark_v1","""event"",""trial"",""time""
""fullscreenenter"",""1"",""3329""
","
","
","""event"",""trial"",""time""
""fullscreenenter"",""1"",""3329""
","
","true","false","[]","[]","[]","","","","","","","","","","","","","","","",""
"comp-q","52","294523","0.0-8.0-6.0-0.0","7200","2","19","Male","approach_avoid_spark_v1","""event"",""trial"",""time""
""fullscreenenter"",""1"",""3329""
","
","
","""event"",""trial"",""time""
""fullscreenenter"",""1"",""3329""
","
","","","","","","807","<p> <b> True or False? </b> </p><p> If you see a number in GREY, that means you earned that many points. </p>","","1","comp_question","","","","","","","","","true","",""
"comp-q","53","303986","0.0-8.0-6.0-1.0","7200","2","19","Male","approach_avoid_spark_v1","""event"",""trial"",""time""
""fullscreenenter"",""1"",""3329""
","
","
","""event"",""trial"",""time""
""fullscreenenter"",""1"",""3329""
","
","","","","","","1101","<p><b> That's right! </b> If you see a grey number, it means you earned ZERO points. <br> The grey numbers show the points you WOULD HAVE earned if you had made the other choice. </p>","","0","comp_answer","","","","","","","","","","",""
"comp-q","54","309586","0.0-8.0-7.0-0.0","7200","2","19","Male","approach_avoid_spark_v1","""event"",""trial"",""time""
""fullscreenenter"",""1"",""3329""
","
","
","""event"",""trial"",""time""
""fullscreenenter"",""1"",""3329""
","
","","","","","","910","<p> <b> True or False? </b> </p><p> You will have as much time as you want to make each choice. </p>","","1","comp_question","","","","","","","","","true","",""
"comp-q","55","315060","0.0-8.0-7.0-1.0","7200","2","19","Male","approach_avoid_spark_v1","""event"",""trial"",""time""
""fullscreenenter"",""1"",""3329""
","
","
","""event"",""trial"",""time""
""fullscreenenter"",""1"",""3329""
","
","","","","","","1425","<p> <b> That's right! </b> You will only have 3 seconds to make each choice. </p>","","0","comp_answer","","","","","","","","","","",""
"comp-q","56","320276","0.0-8.0-8.0-0.0","7200","2","19","Male","approach_avoid_spark_v1","""event"",""trial"",""time""
""fullscreenenter"",""1"",""3329""
","
","
","""event"",""trial"",""time""
""fullscreenenter"",""1"",""3329""
","
","","","","","","550","<p> <b> True or False? </b> </p><p> You should use the '1' and '0' keys to make your choices. </p>","","0","comp_question","","","","","","","","","true","",""
"comp-q","57","325766","0.0-8.0-8.0-1.0","7200","2","19","Male","approach_avoid_spark_v1","""event"",""trial"",""time""
""fullscreenenter"",""1"",""3329""
","
","
","""event"",""trial"",""time""
""fullscreenenter"",""1"",""3329""
","
","","","","","","881","<p> <b> That's right! </b> You should use the '1' and '0' keys to make each choice. </p>","","0","comp_answer","","","","","","","","","","",""
"learning-instructions","58","333070","0.0-8.0-9.0-0.0","7200","2","19","Male","approach_avoid_spark_v1","""event"",""trial"",""time""
""fullscreenenter"",""1"",""3329""
","
","
","""event"",""trial"",""time""
""fullscreenenter"",""1"",""3329""
","
","","","","","","1023","<p> It's now time to start the real game. </p>Do your best, because the points you earn in the next rounds will influence your bonus payment. </p>","","0","instructions","","","","","","","","","","",""
"preload","59","333179","0.0-9.0-0.0","7200","2","19","Male","approach_avoid_spark_v1","""event"",""trial"",""time""
""fullscreenenter"",""1"",""3329""
","
","
","""event"",""trial"",""time""
""fullscreenenter"",""1"",""3329""
","
","true","false","[]","[]","[]","","","","","","","","","","","","","","","",""
"learning-instructions","60","338327","0.0-9.0-1.0-0.0","7200","2","19","Male","approach_avoid_spark_v1","""event"",""trial"",""time""
""fullscreenenter"",""1"",""3329""
","
","
","""event"",""trial"",""time""
""fullscreenenter"",""1"",""3329""
","
","","","","","","1472","<p> Your goal in this round is to take care of lots of animals. </p></div>","","0","instructions","","","","","","","","","","",""
"learning-instructions","61","349280","0.0-9.0-1.0-0.1","7200","2","19","Male","approach_avoid_spark_v1","""event"",""trial"",""time""
""fullscreenenter"",""1"",""3329""
","
","
","""event"",""trial"",""time""
""fullscreenenter"",""1"",""3329""
","
","","","","","","1683","<p> Some animals want to be pet, while other animals want to be left alone.  </p><p> On each turn, you will see an animal.   </p><p> You need to decide whether to pet it or not.  </p>","","0","instructions","","","","","","","","","","",""
"learning-instructions","62","355474","0.0-9.0-1.0-0.2","7200","2","19","Male","approach_avoid_spark_v1","""event"",""trial"",""time""
""fullscreenenter"",""1"",""3329""
","
","
","""event"",""trial"",""time""
""fullscreenenter"",""1"",""3329""
","
","","","","","","1217","<p> You can pet the animal by pressing 1 and leave the animal alone by pressing 0. </p><br><div class=""choice-instructions-grid""> <div class=""choice-option""><img src=""images/approach.png"" class=""choice-option-img"" stage=""instructions"" position=""0"" ><div class=""choice-option-text""> Press ""1."" </div></div><div class=""choice-option""><img src=""images/avoid.png"" class=""choice-option-img"" stage=""instructions"" position=""1"" ><div class=""choice-option-text""> Press ""0."" </div></div>","","0","instructions","","","","","","","","","","",""
"learning-instructions","63","364488","0.0-9.0-1.0-0.3","7200","2","19","Male","approach_avoid_spark_v1","""event"",""trial"",""time""
""fullscreenenter"",""1"",""3329""
","
","
","""event"",""trial"",""time""
""fullscreenenter"",""1"",""3329""
","
","","","","","","461","<p> If you pet an animal that wants to be pet, you will make it feel happy! </p><p> But if you pet an animal that wants to be left alone, you will make it feel angry. </p>","","0","instructions","","","","","","","","","","",""
"learning-instructions","64","377026","0.0-9.0-1.0-0.4","7200","2","19","Male","approach_avoid_spark_v1","""event"",""trial"",""time""
""fullscreenenter"",""1"",""3329""
","
","
","""event"",""trial"",""time""
""fullscreenenter"",""1"",""3329""
","
","","","","","","390","<p> You will earn points based on how you made the animal feel. </p><p> If you made it feel happy, you will WIN anywhere from 1 - 9 points, </p><p> but if you made it feel angry, you will LOSE anywhere from 1 - 9 points. </p>","","0","instructions","","","","","","","","","","",""
"learning-instructions","65","386064","0.0-9.0-1.0-0.5","7200","2","19","Male","approach_avoid_spark_v1","""event"",""trial"",""time""
""fullscreenenter"",""1"",""3329""
","
","
","""event"",""trial"",""time""
""fullscreenenter"",""1"",""3329""
","
","","","","","","1628","<p> You will see how many points you won or lost in the center of the screen. </p><p> Here is what you would see if you won 5 points: </p><p style=""color:green;font-size:50px;font-weight:bolder"">5</p>","","0","instructions","","","","","","","","","","",""
"learning-instructions","66","390755","0.0-9.0-1.0-0.6","7200","2","19","Male","approach_avoid_spark_v1","""event"",""trial"",""time""
""fullscreenenter"",""1"",""3329""
","
","
","""event"",""trial"",""time""
""fullscreenenter"",""1"",""3329""
","
","","","","","","1359","<p> And here is what you would see if you lost 3 points: </p><p style=""color:red;font-size:50px;font-weight:bolder"">-3</p>","","0","instructions","","","","","","","","","","",""
"learning-instructions","67","405911","0.0-9.0-1.0-0.7","7200","2","19","Male","approach_avoid_spark_v1","""event"",""trial"",""time""
""fullscreenenter"",""1"",""3329""
","
","
","""event"",""trial"",""time""
""fullscreenenter"",""1"",""3329""
","
","","","","","","1504","<p> Some animals will become very happy or very angry. </p><p> These animals will make you win or lose LOTS of points. </p><p> Other animals have less strong feelings. </p><p> These animals will make you win or lose small amounts of points. </p>","","0","instructions","","","","","","","","","","",""
"learning-instructions","68","417991","0.0-9.0-1.0-0.8","7200","2","19","Male","approach_avoid_spark_v1","""event"",""trial"",""time""
""fullscreenenter"",""1"",""3329""
","
","
","""event"",""trial"",""time""
""fullscreenenter"",""1"",""3329""
","
","","","","","","1014","<p> If you choose to leave the animal alone, you will not win or lose any points. </p><p>  However, in the center of the screen, you will see the number of points you WOULD HAVE won or lost if you had pet the animal. </p>","","0","instructions","","","","","","","","","","",""
"learning-instructions","69","430695","0.0-9.0-1.0-0.9","7200","2","19","Male","approach_avoid_spark_v1","""event"",""trial"",""time""
""fullscreenenter"",""1"",""3329""
","
","
","""event"",""trial"",""time""
""fullscreenenter"",""1"",""3329""
","
","","","","","","1260","<p> Here is what you might see if you did not pet the animal but the animal wanted to be pet: </p><p style=""color:grey; font-size:50px; display: inline-block; border-spacing: 15px; border-width:3px; border-style:solid; border-color:red"">  &nbsp; 6 &nbsp; </p><p> Remember, in this case, you would not win or lose ANY points because you did not pet the animal.  </p>","","0","instructions","","","","","","","","","","",""
"learning-instructions","70","438420","0.0-9.0-1.0-0.10","7200","2","19","Male","approach_avoid_spark_v1","""event"",""trial"",""time""
""fullscreenenter"",""1"",""3329""
","
","
","""event"",""trial"",""time""
""fullscreenenter"",""1"",""3329""
","
","","","","","","725","<p> Try to make the best choice for each animal because </p><p> at the end of the game, you will earn bonus money based on how many points you earned. </p>","","0","instructions","","","","","","","","","","",""
"learning-instructions","71","447297","0.0-9.0-1.0-0.11","7200","2","19","Male","approach_avoid_spark_v1","""event"",""trial"",""time""
""fullscreenenter"",""1"",""3329""
","
","
","""event"",""trial"",""time""
""fullscreenenter"",""1"",""3329""
","
","","","","","","690","<p> You will have 3 seconds to make each choice. Try to respond before time runs out! </p><p> You will lose 5 points each time you do not make a response. </p>","","0","instructions","","","","","","","","","","",""
"html-keyboard-response","72","447905","0.0-9.0-2.0-0.0","7200","2","19","Male","approach_avoid_spark_v1","""event"",""trial"",""time""
""fullscreenenter"",""1"",""3329""
","
","
","""event"",""trial"",""time""
""fullscreenenter"",""1"",""3329""
","
","","","","","","null","<div style=""font-size:60px;"">+</div>","null","","fixation","","","","","","","","","","",""
"aa-learning-trial","73","450911","0.0-9.0-2.0-1.0","7200","2","19","Male","approach_avoid_spark_v1","""event"",""trial"",""time""
""fullscreenenter"",""1"",""3329""
","
","
","""event"",""trial"",""time""
""fullscreenenter"",""1"",""3329""
","
","","","","","","627","images/rabbit5.png","","","learning","4","4","1","1","rabbit","pets","2","0","","good","[5]"
"html-keyboard-response","74","451418","0.0-9.0-2.0-0.1","7200","2","19","Male","approach_avoid_spark_v1","""event"",""trial"",""time""
""fullscreenenter"",""1"",""3329""
","
","
","""event"",""trial"",""time""
""fullscreenenter"",""1"",""3329""
","
","","","","","","null","<div style=""font-size:60px;"">+</div>","null","","fixation","","","","","","","","","","",""
"aa-learning-trial","75","454431","0.0-9.0-2.0-1.1","7200","2","19","Male","approach_avoid_spark_v1","""event"",""trial"",""time""
""fullscreenenter"",""1"",""3329""
","
","
","""event"",""trial"",""time""
""fullscreenenter"",""1"",""3329""
","
","","","","","","537","images/cat2.png","","","learning","3","3","1","1","cat","pets","2","0","","bad","[-5]"
"html-keyboard-response","76","454945","0.0-9.0-2.0-0.2","7200","2","19","Male","approach_avoid_spark_v1","""event"",""trial"",""time""
""fullscreenenter"",""1"",""3329""
","
","
","""event"",""trial"",""time""
""fullscreenenter"",""1"",""3329""
","
","","","","","","null","<div style=""font-size:60px;"">+</div>","null","","fixation","","","","","","","","","","",""
"aa-learning-trial","77","457957","0.0-9.0-2.0-1.2","7200","2","19","Male","approach_avoid_spark_v1","""event"",""trial"",""time""
""fullscreenenter"",""1"",""3329""
","
","
","""event"",""trial"",""time""
""fullscreenenter"",""1"",""3329""
","
","","","","","","641","images/rodent8.png","","","learning","5","-5","2","","rodent","pets","2","0","","neutral","0"
"html-keyboard-response","78","458473","0.0-9.0-2.0-0.3","7200","2","19","Male","approach_avoid_spark_v1","""event"",""trial"",""time""
""fullscreenenter"",""1"",""3329""
","
","
","""event"",""trial"",""time""
""fullscreenenter"",""1"",""3329""
","
","","","","","","null","<div style=""font-size:60px;"">+</div>","null","","fixation","","","","","","","","","","",""
"aa-learning-trial","79","461477","0.0-9.0-2.0-1.3","7200","2","19","Male","approach_avoid_spark_v1","""event"",""trial"",""time""
""fullscreenenter"",""1"",""3329""
","
","
","""event"",""trial"",""time""
""fullscreenenter"",""1"",""3329""
","
","","","","","","626","images/rabbit2.png","","","learning","-5","-5","1","1","rabbit","pets","2","0","","good","[5]"
"html-keyboard-response","80","461992","0.0-9.0-2.0-0.4","7200","2","19","Male","approach_avoid_spark_v1","""event"",""trial"",""time""
""fullscreenenter"",""1"",""3329""
","
","
","""event"",""trial"",""time""
""fullscreenenter"",""1"",""3329""
","
","","","","","","null","<div style=""font-size:60px;"">+</div>","null","","fixation","","","","","","","","","","",""
"aa-learning-trial","81","465003","0.0-9.0-2.0-1.4","7200","2","19","Male","approach_avoid_spark_v1","""event"",""trial"",""time""
""fullscreenenter"",""1"",""3329""
","
","
","""event"",""trial"",""time""
""fullscreenenter"",""1"",""3329""
","
","","","","","","498","images/rabbit4.png","","","learning","-6","-6","1","1","rabbit","pets","2","0","","good","[5]"
"html-keyboard-response","82","465520","0.0-9.0-2.0-0.5","7200","2","19","Male","approach_avoid_spark_v1","""event"",""trial"",""time""
""fullscreenenter"",""1"",""3329""
","
","
","""event"",""trial"",""time""
""fullscreenenter"",""1"",""3329""
","
","","","","","","null","<div style=""font-size:60px;"">+</div>","null","","fixation","","","","","","","","","","",""
"aa-learning-trial","83","468530","0.0-9.0-2.0-1.5","7200","2","19","Male","approach_avoid_spark_v1","""event"",""trial"",""time""
""fullscreenenter"",""1"",""3329""
","
","
","""event"",""trial"",""time""
""fullscreenenter"",""1"",""3329""
","
","","","","","","778","images/rodent6.png","","","learning","-8","0","0","0","rodent","pets","2","0","","neutral","0"
"html-keyboard-response","84","469045","0.0-9.0-2.0-0.6","7200","2","19","Male","approach_avoid_spark_v1","""event"",""trial"",""time""
""fullscreenenter"",""1"",""3329""
","
","
","""event"",""trial"",""time""
""fullscreenenter"",""1"",""3329""
","
","","","","","","null","<div style=""font-size:60px;"">+</div>","null","","fixation","","","","","","","","","","",""
"aa-learning-trial","85","472054","0.0-9.0-2.0-1.6","7200","2","19","Male","approach_avoid_spark_v1","""event"",""trial"",""time""
""fullscreenenter"",""1"",""3329""
","
","
","""event"",""trial"",""time""
""fullscreenenter"",""1"",""3329""
","
","","","","","","747","images/rabbit4.png","","","learning","-6","0","0","0","rabbit","pets","2","0","","good","[5]"
"html-keyboard-response","86","472567","0.0-9.0-2.0-0.7","7200","2","19","Male","approach_avoid_spark_v1","""event"",""trial"",""time""
""fullscreenenter"",""1"",""3329""
","
","
","""event"",""trial"",""time""
""fullscreenenter"",""1"",""3329""
","
","","","","","","null","<div style=""font-size:60px;"">+</div>","null","","fixation","","","","","","","","","","",""
"aa-learning-trial","87","475576","0.0-9.0-2.0-1.7","7200","2","19","Male","approach_avoid_spark_v1","""event"",""trial"",""time""
""fullscreenenter"",""1"",""3329""
","
","
","""event"",""trial"",""time""
""fullscreenenter"",""1"",""3329""
","
","","","","","","595","images/cat4.png","","","learning","-3","-3","1","1","cat","pets","2","0","","bad","[-5]"
"html-keyboard-response","88","476089","0.0-9.0-2.0-0.8","7200","2","19","Male","approach_avoid_spark_v1","""event"",""trial"",""time""
""fullscreenenter"",""1"",""3329""
","
","
","""event"",""trial"",""time""
""fullscreenenter"",""1"",""3329""
","
","","","","","","null","<div style=""font-size:60px;"">+</div>","null","","fixation","","","","","","","","","","",""
"aa-learning-trial","89","479091","0.0-9.0-2.0-1.8","7200","2","19","Male","approach_avoid_spark_v1","""event"",""trial"",""time""
""fullscreenenter"",""1"",""3329""
","
","
","""event"",""trial"",""time""
""fullscreenenter"",""1"",""3329""
","
","","","","","","649","images/rodent5.png","","","learning","7","0","0","0","rodent","pets","2","0","","neutral","0"
"html-keyboard-response","90","479594","0.0-9.0-2.0-0.9","7200","2","19","Male","approach_avoid_spark_v1","""event"",""trial"",""time""
""fullscreenenter"",""1"",""3329""
","
","
","""event"",""trial"",""time""
""fullscreenenter"",""1"",""3329""
","
","","","","","","null","<div style=""font-size:60px;"">+</div>","null","","fixation","","","","","","","","","","",""
"aa-learning-trial","91","482596","0.0-9.0-2.0-1.9","7200","2","19","Male","approach_avoid_spark_v1","""event"",""trial"",""time""
""fullscreenenter"",""1"",""3329""
","
","
","""event"",""trial"",""time""
""fullscreenenter"",""1"",""3329""
","
","","","","","","612","images/cat7.png","","","learning","6","6","1","1","cat","pets","2","0","","bad","[-5]"
"html-keyboard-response","92","483096","0.0-9.0-2.0-0.10","7200","2","19","Male","approach_avoid_spark_v1","""event"",""trial"",""time""
""fullscreenenter"",""1"",""3329""
","
","
","""event"",""trial"",""time""
""fullscreenenter"",""1"",""3329""
","
","","","","","","null","<div style=""font-size:60px;"">+</div>","null","","fixation","","","","","","","","","","",""
"aa-learning-trial","93","486104","0.0-9.0-2.0-1.10","7200","2","19","Male","approach_avoid_spark_v1","""event"",""trial"",""time""
""fullscreenenter"",""1"",""3329""
","
","
","""event"",""trial"",""time""
""fullscreenenter"",""1"",""3329""
","
","","","","","","569","images/cat2.png","","","learning","3","3","1","1","cat","pets","2","0","","bad","[-5]"
"html-keyboard-response","94","486605","0.0-9.0-2.0-0.11","7200","2","19","Male","approach_avoid_spark_v1","""event"",""trial"",""time""
""fullscreenenter"",""1"",""3329""
","
","
","""event"",""trial"",""time""
""fullscreenenter"",""1"",""3329""
","
","","","","","","null","<div style=""font-size:60px;"">+</div>","null","","fixation","","","","","","","","","","",""
"aa-learning-trial","95","489608","0.0-9.0-2.0-1.11","7200","2","19","Male","approach_avoid_spark_v1","""event"",""trial"",""time""
""fullscreenenter"",""1"",""3329""
","
","
","""event"",""trial"",""time""
""fullscreenenter"",""1"",""3329""
","
","","","","","","468","images/rodent5.png","","","learning","7","0","0","0","rodent","pets","2","0","","neutral","0"
"html-keyboard-response","96","490110","0.0-9.0-2.0-0.12","7200","2","19","Male","approach_avoid_spark_v1","""event"",""trial"",""time""
""fullscreenenter"",""1"",""3329""
","
","
","""event"",""trial"",""time""
""fullscreenenter"",""1"",""3329""
","
","","","","","","null","<div style=""font-size:60px;"">+</div>","null","","fixation","","","","","","","","","","",""
"aa-learning-trial","97","493112","0.0-9.0-2.0-1.12","7200","2","19","Male","approach_avoid_spark_v1","""event"",""trial"",""time""
""fullscreenenter"",""1"",""3329""
","
","
","""event"",""trial"",""time""
""fullscreenenter"",""1"",""3329""
","
","","","","","","740","images/rabbit2.png","","","learning","-5","-5","1","1","rabbit","pets","2","0","","good","[5]"
"html-keyboard-response","98","493613","0.0-9.0-2.0-0.13","7200","2","19","Male","approach_avoid_spark_v1","""event"",""trial"",""time""
""fullscreenenter"",""1"",""3329""
","
","
","""event"",""trial"",""time""
""fullscreenenter"",""1"",""3329""
","
","","","","","","null","<div style=""font-size:60px;"">+</div>","null","","fixation","","","","","","","","","","",""
"aa-learning-trial","99","496616","0.0-9.0-2.0-1.13","7200","2","19","Male","approach_avoid_spark_v1","""event"",""trial"",""time""
""fullscreenenter"",""1"",""3329""
","
","
","""event"",""trial"",""time""
""fullscreenenter"",""1"",""3329""
","
","","","","","","613","images/rodent6.png","","","learning","-8","0","0","0","rodent","pets","2","0","","neutral","0"
"html-keyboard-response","100","497117","0.0-9.0-2.0-0.14","7200","2","19","Male","approach_avoid_spark_v1","""event"",""trial"",""time""
""fullscreenenter"",""1"",""3329""
","
","
","""event"",""trial"",""time""
""fullscreenenter"",""1"",""3329""
","
","","","","","","null","<div style=""font-size:60px;"">+</div>","null","","fixation","","","","","","","","","","",""
"aa-learning-trial","101","500121","0.0-9.0-2.0-1.14","7200","2","19","Male","approach_avoid_spark_v1","""event"",""trial"",""time""
""fullscreenenter"",""1"",""3329""
","
","
","""event"",""trial"",""time""
""fullscreenenter"",""1"",""3329""
","
","","","","","","749","images/cat4.png","","","learning","-3","0","0","0","cat","pets","2","0","","bad","[-5]"
"html-keyboard-response","102","500622","0.0-9.0-2.0-0.15","7200","2","19","Male","approach_avoid_spark_v1","""event"",""trial"",""time""
""fullscreenenter"",""1"",""3329""
","
","
","""event"",""trial"",""time""
""fullscreenenter"",""1"",""3329""
","
","","","","","","null","<div style=""font-size:60px;"">+</div>","null","","fixation","","","","","","","","","","",""
"aa-learning-trial","103","503624","0.0-9.0-2.0-1.15","7200","2","19","Male","approach_avoid_spark_v1","""event"",""trial"",""time""
""fullscreenenter"",""1"",""3329""
","
","
","""event"",""trial"",""time""
""fullscreenenter"",""1"",""3329""
","
","","","","","","629","images/cat8.png","","","learning","-2","-2","1","1","cat","pets","2","0","","bad","[-5]"
"html-keyboard-response","104","504125","0.0-9.0-2.0-0.16","7200","2","19","Male","approach_avoid_spark_v1","""event"",""trial"",""time""
""fullscreenenter"",""1"",""3329""
","
","
","""event"",""trial"",""time""
""fullscreenenter"",""1"",""3329""
","
","","","","","","null","<div style=""font-size:60px;"">+</div>","null","","fixation","","","","","","","","","","",""
"aa-learning-trial","105","507129","0.0-9.0-2.0-1.16","7200","2","19","Male","approach_avoid_spark_v1","""event"",""trial"",""time""
""fullscreenenter"",""1"",""3329""
","
","
","""event"",""trial"",""time""
""fullscreenenter"",""1"",""3329""
","
","","","","","","552","images/rodent3.png","","","learning","2","0","0","0","rodent","pets","2","0","","neutral","0"
"html-keyboard-response","106","507631","0.0-9.0-2.0-0.17","7200","2","19","Male","approach_avoid_spark_v1","""event"",""trial"",""time""
""fullscreenenter"",""1"",""3329""
","
","
","""event"",""trial"",""time""
""fullscreenenter"",""1"",""3329""
","
","","","","","","null","<div style=""font-size:60px;"">+</div>","null","","fixation","","","","","","","","","","",""
"aa-learning-trial","107","510634","0.0-9.0-2.0-1.17","7200","2","19","Male","approach_avoid_spark_v1","""event"",""trial"",""time""
""fullscreenenter"",""1"",""3329""
","
","
","""event"",""trial"",""time""
""fullscreenenter"",""1"",""3329""
","
","","","","","","809","images/cat2.png","","","learning","3","3","1","1","cat","pets","2","0","","bad","[-5]"
"html-keyboard-response","108","511136","0.0-9.0-2.0-0.18","7200","2","19","Male","approach_avoid_spark_v1","""event"",""trial"",""time""
""fullscreenenter"",""1"",""3329""
","
","
","""event"",""trial"",""time""
""fullscreenenter"",""1"",""3329""
","
","","","","","","null","<div style=""font-size:60px;"">+</div>","null","","fixation","","","","","","","","","","",""
"aa-learning-trial","109","514138","0.0-9.0-2.0-1.18","7200","2","19","Male","approach_avoid_spark_v1","""event"",""trial"",""time""
""fullscreenenter"",""1"",""3329""
","
","
","""event"",""trial"",""time""
""fullscreenenter"",""1"",""3329""
","
","","","","","","658","images/cat6.png","","","learning","-9","0","0","0","cat","pets","2","0","","bad","[-5]"
"html-keyboard-response","110","514640","0.0-9.0-2.0-0.19","7200","2","19","Male","approach_avoid_spark_v1","""event"",""trial"",""time""
""fullscreenenter"",""1"",""3329""
","
","
","""event"",""trial"",""time""
""fullscreenenter"",""1"",""3329""
","
","","","","","","null","<div style=""font-size:60px;"">+</div>","null","","fixation","","","","","","","","","","",""
"aa-learning-trial","111","517642","0.0-9.0-2.0-1.19","7200","2","19","Male","approach_avoid_spark_v1","""event"",""trial"",""time""
""fullscreenenter"",""1"",""3329""
","
","
","""event"",""trial"",""time""
""fullscreenenter"",""1"",""3329""
","
","","","","","","582","images/rodent5.png","","","learning","7","0","0","0","rodent","pets","2","0","","neutral","0"
"html-keyboard-response","112","518143","0.0-9.0-2.0-0.20","7200","2","19","Male","approach_avoid_spark_v1","""event"",""trial"",""time""
""fullscreenenter"",""1"",""3329""
","
","
","""event"",""trial"",""time""
""fullscreenenter"",""1"",""3329""
","
","","","","","","null","<div style=""font-size:60px;"">+</div>","null","","fixation","","","","","","","","","","",""
"aa-learning-trial","113","521145","0.0-9.0-2.0-1.20","7200","2","19","Male","approach_avoid_spark_v1","""event"",""trial"",""time""
""fullscreenenter"",""1"",""3329""
","
","
","""event"",""trial"",""time""
""fullscreenenter"",""1"",""3329""
","
","","","","","","658","images/rabbit4.png","","","learning","-6","0","0","0","rabbit","pets","2","0","","good","[5]"
"html-keyboard-response","114","521646","0.0-9.0-2.0-0.21","7200","2","19","Male","approach_avoid_spark_v1","""event"",""trial"",""time""
""fullscreenenter"",""1"",""3329""
","
","
","""event"",""trial"",""time""
""fullscreenenter"",""1"",""3329""
","
","","","","","","null","<div style=""font-size:60px;"">+</div>","null","","fixation","","","","","","","","","","",""
"aa-learning-trial","115","524648","0.0-9.0-2.0-1.21","7200","2","19","Male","approach_avoid_spark_v1","""event"",""trial"",""time""
""fullscreenenter"",""1"",""3329""
","
","
","""event"",""trial"",""time""
""fullscreenenter"",""1"",""3329""
","
","","","","","","514","images/rabbit2.png","","","learning","-5","-5","1","1","rabbit","pets","2","0","","good","[5]"
"html-keyboard-response","116","525149","0.0-9.0-2.0-0.22","7200","2","19","Male","approach_avoid_spark_v1","""event"",""trial"",""time""
""fullscreenenter"",""1"",""3329""
","
","
","""event"",""trial"",""time""
""fullscreenenter"",""1"",""3329""
","
","","","","","","null","<div style=""font-size:60px;"">+</div>","null","","fixation","","","","","","","","","","",""
"aa-learning-trial","117","528154","0.0-9.0-2.0-1.22","7200","2","19","Male","approach_avoid_spark_v1","""event"",""trial"",""time""
""fullscreenenter"",""1"",""3329""
","
","
","""event"",""trial"",""time""
""fullscreenenter"",""1"",""3329""
","
","","","","","","747","images/cat4.png","","","learning","-3","0","0","0","cat","pets","2","0","","bad","[-5]"
"html-keyboard-response","118","528656","0.0-9.0-2.0-0.23","7200","2","19","Male","approach_avoid_spark_v1","""event"",""trial"",""time""
""fullscreenenter"",""1"",""3329""
","
","
","""event"",""trial"",""time""
""fullscreenenter"",""1"",""3329""
","
","","","","","","null","<div style=""font-size:60px;"">+</div>","null","","fixation","","","","","","","","","","",""
"aa-learning-trial","119","531658","0.0-9.0-2.0-1.23","7200","2","19","Male","approach_avoid_spark_v1","""event"",""trial"",""time""
""fullscreenenter"",""1"",""3329""
","
","
","""event"",""trial"",""time""
""fullscreenenter"",""1"",""3329""
","
","","","","","","765","images/rabbit5.png","","","learning","4","4","1","1","rabbit","pets","2","0","","good","[5]"
"html-keyboard-response","120","532161","0.0-9.0-2.0-0.24","7200","2","19","Male","approach_avoid_spark_v1","""event"",""trial"",""time""
""fullscreenenter"",""1"",""3329""
","
","
","""event"",""trial"",""time""
""fullscreenenter"",""1"",""3329""
","
","","","","","","null","<div style=""font-size:60px;"">+</div>","null","","fixation","","","","","","","","","","",""
"aa-learning-trial","121","535162","0.0-9.0-2.0-1.24","7200","2","19","Male","approach_avoid_spark_v1","""event"",""trial"",""time""
""fullscreenenter"",""1"",""3329""
","
","
","""event"",""trial"",""time""
""fullscreenenter"",""1"",""3329""
","
","","","","","","722","images/rabbit1.png","","","learning","9","0","0","0","rabbit","pets","2","0","","good","[5]"
"html-keyboard-response","122","535664","0.0-9.0-2.0-0.25","7200","2","19","Male","approach_avoid_spark_v1","""event"",""trial"",""time""
""fullscreenenter"",""1"",""3329""
","
","
","""event"",""trial"",""time""
""fullscreenenter"",""1"",""3329""
","
","","","","","","null","<div style=""font-size:60px;"">+</div>","null","","fixation","","","","","","","","","","",""
"aa-learning-trial","123","538666","0.0-9.0-2.0-1.25","7200","2","19","Male","approach_avoid_spark_v1","""event"",""trial"",""time""
""fullscreenenter"",""1"",""3329""
","
","
","""event"",""trial"",""time""
""fullscreenenter"",""1"",""3329""
","
","","","","","","667","images/rabbit2.png","","","learning","-5","0","0","0","rabbit","pets","2","0","","good","[5]"
"html-keyboard-response","124","539168","0.0-9.0-2.0-0.26","7200","2","19","Male","approach_avoid_spark_v1","""event"",""trial"",""time""
""fullscreenenter"",""1"",""3329""
","
","
","""event"",""trial"",""time""
""fullscreenenter"",""1"",""3329""
","
","","","","","","null","<div style=""font-size:60px;"">+</div>","null","","fixation","","","","","","","","","","",""
"aa-learning-trial","125","542171","0.0-9.0-2.0-1.26","7200","2","19","Male","approach_avoid_spark_v1","""event"",""trial"",""time""
""fullscreenenter"",""1"",""3329""
","
","
","""event"",""trial"",""time""
""fullscreenenter"",""1"",""3329""
","
","","","","","","514","images/rabbit2.png","","","learning","-5","0","0","0","rabbit","pets","2","0","","good","[5]"
"html-keyboard-response","126","542674","0.0-9.0-2.0-0.27","7200","2","19","Male","approach_avoid_spark_v1","""event"",""trial"",""time""
""fullscreenenter"",""1"",""3329""
","
","
","""event"",""trial"",""time""
""fullscreenenter"",""1"",""3329""
","
","","","","","","null","<div style=""font-size:60px;"">+</div>","null","","fixation","","","","","","","","","","",""
"aa-learning-trial","127","545676","0.0-9.0-2.0-1.27","7200","2","19","Male","approach_avoid_spark_v1","""event"",""trial"",""time""
""fullscreenenter"",""1"",""3329""
","
","
","""event"",""trial"",""time""
""fullscreenenter"",""1"",""3329""
","
","","","","","","668","images/cat2.png","","","learning","3","3","1","1","cat","pets","2","0","","bad","[-5]"
"html-keyboard-response","128","546177","0.0-9.0-2.0-0.28","7200","2","19","Male","approach_avoid_spark_v1","""event"",""trial"",""time""
""fullscreenenter"",""1"",""3329""
","
","
","""event"",""trial"",""time""
""fullscreenenter"",""1"",""3329""
","
","","","","","","null","<div style=""font-size:60px;"">+</div>","null","","fixation","","","","","","","","","","",""
"aa-learning-trial","129","549189","0.0-9.0-2.0-1.28","7200","2","19","Male","approach_avoid_spark_v1","""event"",""trial"",""time""
""fullscreenenter"",""1"",""3329""
","
","
","""event"",""trial"",""time""
""fullscreenenter"",""1"",""3329""
","
","","","","","","515","images/rodent5.png","","","learning","7","0","0","0","rodent","pets","2","0","","neutral","0"
"html-keyboard-response","130","549691","0.0-9.0-2.0-0.29","7200","2","19","Male","approach_avoid_spark_v1","""event"",""trial"",""time""
""fullscreenenter"",""1"",""3329""
","
","
","""event"",""trial"",""time""
""fullscreenenter"",""1"",""3329""
","
","","","","","","null","<div style=""font-size:60px;"">+</div>","null","","fixation","","","","","","","","","","",""
"aa-learning-trial","131","552693","0.0-9.0-2.0-1.29","7200","2","19","Male","approach_avoid_spark_v1","""event"",""trial"",""time""
""fullscreenenter"",""1"",""3329""
","
","
","""event"",""trial"",""time""
""fullscreenenter"",""1"",""3329""
","
","","","","","","687","images/cat7.png","","","learning","6","0","0","0","cat","pets","2","0","","bad","[-5]"
"html-keyboard-response","132","553195","0.0-9.0-2.0-0.30","7200","2","19","Male","approach_avoid_spark_v1","""event"",""trial"",""time""
""fullscreenenter"",""1"",""3329""
","
","
","""event"",""trial"",""time""
""fullscreenenter"",""1"",""3329""
","
","","","","","","null","<div style=""font-size:60px;"">+</div>","null","","fixation","","","","","","","","","","",""
"aa-learning-trial","133","556199","0.0-9.0-2.0-1.30","7200","2","19","Male","approach_avoid_spark_v1","""event"",""trial"",""time""
""fullscreenenter"",""1"",""3329""
","
","
","""event"",""trial"",""time""
""fullscreenenter"",""1"",""3329""
","
","","","","","","628","images/rabbit4.png","","","learning","-6","0","0","0","rabbit","pets","2","0","","good","[5]"
"html-keyboard-response","134","556701","0.0-9.0-2.0-0.31","7200","2","19","Male","approach_avoid_spark_v1","""event"",""trial"",""time""
""fullscreenenter"",""1"",""3329""
","
","
","""event"",""trial"",""time""
""fullscreenenter"",""1"",""3329""
","
","","","","","","null","<div style=""font-size:60px;"">+</div>","null","","fixation","","","","","","","","","","",""
"aa-learning-trial","135","559704","0.0-9.0-2.0-1.31","7200","2","19","Male","approach_avoid_spark_v1","""event"",""trial"",""time""
""fullscreenenter"",""1"",""3329""
","
","
","""event"",""trial"",""time""
""fullscreenenter"",""1"",""3329""
","
","","","","","","667","images/rodent8.png","","","learning","5","0","0","0","rodent","pets","2","0","","neutral","0"
"html-keyboard-response","136","560205","0.0-9.0-2.0-0.32","7200","2","19","Male","approach_avoid_spark_v1","""event"",""trial"",""time""
""fullscreenenter"",""1"",""3329""
","
","
","""event"",""trial"",""time""
""fullscreenenter"",""1"",""3329""
","
","","","","","","null","<div style=""font-size:60px;"">+</div>","null","","fixation","","","","","","","","","","",""
"aa-learning-trial","137","563208","0.0-9.0-2.0-1.32","7200","2","19","Male","approach_avoid_spark_v1","""event"",""trial"",""time""
""fullscreenenter"",""1"",""3329""
","
","
","""event"",""trial"",""time""
""fullscreenenter"",""1"",""3329""
","
","","","","","","844","images/rabbit5.png","","","learning","4","4","1","1","rabbit","pets","2","0","","good","[5]"
"html-keyboard-response","138","563708","0.0-9.0-2.0-0.33","7200","2","19","Male","approach_avoid_spark_v1","""event"",""trial"",""time""
""fullscreenenter"",""1"",""3329""
","
","
","""event"",""trial"",""time""
""fullscreenenter"",""1"",""3329""
","
","","","","","","null","<div style=""font-size:60px;"">+</div>","null","","fixation","","","","","","","","","","",""
"aa-learning-trial","139","566709","0.0-9.0-2.0-1.33","7200","2","19","Male","approach_avoid_spark_v1","""event"",""trial"",""time""
""fullscreenenter"",""1"",""3329""
","
","
","""event"",""trial"",""time""
""fullscreenenter"",""1"",""3329""
","
","","","","","","581","images/rodent5.png","","","learning","7","7","1","1","rodent","pets","2","0","","neutral","0"
"html-keyboard-response","140","567210","0.0-9.0-2.0-0.34","7200","2","19","Male","approach_avoid_spark_v1","""event"",""trial"",""time""
""fullscreenenter"",""1"",""3329""
","
","
","""event"",""trial"",""time""
""fullscreenenter"",""1"",""3329""
","
","","","","","","null","<div style=""font-size:60px;"">+</div>","null","","fixation","","","","","","","","","","",""
"aa-learning-trial","141","570214","0.0-9.0-2.0-1.34","7200","2","19","Male","approach_avoid_spark_v1","""event"",""trial"",""time""
""fullscreenenter"",""1"",""3329""
","
","
","""event"",""trial"",""time""
""fullscreenenter"",""1"",""3329""
","
","","","","","","725","images/cat4.png","","","learning","-3","0","0","0","cat","pets","2","0","","bad","[-5]"
"html-keyboard-response","142","570715","0.0-9.0-2.0-0.35","7200","2","19","Male","approach_avoid_spark_v1","""event"",""trial"",""time""
""fullscreenenter"",""1"",""3329""
","
","
","""event"",""trial"",""time""
""fullscreenenter"",""1"",""3329""
","
","","","","","","null","<div style=""font-size:60px;"">+</div>","null","","fixation","","","","","","","","","","",""
"aa-learning-trial","143","573718","0.0-9.0-2.0-1.35","7200","2","19","Male","approach_avoid_spark_v1","""event"",""trial"",""time""
""fullscreenenter"",""1"",""3329""
","
","
","""event"",""trial"",""time""
""fullscreenenter"",""1"",""3329""
","
","","","","","","807","images/rabbit4.png","","","learning","-6","0","0","0","rabbit","pets","2","0","","good","[5]"
"html-keyboard-response","144","574220","0.0-9.0-2.0-0.36","7200","2","19","Male","approach_avoid_spark_v1","""event"",""trial"",""time""
""fullscreenenter"",""1"",""3329""
","
","
","""event"",""trial"",""time""
""fullscreenenter"",""1"",""3329""
","
","","","","","","null","<div style=""font-size:60px;"">+</div>","null","","fixation","","","","","","","","","","",""
"aa-learning-trial","145","577222","0.0-9.0-2.0-1.36","7200","2","19","Male","approach_avoid_spark_v1","""event"",""trial"",""time""
""fullscreenenter"",""1"",""3329""
","
","
","""event"",""trial"",""time""
""fullscreenenter"",""1"",""3329""
","
","","","","","","718","images/rodent6.png","","","learning","-8","0","0","0","rodent","pets","2","0","","neutral","0"
"html-keyboard-response","146","577723","0.0-9.0-2.0-0.37","7200","2","19","Male","approach_avoid_spark_v1","""event"",""trial"",""time""
""fullscreenenter"",""1"",""3329""
","
","
","""event"",""trial"",""time""
""fullscreenenter"",""1"",""3329""
","
","","","","","","null","<div style=""font-size:60px;"">+</div>","null","","fixation","","","","","","","","","","",""
"aa-learning-trial","147","580726","0.0-9.0-2.0-1.37","7200","2","19","Male","approach_avoid_spark_v1","""event"",""trial"",""time""
""fullscreenenter"",""1"",""3329""
","
","
","""event"",""trial"",""time""
""fullscreenenter"",""1"",""3329""
","
","","","","","","590","images/cat2.png","","","learning","3","3","1","1","cat","pets","2","0","","bad","[-5]"
"html-keyboard-response","148","581227","0.0-9.0-2.0-0.38","7200","2","19","Male","approach_avoid_spark_v1","""event"",""trial"",""time""
""fullscreenenter"",""1"",""3329""
","
","
","""event"",""trial"",""time""
""fullscreenenter"",""1"",""3329""
","
","","","","","","null","<div style=""font-size:60px;"">+</div>","null","","fixation","","","","","","","","","","",""
"aa-learning-trial","149","584229","0.0-9.0-2.0-1.38","7200","2","19","Male","approach_avoid_spark_v1","""event"",""trial"",""time""
""fullscreenenter"",""1"",""3329""
","
","
","""event"",""trial"",""time""
""fullscreenenter"",""1"",""3329""
","
","","","","","","542","images/rodent6.png","","","learning","-8","0","0","0","rodent","pets","2","0","","neutral","0"
"html-keyboard-response","150","584731","0.0-9.0-2.0-0.39","7200","2","19","Male","approach_avoid_spark_v1","""event"",""trial"",""time""
""fullscreenenter"",""1"",""3329""
","
","
","""event"",""trial"",""time""
""fullscreenenter"",""1"",""3329""
","
","","","","","","null","<div style=""font-size:60px;"">+</div>","null","","fixation","","","","","","","","","","",""
"aa-learning-trial","151","587733","0.0-9.0-2.0-1.39","7200","2","19","Male","approach_avoid_spark_v1","""event"",""trial"",""time""
""fullscreenenter"",""1"",""3329""
","
","
","""event"",""trial"",""time""
""fullscreenenter"",""1"",""3329""
","
","","","","","","591","images/rodent8.png","","","learning","5","5","1","1","rodent","pets","2","0","","neutral","0"
"html-keyboard-response","152","588235","0.0-9.0-2.0-0.40","7200","2","19","Male","approach_avoid_spark_v1","""event"",""trial"",""time""
""fullscreenenter"",""1"",""3329""
","
","
","""event"",""trial"",""time""
""fullscreenenter"",""1"",""3329""
","
","","","","","","null","<div style=""font-size:60px;"">+</div>","null","","fixation","","","","","","","","","","",""
"aa-learning-trial","153","591240","0.0-9.0-2.0-1.40","7200","2","19","Male","approach_avoid_spark_v1","""event"",""trial"",""time""
""fullscreenenter"",""1"",""3329""
","
","
","""event"",""trial"",""time""
""fullscreenenter"",""1"",""3329""
","
","","","","","","523","images/rodent6.png","","","learning","-8","0","0","0","rodent","pets","2","0","","neutral","0"
"html-keyboard-response","154","591742","0.0-9.0-2.0-0.41","7200","2","19","Male","approach_avoid_spark_v1","""event"",""trial"",""time""
""fullscreenenter"",""1"",""3329""
","
","
","""event"",""trial"",""time""
""fullscreenenter"",""1"",""3329""
","
","","","","","","null","<div style=""font-size:60px;"">+</div>","null","","fixation","","","","","","","","","","",""
"aa-learning-trial","155","594744","0.0-9.0-2.0-1.41","7200","2","19","Male","approach_avoid_spark_v1","""event"",""trial"",""time""
""fullscreenenter"",""1"",""3329""
","
","
","""event"",""trial"",""time""
""fullscreenenter"",""1"",""3329""
","
","","","","","","636","images/cat4.png","","","learning","-3","0","0","0","cat","pets","2","0","","bad","[-5]"
"html-keyboard-response","156","595247","0.0-9.0-2.0-0.42","7200","2","19","Male","approach_avoid_spark_v1","""event"",""trial"",""time""
""fullscreenenter"",""1"",""3329""
","
","
","""event"",""trial"",""time""
""fullscreenenter"",""1"",""3329""
","
","","","","","","null","<div style=""font-size:60px;"">+</div>","null","","fixation","","","","","","","","","","",""
"aa-learning-trial","157","598249","0.0-9.0-2.0-1.42","7200","2","19","Male","approach_avoid_spark_v1","""event"",""trial"",""time""
""fullscreenenter"",""1"",""3329""
","
","
","""event"",""trial"",""time""
""fullscreenenter"",""1"",""3329""
","
","","","","","","547","images/rodent6.png","","","learning","-8","0","0","0","rodent","pets","2","0","","neutral","0"
"html-keyboard-response","158","598751","0.0-9.0-2.0-0.43","7200","2","19","Male","approach_avoid_spark_v1","""event"",""trial"",""time""
""fullscreenenter"",""1"",""3329""
","
","
","""event"",""trial"",""time""
""fullscreenenter"",""1"",""3329""
","
","","","","","","null","<div style=""font-size:60px;"">+</div>","null","","fixation","","","","","","","","","","",""
"aa-learning-trial","159","601753","0.0-9.0-2.0-1.43","7200","2","19","Male","approach_avoid_spark_v1","""event"",""trial"",""time""
""fullscreenenter"",""1"",""3329""
","
","
","""event"",""trial"",""time""
""fullscreenenter"",""1"",""3329""
","
","","","","","","889","images/rodent1.png","","","learning","-4","0","0","0","rodent","pets","2","0","","neutral","0"
"html-keyboard-response","160","602255","0.0-9.0-2.0-0.44","7200","2","19","Male","approach_avoid_spark_v1","""event"",""trial"",""time""
""fullscreenenter"",""1"",""3329""
","
","
","""event"",""trial"",""time""
""fullscreenenter"",""1"",""3329""
","
","","","","","","null","<div style=""font-size:60px;"">+</div>","null","","fixation","","","","","","","","","","",""
"aa-learning-trial","161","605257","0.0-9.0-2.0-1.44","7200","2","19","Male","approach_avoid_spark_v1","""event"",""trial"",""time""
""fullscreenenter"",""1"",""3329""
","
","
","""event"",""trial"",""time""
""fullscreenenter"",""1"",""3329""
","
","","","","","","1201","images/rabbit2.png","","","learning","-5","-5","1","1","rabbit","pets","2","0","","good","[5]"
"html-keyboard-response","162","605759","0.0-9.0-2.0-0.45","7200","2","19","Male","approach_avoid_spark_v1","""event"",""trial"",""time""
""fullscreenenter"",""1"",""3329""
","
","
","""event"",""trial"",""time""
""fullscreenenter"",""1"",""3329""
","
","","","","","","null","<div style=""font-size:60px;"">+</div>","null","","fixation","","","","","","","","","","",""
"aa-learning-trial","163","608761","0.0-9.0-2.0-1.45","7200","2","19","Male","approach_avoid_spark_v1","""event"",""trial"",""time""
""fullscreenenter"",""1"",""3329""
","
","
","""event"",""trial"",""time""
""fullscreenenter"",""1"",""3329""
","
","","","","","","622","images/cat4.png","","","learning","-3","0","0","0","cat","pets","2","0","","bad","[-5]"
"html-keyboard-response","164","609263","0.0-9.0-2.0-0.46","7200","2","19","Male","approach_avoid_spark_v1","""event"",""trial"",""time""
""fullscreenenter"",""1"",""3329""
","
","
","""event"",""trial"",""time""
""fullscreenenter"",""1"",""3329""
","
","","","","","","null","<div style=""font-size:60px;"">+</div>","null","","fixation","","","","","","","","","","",""
"aa-learning-trial","165","612266","0.0-9.0-2.0-1.46","7200","2","19","Male","approach_avoid_spark_v1","""event"",""trial"",""time""
""fullscreenenter"",""1"",""3329""
","
","
","""event"",""trial"",""time""
""fullscreenenter"",""1"",""3329""
","
","","","","","","962","images/rabbit8.png","","","learning","1","0","0","0","rabbit","pets","2","0","","good","[5]"
"html-keyboard-response","166","612769","0.0-9.0-2.0-0.47","7200","2","19","Male","approach_avoid_spark_v1","""event"",""trial"",""time""
""fullscreenenter"",""1"",""3329""
","
","
","""event"",""trial"",""time""
""fullscreenenter"",""1"",""3329""
","
","","","","","","null","<div style=""font-size:60px;"">+</div>","null","","fixation","","","","","","","","","","",""
"aa-learning-trial","167","615771","0.0-9.0-2.0-1.47","7200","2","19","Male","approach_avoid_spark_v1","""event"",""trial"",""time""
""fullscreenenter"",""1"",""3329""
","
","
","""event"",""trial"",""time""
""fullscreenenter"",""1"",""3329""
","
","","","","","","999","images/cat7.png","","","learning","6","0","0","0","cat","pets","2","0","","bad","[-5]"
"html-keyboard-response","168","616273","0.0-9.0-2.0-0.48","7200","2","19","Male","approach_avoid_spark_v1","""event"",""trial"",""time""
""fullscreenenter"",""1"",""3329""
","
","
","""event"",""trial"",""time""
""fullscreenenter"",""1"",""3329""
","
","","","","","","null","<div style=""font-size:60px;"">+</div>","null","","fixation","","","","","","","","","","",""
"aa-learning-trial","169","619276","0.0-9.0-2.0-1.48","7200","2","19","Male","approach_avoid_spark_v1","""event"",""trial"",""time""
""fullscreenenter"",""1"",""3329""
","
","
","""event"",""trial"",""time""
""fullscreenenter"",""1"",""3329""
","
","","","","","","657","images/rabbit4.png","","","learning","-6","0","0","0","rabbit","pets","2","0","","good","[5]"
"html-keyboard-response","170","619777","0.0-9.0-2.0-0.49","7200","2","19","Male","approach_avoid_spark_v1","""event"",""trial"",""time""
""fullscreenenter"",""1"",""3329""
","
","
","""event"",""trial"",""time""
""fullscreenenter"",""1"",""3329""
","
","","","","","","null","<div style=""font-size:60px;"">+</div>","null","","fixation","","","","","","","","","","",""
"aa-learning-trial","171","622780","0.0-9.0-2.0-1.49","7200","2","19","Male","approach_avoid_spark_v1","""event"",""trial"",""time""
""fullscreenenter"",""1"",""3329""
","
","
","""event"",""trial"",""time""
""fullscreenenter"",""1"",""3329""
","
","","","","","","610","images/cat2.png","","","learning","3","3","1","1","cat","pets","2","0","","bad","[-5]"
"html-keyboard-response","172","623294","0.0-9.0-2.0-0.50","7200","2","19","Male","approach_avoid_spark_v1","""event"",""trial"",""time""
""fullscreenenter"",""1"",""3329""
","
","
","""event"",""trial"",""time""
""fullscreenenter"",""1"",""3329""
","
","","","","","","null","<div style=""font-size:60px;"">+</div>","null","","fixation","","","","","","","","","","",""
"aa-learning-trial","173","626299","0.0-9.0-2.0-1.50","7200","2","19","Male","approach_avoid_spark_v1","""event"",""trial"",""time""
""fullscreenenter"",""1"",""3329""
","
","
","""event"",""trial"",""time""
""fullscreenenter"",""1"",""3329""
","
","","","","","","681","images/rodent5.png","","","learning","7","7","1","1","rodent","pets","2","0","","neutral","0"
"html-button-response","174","629435","0.0-9.0-3.0","7200","2","19","Male","approach_avoid_spark_v1","""event"",""trial"",""time""
""fullscreenenter"",""1"",""3329""
","
","
","""event"",""trial"",""time""
""fullscreenenter"",""1"",""3329""
","
","","","","","","3134","<p> You have completed the round! <p> In this round, you earned 19 points! </p>","0","","break","","","","","","","","","","",""
"html-button-response","175","630839","0.0-10.0","7200","2","19","Male","approach_avoid_spark_v1","""event"",""trial"",""time""
""fullscreenenter"",""1"",""3329""
","
","
","""event"",""trial"",""time""
""fullscreenenter"",""1"",""3329""
","
","","","","","","1403","<p> Now it's time to play another round. </p>","0","","transition_screen","","","","","","","","","","",""
"preload","176","630957","0.0-11.0-0.0","7200","2","19","Male","approach_avoid_spark_v1","""event"",""trial"",""time""
""fullscreenenter"",""1"",""3329""
","
","
","""event"",""trial"",""time""
""fullscreenenter"",""1"",""3329""
","
","true","false","[]","[]","[]","","","","","","","","","","","","","","","",""
"learning-instructions","177","636257","0.0-11.0-1.0-0.0","7200","2","19","Male","approach_avoid_spark_v1","""event"",""trial"",""time""
""fullscreenenter"",""1"",""3329""
","
","
","""event"",""trial"",""time""
""fullscreenenter"",""1"",""3329""
","
","","","","","","1720","<p> Your goal in this round is to eat tasty fruit. </p></div>","","0","instructions","","","","","","","","","","",""
"learning-instructions","178","646828","0.0-11.0-1.0-0.1","7200","2","19","Male","approach_avoid_spark_v1","""event"",""trial"",""time""
""fullscreenenter"",""1"",""3329""
","
","
","""event"",""trial"",""time""
""fullscreenenter"",""1"",""3329""
","
","","","","","","1104","<p> Some of the fruits you will see are tasty. Others are rotten on the inside.  </p><p> On each turn, you will see a fruit.   </p><p> You need to decide whether to eat it or not.  </p>","","0","instructions","","","","","","","","","","",""
"learning-instructions","179","653145","0.0-11.0-1.0-0.2","7200","2","19","Male","approach_avoid_spark_v1","""event"",""trial"",""time""
""fullscreenenter"",""1"",""3329""
","
","
","""event"",""trial"",""time""
""fullscreenenter"",""1"",""3329""
","
","","","","","","1560","<p> You can eat the fruit by pressing 1 and choose not to eat it by pressing 0. </p><br><div class=""choice-instructions-grid""> <div class=""choice-option""><img src=""images/approach.png"" class=""choice-option-img"" stage=""instructions"" position=""0"" ><div class=""choice-option-text""> Press ""1."" </div></div><div class=""choice-option""><img src=""images/avoid.png"" class=""choice-option-img"" stage=""instructions"" position=""1"" ><div class=""choice-option-text""> Press ""0."" </div></div>","","0","instructions","","","","","","","","","","",""
"learning-instructions","180","660751","0.0-11.0-1.0-0.3","7200","2","19","Male","approach_avoid_spark_v1","""event"",""trial"",""time""
""fullscreenenter"",""1"",""3329""
","
","
","""event"",""trial"",""time""
""fullscreenenter"",""1"",""3329""
","
","","","","","","407","<p> If you eat the fruit and it was tasty, you will win points! </p><p> But if you eat the fruit and it was rotten, you will lose points. </p>","","0","instructions","","","","","","","","","","",""
"learning-instructions","181","672365","0.0-11.0-1.0-0.4","7200","2","19","Male","approach_avoid_spark_v1","""event"",""trial"",""time""
""fullscreenenter"",""1"",""3329""
","
","
","""event"",""trial"",""time""
""fullscreenenter"",""1"",""3329""
","
","","","","","","610","<p> You will earn points based on how tasty or rotten the fruit was. </p><p> If it was tasty, you will WIN anywhere from 1 - 9 points, </p><p> but if it was rotten, you will LOSE anywhere from 1 - 9 points. </p>","","0","instructions","","","","","","","","","","",""
"learning-instructions","182","679792","0.0-11.0-1.0-0.5","7200","2","19","Male","approach_avoid_spark_v1","""event"",""trial"",""time""
""fullscreenenter"",""1"",""3329""
","
","
","""event"",""trial"",""time""
""fullscreenenter"",""1"",""3329""
","
","","","","","","766","<p> You will see how many points you won or lost in the center of the screen. </p><p> Here is what you would see if you earned 5 points: </p><p style=""color:green;font-size:50px;font-weight:bolder"">5</p>","","0","instructions","","","","","","","","","","",""
"learning-instructions","183","683032","0.0-11.0-1.0-0.6","7200","2","19","Male","approach_avoid_spark_v1","""event"",""trial"",""time""
""fullscreenenter"",""1"",""3329""
","
","
","""event"",""trial"",""time""
""fullscreenenter"",""1"",""3329""
","
","","","","","","408","<p> And here is what you would see if you lost 3 points: </p><p style=""color:red;font-size:50px;font-weight:bolder"">-3</p>","","0","instructions","","","","","","","","","","",""
"learning-instructions","184","697214","0.0-11.0-1.0-0.7","7200","2","19","Male","approach_avoid_spark_v1","""event"",""trial"",""time""
""fullscreenenter"",""1"",""3329""
","
","
","""event"",""trial"",""time""
""fullscreenenter"",""1"",""3329""
","
","","","","","","480","<p> Some fruit is very tasty or very rotten. </p><p> These fruits will make you win or lose LOTS of points. </p><p> Other fruits are only kind of tasty or kind of rotten. </p><p> These fruits will make you win or lose small amounts of points. </p>","","0","instructions","","","","","","","","","","",""
"learning-instructions","185","708254","0.0-11.0-1.0-0.8","7200","2","19","Male","approach_avoid_spark_v1","""event"",""trial"",""time""
""fullscreenenter"",""1"",""3329""
","
","
","""event"",""trial"",""time""
""fullscreenenter"",""1"",""3329""
","
","","","","","","620","<p> If you choose to not eat the fruit, you will not win or lose any points. </p><p>  However, in the center of the screen, you will see the number of points you WOULD HAVE earned if you had eaten the fruit. </p>","","0","instructions","","","","","","","","","","",""
"learning-instructions","186","720683","0.0-11.0-1.0-0.9","7200","2","19","Male","approach_avoid_spark_v1","""event"",""trial"",""time""
""fullscreenenter"",""1"",""3329""
","
","
","""event"",""trial"",""time""
""fullscreenenter"",""1"",""3329""
","
","","","","","","2817","<p> Here is what you might see if you did not eat the fruit but the fruit was tasty: </p><p style=""color:grey; font-size:50px; display: inline-block; border-spacing: 15px; border-width:3px; border-style:solid; border-color:red"">  &nbsp; 6 &nbsp; </p><p> Remember, in this case, you would not win or lose ANY points because you did not eat the fruit.  </p>","","0","instructions","","","","","","","","","","",""
"learning-instructions","187","728921","0.0-11.0-1.0-0.10","7200","2","19","Male","approach_avoid_spark_v1","""event"",""trial"",""time""
""fullscreenenter"",""1"",""3329""
","
","
","""event"",""trial"",""time""
""fullscreenenter"",""1"",""3329""
","
","","","","","","557","<p> Try to make the best choice for each fruit because </p><p> at the end of the game, you will earn bonus money based on how many points you earned. </p>","","0","instructions","","","","","","","","","","",""
"learning-instructions","188","737614","0.0-11.0-1.0-0.11","7200","2","19","Male","approach_avoid_spark_v1","""event"",""trial"",""time""
""fullscreenenter"",""1"",""3329""
","
","
","""event"",""trial"",""time""
""fullscreenenter"",""1"",""3329""
","
","","","","","","500","<p> You will have 3 seconds to make each choice. Try to respond before time runs out! </p><p> You will lose 5 points each time you do not make a response. </p>","","0","instructions","","","","","","","","","","",""
"html-keyboard-response","189","738234","0.0-11.0-2.0-0.0","7200","2","19","Male","approach_avoid_spark_v1","""event"",""trial"",""time""
""fullscreenenter"",""1"",""3329""
","
","
","""event"",""trial"",""time""
""fullscreenenter"",""1"",""3329""
","
","","","","","","null","<div style=""font-size:60px;"">+</div>","null","","fixation","","","","","","","","","","",""
"aa-learning-trial","190","741247","0.0-11.0-2.0-1.0","7200","2","19","Male","approach_avoid_spark_v1","""event"",""trial"",""time""
""fullscreenenter"",""1"",""3329""
","
","
","""event"",""trial"",""time""
""fullscreenenter"",""1"",""3329""
","
","","","","","","793","images/banana5.png","","","learning","-8","-8","1","1","banana","fruit","1","1","","bad","[-5]"
"html-keyboard-response","191","741760","0.0-11.0-2.0-0.1","7200","2","19","Male","approach_avoid_spark_v1","""event"",""trial"",""time""
""fullscreenenter"",""1"",""3329""
","
","
","""event"",""trial"",""time""
""fullscreenenter"",""1"",""3329""
","
","","","","","","null","<div style=""font-size:60px;"">+</div>","null","","fixation","","","","","","","","","","",""
"aa-learning-trial","192","744769","0.0-11.0-2.0-1.1","7200","2","19","Male","approach_avoid_spark_v1","""event"",""trial"",""time""
""fullscreenenter"",""1"",""3329""
","
","
","""event"",""trial"",""time""
""fullscreenenter"",""1"",""3329""
","
","","","","","","729","images/banana3.png","","","learning","-4","-4","1","1","banana","fruit","1","1","","bad","[-5]"
"html-keyboard-response","193","745284","0.0-11.0-2.0-0.2","7200","2","19","Male","approach_avoid_spark_v1","""event"",""trial"",""time""
""fullscreenenter"",""1"",""3329""
","
","
","""event"",""trial"",""time""
""fullscreenenter"",""1"",""3329""
","
","","","","","","null","<div style=""font-size:60px;"">+</div>","null","","fixation","","","","","","","","","","",""
"aa-learning-trial","194","748299","0.0-11.0-2.0-1.2","7200","2","19","Male","approach_avoid_spark_v1","""event"",""trial"",""time""
""fullscreenenter"",""1"",""3329""
","
","
","""event"",""trial"",""time""
""fullscreenenter"",""1"",""3329""
","
","","","","","","892","images/banana2.png","","","learning","-6","-6","1","1","banana","fruit","1","1","","bad","[-5]"
"html-keyboard-response","195","748813","0.0-11.0-2.0-0.3","7200","2","19","Male","approach_avoid_spark_v1","""event"",""trial"",""time""
""fullscreenenter"",""1"",""3329""
","
","
","""event"",""trial"",""time""
""fullscreenenter"",""1"",""3329""
","
","","","","","","null","<div style=""font-size:60px;"">+</div>","null","","fixation","","","","","","","","","","",""
"aa-learning-trial","196","751819","0.0-11.0-2.0-1.3","7200","2","19","Male","approach_avoid_spark_v1","""event"",""trial"",""time""
""fullscreenenter"",""1"",""3329""
","
","
","""event"",""trial"",""time""
""fullscreenenter"",""1"",""3329""
","
","","","","","","507","images/banana3.png","","","learning","-5","0","0","0","banana","fruit","1","1","","bad","[-5]"
"html-keyboard-response","197","752329","0.0-11.0-2.0-0.4","7200","2","19","Male","approach_avoid_spark_v1","""event"",""trial"",""time""
""fullscreenenter"",""1"",""3329""
","
","
","""event"",""trial"",""time""
""fullscreenenter"",""1"",""3329""
","
","","","","","","null","<div style=""font-size:60px;"">+</div>","null","","fixation","","","","","","","","","","",""
"aa-learning-trial","198","755339","0.0-11.0-2.0-1.4","7200","2","19","Male","approach_avoid_spark_v1","""event"",""trial"",""time""
""fullscreenenter"",""1"",""3329""
","
","
","""event"",""trial"",""time""
""fullscreenenter"",""1"",""3329""
","
","","","","","","604","images/straw5.png","","","learning","[-1]","-1","1","1","straw","fruit","1","1","","neutral","0"
"html-keyboard-response","199","755851","0.0-11.0-2.0-0.5","7200","2","19","Male","approach_avoid_spark_v1","""event"",""trial"",""time""
""fullscreenenter"",""1"",""3329""
","
","
","""event"",""trial"",""time""
""fullscreenenter"",""1"",""3329""
","
","","","","","","null","<div style=""font-size:60px;"">+</div>","null","","fixation","","","","","","","","","","",""
"aa-learning-trial","200","758863","0.0-11.0-2.0-1.5","7200","2","19","Male","approach_avoid_spark_v1","""event"",""trial"",""time""
""fullscreenenter"",""1"",""3329""
","
","
","""event"",""trial"",""time""
""fullscreenenter"",""1"",""3329""
","
","","","","","","789","images/straw7.png","","","learning","-2","-2","1","1","straw","fruit","1","1","","neutral","0"
"html-keyboard-response","201","759378","0.0-11.0-2.0-0.6","7200","2","19","Male","approach_avoid_spark_v1","""event"",""trial"",""time""
""fullscreenenter"",""1"",""3329""
","
","
","""event"",""trial"",""time""
""fullscreenenter"",""1"",""3329""
","
","","","","","","null","<div style=""font-size:60px;"">+</div>","null","","fixation","","","","","","","","","","",""
"aa-learning-trial","202","762383","0.0-11.0-2.0-1.6","7200","2","19","Male","approach_avoid_spark_v1","""event"",""trial"",""time""
""fullscreenenter"",""1"",""3329""
","
","
","""event"",""trial"",""time""
""fullscreenenter"",""1"",""3329""
","
","","","","","","622","images/orange5.png","","","learning","6","6","1","1","orange","fruit","1","1","","good","[3]"
"html-keyboard-response","203","762894","0.0-11.0-2.0-0.7","7200","2","19","Male","approach_avoid_spark_v1","""event"",""trial"",""time""
""fullscreenenter"",""1"",""3329""
","
","
","""event"",""trial"",""time""
""fullscreenenter"",""1"",""3329""
","
","","","","","","null","<div style=""font-size:60px;"">+</div>","null","","fixation","","","","","","","","","","",""
"aa-learning-trial","204","765896","0.0-11.0-2.0-1.7","7200","2","19","Male","approach_avoid_spark_v1","""event"",""trial"",""time""
""fullscreenenter"",""1"",""3329""
","
","
","""event"",""trial"",""time""
""fullscreenenter"",""1"",""3329""
","
","","","","","","682","images/orange6.png","","","learning","4","4","1","1","orange","fruit","1","1","","good","[3]"
"html-keyboard-response","205","766412","0.0-11.0-2.0-0.8","7200","2","19","Male","approach_avoid_spark_v1","""event"",""trial"",""time""
""fullscreenenter"",""1"",""3329""
","
","
","""event"",""trial"",""time""
""fullscreenenter"",""1"",""3329""
","
","","","","","","null","<div style=""font-size:60px;"">+</div>","null","","fixation","","","","","","","","","","",""
"aa-learning-trial","206","769414","0.0-11.0-2.0-1.8","7200","2","19","Male","approach_avoid_spark_v1","""event"",""trial"",""time""
""fullscreenenter"",""1"",""3329""
","
","
","""event"",""trial"",""time""
""fullscreenenter"",""1"",""3329""
","
","","","","","","614","images/banana5.png","","","learning","-6","0","0","0","banana","fruit","1","1","","bad","[-5]"
"html-keyboard-response","207","769916","0.0-11.0-2.0-0.9","7200","2","19","Male","approach_avoid_spark_v1","""event"",""trial"",""time""
""fullscreenenter"",""1"",""3329""
","
","
","""event"",""trial"",""time""
""fullscreenenter"",""1"",""3329""
","
","","","","","","null","<div style=""font-size:60px;"">+</div>","null","","fixation","","","","","","","","","","",""
"aa-learning-trial","208","772919","0.0-11.0-2.0-1.9","7200","2","19","Male","approach_avoid_spark_v1","""event"",""trial"",""time""
""fullscreenenter"",""1"",""3329""
","
","
","""event"",""trial"",""time""
""fullscreenenter"",""1"",""3329""
","
","","","","","","709","images/orange6.png","","","learning","1","1","1","1","orange","fruit","1","1","","good","[3]"
"html-keyboard-response","209","773420","0.0-11.0-2.0-0.10","7200","2","19","Male","approach_avoid_spark_v1","""event"",""trial"",""time""
""fullscreenenter"",""1"",""3329""
","
","
","""event"",""trial"",""time""
""fullscreenenter"",""1"",""3329""
","
","","","","","","null","<div style=""font-size:60px;"">+</div>","null","","fixation","","","","","","","","","","",""
"aa-learning-trial","210","776423","0.0-11.0-2.0-1.10","7200","2","19","Male","approach_avoid_spark_v1","""event"",""trial"",""time""
""fullscreenenter"",""1"",""3329""
","
","
","""event"",""trial"",""time""
""fullscreenenter"",""1"",""3329""
","
","","","","","","701","images/straw5.png","","","learning","1","0","0","0","straw","fruit","1","1","","neutral","0"
"html-keyboard-response","211","776925","0.0-11.0-2.0-0.11","7200","2","19","Male","approach_avoid_spark_v1","""event"",""trial"",""time""
""fullscreenenter"",""1"",""3329""
","
","
","""event"",""trial"",""time""
""fullscreenenter"",""1"",""3329""
","
","","","","","","null","<div style=""font-size:60px;"">+</div>","null","","fixation","","","","","","","","","","",""
"aa-learning-trial","212","779926","0.0-11.0-2.0-1.11","7200","2","19","Male","approach_avoid_spark_v1","""event"",""trial"",""time""
""fullscreenenter"",""1"",""3329""
","
","
","""event"",""trial"",""time""
""fullscreenenter"",""1"",""3329""
","
","","","","","","757","images/straw7.png","","","learning","-1","0","0","0","straw","fruit","1","1","","neutral","0"
"html-keyboard-response","213","780427","0.0-11.0-2.0-0.12","7200","2","19","Male","approach_avoid_spark_v1","""event"",""trial"",""time""
""fullscreenenter"",""1"",""3329""
","
","
","""event"",""trial"",""time""
""fullscreenenter"",""1"",""3329""
","
","","","","","","null","<div style=""font-size:60px;"">+</div>","null","","fixation","","","","","","","","","","",""
"aa-learning-trial","214","783429","0.0-11.0-2.0-1.12","7200","2","19","Male","approach_avoid_spark_v1","""event"",""trial"",""time""
""fullscreenenter"",""1"",""3329""
","
","
","""event"",""trial"",""time""
""fullscreenenter"",""1"",""3329""
","
","","","","","","999","images/straw3.png","","","learning","1","1","1","1","straw","fruit","1","1","","neutral","0"
"html-keyboard-response","215","783930","0.0-11.0-2.0-0.13","7200","2","19","Male","approach_avoid_spark_v1","""event"",""trial"",""time""
""fullscreenenter"",""1"",""3329""
","
","
","""event"",""trial"",""time""
""fullscreenenter"",""1"",""3329""
","
","","","","","","null","<div style=""font-size:60px;"">+</div>","null","","fixation","","","","","","","","","","",""
"aa-learning-trial","216","786932","0.0-11.0-2.0-1.13","7200","2","19","Male","approach_avoid_spark_v1","""event"",""trial"",""time""
""fullscreenenter"",""1"",""3329""
","
","
","""event"",""trial"",""time""
""fullscreenenter"",""1"",""3329""
","
","","","","","","678","images/orange5.png","","","learning","4","4","1","1","orange","fruit","1","1","","good","[3]"
"html-keyboard-response","217","787434","0.0-11.0-2.0-0.14","7200","2","19","Male","approach_avoid_spark_v1","""event"",""trial"",""time""
""fullscreenenter"",""1"",""3329""
","
","
","""event"",""trial"",""time""
""fullscreenenter"",""1"",""3329""
","
","","","","","","null","<div style=""font-size:60px;"">+</div>","null","","fixation","","","","","","","","","","",""
"aa-learning-trial","218","790438","0.0-11.0-2.0-1.14","7200","2","19","Male","approach_avoid_spark_v1","""event"",""trial"",""time""
""fullscreenenter"",""1"",""3329""
","
","
","""event"",""trial"",""time""
""fullscreenenter"",""1"",""3329""
","
","","","","","","775","images/orange7.png","","","learning","4","4","1","1","orange","fruit","1","1","","good","[3]"
"html-keyboard-response","219","790940","0.0-11.0-2.0-0.15","7200","2","19","Male","approach_avoid_spark_v1","""event"",""trial"",""time""
""fullscreenenter"",""1"",""3329""
","
","
","""event"",""trial"",""time""
""fullscreenenter"",""1"",""3329""
","
","","","","","","null","<div style=""font-size:60px;"">+</div>","null","","fixation","","","","","","","","","","",""
"aa-learning-trial","220","793943","0.0-11.0-2.0-1.15","7200","2","19","Male","approach_avoid_spark_v1","""event"",""trial"",""time""
""fullscreenenter"",""1"",""3329""
","
","
","""event"",""trial"",""time""
""fullscreenenter"",""1"",""3329""
","
","","","","","","653","images/banana3.png","","","learning","-5","0","0","0","banana","fruit","1","1","","bad","[-5]"
"html-keyboard-response","221","794444","0.0-11.0-2.0-0.16","7200","2","19","Male","approach_avoid_spark_v1","""event"",""trial"",""time""
""fullscreenenter"",""1"",""3329""
","
","
","""event"",""trial"",""time""
""fullscreenenter"",""1"",""3329""
","
","","","","","","null","<div style=""font-size:60px;"">+</div>","null","","fixation","","","","","","","","","","",""
"aa-learning-trial","222","797445","0.0-11.0-2.0-1.16","7200","2","19","Male","approach_avoid_spark_v1","""event"",""trial"",""time""
""fullscreenenter"",""1"",""3329""
","
","
","""event"",""trial"",""time""
""fullscreenenter"",""1"",""3329""
","
","","","","","","980","images/straw5.png","","","learning","-1","-1","1","1","straw","fruit","1","1","","neutral","0"
"html-keyboard-response","223","797946","0.0-11.0-2.0-0.17","7200","2","19","Male","approach_avoid_spark_v1","""event"",""trial"",""time""
""fullscreenenter"",""1"",""3329""
","
","
","""event"",""trial"",""time""
""fullscreenenter"",""1"",""3329""
","
","","","","","","null","<div style=""font-size:60px;"">+</div>","null","","fixation","","","","","","","","","","",""
"aa-learning-trial","224","800949","0.0-11.0-2.0-1.17","7200","2","19","Male","approach_avoid_spark_v1","""event"",""trial"",""time""
""fullscreenenter"",""1"",""3329""
","
","
","""event"",""trial"",""time""
""fullscreenenter"",""1"",""3329""
","
","","","","","","721","images/banana5.png","","","learning","-4","0","0","0","banana","fruit","1","1","","bad","[-5]"
"html-keyboard-response","225","801461","0.0-11.0-2.0-0.18","7200","2","19","Male","approach_avoid_spark_v1","""event"",""trial"",""time""
""fullscreenenter"",""1"",""3329""
","
","
","""event"",""trial"",""time""
""fullscreenenter"",""1"",""3329""
","
","","","","","","null","<div style=""font-size:60px;"">+</div>","null","","fixation","","","","","","","","","","",""
"aa-learning-trial","226","804463","0.0-11.0-2.0-1.18","7200","2","19","Male","approach_avoid_spark_v1","""event"",""trial"",""time""
""fullscreenenter"",""1"",""3329""
","
","
","""event"",""trial"",""time""
""fullscreenenter"",""1"",""3329""
","
","","","","","","868","images/straw6.png","","","learning","3","0","0","0","straw","fruit","1","1","","neutral","0"
"html-keyboard-response","227","804965","0.0-11.0-2.0-0.19","7200","2","19","Male","approach_avoid_spark_v1","""event"",""trial"",""time""
""fullscreenenter"",""1"",""3329""
","
","
","""event"",""trial"",""time""
""fullscreenenter"",""1"",""3329""
","
","","","","","","null","<div style=""font-size:60px;"">+</div>","null","","fixation","","","","","","","","","","",""
"aa-learning-trial","228","807967","0.0-11.0-2.0-1.19","7200","2","19","Male","approach_avoid_spark_v1","""event"",""trial"",""time""
""fullscreenenter"",""1"",""3329""
","
","
","""event"",""trial"",""time""
""fullscreenenter"",""1"",""3329""
","
","","","","","","715","images/orange6.png","","","learning","5","5","1","1","orange","fruit","1","1","","good","[3]"
"html-keyboard-response","229","808468","0.0-11.0-2.0-0.20","7200","2","19","Male","approach_avoid_spark_v1","""event"",""trial"",""time""
""fullscreenenter"",""1"",""3329""
","
","
","""event"",""trial"",""time""
""fullscreenenter"",""1"",""3329""
","
","","","","","","null","<div style=""font-size:60px;"">+</div>","null","","fixation","","","","","","","","","","",""
"aa-learning-trial","230","811470","0.0-11.0-2.0-1.20","7200","2","19","Male","approach_avoid_spark_v1","""event"",""trial"",""time""
""fullscreenenter"",""1"",""3329""
","
","
","""event"",""trial"",""time""
""fullscreenenter"",""1"",""3329""
","
","","","","","","620","images/banana5.png","","","learning","-3","0","0","0","banana","fruit","1","1","","bad","[-5]"
"html-keyboard-response","231","811972","0.0-11.0-2.0-0.21","7200","2","19","Male","approach_avoid_spark_v1","""event"",""trial"",""time""
""fullscreenenter"",""1"",""3329""
","
","
","""event"",""trial"",""time""
""fullscreenenter"",""1"",""3329""
","
","","","","","","null","<div style=""font-size:60px;"">+</div>","null","","fixation","","","","","","","","","","",""
"aa-learning-trial","232","814975","0.0-11.0-2.0-1.21","7200","2","19","Male","approach_avoid_spark_v1","""event"",""trial"",""time""
""fullscreenenter"",""1"",""3329""
","
","
","""event"",""trial"",""time""
""fullscreenenter"",""1"",""3329""
","
","","","","","","636","images/straw8.png","","","learning","-4","-4","1","1","straw","fruit","1","1","","neutral","0"
"html-keyboard-response","233","815477","0.0-11.0-2.0-0.22","7200","2","19","Male","approach_avoid_spark_v1","""event"",""trial"",""time""
""fullscreenenter"",""1"",""3329""
","
","
","""event"",""trial"",""time""
""fullscreenenter"",""1"",""3329""
","
","","","","","","null","<div style=""font-size:60px;"">+</div>","null","","fixation","","","","","","","","","","",""
"aa-learning-trial","234","818480","0.0-11.0-2.0-1.22","7200","2","19","Male","approach_avoid_spark_v1","""event"",""trial"",""time""
""fullscreenenter"",""1"",""3329""
","
","
","""event"",""trial"",""time""
""fullscreenenter"",""1"",""3329""
","
","","","","","","579","images/banana3.png","","","learning","-5","0","0","0","banana","fruit","1","1","","bad","[-5]"
"html-keyboard-response","235","818982","0.0-11.0-2.0-0.23","7200","2","19","Male","approach_avoid_spark_v1","""event"",""trial"",""time""
""fullscreenenter"",""1"",""3329""
","
","
","""event"",""trial"",""time""
""fullscreenenter"",""1"",""3329""
","
","","","","","","null","<div style=""font-size:60px;"">+</div>","null","","fixation","","","","","","","","","","",""
"aa-learning-trial","236","821985","0.0-11.0-2.0-1.23","7200","2","19","Male","approach_avoid_spark_v1","""event"",""trial"",""time""
""fullscreenenter"",""1"",""3329""
","
","
","""event"",""trial"",""time""
""fullscreenenter"",""1"",""3329""
","
","","","","","","579","images/orange5.png","","","learning","3","3","1","1","orange","fruit","1","1","","good","[3]"
"html-keyboard-response","237","822488","0.0-11.0-2.0-0.24","7200","2","19","Male","approach_avoid_spark_v1","""event"",""trial"",""time""
""fullscreenenter"",""1"",""3329""
","
","
","""event"",""trial"",""time""
""fullscreenenter"",""1"",""3329""
","
","","","","","","null","<div style=""font-size:60px;"">+</div>","null","","fixation","","","","","","","","","","",""
"aa-learning-trial","238","825489","0.0-11.0-2.0-1.24","7200","2","19","Male","approach_avoid_spark_v1","""event"",""trial"",""time""
""fullscreenenter"",""1"",""3329""
","
","
","""event"",""trial"",""time""
""fullscreenenter"",""1"",""3329""
","
","","","","","","520","images/orange6.png","","","learning","1","1","1","1","orange","fruit","1","1","","good","[3]"
"html-keyboard-response","239","825992","0.0-11.0-2.0-0.25","7200","2","19","Male","approach_avoid_spark_v1","""event"",""trial"",""time""
""fullscreenenter"",""1"",""3329""
","
","
","""event"",""trial"",""time""
""fullscreenenter"",""1"",""3329""
","
","","","","","","null","<div style=""font-size:60px;"">+</div>","null","","fixation","","","","","","","","","","",""
"aa-learning-trial","240","828993","0.0-11.0-2.0-1.25","7200","2","19","Male","approach_avoid_spark_v1","""event"",""trial"",""time""
""fullscreenenter"",""1"",""3329""
","
","
","""event"",""trial"",""time""
""fullscreenenter"",""1"",""3329""
","
","","","","","","642","images/banana5.png","","","learning","-3","0","0","0","banana","fruit","1","1","","bad","[-5]"
"html-keyboard-response","241","829508","0.0-11.0-2.0-0.26","7200","2","19","Male","approach_avoid_spark_v1","""event"",""trial"",""time""
""fullscreenenter"",""1"",""3329""
","
","
","""event"",""trial"",""time""
""fullscreenenter"",""1"",""3329""
","
","","","","","","null","<div style=""font-size:60px;"">+</div>","null","","fixation","","","","","","","","","","",""
"aa-learning-trial","242","832511","0.0-11.0-2.0-1.26","7200","2","19","Male","approach_avoid_spark_v1","""event"",""trial"",""time""
""fullscreenenter"",""1"",""3329""
","
","
","""event"",""trial"",""time""
""fullscreenenter"",""1"",""3329""
","
