"trial_type","trial_index","time_elapsed","internal_node_id","subject_id","task_condition","age","gender","task_version","interactions","blur_events","focus_events","fullscreenenter_events","fullscreenexit_events","success","timeout","failed_images","failed_audio","failed_video","rt","stimulus","response","button_pressed","task_part","approach_reward","points","key_press","option_selected","stim_cat","task_block","block_condition","block_number","correct","cat_type","mean_cat_reward"
"pavlovia","0","52","0.0-0.0","5721","1","8","Female","approach_avoid_spark_v1","""event"",""trial"",""time""
""fullscreenenter"",""1"",""11523""
","
","
","""event"",""trial"",""time""
""fullscreenenter"",""1"",""11523""
","
","","","","","","","","","","","","","","","","","","","","",""
"fullscreen","1","12266","0.0-1.0","5721","1","8","Female","approach_avoid_spark_v1","""event"",""trial"",""time""
""fullscreenenter"",""1"",""11523""
","
","
","""event"",""trial"",""time""
""fullscreenenter"",""1"",""11523""
","
","true","","","","","","","","","","","","","","","","","","","",""
"preload","2","50798","0.0-2.0","5721","1","8","Female","approach_avoid_spark_v1","""event"",""trial"",""time""
""fullscreenenter"",""1"",""11523""
","
","
","""event"",""trial"",""time""
""fullscreenenter"",""1"",""11523""
","
","true","false","[]","[]","[]","","","","","","","","","","","","","","","",""
"audio-keyboard-response","3","55438","0.0-3.0","5721","1","8","Female","approach_avoid_spark_v1","""event"",""trial"",""time""
""fullscreenenter"",""1"",""11523""
","
","
","""event"",""trial"",""time""
""fullscreenenter"",""1"",""11523""
","
","","","","","","4589.333333333336","audio/beep_loop.wav"," ","","","","","","","","","","","","",""
"audio-button-response","4","61335","0.0-4.0","5721","1","8","Female","approach_avoid_spark_v1","""event"",""trial"",""time""
""fullscreenenter"",""1"",""11523""
","
","
","""event"",""trial"",""time""
""fullscreenenter"",""1"",""11523""
","
","","","","","","5891","audio/shark.wav","4","","","","","","","","","","","","",""
"audio-button-response","5","66748","0.0-5.0","5721","1","8","Female","approach_avoid_spark_v1","""event"",""trial"",""time""
""fullscreenenter"",""1"",""11523""
","
","
","""event"",""trial"",""time""
""fullscreenenter"",""1"",""11523""
","
","","","","","","4389","audio/turtle.wav","1","","","","","","","","","","","","",""
"preload","6","74821","0.0-6.0","5721","1","8","Female","approach_avoid_spark_v1","""event"",""trial"",""time""
""fullscreenenter"",""1"",""11523""
","
","
","""event"",""trial"",""time""
""fullscreenenter"",""1"",""11523""
","
","true","false","[]","[]","[]","","","","","","","","","","","","","","","",""
"html-keyboard-response","7","80901","0.0-7.0","5721","1","8","Female","approach_avoid_spark_v1","""event"",""trial"",""time""
""fullscreenenter"",""1"",""11523""
","
","
","""event"",""trial"",""time""
""fullscreenenter"",""1"",""11523""
","
","","","","","","6077","Welcome to the experiment. Press any key to begin and to advance the instructions."," ","","","","","","","","","","","","",""
"learning-instructions","8","99329","0.0-8.0-0.0-0.0","5721","1","8","Female","approach_avoid_spark_v1","""event"",""trial"",""time""
""fullscreenenter"",""1"",""11523""
","
","
","""event"",""trial"",""time""
""fullscreenenter"",""1"",""11523""
","
","","","","","","11471.899999999907","<p> Welcome! Today you are going to play 6 different rounds of a decision-making game. </p><p> Use the mouse to click next to continue. </p>","","0","instructions","","","","","","","","","","",""
"learning-instructions","9","105346","0.0-8.0-0.0-0.1","5721","1","8","Female","approach_avoid_spark_v1","""event"",""trial"",""time""
""fullscreenenter"",""1"",""11523""
","
","
","""event"",""trial"",""time""
""fullscreenenter"",""1"",""11523""
","
","","","","","","3266.399999999907","<p> You will start with a practice round to learn the rules. </p>","","0","instructions","","","","","","","","","","",""
"learning-instructions","10","110910","0.0-8.0-0.0-0.2","5721","1","8","Female","approach_avoid_spark_v1","""event"",""trial"",""time""
""fullscreenenter"",""1"",""11523""
","
","
","""event"",""trial"",""time""
""fullscreenenter"",""1"",""11523""
","
","","","","","","2082.5","<p> Your goal in this round is to give out sports equipment to kids. </p></div>","","0","instructions","","","","","","","","","","",""
"learning-instructions","11","119547","0.0-8.0-0.0-0.3","5721","1","8","Female","approach_avoid_spark_v1","""event"",""trial"",""time""
""fullscreenenter"",""1"",""11523""
","
","
","""event"",""trial"",""time""
""fullscreenenter"",""1"",""11523""
","
","","","","","","1071.7999999998137","<p> The kids only like some of the equipment.  </p><p> On each turn, you will see a piece of sports equipment.   </p><p> You need to decide whether to give it to the kids or not.  </p>","","0","instructions","","","","","","","","","","",""
"learning-instructions","12","125937","0.0-8.0-0.0-0.4","5721","1","8","Female","approach_avoid_spark_v1","""event"",""trial"",""time""
""fullscreenenter"",""1"",""11523""
","
","
","""event"",""trial"",""time""
""fullscreenenter"",""1"",""11523""
","
","","","","","","1624.1000000000931","<p> You can give them the equipment by pressing 1 and choose not to give it to them by pressing 0. </p><br><div class=""choice-instructions-grid""> <div class=""choice-option""><img src=""images/approach.png"" class=""choice-option-img"" stage=""instructions"" position=""0"" ><div class=""choice-option-text""> Press ""1."" </div></div><div class=""choice-option""><img src=""images/avoid.png"" class=""choice-option-img"" stage=""instructions"" position=""1"" ><div class=""choice-option-text""> Press ""0."" </div></div>","","0","instructions","","","","","","","","","","",""
"learning-instructions","13","136620","0.0-8.0-0.0-0.5","5721","1","8","Female","approach_avoid_spark_v1","""event"",""trial"",""time""
""fullscreenenter"",""1"",""11523""
","
","
","""event"",""trial"",""time""
""fullscreenenter"",""1"",""11523""
","
","","","","","","3286","<p> If you give them a piece of equipment they like, they will be happy! </p><p> But if you give them a piece of equipment they do not like, they will be sad. </p>","","0","instructions","","","","","","","","","","",""
"learning-instructions","14","148813","0.0-8.0-0.0-0.6","5721","1","8","Female","approach_avoid_spark_v1","""event"",""trial"",""time""
""fullscreenenter"",""1"",""11523""
","
","
","""event"",""trial"",""time""
""fullscreenenter"",""1"",""11523""
","
","","","","","","1635.1999999997206","<p> You will earn points based on how you make kids feel. </p><p> If you make them happy, you will WIN anywhere from 1 - 9 points, </p><p> but if you make them sad, you will LOSE anywhere from 1 - 9 points. </p>","","0","instructions","","","","","","","","","","",""
"learning-instructions","15","159441","0.0-8.0-0.0-0.7","5721","1","8","Female","approach_avoid_spark_v1","""event"",""trial"",""time""
""fullscreenenter"",""1"",""11523""
","
","
","""event"",""trial"",""time""
""fullscreenenter"",""1"",""11523""
","
","","","","","","1028.7999999998137","<p> You will see how many points you won or lost in the center of the screen. </p><p> Here is what you would see if you won 6 points: </p><p style=""color:green;font-size:50px;font-weight:bolder"">6</p><p style=""color:green"">The text is GREEN because you WON points.</p>","","0","instructions","","","","","","","","","","",""
"learning-instructions","16","165938","0.0-8.0-0.0-0.8","5721","1","8","Female","approach_avoid_spark_v1","""event"",""trial"",""time""
""fullscreenenter"",""1"",""11523""
","
","
","""event"",""trial"",""time""
""fullscreenenter"",""1"",""11523""
","
","","","","","","968.8000000002794","<p> And here is what you would see if you lost 4 points: </p><p style=""color:red;font-size:50px;font-weight:bolder"">-4</p><p style=""color:red"">The text is RED because you LOST points. </p>","","0","instructions","","","","","","","","","","",""
"learning-instructions","17","181882","0.0-8.0-0.0-0.9","5721","1","8","Female","approach_avoid_spark_v1","""event"",""trial"",""time""
""fullscreenenter"",""1"",""11523""
","
","
","""event"",""trial"",""time""
""fullscreenenter"",""1"",""11523""
","
","","","","","","1224.8000000002794","<p> Some of the equipment will make the kids VERY happy or sad. </p><p> These pieces of equipment will make you win or lose LOTS of points. </p><p> Other pieces of equipment will only make the kids a little happy or sad. </p><p> These pieces of equipment will make you win or lose small amounts of points. </p>","","0","instructions","","","","","","","","","","",""
"learning-instructions","18","195190","0.0-8.0-0.0-0.10","5721","1","8","Female","approach_avoid_spark_v1","""event"",""trial"",""time""
""fullscreenenter"",""1"",""11523""
","
","
","""event"",""trial"",""time""
""fullscreenenter"",""1"",""11523""
","
","","","","","","2612.8000000002794","<p> If you choose not to give them the equipment, you will not win or lose any points. </p><p>  However, in the center of the screen, you will see the number of points you WOULD HAVE won or lost if you had given them the equipment. </p>","","0","instructions","","","","","","","","","","",""
"learning-instructions","19","217890","0.0-8.0-0.0-0.11","5721","1","8","Female","approach_avoid_spark_v1","""event"",""trial"",""time""
""fullscreenenter"",""1"",""11523""
","
","
","""event"",""trial"",""time""
""fullscreenenter"",""1"",""11523""
","
","","","","","","1163.1000000000931","<p> Here is what you might see if you did not give the equipment to the kids but it would have made them happy: </p><p style=""color:grey; font-size:50px; display: inline-block; border-spacing: 15px; border-width:3px; border-style:solid; border-color:red"">  &nbsp; 7 &nbsp; </p><p> Remember, in this case, you would not win or lose ANY points because you did not give them the equipment.  </p><p style=""color:grey"">The text is GREY because you earned ZERO points. </p><p style=""color:red"">However, choosing to give the kids the equipment would have made you win points. The box around the text is RED because you chose the worse option. </p>","","0","instructions","","","","","","","","","","",""
"learning-instructions","20","240293","0.0-8.0-0.0-0.12","5721","1","8","Female","approach_avoid_spark_v1","""event"",""trial"",""time""
""fullscreenenter"",""1"",""11523""
","
","
","""event"",""trial"",""time""
""fullscreenenter"",""1"",""11523""
","
","","","","","","1315.1000000000931","<p> Here is what you might see if you did not give the equipment to the kids but it would have made them sad: </p><p style=""color:grey;font-size:50px; display: inline-block; border-spacing: 15px; border-width:3px; border-style:solid; border-color:green"">  &nbsp; -8 &nbsp; </p><p> Remember, in this case, you would not win or lose ANY points because you did not give them the equipment.  </p><p style=""color:grey"">The text is GREY because you earned ZERO points. </p><p  style=""color:green""> Choosing to give the kids the equipment would have made you lose points. The box around the text is GREEN because you chose the better option.</p>","","0","instructions","","","","","","","","","","",""
"learning-instructions","21","252507","0.0-8.0-0.0-0.13","5721","1","8","Female","approach_avoid_spark_v1","""event"",""trial"",""time""
""fullscreenenter"",""1"",""11523""
","
","
","""event"",""trial"",""time""
""fullscreenenter"",""1"",""11523""
","
","","","","","","2581.899999999907","<p> You will have 3 seconds to make each choice. Try to respond before time runs out! </p><p> You will lose 5 points each time you do not make a response. </p>","","0","instructions","","","","","","","","","","",""
"learning-instructions","22","261930","0.0-8.0-0.0-0.14","5721","1","8","Female","approach_avoid_spark_v1","""event"",""trial"",""time""
""fullscreenenter"",""1"",""11523""
","
","
","""event"",""trial"",""time""
""fullscreenenter"",""1"",""11523""
","
","","","","","","3984.8000000002794","<p> This is just a practice round, but in the real game, your bonus payment will depend on your total number of points.","","0","instructions","","","","","","","","","","",""
"learning-instructions","23","279660","0.0-8.0-0.0-0.15","5721","1","8","Female","approach_avoid_spark_v1","""event"",""trial"",""time""
""fullscreenenter"",""1"",""11523""
","
","
","""event"",""trial"",""time""
""fullscreenenter"",""1"",""11523""
","
","","","","","","11513","<p> Remember, you can give them the equipment by pressing 1 and choose not to give it to them by pressing 0. </p><br><div class=""choice-instructions-grid""> <div class=""choice-option""><img src=""images/approach.png"" class=""choice-option-img"" stage=""instructions"" position=""0"" ><div class=""choice-option-text""> Press ""1."" </div></div><div class=""choice-option""><img src=""images/avoid.png"" class=""choice-option-img"" stage=""instructions"" position=""1"" ><div class=""choice-option-text""> Press ""0."" </div></div>","","0","instructions","","","","","","","","","","",""
"html-button-response","24","294278","0.0-8.0-1.0","5721","1","8","Female","approach_avoid_spark_v1","""event"",""trial"",""time""
""fullscreenenter"",""1"",""11523""
","
","
","""event"",""trial"",""time""
""fullscreenenter"",""1"",""11523""
","
","","","","","","14510.599999999627","<p> Ready to practice? </p>","0","","","","","","","","","","","","",""
"html-keyboard-response","25","294934","0.0-8.0-2.0-0.0","5721","1","8","Female","approach_avoid_spark_v1","""event"",""trial"",""time""
""fullscreenenter"",""1"",""11523""
","
","
","""event"",""trial"",""time""
""fullscreenenter"",""1"",""11523""
","
","","","","","","null","<div style=""font-size:60px;"">+</div>","null","","fixation","","","","","","","","","","",""
"aa-learning-trial","26","297956","0.0-8.0-2.0-1.0","5721","1","8","Female","approach_avoid_spark_v1","""event"",""trial"",""time""
""fullscreenenter"",""1"",""11523""
","
","
","""event"",""trial"",""time""
""fullscreenenter"",""1"",""11523""
","
","","","","","","null","images/ball3.png","","","learning","-8","-5","","null","practice","practice","practice","-1","","",""
"html-keyboard-response","27","298466","0.0-8.0-2.0-0.1","5721","1","8","Female","approach_avoid_spark_v1","""event"",""trial"",""time""
""fullscreenenter"",""1"",""11523""
","
","
","""event"",""trial"",""time""
""fullscreenenter"",""1"",""11523""
","
","","","","","","null","<div style=""font-size:60px;"">+</div>","null","","fixation","","","","","","","","","","",""
"aa-learning-trial","28","301479","0.0-8.0-2.0-1.1","5721","1","8","Female","approach_avoid_spark_v1","""event"",""trial"",""time""
""fullscreenenter"",""1"",""11523""
","
","
","""event"",""trial"",""time""
""fullscreenenter"",""1"",""11523""
","
","","","","","","1768.5","images/ball3.png","","","learning","-5","0","0","0","practice","practice","practice","-1","","",""
"html-keyboard-response","29","301982","0.0-8.0-2.0-0.2","5721","1","8","Female","approach_avoid_spark_v1","""event"",""trial"",""time""
""fullscreenenter"",""1"",""11523""
","
","
","""event"",""trial"",""time""
""fullscreenenter"",""1"",""11523""
","
","","","","","","null","<div style=""font-size:60px;"">+</div>","null","","fixation","","","","","","","","","","",""
"aa-learning-trial","30","304990","0.0-8.0-2.0-1.2","5721","1","8","Female","approach_avoid_spark_v1","""event"",""trial"",""time""
""fullscreenenter"",""1"",""11523""
","
","
","""event"",""trial"",""time""
""fullscreenenter"",""1"",""11523""
","
","","","","","","null","images/racket3.png","","","learning","-8","-5","","null","practice","practice","practice","-1","","",""
"html-keyboard-response","31","305494","0.0-8.0-2.0-0.3","5721","1","8","Female","approach_avoid_spark_v1","""event"",""trial"",""time""
""fullscreenenter"",""1"",""11523""
","
","
","""event"",""trial"",""time""
""fullscreenenter"",""1"",""11523""
","
","","","","","","null","<div style=""font-size:60px;"">+</div>","null","","fixation","","","","","","","","","","",""
"aa-learning-trial","32","308502","0.0-8.0-2.0-1.3","5721","1","8","Female","approach_avoid_spark_v1","""event"",""trial"",""time""
""fullscreenenter"",""1"",""11523""
","
","
","""event"",""trial"",""time""
""fullscreenenter"",""1"",""11523""
","
","","","","","","50.200000000186265","images/ball4.png","","","learning","-6","0","0","0","practice","practice","practice","-1","","",""
"html-keyboard-response","33","309006","0.0-8.0-2.0-0.4","5721","1","8","Female","approach_avoid_spark_v1","""event"",""trial"",""time""
""fullscreenenter"",""1"",""11523""
","
","
","""event"",""trial"",""time""
""fullscreenenter"",""1"",""11523""
","
","","","","","","null","<div style=""font-size:60px;"">+</div>","null","","fixation","","","","","","","","","","",""
"aa-learning-trial","34","312012","0.0-8.0-2.0-1.4","5721","1","8","Female","approach_avoid_spark_v1","""event"",""trial"",""time""
""fullscreenenter"",""1"",""11523""
","
","
","""event"",""trial"",""time""
""fullscreenenter"",""1"",""11523""
","
","","","","","","1997.8999999999069","images/racket1.png","","","learning","3","3","1","1","practice","practice","practice","-1","","",""
"html-keyboard-response","35","312516","0.0-8.0-2.0-0.5","5721","1","8","Female","approach_avoid_spark_v1","""event"",""trial"",""time""
""fullscreenenter"",""1"",""11523""
","
","
","""event"",""trial"",""time""
""fullscreenenter"",""1"",""11523""
","
","","","","","","null","<div style=""font-size:60px;"">+</div>","null","","fixation","","","","","","","","","","",""
"aa-learning-trial","36","315520","0.0-8.0-2.0-1.5","5721","1","8","Female","approach_avoid_spark_v1","""event"",""trial"",""time""
""fullscreenenter"",""1"",""11523""
","
","
","""event"",""trial"",""time""
""fullscreenenter"",""1"",""11523""
","
","","","","","","2248","images/racket1.png","","","learning","8","0","0","0","practice","practice","practice","-1","","",""
"html-keyboard-response","37","316023","0.0-8.0-2.0-0.6","5721","1","8","Female","approach_avoid_spark_v1","""event"",""trial"",""time""
""fullscreenenter"",""1"",""11523""
","
","
","""event"",""trial"",""time""
""fullscreenenter"",""1"",""11523""
","
","","","","","","null","<div style=""font-size:60px;"">+</div>","null","","fixation","","","","","","","","","","",""
"aa-learning-trial","38","319027","0.0-8.0-2.0-1.6","5721","1","8","Female","approach_avoid_spark_v1","""event"",""trial"",""time""
""fullscreenenter"",""1"",""11523""
","
","
","""event"",""trial"",""time""
""fullscreenenter"",""1"",""11523""
","
","","","","","","1795.8999999999069","images/racket3.png","","","learning","5","5","1","1","practice","practice","practice","-1","","",""
"html-keyboard-response","39","319530","0.0-8.0-2.0-0.7","5721","1","8","Female","approach_avoid_spark_v1","""event"",""trial"",""time""
""fullscreenenter"",""1"",""11523""
","
","
","""event"",""trial"",""time""
""fullscreenenter"",""1"",""11523""
","
","","","","","","null","<div style=""font-size:60px;"">+</div>","null","","fixation","","","","","","","","","","",""
"aa-learning-trial","40","322557","0.0-8.0-2.0-1.7","5721","1","8","Female","approach_avoid_spark_v1","""event"",""trial"",""time""
""fullscreenenter"",""1"",""11523""
","
","
","""event"",""trial"",""time""
""fullscreenenter"",""1"",""11523""
","
","","","","","","null","images/ball4.png","","","learning","7","-5","","null","practice","practice","practice","-1","","",""
"html-keyboard-response","41","323066","0.0-8.0-2.0-0.8","5721","1","8","Female","approach_avoid_spark_v1","""event"",""trial"",""time""
""fullscreenenter"",""1"",""11523""
","
","
","""event"",""trial"",""time""
""fullscreenenter"",""1"",""11523""
","
","","","","","","null","<div style=""font-size:60px;"">+</div>","null","","fixation","","","","","","","","","","",""
"aa-learning-trial","42","326071","0.0-8.0-2.0-1.8","5721","1","8","Female","approach_avoid_spark_v1","""event"",""trial"",""time""
""fullscreenenter"",""1"",""11523""
","
","
","""event"",""trial"",""time""
""fullscreenenter"",""1"",""11523""
","
","","","","","","2144.399999999907","images/racket2.png","","","learning","-5","-5","1","1","practice","practice","practice","-1","","",""
"html-keyboard-response","43","326573","0.0-8.0-2.0-0.9","5721","1","8","Female","approach_avoid_spark_v1","""event"",""trial"",""time""
""fullscreenenter"",""1"",""11523""
","
","
","""event"",""trial"",""time""
""fullscreenenter"",""1"",""11523""
","
","","","","","","null","<div style=""font-size:60px;"">+</div>","null","","fixation","","","","","","","","","","",""
"aa-learning-trial","44","329578","0.0-8.0-2.0-1.9","5721","1","8","Female","approach_avoid_spark_v1","""event"",""trial"",""time""
""fullscreenenter"",""1"",""11523""
","
","
","""event"",""trial"",""time""
""fullscreenenter"",""1"",""11523""
","
","","","","","","1840.8999999999069","images/ball1.png","","","learning","1","1","1","1","practice","practice","practice","-1","","",""
"html-keyboard-response","45","330081","0.0-8.0-2.0-0.10","5721","1","8","Female","approach_avoid_spark_v1","""event"",""trial"",""time""
""fullscreenenter"",""1"",""11523""
","
","
","""event"",""trial"",""time""
""fullscreenenter"",""1"",""11523""
","
","","","","","","null","<div style=""font-size:60px;"">+</div>","null","","fixation","","","","","","","","","","",""
"aa-learning-trial","46","333090","0.0-8.0-2.0-1.10","5721","1","8","Female","approach_avoid_spark_v1","""event"",""trial"",""time""
""fullscreenenter"",""1"",""11523""
","
","
","""event"",""trial"",""time""
""fullscreenenter"",""1"",""11523""
","
","","","","","","2020.6999999997206","images/racket3.png","","","learning","5","0","0","0","practice","practice","practice","-1","","",""
"html-keyboard-response","47","333592","0.0-8.0-2.0-0.11","5721","1","8","Female","approach_avoid_spark_v1","""event"",""trial"",""time""
""fullscreenenter"",""1"",""11523""
","
","
","""event"",""trial"",""time""
""fullscreenenter"",""1"",""11523""
","
","","","","","","null","<div style=""font-size:60px;"">+</div>","null","","fixation","","","","","","","","","","",""
"aa-learning-trial","48","336601","0.0-8.0-2.0-1.11","5721","1","8","Female","approach_avoid_spark_v1","""event"",""trial"",""time""
""fullscreenenter"",""1"",""11523""
","
","
","""event"",""trial"",""time""
""fullscreenenter"",""1"",""11523""
","
","","","","","","1110.1000000000931","images/ball2.png","","","learning","5","5","1","1","practice","practice","practice","-1","","",""
"html-button-response","49","348970","0.0-8.0-3.0","5721","1","8","Female","approach_avoid_spark_v1","""event"",""trial"",""time""
""fullscreenenter"",""1"",""11523""
","
","
","""event"",""trial"",""time""
""fullscreenenter"",""1"",""11523""
","
","","","","","","12305.700000000186","<p> You earned -6 points in the practice round! </p>","0","","break","","","","","","","","","","",""
"learning-instructions","50","360477","0.0-8.0-4.0-0.0","5721","1","8","Female","approach_avoid_spark_v1","""event"",""trial"",""time""
""fullscreenenter"",""1"",""11523""
","
","
","""event"",""trial"",""time""
""fullscreenenter"",""1"",""11523""
","
","","","","","","4527.299999999814","<p> It's almost time to start the real game. </p><p> Before you start, we're going to ask you a few questions about how the game works. </p>","","0","instructions","","","","","","","","","","",""
"preload","51","367634","0.0-8.0-5.0","5721","1","8","Female","approach_avoid_spark_v1","""event"",""trial"",""time""
""fullscreenenter"",""1"",""11523""
","
","
","""event"",""trial"",""time""
""fullscreenenter"",""1"",""11523""
","
","true","false","[]","[]","[]","","","","","","","","","","","","","","","",""
"comp-q","52","381562","0.0-8.0-6.0-0.0","5721","1","8","Female","approach_avoid_spark_v1","""event"",""trial"",""time""
""fullscreenenter"",""1"",""11523""
","
","
","""event"",""trial"",""time""
""fullscreenenter"",""1"",""11523""
","
","","","","","","8922.799999999814","<p> <b> True or False? </b> </p><p> If you see a number in GREY, that means you earned that many points. </p>","","0","comp_question","","","","","","","","","false","",""
"comp-q","53","392156","0.0-8.0-6.0-1.0","5721","1","8","Female","approach_avoid_spark_v1","""event"",""trial"",""time""
""fullscreenenter"",""1"",""11523""
","
","
","""event"",""trial"",""time""
""fullscreenenter"",""1"",""11523""
","
","","","","","","1757.0999999996275","<p><b> Incorrect. </b> If you see a grey number, it means you earned ZERO points. <br> The grey numbers show the points you WOULD HAVE earned if you had made the other choice. </p>","","0","comp_answer","","","","","","","","","","",""
"comp-q","54","404200","0.0-8.0-6.1-0.1","5721","1","8","Female","approach_avoid_spark_v1","""event"",""trial"",""time""
""fullscreenenter"",""1"",""11523""
","
","
","""event"",""trial"",""time""
""fullscreenenter"",""1"",""11523""
","
","","","","","","6891.5","<p> <b> True or False? </b> </p><p> If you see a number in GREY, that means you earned that many points. </p>","","1","comp_question","","","","","","","","","true","",""
"comp-q","55","415703","0.0-8.0-6.1-1.1","5721","1","8","Female","approach_avoid_spark_v1","""event"",""trial"",""time""
""fullscreenenter"",""1"",""11523""
","
","
","""event"",""trial"",""time""
""fullscreenenter"",""1"",""11523""
","
","","","","","","3076.6999999997206","<p><b> That's right! </b> If you see a grey number, it means you earned ZERO points. <br> The grey numbers show the points you WOULD HAVE earned if you had made the other choice. </p>","","0","comp_answer","","","","","","","","","","",""
"comp-q","56","424526","0.0-8.0-7.0-0.0","5721","1","8","Female","approach_avoid_spark_v1","""event"",""trial"",""time""
""fullscreenenter"",""1"",""11523""
","
","
","""event"",""trial"",""time""
""fullscreenenter"",""1"",""11523""
","
","","","","","","4117.700000000186","<p> <b> True or False? </b> </p><p> You will have as much time as you want to make each choice. </p>","","1","comp_question","","","","","","","","","true","",""
"comp-q","57","430164","0.0-8.0-7.0-1.0","5721","1","8","Female","approach_avoid_spark_v1","""event"",""trial"",""time""
""fullscreenenter"",""1"",""11523""
","
","
","""event"",""trial"",""time""
""fullscreenenter"",""1"",""11523""
","
","","","","","","1556.1000000000931","<p> <b> That's right! </b> You will only have 3 seconds to make each choice. </p>","","0","comp_answer","","","","","","","","","","",""
"comp-q","58","436792","0.0-8.0-8.0-0.0","5721","1","8","Female","approach_avoid_spark_v1","""event"",""trial"",""time""
""fullscreenenter"",""1"",""11523""
","
","
","""event"",""trial"",""time""
""fullscreenenter"",""1"",""11523""
","
","","","","","","1954","<p> <b> True or False? </b> </p><p> You should use the '1' and '0' keys to make your choices. </p>","","1","comp_question","","","","","","","","","false","",""
"comp-q","59","443784","0.0-8.0-8.0-1.0","5721","1","8","Female","approach_avoid_spark_v1","""event"",""trial"",""time""
""fullscreenenter"",""1"",""11523""
","
","
","""event"",""trial"",""time""
""fullscreenenter"",""1"",""11523""
","
","","","","","","2435.7999999998137","<p> <b>Incorrect.</b> You <i>should</i> use the '1' and '0' keys to make each choice. </p>","","0","comp_answer","","","","","","","","","","",""
"comp-q","60","473947","0.0-8.0-8.1-0.1","5721","1","8","Female","approach_avoid_spark_v1","""event"",""trial"",""time""
""fullscreenenter"",""1"",""11523""
","
","
","""event"",""trial"",""time""
""fullscreenenter"",""1"",""11523""
","
","","","","","","25486.400000000373","<p> <b> True or False? </b> </p><p> You should use the '1' and '0' keys to make your choices. </p>","","0","comp_question","","","","","","","","","true","",""
"comp-q","61","481803","0.0-8.0-8.1-1.1","5721","1","8","Female","approach_avoid_spark_v1","""event"",""trial"",""time""
""fullscreenenter"",""1"",""11523""
","
","
","""event"",""trial"",""time""
""fullscreenenter"",""1"",""11523""
","
","","","","","","3234","<p> <b> That's right! </b> You should use the '1' and '0' keys to make each choice. </p>","","0","comp_answer","","","","","","","","","","",""
"learning-instructions","62","496530","0.0-8.0-9.0-0.0","5721","1","8","Female","approach_avoid_spark_v1","""event"",""trial"",""time""
""fullscreenenter"",""1"",""11523""
","
","
","""event"",""trial"",""time""
""fullscreenenter"",""1"",""11523""
","
","","","","","","8431.400000000373","<p> It's now time to start the real game. </p>Do your best, because the points you earn in the next rounds will influence your bonus payment. </p>","","0","instructions","","","","","","","","","","",""
"preload","63","496751","0.0-9.0-0.0","5721","1","8","Female","approach_avoid_spark_v1","""event"",""trial"",""time""
""fullscreenenter"",""1"",""11523""
","
","
","""event"",""trial"",""time""
""fullscreenenter"",""1"",""11523""
","
","true","false","[]","[]","[]","","","","","","","","","","","","","","","",""
"learning-instructions","64","503001","0.0-9.0-1.0-0.0","5721","1","8","Female","approach_avoid_spark_v1","""event"",""trial"",""time""
""fullscreenenter"",""1"",""11523""
","
","
","""event"",""trial"",""time""
""fullscreenenter"",""1"",""11523""
","
","","","","","","2523.1999999997206","<p> Your goal in this round is to eat tasty fruit. </p></div>","","0","instructions","","","","","","","","","","",""
"learning-instructions","65","515970","0.0-9.0-1.0-0.1","5721","1","8","Female","approach_avoid_spark_v1","""event"",""trial"",""time""
""fullscreenenter"",""1"",""11523""
","
","
","""event"",""trial"",""time""
""fullscreenenter"",""1"",""11523""
","
","","","","","","2552.600000000093","<p> Some of the fruits you will see are tasty. Others are rotten on the inside.  </p><p> On each turn, you will see a fruit.   </p><p> You need to decide whether to eat it or not.  </p>","","0","instructions","","","","","","","","","","",""
"learning-instructions","66","526483","0.0-9.0-1.0-0.2","5721","1","8","Female","approach_avoid_spark_v1","""event"",""trial"",""time""
""fullscreenenter"",""1"",""11523""
","
","
","""event"",""trial"",""time""
""fullscreenenter"",""1"",""11523""
","
","","","","","","5364.699999999721","<p> You can eat the fruit by pressing 1 and choose not to eat it by pressing 0. </p><br><div class=""choice-instructions-grid""> <div class=""choice-option""><img src=""images/approach.png"" class=""choice-option-img"" stage=""instructions"" position=""0"" ><div class=""choice-option-text""> Press ""1."" </div></div><div class=""choice-option""><img src=""images/avoid.png"" class=""choice-option-img"" stage=""instructions"" position=""1"" ><div class=""choice-option-text""> Press ""0."" </div></div>","","0","instructions","","","","","","","","","","",""
"learning-instructions","67","537686","0.0-9.0-1.0-0.3","5721","1","8","Female","approach_avoid_spark_v1","""event"",""trial"",""time""
""fullscreenenter"",""1"",""11523""
","
","
","""event"",""trial"",""time""
""fullscreenenter"",""1"",""11523""
","
","","","","","","3497","<p> If you eat the fruit and it was tasty, you will win points! </p><p> But if you eat the fruit and it was rotten, you will lose points. </p>","","0","instructions","","","","","","","","","","",""
"learning-instructions","68","550969","0.0-9.0-1.0-0.4","5721","1","8","Female","approach_avoid_spark_v1","""event"",""trial"",""time""
""fullscreenenter"",""1"",""11523""
","
","
","""event"",""trial"",""time""
""fullscreenenter"",""1"",""11523""
","
","","","","","","1488.2000000001863","<p> You will earn points based on how tasty or rotten the fruit was. </p><p> If it was tasty, you will WIN anywhere from 1 - 9 points, </p><p> but if it was rotten, you will LOSE anywhere from 1 - 9 points. </p>","","0","instructions","","","","","","","","","","",""
"learning-instructions","69","561206","0.0-9.0-1.0-0.5","5721","1","8","Female","approach_avoid_spark_v1","""event"",""trial"",""time""
""fullscreenenter"",""1"",""11523""
","
","
","""event"",""trial"",""time""
""fullscreenenter"",""1"",""11523""
","
","","","","","","2284.7999999998137","<p> You will see how many points you won or lost in the center of the screen. </p><p> Here is what you would see if you earned 5 points: </p><p style=""color:green;font-size:50px;font-weight:bolder"">5</p>","","0","instructions","","","","","","","","","","",""
"learning-instructions","70","573308","0.0-9.0-1.0-0.6","5721","1","8","Female","approach_avoid_spark_v1","""event"",""trial"",""time""
""fullscreenenter"",""1"",""11523""
","
","
","""event"",""trial"",""time""
""fullscreenenter"",""1"",""11523""
","
","","","","","","4139.300000000279","<p> And here is what you would see if you lost 3 points: </p><p style=""color:red;font-size:50px;font-weight:bolder"">-3</p>","","0","instructions","","","","","","","","","","",""
"learning-instructions","71","592310","0.0-9.0-1.0-0.7","5721","1","8","Female","approach_avoid_spark_v1","""event"",""trial"",""time""
""fullscreenenter"",""1"",""11523""
","
","
","""event"",""trial"",""time""
""fullscreenenter"",""1"",""11523""
","
","","","","","","3231.2000000001863","<p> Some fruit is very tasty or very rotten. </p><p> These fruits will make you win or lose LOTS of points. </p><p> Other fruits are only kind of tasty or kind of rotten. </p><p> These fruits will make you win or lose small amounts of points. </p>","","0","instructions","","","","","","","","","","",""
"learning-instructions","72","606101","0.0-9.0-1.0-0.8","5721","1","8","Female","approach_avoid_spark_v1","""event"",""trial"",""time""
""fullscreenenter"",""1"",""11523""
","
","
","""event"",""trial"",""time""
""fullscreenenter"",""1"",""11523""
","
","","","","","","2687.399999999907","<p> If you choose to not eat the fruit, you will not win or lose any points. </p><p>  However, in the center of the screen, you will see the number of points you WOULD HAVE earned if you had eaten the fruit. </p>","","0","instructions","","","","","","","","","","",""
"learning-instructions","73","621081","0.0-9.0-1.0-0.9","5721","1","8","Female","approach_avoid_spark_v1","""event"",""trial"",""time""
""fullscreenenter"",""1"",""11523""
","
","
","""event"",""trial"",""time""
""fullscreenenter"",""1"",""11523""
","
","","","","","","4612.699999999721","<p> Here is what you might see if you did not eat the fruit but the fruit was tasty: </p><p style=""color:grey; font-size:50px; display: inline-block; border-spacing: 15px; border-width:3px; border-style:solid; border-color:red"">  &nbsp; 6 &nbsp; </p><p> Remember, in this case, you would not win or lose ANY points because you did not eat the fruit.  </p>","","0","instructions","","","","","","","","","","",""
"learning-instructions","74","631218","0.0-9.0-1.0-0.10","5721","1","8","Female","approach_avoid_spark_v1","""event"",""trial"",""time""
""fullscreenenter"",""1"",""11523""
","
","
","""event"",""trial"",""time""
""fullscreenenter"",""1"",""11523""
","
","","","","","","1569.0999999996275","<p> Try to make the best choice for each fruit because </p><p> at the end of the game, you will earn bonus money based on how many points you earned. </p>","","0","instructions","","","","","","","","","","",""
"learning-instructions","75","643334","0.0-9.0-1.0-0.11","5721","1","8","Female","approach_avoid_spark_v1","""event"",""trial"",""time""
""fullscreenenter"",""1"",""11523""
","
","
","""event"",""trial"",""time""
""fullscreenenter"",""1"",""11523""
","
","","","","","","3916.100000000093","<p> You will have 3 seconds to make each choice. Try to respond before time runs out! </p><p> You will lose 5 points each time you do not make a response. </p>","","0","instructions","","","","","","","","","","",""
"html-keyboard-response","76","643952","0.0-9.0-2.0-0.0","5721","1","8","Female","approach_avoid_spark_v1","""event"",""trial"",""time""
""fullscreenenter"",""1"",""11523""
","
","
","""event"",""trial"",""time""
""fullscreenenter"",""1"",""11523""
","
","","","","","","null","<div style=""font-size:60px;"">+</div>","null","","fixation","","","","","","","","","","",""
"aa-learning-trial","77","646980","0.0-9.0-2.0-1.0","5721","1","8","Female","approach_avoid_spark_v1","""event"",""trial"",""time""
""fullscreenenter"",""1"",""11523""
","
","
","""event"",""trial"",""time""
""fullscreenenter"",""1"",""11523""
","
","","","","","","null","images/orange6.png","","","learning","4","-5","","null","orange","fruit","1","0","","good","[6]"
"html-keyboard-response","78","647490","0.0-9.0-2.0-0.1","5721","1","8","Female","approach_avoid_spark_v1","""event"",""trial"",""time""
""fullscreenenter"",""1"",""11523""
","
","
","""event"",""trial"",""time""
""fullscreenenter"",""1"",""11523""
","
","","","","","","null","<div style=""font-size:60px;"">+</div>","null","","fixation","","","","","","","","","","",""
"aa-learning-trial","79","650517","0.0-9.0-2.0-1.1","5721","1","8","Female","approach_avoid_spark_v1","""event"",""trial"",""time""
""fullscreenenter"",""1"",""11523""
","
","
","""event"",""trial"",""time""
""fullscreenenter"",""1"",""11523""
","
","","","","","","1833.1999999997206","images/orange2.png","","","learning","5","5","1","1","orange","fruit","1","0","","good","[6]"
"html-keyboard-response","80","651030","0.0-9.0-2.0-0.2","5721","1","8","Female","approach_avoid_spark_v1","""event"",""trial"",""time""
""fullscreenenter"",""1"",""11523""
","
","
","""event"",""trial"",""time""
""fullscreenenter"",""1"",""11523""
","
","","","","","","null","<div style=""font-size:60px;"">+</div>","null","","fixation","","","","","","","","","","",""
"aa-learning-trial","81","654047","0.0-9.0-2.0-1.2","5721","1","8","Female","approach_avoid_spark_v1","""event"",""trial"",""time""
""fullscreenenter"",""1"",""11523""
","
","
","""event"",""trial"",""time""
""fullscreenenter"",""1"",""11523""
","
","","","","","","null","images/orange2.png","","","learning","4","-5","","null","orange","fruit","1","0","","good","[6]"
"html-keyboard-response","82","654566","0.0-9.0-2.0-0.3","5721","1","8","Female","approach_avoid_spark_v1","""event"",""trial"",""time""
""fullscreenenter"",""1"",""11523""
","
","
","""event"",""trial"",""time""
""fullscreenenter"",""1"",""11523""
","
","","","","","","null","<div style=""font-size:60px;"">+</div>","null","","fixation","","","","","","","","","","",""
"aa-learning-trial","83","657589","0.0-9.0-2.0-1.3","5721","1","8","Female","approach_avoid_spark_v1","""event"",""trial"",""time""
""fullscreenenter"",""1"",""11523""
","
","
","""event"",""trial"",""time""
""fullscreenenter"",""1"",""11523""
","
","","","","","","2138.600000000093","images/banana7.png","","","learning","2","0","0","0","banana","fruit","1","0","","neutral","0"
"html-keyboard-response","84","658109","0.0-9.0-2.0-0.4","5721","1","8","Female","approach_avoid_spark_v1","""event"",""trial"",""time""
""fullscreenenter"",""1"",""11523""
","
","
","""event"",""trial"",""time""
""fullscreenenter"",""1"",""11523""
","
","","","","","","null","<div style=""font-size:60px;"">+</div>","null","","fixation","","","","","","","","","","",""
"aa-learning-trial","85","661117","0.0-9.0-2.0-1.4","5721","1","8","Female","approach_avoid_spark_v1","""event"",""trial"",""time""
""fullscreenenter"",""1"",""11523""
","
","
","""event"",""trial"",""time""
""fullscreenenter"",""1"",""11523""
","
","","","","","","1979.2000000001863","images/banana5.png","","","learning","-1","-1","1","1","banana","fruit","1","0","","neutral","0"
"html-keyboard-response","86","661626","0.0-9.0-2.0-0.5","5721","1","8","Female","approach_avoid_spark_v1","""event"",""trial"",""time""
""fullscreenenter"",""1"",""11523""
","
","
","""event"",""trial"",""time""
""fullscreenenter"",""1"",""11523""
","
","","","","","","null","<div style=""font-size:60px;"">+</div>","null","","fixation","","","","","","","","","","",""
"aa-learning-trial","87","664633","0.0-9.0-2.0-1.5","5721","1","8","Female","approach_avoid_spark_v1","""event"",""trial"",""time""
""fullscreenenter"",""1"",""11523""
","
","
","""event"",""trial"",""time""
""fullscreenenter"",""1"",""11523""
","
","","","","","","2531.4000000003725","images/banana8.png","","","learning","[1]","1","1","1","banana","fruit","1","0","","neutral","0"
"html-keyboard-response","88","665148","0.0-9.0-2.0-0.6","5721","1","8","Female","approach_avoid_spark_v1","""event"",""trial"",""time""
""fullscreenenter"",""1"",""11523""
","
","
","""event"",""trial"",""time""
""fullscreenenter"",""1"",""11523""
","
","","","","","","null","<div style=""font-size:60px;"">+</div>","null","","fixation","","","","","","","","","","",""
"aa-learning-trial","89","668170","0.0-9.0-2.0-1.6","5721","1","8","Female","approach_avoid_spark_v1","""event"",""trial"",""time""
""fullscreenenter"",""1"",""11523""
","
","
","""event"",""trial"",""time""
""fullscreenenter"",""1"",""11523""
","
","","","","","","null","images/straw4.png","","","learning","-3","-5","","null","straw","fruit","1","0","","bad","[-4]"
"html-keyboard-response","90","668676","0.0-9.0-2.0-0.7","5721","1","8","Female","approach_avoid_spark_v1","""event"",""trial"",""time""
""fullscreenenter"",""1"",""11523""
","
","
","""event"",""trial"",""time""
""fullscreenenter"",""1"",""11523""
","
","","","","","","null","<div style=""font-size:60px;"">+</div>","null","","fixation","","","","","","","","","","",""
"aa-learning-trial","91","671680","0.0-9.0-2.0-1.7","5721","1","8","Female","approach_avoid_spark_v1","""event"",""trial"",""time""
""fullscreenenter"",""1"",""11523""
","
","
","""event"",""trial"",""time""
""fullscreenenter"",""1"",""11523""
","
","","","","","","2555.399999999907","images/straw1.png","","","learning","-5","0","0","0","straw","fruit","1","0","","bad","[-4]"
"html-keyboard-response","92","672182","0.0-9.0-2.0-0.8","5721","1","8","Female","approach_avoid_spark_v1","""event"",""trial"",""time""
""fullscreenenter"",""1"",""11523""
","
","
","""event"",""trial"",""time""
""fullscreenenter"",""1"",""11523""
","
","","","","","","null","<div style=""font-size:60px;"">+</div>","null","","fixation","","","","","","","","","","",""
"aa-learning-trial","93","675187","0.0-9.0-2.0-1.8","5721","1","8","Female","approach_avoid_spark_v1","""event"",""trial"",""time""
""fullscreenenter"",""1"",""11523""
","
","
","""event"",""trial"",""time""
""fullscreenenter"",""1"",""11523""
","
","","","","","","null","images/straw7.png","","","learning","-3","-5","","null","straw","fruit","1","0","","bad","[-4]"
"html-keyboard-response","94","675690","0.0-9.0-2.0-0.9","5721","1","8","Female","approach_avoid_spark_v1","""event"",""trial"",""time""
""fullscreenenter"",""1"",""11523""
","
","
","""event"",""trial"",""time""
""fullscreenenter"",""1"",""11523""
","
","","","","","","null","<div style=""font-size:60px;"">+</div>","null","","fixation","","","","","","","","","","",""
"aa-learning-trial","95","678698","0.0-9.0-2.0-1.9","5721","1","8","Female","approach_avoid_spark_v1","""event"",""trial"",""time""
""fullscreenenter"",""1"",""11523""
","
","
","""event"",""trial"",""time""
""fullscreenenter"",""1"",""11523""
","
","","","","","","661.6000000000931","images/straw7.png","","","learning","-6","0","0","0","straw","fruit","1","0","","bad","[-4]"
"html-keyboard-response","96","679200","0.0-9.0-2.0-0.10","5721","1","8","Female","approach_avoid_spark_v1","""event"",""trial"",""time""
""fullscreenenter"",""1"",""11523""
","
","
","""event"",""trial"",""time""
""fullscreenenter"",""1"",""11523""
","
","","","","","","null","<div style=""font-size:60px;"">+</div>","null","","fixation","","","","","","","","","","",""
"aa-learning-trial","97","682206","0.0-9.0-2.0-1.10","5721","1","8","Female","approach_avoid_spark_v1","""event"",""trial"",""time""
""fullscreenenter"",""1"",""11523""
","
","
","""event"",""trial"",""time""
""fullscreenenter"",""1"",""11523""
","
","","","","","","2202.899999999907","images/orange4.png","","","learning","9","9","1","1","orange","fruit","1","0","","good","[6]"
"html-keyboard-response","98","682709","0.0-9.0-2.0-0.11","5721","1","8","Female","approach_avoid_spark_v1","""event"",""trial"",""time""
""fullscreenenter"",""1"",""11523""
","
","
","""event"",""trial"",""time""
""fullscreenenter"",""1"",""11523""
","
","","","","","","null","<div style=""font-size:60px;"">+</div>","null","","fixation","","","","","","","","","","",""
"aa-learning-trial","99","685714","0.0-9.0-2.0-1.11","5721","1","8","Female","approach_avoid_spark_v1","""event"",""trial"",""time""
""fullscreenenter"",""1"",""11523""
","
","
","""event"",""trial"",""time""
""fullscreenenter"",""1"",""11523""
","
","","","","","","2977","images/orange6.png","","","learning","7","0","0","0","orange","fruit","1","0","","good","[6]"
"html-keyboard-response","100","686218","0.0-9.0-2.0-0.12","5721","1","8","Female","approach_avoid_spark_v1","""event"",""trial"",""time""
""fullscreenenter"",""1"",""11523""
","
","
","""event"",""trial"",""time""
""fullscreenenter"",""1"",""11523""
","
","","","","","","null","<div style=""font-size:60px;"">+</div>","null","","fixation","","","","","","","","","","",""
"aa-learning-trial","101","689227","0.0-9.0-2.0-1.12","5721","1","8","Female","approach_avoid_spark_v1","""event"",""trial"",""time""
""fullscreenenter"",""1"",""11523""
","
","
","""event"",""trial"",""time""
""fullscreenenter"",""1"",""11523""
","
","","","","","","2953.600000000093","images/straw1.png","","","learning","-5","0","0","0","straw","fruit","1","0","","bad","[-4]"
"html-keyboard-response","102","689729","0.0-9.0-2.0-0.13","5721","1","8","Female","approach_avoid_spark_v1","""event"",""trial"",""time""
""fullscreenenter"",""1"",""11523""
","
","
","""event"",""trial"",""time""
""fullscreenenter"",""1"",""11523""
","
","","","","","","null","<div style=""font-size:60px;"">+</div>","null","","fixation","","","","","","","","","","",""
"aa-learning-trial","103","692734","0.0-9.0-2.0-1.13","5721","1","8","Female","approach_avoid_spark_v1","""event"",""trial"",""time""
""fullscreenenter"",""1"",""11523""
","
","
","""event"",""trial"",""time""
""fullscreenenter"",""1"",""11523""
","
","","","","","","1962.1000000000931","images/banana8.png","","","learning","-2","-2","1","1","banana","fruit","1","0","","neutral","0"
"html-keyboard-response","104","693236","0.0-9.0-2.0-0.14","5721","1","8","Female","approach_avoid_spark_v1","""event"",""trial"",""time""
""fullscreenenter"",""1"",""11523""
","
","
","""event"",""trial"",""time""
""fullscreenenter"",""1"",""11523""
","
","","","","","","null","<div style=""font-size:60px;"">+</div>","null","","fixation","","","","","","","","","","",""
"aa-learning-trial","105","696245","0.0-9.0-2.0-1.14","5721","1","8","Female","approach_avoid_spark_v1","""event"",""trial"",""time""
""fullscreenenter"",""1"",""11523""
","
","
","""event"",""trial"",""time""
""fullscreenenter"",""1"",""11523""
","
","","","","","","2693.7999999998137","images/banana5.png","","","learning","[-1]","0","0","0","banana","fruit","1","0","","neutral","0"
"html-keyboard-response","106","696751","0.0-9.0-2.0-0.15","5721","1","8","Female","approach_avoid_spark_v1","""event"",""trial"",""time""
""fullscreenenter"",""1"",""11523""
","
","
","""event"",""trial"",""time""
""fullscreenenter"",""1"",""11523""
","
","","","","","","null","<div style=""font-size:60px;"">+</div>","null","","fixation","","","","","","","","","","",""
"aa-learning-trial","107","699755","0.0-9.0-2.0-1.15","5721","1","8","Female","approach_avoid_spark_v1","""event"",""trial"",""time""
""fullscreenenter"",""1"",""11523""
","
","
","""event"",""trial"",""time""
""fullscreenenter"",""1"",""11523""
","
","","","","","","2156.2999999998137","images/straw4.png","","","learning","-3","0","0","0","straw","fruit","1","0","","bad","[-4]"
"html-keyboard-response","108","700258","0.0-9.0-2.0-0.16","5721","1","8","Female","approach_avoid_spark_v1","""event"",""trial"",""time""
""fullscreenenter"",""1"",""11523""
","
","
","""event"",""trial"",""time""
""fullscreenenter"",""1"",""11523""
","
","","","","","","null","<div style=""font-size:60px;"">+</div>","null","","fixation","","","","","","","","","","",""
"aa-learning-trial","109","703264","0.0-9.0-2.0-1.16","5721","1","8","Female","approach_avoid_spark_v1","""event"",""trial"",""time""
""fullscreenenter"",""1"",""11523""
","
","
","""event"",""trial"",""time""
""fullscreenenter"",""1"",""11523""
","
","","","","","","1406.1000000000931","images/straw4.png","","","learning","-3","-3","1","1","straw","fruit","1","0","","bad","[-4]"
"html-keyboard-response","110","703767","0.0-9.0-2.0-0.17","5721","1","8","Female","approach_avoid_spark_v1","""event"",""trial"",""time""
""fullscreenenter"",""1"",""11523""
","
","
","""event"",""trial"",""time""
""fullscreenenter"",""1"",""11523""
","
","","","","","","null","<div style=""font-size:60px;"">+</div>","null","","fixation","","","","","","","","","","",""
"aa-learning-trial","111","706771","0.0-9.0-2.0-1.17","5721","1","8","Female","approach_avoid_spark_v1","""event"",""trial"",""time""
""fullscreenenter"",""1"",""11523""
","
","
","""event"",""trial"",""time""
""fullscreenenter"",""1"",""11523""
","
","","","","","","null","images/straw3.png","","","learning","-3","-5","","null","straw","fruit","1","0","","bad","[-4]"
"html-keyboard-response","112","707274","0.0-9.0-2.0-0.18","5721","1","8","Female","approach_avoid_spark_v1","""event"",""trial"",""time""
""fullscreenenter"",""1"",""11523""
","
","
","""event"",""trial"",""time""
""fullscreenenter"",""1"",""11523""
","
","","","","","","null","<div style=""font-size:60px;"">+</div>","null","","fixation","","","","","","","","","","",""
"aa-learning-trial","113","710285","0.0-9.0-2.0-1.18","5721","1","8","Female","approach_avoid_spark_v1","""event"",""trial"",""time""
""fullscreenenter"",""1"",""11523""
","
","
","""event"",""trial"",""time""
""fullscreenenter"",""1"",""11523""
","
","","","","","","null","images/banana5.png","","","learning","1","-5","","null","banana","fruit","1","0","","neutral","0"
"html-keyboard-response","114","710788","0.0-9.0-2.0-0.19","5721","1","8","Female","approach_avoid_spark_v1","""event"",""trial"",""time""
""fullscreenenter"",""1"",""11523""
","
","
","""event"",""trial"",""time""
""fullscreenenter"",""1"",""11523""
","
","","","","","","null","<div style=""font-size:60px;"">+</div>","null","","fixation","","","","","","","","","","",""
"aa-learning-trial","115","713795","0.0-9.0-2.0-1.19","5721","1","8","Female","approach_avoid_spark_v1","""event"",""trial"",""time""
""fullscreenenter"",""1"",""11523""
","
","
","""event"",""trial"",""time""
""fullscreenenter"",""1"",""11523""
","
","","","","","","null","images/banana8.png","","","learning","3","-5","","null","banana","fruit","1","0","","neutral","0"
"html-keyboard-response","116","714297","0.0-9.0-2.0-0.20","5721","1","8","Female","approach_avoid_spark_v1","""event"",""trial"",""time""
""fullscreenenter"",""1"",""11523""
","
","
","""event"",""trial"",""time""
""fullscreenenter"",""1"",""11523""
","
","","","","","","null","<div style=""font-size:60px;"">+</div>","null","","fixation","","","","","","","","","","",""
"aa-learning-trial","117","717312","0.0-9.0-2.0-1.20","5721","1","8","Female","approach_avoid_spark_v1","""event"",""trial"",""time""
""fullscreenenter"",""1"",""11523""
","
","
","""event"",""trial"",""time""
""fullscreenenter"",""1"",""11523""
","
","","","","","","1324.6000000000931","images/straw1.png","","","learning","-9","0","0","0","straw","fruit","1","0","","bad","[-4]"
"html-keyboard-response","118","717814","0.0-9.0-2.0-0.21","5721","1","8","Female","approach_avoid_spark_v1","""event"",""trial"",""time""
""fullscreenenter"",""1"",""11523""
","
","
","""event"",""trial"",""time""
""fullscreenenter"",""1"",""11523""
","
","","","","","","null","<div style=""font-size:60px;"">+</div>","null","","fixation","","","","","","","","","","",""
"aa-learning-trial","119","720825","0.0-9.0-2.0-1.21","5721","1","8","Female","approach_avoid_spark_v1","""event"",""trial"",""time""
""fullscreenenter"",""1"",""11523""
","
","
","""event"",""trial"",""time""
""fullscreenenter"",""1"",""11523""
","
","","","","","","1206.1000000000931","images/straw7.png","","","learning","-4","-4","1","1","straw","fruit","1","0","","bad","[-4]"
"html-keyboard-response","120","721332","0.0-9.0-2.0-0.22","5721","1","8","Female","approach_avoid_spark_v1","""event"",""trial"",""time""
""fullscreenenter"",""1"",""11523""
","
","
","""event"",""trial"",""time""
""fullscreenenter"",""1"",""11523""
","
","","","","","","null","<div style=""font-size:60px;"">+</div>","null","","fixation","","","","","","","","","","",""
"aa-learning-trial","121","724341","0.0-9.0-2.0-1.22","5721","1","8","Female","approach_avoid_spark_v1","""event"",""trial"",""time""
""fullscreenenter"",""1"",""11523""
","
","
","""event"",""trial"",""time""
""fullscreenenter"",""1"",""11523""
","
","","","","","","2149.2000000001863","images/orange7.png","","","learning","6","0","0","0","orange","fruit","1","0","","good","[6]"
"html-keyboard-response","122","724850","0.0-9.0-2.0-0.23","5721","1","8","Female","approach_avoid_spark_v1","""event"",""trial"",""time""
""fullscreenenter"",""1"",""11523""
","
","
","""event"",""trial"",""time""
""fullscreenenter"",""1"",""11523""
","
","","","","","","null","<div style=""font-size:60px;"">+</div>","null","","fixation","","","","","","","","","","",""
"aa-learning-trial","123","727854","0.0-9.0-2.0-1.23","5721","1","8","Female","approach_avoid_spark_v1","""event"",""trial"",""time""
""fullscreenenter"",""1"",""11523""
","
","
","""event"",""trial"",""time""
""fullscreenenter"",""1"",""11523""
","
","","","","","","2511.2999999998137","images/banana1.png","","","learning","1","1","1","1","banana","fruit","1","0","","neutral","0"
"html-keyboard-response","124","728356","0.0-9.0-2.0-0.24","5721","1","8","Female","approach_avoid_spark_v1","""event"",""trial"",""time""
""fullscreenenter"",""1"",""11523""
","
","
","""event"",""trial"",""time""
""fullscreenenter"",""1"",""11523""
","
","","","","","","null","<div style=""font-size:60px;"">+</div>","null","","fixation","","","","","","","","","","",""
"aa-learning-trial","125","731378","0.0-9.0-2.0-1.24","5721","1","8","Female","approach_avoid_spark_v1","""event"",""trial"",""time""
""fullscreenenter"",""1"",""11523""
","
","
","""event"",""trial"",""time""
""fullscreenenter"",""1"",""11523""
","
","","","","","","1550","images/straw1.png","","","learning","-3","0","0","0","straw","fruit","1","0","","bad","[-4]"
"html-keyboard-response","126","731885","0.0-9.0-2.0-0.25","5721","1","8","Female","approach_avoid_spark_v1","""event"",""trial"",""time""
""fullscreenenter"",""1"",""11523""
","
","
","""event"",""trial"",""time""
""fullscreenenter"",""1"",""11523""
","
","","","","","","null","<div style=""font-size:60px;"">+</div>","null","","fixation","","","","","","","","","","",""
"aa-learning-trial","127","734889","0.0-9.0-2.0-1.25","5721","1","8","Female","approach_avoid_spark_v1","""event"",""trial"",""time""
""fullscreenenter"",""1"",""11523""
","
","
","""event"",""trial"",""time""
""fullscreenenter"",""1"",""11523""
","
","","","","","","2048.899999999907","images/orange6.png","","","learning","4","0","0","0","orange","fruit","1","0","","good","[6]"
"html-keyboard-response","128","735392","0.0-9.0-2.0-0.26","5721","1","8","Female","approach_avoid_spark_v1","""event"",""trial"",""time""
""fullscreenenter"",""1"",""11523""
","
","
","""event"",""trial"",""time""
""fullscreenenter"",""1"",""11523""
","
","","","","","","null","<div style=""font-size:60px;"">+</div>","null","","fixation","","","","","","","","","","",""
"aa-learning-trial","129","738397","0.0-9.0-2.0-1.26","5721","1","8","Female","approach_avoid_spark_v1","""event"",""trial"",""time""
""fullscreenenter"",""1"",""11523""
","
","
","""event"",""trial"",""time""
""fullscreenenter"",""1"",""11523""
","
","","","","","","1601.2000000001863","images/banana8.png","","","learning","-2","0","0","0","banana","fruit","1","0","","neutral","0"
"html-keyboard-response","130","738900","0.0-9.0-2.0-0.27","5721","1","8","Female","approach_avoid_spark_v1","""event"",""trial"",""time""
""fullscreenenter"",""1"",""11523""
","
","
","""event"",""trial"",""time""
""fullscreenenter"",""1"",""11523""
","
","","","","","","null","<div style=""font-size:60px;"">+</div>","null","","fixation","","","","","","","","","","",""
"aa-learning-trial","131","741905","0.0-9.0-2.0-1.27","5721","1","8","Female","approach_avoid_spark_v1","""event"",""trial"",""time""
""fullscreenenter"",""1"",""11523""
","
","
","""event"",""trial"",""time""
""fullscreenenter"",""1"",""11523""
","
","","","","","","2452.5","images/banana4.png","","","learning","[1]","1","1","1","banana","fruit","1","0","","neutral","0"
"html-keyboard-response","132","742413","0.0-9.0-2.0-0.28","5721","1","8","Female","approach_avoid_spark_v1","""event"",""trial"",""time""
""fullscreenenter"",""1"",""11523""
","
","
","""event"",""trial"",""time""
""fullscreenenter"",""1"",""11523""
","
","","","","","","null","<div style=""font-size:60px;"">+</div>","null","","fixation","","","","","","","","","","",""
"aa-learning-trial","133","745417","0.0-9.0-2.0-1.28","5721","1","8","Female","approach_avoid_spark_v1","""event"",""trial"",""time""
""fullscreenenter"",""1"",""11523""
","
","
","""event"",""trial"",""time""
""fullscreenenter"",""1"",""11523""
","
","","","","","","2468.100000000093","images/straw1.png","","","learning","-6","0","0","0","straw","fruit","1","0","","bad","[-4]"
"html-keyboard-response","134","745920","0.0-9.0-2.0-0.29","5721","1","8","Female","approach_avoid_spark_v1","""event"",""trial"",""time""
""fullscreenenter"",""1"",""11523""
","
","
","""event"",""trial"",""time""
""fullscreenenter"",""1"",""11523""
","
","","","","","","null","<div style=""font-size:60px;"">+</div>","null","","fixation","","","","","","","","","","",""
"aa-learning-trial","135","748926","0.0-9.0-2.0-1.29","5721","1","8","Female","approach_avoid_spark_v1","""event"",""trial"",""time""
""fullscreenenter"",""1"",""11523""
","
","
","""event"",""trial"",""time""
""fullscreenenter"",""1"",""11523""
","
","","","","","","2009.6000000000931","images/banana5.png","","","learning","2","2","1","1","banana","fruit","1","0","","neutral","0"
"html-keyboard-response","136","749430","0.0-9.0-2.0-0.30","5721","1","8","Female","approach_avoid_spark_v1","""event"",""trial"",""time""
""fullscreenenter"",""1"",""11523""
","
","
","""event"",""trial"",""time""
""fullscreenenter"",""1"",""11523""
","
","","","","","","null","<div style=""font-size:60px;"">+</div>","null","","fixation","","","","","","","","","","",""
"aa-learning-trial","137","752437","0.0-9.0-2.0-1.30","5721","1","8","Female","approach_avoid_spark_v1","""event"",""trial"",""time""
""fullscreenenter"",""1"",""11523""
","
","
","""event"",""trial"",""time""
""fullscreenenter"",""1"",""11523""
","
","","","","","","1658.6999999997206","images/banana7.png","","","learning","1","0","0","0","banana","fruit","1","0","","neutral","0"
"html-keyboard-response","138","752940","0.0-9.0-2.0-0.31","5721","1","8","Female","approach_avoid_spark_v1","""event"",""trial"",""time""
""fullscreenenter"",""1"",""11523""
","
","
","""event"",""trial"",""time""
""fullscreenenter"",""1"",""11523""
","
","","","","","","null","<div style=""font-size:60px;"">+</div>","null","","fixation","","","","","","","","","","",""
"aa-learning-trial","139","755947","0.0-9.0-2.0-1.31","5721","1","8","Female","approach_avoid_spark_v1","""event"",""trial"",""time""
""fullscreenenter"",""1"",""11523""
","
","
","""event"",""trial"",""time""
""fullscreenenter"",""1"",""11523""
","
","","","","","","761.2000000001863","images/banana5.png","","","learning","1","1","1","1","banana","fruit","1","0","","neutral","0"
"html-keyboard-response","140","756450","0.0-9.0-2.0-0.32","5721","1","8","Female","approach_avoid_spark_v1","""event"",""trial"",""time""
""fullscreenenter"",""1"",""11523""
","
","
","""event"",""trial"",""time""
""fullscreenenter"",""1"",""11523""
","
","","","","","","null","<div style=""font-size:60px;"">+</div>","null","","fixation","","","","","","","","","","",""
"aa-learning-trial","141","759456","0.0-9.0-2.0-1.32","5721","1","8","Female","approach_avoid_spark_v1","""event"",""trial"",""time""
""fullscreenenter"",""1"",""11523""
","
","
","""event"",""trial"",""time""
""fullscreenenter"",""1"",""11523""
","
","","","","","","null","images/orange2.png","","","learning","6","-5","","null","orange","fruit","1","0","","good","[6]"
"html-keyboard-response","142","759959","0.0-9.0-2.0-0.33","5721","1","8","Female","approach_avoid_spark_v1","""event"",""trial"",""time""
""fullscreenenter"",""1"",""11523""
","
","
","""event"",""trial"",""time""
""fullscreenenter"",""1"",""11523""
","
","","","","","","null","<div style=""font-size:60px;"">+</div>","null","","fixation","","","","","","","","","","",""
"aa-learning-trial","143","762964","0.0-9.0-2.0-1.33","5721","1","8","Female","approach_avoid_spark_v1","""event"",""trial"",""time""
""fullscreenenter"",""1"",""11523""
","
","
","""event"",""trial"",""time""
""fullscreenenter"",""1"",""11523""
","
","","","","","","1364.1000000000931","images/banana7.png","","","learning","-1","0","0","0","banana","fruit","1","0","","neutral","0"
"html-keyboard-response","144","763467","0.0-9.0-2.0-0.34","5721","1","8","Female","approach_avoid_spark_v1","""event"",""trial"",""time""
""fullscreenenter"",""1"",""11523""
","
","
","""event"",""trial"",""time""
""fullscreenenter"",""1"",""11523""
","
","","","","","","null","<div style=""font-size:60px;"">+</div>","null","","fixation","","","","","","","","","","",""
"aa-learning-trial","145","766475","0.0-9.0-2.0-1.34","5721","1","8","Female","approach_avoid_spark_v1","""event"",""trial"",""time""
""fullscreenenter"",""1"",""11523""
","
","
","""event"",""trial"",""time""
""fullscreenenter"",""1"",""11523""
","
","","","","","","1352.2999999998137","images/straw1.png","","","learning","-4","-4","1","1","straw","fruit","1","0","","bad","[-4]"
"html-keyboard-response","146","766978","0.0-9.0-2.0-0.35","5721","1","8","Female","approach_avoid_spark_v1","""event"",""trial"",""time""
""fullscreenenter"",""1"",""11523""
","
","
","""event"",""trial"",""time""
""fullscreenenter"",""1"",""11523""
","
","","","","","","null","<div style=""font-size:60px;"">+</div>","null","","fixation","","","","","","","","","","",""
"aa-learning-trial","147","769983","0.0-9.0-2.0-1.35","5721","1","8","Female","approach_avoid_spark_v1","""event"",""trial"",""time""
""fullscreenenter"",""1"",""11523""
","
","
","""event"",""trial"",""time""
""fullscreenenter"",""1"",""11523""
","
","","","","","","1260.5","images/straw7.png","","","learning","-5","0","0","0","straw","fruit","1","0","","bad","[-4]"
"html-keyboard-response","148","770485","0.0-9.0-2.0-0.36","5721","1","8","Female","approach_avoid_spark_v1","""event"",""trial"",""time""
""fullscreenenter"",""1"",""11523""
","
","
","""event"",""trial"",""time""
""fullscreenenter"",""1"",""11523""
","
","","","","","","null","<div style=""font-size:60px;"">+</div>","null","","fixation","","","","","","","","","","",""
"aa-learning-trial","149","773494","0.0-9.0-2.0-1.36","5721","1","8","Female","approach_avoid_spark_v1","""event"",""trial"",""time""
""fullscreenenter"",""1"",""11523""
","
","
","""event"",""trial"",""time""
""fullscreenenter"",""1"",""11523""
","
","","","","","","null","images/banana8.png","","","learning","-2","-5","","null","banana","fruit","1","0","","neutral","0"
"html-keyboard-response","150","773998","0.0-9.0-2.0-0.37","5721","1","8","Female","approach_avoid_spark_v1","""event"",""trial"",""time""
""fullscreenenter"",""1"",""11523""
","
","
","""event"",""trial"",""time""
""fullscreenenter"",""1"",""11523""
","
","","","","","","null","<div style=""font-size:60px;"">+</div>","null","","fixation","","","","","","","","","","",""
"aa-learning-trial","151","777002","0.0-9.0-2.0-1.37","5721","1","8","Female","approach_avoid_spark_v1","""event"",""trial"",""time""
""fullscreenenter"",""1"",""11523""
","
","
","""event"",""trial"",""time""
""fullscreenenter"",""1"",""11523""
","
","","","","","","2105.7000000001863","images/straw7.png","","","learning","-3","0","0","0","straw","fruit","1","0","","bad","[-4]"
"html-keyboard-response","152","777524","0.0-9.0-2.0-0.38","5721","1","8","Female","approach_avoid_spark_v1","""event"",""trial"",""time""
""fullscreenenter"",""1"",""11523""
","
","
","""event"",""trial"",""time""
""fullscreenenter"",""1"",""11523""
","
","","","","","","null","<div style=""font-size:60px;"">+</div>","null","","fixation","","","","","","","","","","",""
"aa-learning-trial","153","780528","0.0-9.0-2.0-1.38","5721","1","8","Female","approach_avoid_spark_v1","""event"",""trial"",""time""
""fullscreenenter"",""1"",""11523""
","
","
","""event"",""trial"",""time""
""fullscreenenter"",""1"",""11523""
","
","","","","","","1765.2000000001863","images/banana8.png","","","learning","-2","-2","1","1","banana","fruit","1","0","","neutral","0"
"html-keyboard-response","154","781030","0.0-9.0-2.0-0.39","5721","1","8","Female","approach_avoid_spark_v1","""event"",""trial"",""time""
""fullscreenenter"",""1"",""11523""
","
","
","""event"",""trial"",""time""
""fullscreenenter"",""1"",""11523""
","
","","","","","","null","<div style=""font-size:60px;"">+</div>","null","","fixation","","","","","","","","","","",""
"aa-learning-trial","155","784039","0.0-9.0-2.0-1.39","5721","1","8","Female","approach_avoid_spark_v1","""event"",""trial"",""time""
""fullscreenenter"",""1"",""11523""
","
","
","""event"",""trial"",""time""
""fullscreenenter"",""1"",""11523""
","
","","","","","","2619.7999999998137","images/straw8.png","","","learning","-7","0","0","0","straw","fruit","1","0","","bad","[-4]"
"html-keyboard-response","156","784546","0.0-9.0-2.0-0.40","5721","1","8","Female","approach_avoid_spark_v1","""event"",""trial"",""time""
""fullscreenenter"",""1"",""11523""
","
","
","""event"",""trial"",""time""
""fullscreenenter"",""1"",""11523""
","
","","","","","","null","<div style=""font-size:60px;"">+</div>","null","","fixation","","","","","","","","","","",""
"aa-learning-trial","157","787563","0.0-9.0-2.0-1.40","5721","1","8","Female","approach_avoid_spark_v1","""event"",""trial"",""time""
""fullscreenenter"",""1"",""11523""
","
","
","""event"",""trial"",""time""
""fullscreenenter"",""1"",""11523""
","
","","","","","","2937.5","images/orange4.png","","","learning","8","8","1","1","orange","fruit","1","0","","good","[6]"
"html-keyboard-response","158","788065","0.0-9.0-2.0-0.41","5721","1","8","Female","approach_avoid_spark_v1","""event"",""trial"",""time""
""fullscreenenter"",""1"",""11523""
","
","
","""event"",""trial"",""time""
""fullscreenenter"",""1"",""11523""
","
","","","","","","null","<div style=""font-size:60px;"">+</div>","null","","fixation","","","","","","","","","","",""
"aa-learning-trial","159","791071","0.0-9.0-2.0-1.41","5721","1","8","Female","approach_avoid_spark_v1","""event"",""trial"",""time""
""fullscreenenter"",""1"",""11523""
","
","
","""event"",""trial"",""time""
""fullscreenenter"",""1"",""11523""
","
","","","","","","1082.9000000003725","images/orange2.png","","","learning","5","5","1","1","orange","fruit","1","0","","good","[6]"
"html-keyboard-response","160","791576","0.0-9.0-2.0-0.42","5721","1","8","Female","approach_avoid_spark_v1","""event"",""trial"",""time""
""fullscreenenter"",""1"",""11523""
","
","
","""event"",""trial"",""time""
""fullscreenenter"",""1"",""11523""
","
","","","","","","null","<div style=""font-size:60px;"">+</div>","null","","fixation","","","","","","","","","","",""
"aa-learning-trial","161","794582","0.0-9.0-2.0-1.42","5721","1","8","Female","approach_avoid_spark_v1","""event"",""trial"",""time""
""fullscreenenter"",""1"",""11523""
","
","
","""event"",""trial"",""time""
""fullscreenenter"",""1"",""11523""
","
","","","","","","2088.3000000002794","images/orange2.png","","","learning","3","0","0","0","orange","fruit","1","0","","good","[6]"
"html-keyboard-response","162","795090","0.0-9.0-2.0-0.43","5721","1","8","Female","approach_avoid_spark_v1","""event"",""trial"",""time""
""fullscreenenter"",""1"",""11523""
","
","
","""event"",""trial"",""time""
""fullscreenenter"",""1"",""11523""
","
","","","","","","null","<div style=""font-size:60px;"">+</div>","null","","fixation","","","","","","","","","","",""
"aa-learning-trial","163","798098","0.0-9.0-2.0-1.43","5721","1","8","Female","approach_avoid_spark_v1","""event"",""trial"",""time""
""fullscreenenter"",""1"",""11523""
","
","
","""event"",""trial"",""time""
""fullscreenenter"",""1"",""11523""
","
","","","","","","1386","images/banana5.png","","","learning","[-1]","-1","1","1","banana","fruit","1","0","","neutral","0"
"html-keyboard-response","164","798601","0.0-9.0-2.0-0.44","5721","1","8","Female","approach_avoid_spark_v1","""event"",""trial"",""time""
""fullscreenenter"",""1"",""11523""
","
","
","""event"",""trial"",""time""
""fullscreenenter"",""1"",""11523""
","
","","","","","","null","<div style=""font-size:60px;"">+</div>","null","","fixation","","","","","","","","","","",""
"aa-learning-trial","165","801609","0.0-9.0-2.0-1.44","5721","1","8","Female","approach_avoid_spark_v1","""event"",""trial"",""time""
""fullscreenenter"",""1"",""11523""
","
","
","""event"",""trial"",""time""
""fullscreenenter"",""1"",""11523""
","
","","","","","","1573.5999999996275","images/orange2.png","","","learning","7","0","0","0","orange","fruit","1","0","","good","[6]"
"html-keyboard-response","166","802112","0.0-9.0-2.0-0.45","5721","1","8","Female","approach_avoid_spark_v1","""event"",""trial"",""time""
""fullscreenenter"",""1"",""11523""
","
","
","""event"",""trial"",""time""
""fullscreenenter"",""1"",""11523""
","
","","","","","","null","<div style=""font-size:60px;"">+</div>","null","","fixation","","","","","","","","","","",""
"aa-learning-trial","167","805118","0.0-9.0-2.0-1.45","5721","1","8","Female","approach_avoid_spark_v1","""event"",""trial"",""time""
""fullscreenenter"",""1"",""11523""
","
","
","""event"",""trial"",""time""
""fullscreenenter"",""1"",""11523""
","
","","","","","","2203.6999999997206","images/orange5.png","","","learning","3","3","1","1","orange","fruit","1","0","","good","[6]"
"html-keyboard-response","168","805624","0.0-9.0-2.0-0.46","5721","1","8","Female","approach_avoid_spark_v1","""event"",""trial"",""time""
""fullscreenenter"",""1"",""11523""
","
","
","""event"",""trial"",""time""
""fullscreenenter"",""1"",""11523""
","
","","","","","","null","<div style=""font-size:60px;"">+</div>","null","","fixation","","","","","","","","","","",""
"aa-learning-trial","169","808642","0.0-9.0-2.0-1.46","5721","1","8","Female","approach_avoid_spark_v1","""event"",""trial"",""time""
""fullscreenenter"",""1"",""11523""
","
","
","""event"",""trial"",""time""
""fullscreenenter"",""1"",""11523""
","
","","","","","","1527.3999999999069","images/orange4.png","","","learning","5","5","1","1","orange","fruit","1","0","","good","[6]"
"html-keyboard-response","170","809145","0.0-9.0-2.0-0.47","5721","1","8","Female","approach_avoid_spark_v1","""event"",""trial"",""time""
""fullscreenenter"",""1"",""11523""
","
","
","""event"",""trial"",""time""
""fullscreenenter"",""1"",""11523""
","
","","","","","","null","<div style=""font-size:60px;"">+</div>","null","","fixation","","","","","","","","","","",""
"aa-learning-trial","171","812153","0.0-9.0-2.0-1.47","5721","1","8","Female","approach_avoid_spark_v1","""event"",""trial"",""time""
""fullscreenenter"",""1"",""11523""
","
","
","""event"",""trial"",""time""
""fullscreenenter"",""1"",""11523""
","
","","","","","","1823.2000000001863","images/straw7.png","","","learning","-4","0","0","0","straw","fruit","1","0","","bad","[-4]"
"html-keyboard-response","172","812656","0.0-9.0-2.0-0.48","5721","1","8","Female","approach_avoid_spark_v1","""event"",""trial"",""time""
""fullscreenenter"",""1"",""11523""
","
","
","""event"",""trial"",""time""
""fullscreenenter"",""1"",""11523""
","
","","","","","","null","<div style=""font-size:60px;"">+</div>","null","","fixation","","","","","","","","","","",""
"aa-learning-trial","173","815661","0.0-9.0-2.0-1.48","5721","1","8","Female","approach_avoid_spark_v1","""event"",""trial"",""time""
""fullscreenenter"",""1"",""11523""
","
","
","""event"",""trial"",""time""
""fullscreenenter"",""1"",""11523""
","
","","","","","","null","images/orange6.png","","","learning","5","-5","","null","orange","fruit","1","0","","good","[6]"
"html-keyboard-response","174","816163","0.0-9.0-2.0-0.49","5721","1","8","Female","approach_avoid_spark_v1","""event"",""trial"",""time""
""fullscreenenter"",""1"",""11523""
","
","
","""event"",""trial"",""time""
""fullscreenenter"",""1"",""11523""
","
","","","","","","null","<div style=""font-size:60px;"">+</div>","null","","fixation","","","","","","","","","","",""
"aa-learning-trial","175","819171","0.0-9.0-2.0-1.49","5721","1","8","Female","approach_avoid_spark_v1","""event"",""trial"",""time""
""fullscreenenter"",""1"",""11523""
","
","
","""event"",""trial"",""time""
""fullscreenenter"",""1"",""11523""
","
","","","","","","838.3000000002794","images/orange6.png","","","learning","9","9","1","1","orange","fruit","1","0","","good","[6]"
"html-keyboard-response","176","819674","0.0-9.0-2.0-0.50","5721","1","8","Female","approach_avoid_spark_v1","""event"",""trial"",""time""
""fullscreenenter"",""1"",""11523""
","
","
","""event"",""trial"",""time""
""fullscreenenter"",""1"",""11523""
","
","","","","","","null","<div style=""font-size:60px;"">+</div>","null","","fixation","","","","","","","","","","",""
"aa-learning-trial","177","822688","0.0-9.0-2.0-1.50","5721","1","8","Female","approach_avoid_spark_v1","""event"",""trial"",""time""
""fullscreenenter"",""1"",""11523""
","
","
","""event"",""trial"",""time""
""fullscreenenter"",""1"",""11523""
","
","","","","","","1679.3999999999069","images/orange6.png","","","learning","3","3","1","1","orange","fruit","1","0","","good","[6]"
"html-button-response","178","828393","0.0-9.0-3.0","5721","1","8","Female","approach_avoid_spark_v1","""event"",""trial"",""time""
""fullscreenenter"",""1"",""11523""
","
","
","""event"",""trial"",""time""
""fullscreenenter"",""1"",""11523""
","
","","","","","","5700.800000000279","<p> You have completed the round! <p> In this round, you earned -14 points! </p>","0","","break","","","","","","","","","","",""
"html-button-response","179","837424","0.0-10.0","5721","1","8","Female","approach_avoid_spark_v1","""event"",""trial"",""time""
""fullscreenenter"",""1"",""11523""
","
","
","""event"",""trial"",""time""
""fullscreenenter"",""1"",""11523""
","
","","","","","","9026.599999999627","<p> Now it's time to play another round. </p>","0","","transition_screen","","","","","","","","","","",""
"preload","180","837610","0.0-11.0-0.0","5721","1","8","Female","approach_avoid_spark_v1","""event"",""trial"",""time""
""fullscreenenter"",""1"",""11523""
","
","
","""event"",""trial"",""time""
""fullscreenenter"",""1"",""11523""
","
","true","false","[]","[]","[]","","","","","","","","","","","","","","","",""
"learning-instructions","181","849294","0.0-11.0-1.0-0.0","5721","1","8","Female","approach_avoid_spark_v1","""event"",""trial"",""time""
""fullscreenenter"",""1"",""11523""
","
","
","""event"",""trial"",""time""
""fullscreenenter"",""1"",""11523""
","
","","","","","","5493.800000000279","<p> Your goal in this round is to take your friend for rides in different vehicles. </p></div>","","0","instructions","","","","","","","","","","",""
"learning-instructions","182","861601","0.0-11.0-1.0-0.1","5721","1","8","Female","approach_avoid_spark_v1","""event"",""trial"",""time""
""fullscreenenter"",""1"",""11523""
","
","
","""event"",""trial"",""time""
""fullscreenenter"",""1"",""11523""
","
","","","","","","1659.5","<p> Your friend enjoys riding in some vehicles but not in others.  </p><p> On each turn, you will see a vehicle.   </p><p> You need to decide whether to take your friend for a ride or not.  </p>","","0","instructions","","","","","","","","","","",""
"learning-instructions","183","876538","0.0-11.0-1.0-0.2","5721","1","8","Female","approach_avoid_spark_v1","""event"",""trial"",""time""
""fullscreenenter"",""1"",""11523""
","
","
","""event"",""trial"",""time""
""fullscreenenter"",""1"",""11523""
","
","","","","","","7436.800000000279","<p> You can take your friend for a ride in the vehicle by pressing 1 and skip the ride by pressing 0. </p><br><div class=""choice-instructions-grid""> <div class=""choice-option""><img src=""images/approach.png"" class=""choice-option-img"" stage=""instructions"" position=""0"" ><div class=""choice-option-text""> Press ""1."" </div></div><div class=""choice-option""><img src=""images/avoid.png"" class=""choice-option-img"" stage=""instructions"" position=""1"" ><div class=""choice-option-text""> Press ""0."" </div></div>","","0","instructions","","","","","","","","","","",""
"learning-instructions","184","909589","0.0-11.0-1.0-0.3","5721","1","8","Female","approach_avoid_spark_v1","""event"",""trial"",""time""
""fullscreenenter"",""1"",""11523""
","
","
","""event"",""trial"",""time""
""fullscreenenter"",""1"",""11523""
","
","","","","","","23427.69999999972","<p> If you take them for a ride in a vehicle they like, they will be thrilled! </p><p> But if you take them for a ride in a vehicle they do not like, they will be upset. </p>","","0","instructions","","","","","","","","","","",""
"learning-instructions","185","925113","0.0-11.0-1.0-0.4","5721","1","8","Female","approach_avoid_spark_v1","""event"",""trial"",""time""
""fullscreenenter"",""1"",""11523""
","
","
","""event"",""trial"",""time""
""fullscreenenter"",""1"",""11523""
","
","","","","","","2881.7999999998137","<p> You will earn points based on how you made your friend feel. </p><p> If you made him thrilled, you will WIN anywhere from 1 - 9 points, </p><p> but if you made him upset, you will LOSE anywhere from 1 - 9 points. </p>","","0","instructions","","","","","","","","","","",""
"learning-instructions","186","940848","0.0-11.0-1.0-0.5","5721","1","8","Female","approach_avoid_spark_v1","""event"",""trial"",""time""
""fullscreenenter"",""1"",""11523""
","
","
","""event"",""trial"",""time""
""fullscreenenter"",""1"",""11523""
","
","","","","","","9065.700000000186","<p> You will see how many points you won or lost in the center of the screen. </p><p> Here is what you would see if you won 5 points: </p><p style=""color:green;font-size:50px;font-weight:bolder"">5</p>","","0","instructions","","","","","","","","","","",""
"learning-instructions","187","946190","0.0-11.0-1.0-0.6","5721","1","8","Female","approach_avoid_spark_v1","""event"",""trial"",""time""
""fullscreenenter"",""1"",""11523""
","
","
","""event"",""trial"",""time""
""fullscreenenter"",""1"",""11523""
","
","","","","","","2476.6999999997206","<p> And here is what you would see if you lost 3 points: </p><p style=""color:red;font-size:50px;font-weight:bolder"">-3</p>","","0","instructions","","","","","","","","","","",""
"learning-instructions","188","983046","0.0-11.0-1.0-0.7","5721","1","8","Female","approach_avoid_spark_v1","""event"",""trial"",""time""
""fullscreenenter"",""1"",""11523""
","
","
","""event"",""trial"",""time""
""fullscreenenter"",""1"",""11523""
","
","","","","","","4145.899999999907","<p> Some vehicles will make your friend REALLY thrilled or upset. </p><p> These vehicles will make you win or lose LOTS of points. </p><p> Other vehicles will only make him feel a little thrilled or upset. </p><p> These vehicles will make you win or lose small amounts of points. </p>","","0","instructions","","","","","","","","","","",""
"learning-instructions","189","998267","0.0-11.0-1.0-0.8","5721","1","8","Female","approach_avoid_spark_v1","""event"",""trial"",""time""
""fullscreenenter"",""1"",""11523""
","
","
","""event"",""trial"",""time""
""fullscreenenter"",""1"",""11523""
","
","","","","","","418.3000000002794","<p> If you choose to skip the ride, you will not win or lose any points. </p><p>  However, in the center of the screen, you will see the number of points you WOULD HAVE won or lost if you had taken your friend for a ride. </p>","","0","instructions","","","","","","","","","","",""
"learning-instructions","190","1013552","0.0-11.0-1.0-0.9","5721","1","8","Female","approach_avoid_spark_v1","""event"",""trial"",""time""
""fullscreenenter"",""1"",""11523""
","
","
","""event"",""trial"",""time""
""fullscreenenter"",""1"",""11523""
","
","","","","","","2581.5999999996275","<p> Here is what you might see if you did not take your friend for a ride but he would have enjoyed it: </p><p style=""color:grey; font-size:50px; display: inline-block; border-spacing: 15px; border-width:3px; border-style:solid; border-color:red"">  &nbsp; 6 &nbsp; </p><p> Remember, in this case, you would not win or lose ANY points because you skipped the ride.  </p>","","0","instructions","","","","","","","","","","",""
"learning-instructions","191","1025009","0.0-11.0-1.0-0.10","5721","1","8","Female","approach_avoid_spark_v1","""event"",""trial"",""time""
""fullscreenenter"",""1"",""11523""
","
","
","""event"",""trial"",""time""
""fullscreenenter"",""1"",""11523""
","
","","","","","","2277.100000000093","<p> Try to make the best choice for each vehicle because </p><p> at the end of the game, you will earn bonus money based on how many points you earned. </p>","","0","instructions","","","","","","","","","","",""
"learning-instructions","192","1036665","0.0-11.0-1.0-0.11","5721","1","8","Female","approach_avoid_spark_v1","""event"",""trial"",""time""
""fullscreenenter"",""1"",""11523""
","
","
","""event"",""trial"",""time""
""fullscreenenter"",""1"",""11523""
","
","","","","","","3395.1999999997206","<p> You will have 3 seconds to make each choice. Try to respond before time runs out! </p><p> You will lose 5 points each time you do not make a response. </p>","","0","instructions","","","","","","","","","","",""
"html-keyboard-response","193","1037343","0.0-11.0-2.0-0.0","5721","1","8","Female","approach_avoid_spark_v1","""event"",""trial"",""time""
""fullscreenenter"",""1"",""11523""
","
","
","""event"",""trial"",""time""
""fullscreenenter"",""1"",""11523""
","
","","","","","","null","<div style=""font-size:60px;"">+</div>","null","","fixation","","","","","","","","","","",""
"aa-learning-trial","194","1040361","0.0-11.0-2.0-1.0","5721","1","8","Female","approach_avoid_spark_v1","""event"",""trial"",""time""
""fullscreenenter"",""1"",""11523""
","
","
","""event"",""trial"",""time""
""fullscreenenter"",""1"",""11523""
","
","","","","","","2622.100000000093","images/train7.png","","","learning","5","0","0","0","train","vehicles","2","1","","neutral","0"
"html-keyboard-response","195","1040910","0.0-11.0-2.0-0.1","5721","1","8","Female","approach_avoid_spark_v1","""event"",""trial"",""time""
""fullscreenenter"",""1"",""11523""
","
","
","""event"",""trial"",""time""
""fullscreenenter"",""1"",""11523""
","
","","","","","","null","<div style=""font-size:60px;"">+</div>","null","","fixation","","","","","","","","","","",""
"aa-learning-trial","196","1043947","0.0-11.0-2.0-1.1","5721","1","8","Female","approach_avoid_spark_v1","""event"",""trial"",""time""
""fullscreenenter"",""1"",""11523""
","
","
","""event"",""trial"",""time""
""fullscreenenter"",""1"",""11523""
","
","","","","","","1937.8999999999069","images/truck6.png","","","learning","8","0","0","0","truck","vehicles","2","1","","good","[4]"
"html-keyboard-response","197","1044468","0.0-11.0-2.0-0.2","5721","1","8","Female","approach_avoid_spark_v1","""event"",""trial"",""time""
""fullscreenenter"",""1"",""11523""
","
","
","""event"",""trial"",""time""
""fullscreenenter"",""1"",""11523""
","
","","","","","","null","<div style=""font-size:60px;"">+</div>","null","","fixation","","","","","","","","","","",""
"aa-learning-trial","198","1047472","0.0-11.0-2.0-1.2","5721","1","8","Female","approach_avoid_spark_v1","""event"",""trial"",""time""
""fullscreenenter"",""1"",""11523""
","
","
","""event"",""trial"",""time""
""fullscreenenter"",""1"",""11523""
","
","","","","","","1698.3999999999069","images/train7.png","","","learning","5","0","0","0","train","vehicles","2","1","","neutral","0"
"html-keyboard-response","199","1047991","0.0-11.0-2.0-0.3","5721","1","8","Female","approach_avoid_spark_v1","""event"",""trial"",""time""
""fullscreenenter"",""1"",""11523""
","
","
","""event"",""trial"",""time""
""fullscreenenter"",""1"",""11523""
","
","","","","","","null","<div style=""font-size:60px;"">+</div>","null","","fixation","","","","","","","","","","",""
"aa-learning-trial","200","1051001","0.0-11.0-2.0-1.3","5721","1","8","Female","approach_avoid_spark_v1","""event"",""trial"",""time""
""fullscreenenter"",""1"",""11523""
","
","
","""event"",""trial"",""time""
""fullscreenenter"",""1"",""11523""
","
","","","","","","2264.8000000002794","images/train6.png","","","learning","7","0","0","0","train","vehicles","2","1","","neutral","0"
"html-keyboard-response","201","1051521","0.0-11.0-2.0-0.4","5721","1","8","Female","approach_avoid_spark_v1","""event"",""trial"",""time""
""fullscreenenter"",""1"",""11523""
","
","
","""event"",""trial"",""time""
""fullscreenenter"",""1"",""11523""
","
","","","","","","null","<div style=""font-size:60px;"">+</div>","null","","fixation","","","","","","","","","","",""
"aa-learning-trial","202","1054529","0.0-11.0-2.0-1.4","5721","1","8","Female","approach_avoid_spark_v1","""event"",""trial"",""time""
""fullscreenenter"",""1"",""11523""
","
","
","""event"",""trial"",""time""
""fullscreenenter"",""1"",""11523""
","
","","","","","","1939.3999999999069","images/train6.png","","","learning","7","0","0","0","train","vehicles","2","1","","neutral","0"
"html-keyboard-response","203","1055064","0.0-11.0-2.0-0.5","5721","1","8","Female","approach_avoid_spark_v1","""event"",""trial"",""time""
""fullscreenenter"",""1"",""11523""
","
","
","""event"",""trial"",""time""
""fullscreenenter"",""1"",""11523""
","
","","","","","","null","<div style=""font-size:60px;"">+</div>","null","","fixation","","","","","","","","","","",""
"aa-learning-trial","204","1058073","0.0-11.0-2.0-1.5","5721","1","8","Female","approach_avoid_spark_v1","""event"",""trial"",""time""
""fullscreenenter"",""1"",""11523""
","
","
","""event"",""trial"",""time""
""fullscreenenter"",""1"",""11523""
","
","","","","","","1266.6999999997206","images/plane2.png","","","learning","-8","0","0","0","plane","vehicles","2","1","","bad","[-3]"
"html-keyboard-response","205","1058591","0.0-11.0-2.0-0.6","5721","1","8","Female","approach_avoid_spark_v1","""event"",""trial"",""time""
""fullscreenenter"",""1"",""11523""
","
","
","""event"",""trial"",""time""
""fullscreenenter"",""1"",""11523""
","
","","","","","","null","<div style=""font-size:60px;"">+</div>","null","","fixation","","","","","","","","","","",""
"aa-learning-trial","206","1061603","0.0-11.0-2.0-1.6","5721","1","8","Female","approach_avoid_spark_v1","""event"",""trial"",""time""
""fullscreenenter"",""1"",""11523""
","
","
","""event"",""trial"",""time""
""fullscreenenter"",""1"",""11523""
","
","","","","","","1694.7999999998137","images/truck1.png","","","learning","3","3","1","1","truck","vehicles","2","1","","good","[4]"
"html-keyboard-response","207","1062133","0.0-11.0-2.0-0.7","5721","1","8","Female","approach_avoid_spark_v1","""event"",""trial"",""time""
""fullscreenenter"",""1"",""11523""
","
","
","""event"",""trial"",""time""
""fullscreenenter"",""1"",""11523""
","
","","","","","","null","<div style=""font-size:60px;"">+</div>","null","","fixation","","","","","","","","","","",""
"aa-learning-trial","208","1065139","0.0-11.0-2.0-1.7","5721","1","8","Female","approach_avoid_spark_v1","""event"",""trial"",""time""
""fullscreenenter"",""1"",""11523""
","
","
","""event"",""trial"",""time""
""fullscreenenter"",""1"",""11523""
","
","","","","","","1384.7000000001863","images/plane6.png","","","learning","-3","-3","1","1","plane","vehicles","2","1","","bad","[-3]"
"html-keyboard-response","209","1065663","0.0-11.0-2.0-0.8","5721","1","8","Female","approach_avoid_spark_v1","""event"",""trial"",""time""
""fullscreenenter"",""1"",""11523""
","
","
","""event"",""trial"",""time""
""fullscreenenter"",""1"",""11523""
","
","","","","","","null","<div style=""font-size:60px;"">+</div>","null","","fixation","","","","","","","","","","",""
"aa-learning-trial","210","1068667","0.0-11.0-2.0-1.8","5721","1","8","Female","approach_avoid_spark_v1","""event"",""trial"",""time""
""fullscreenenter"",""1"",""11523""
","
","
","""event"",""trial"",""time""
""fullscreenenter"",""1"",""11523""
","
","","","","","","2140.2000000001863","images/truck6.png","","","learning","8","8","1","1","truck","vehicles","2","1","","good","[4]"
"html-keyboard-response","211","1069170","0.0-11.0-2.0-0.9","5721","1","8","Female","approach_avoid_spark_v1","""event"",""trial"",""time""
""fullscreenenter"",""1"",""11523""
","
","
","""event"",""trial"",""time""
""fullscreenenter"",""1"",""11523""
","
","","","","","","null","<div style=""font-size:60px;"">+</div>","null","","fixation","","","","","","","","","","",""
"aa-learning-trial","212","1072177","0.0-11.0-2.0-1.9","5721","1","8","Female","approach_avoid_spark_v1","""event"",""trial"",""time""
""fullscreenenter"",""1"",""11523""
","
","
","""event"",""trial"",""time""
""fullscreenenter"",""1"",""11523""
","
","","","","","","1739.4000000003725","images/train2.png","","","learning","1","1","1","1","train","vehicles","2","1","","neutral","0"
"html-keyboard-response","213","1072680","0.0-11.0-2.0-0.10","5721","1","8","Female","approach_avoid_spark_v1","""event"",""trial"",""time""
""fullscreenenter"",""1"",""11523""
","
","
","""event"",""trial"",""time""
""fullscreenenter"",""1"",""11523""
","
","","","","","","null","<div style=""font-size:60px;"">+</div>","null","","fixation","","","","","","","","","","",""
"aa-learning-trial","214","1075689","0.0-11.0-2.0-1.10","5721","1","8","Female","approach_avoid_spark_v1","""event"",""trial"",""time""
""fullscreenenter"",""1"",""11523""
","
","
","""event"",""trial"",""time""
""fullscreenenter"",""1"",""11523""
","
","","","","","","null","images/plane3.png","","","learning","4","-5","","null","plane","vehicles","2","1","","bad","[-3]"
"html-keyboard-response","215","1076194","0.0-11.0-2.0-0.11","5721","1","8","Female","approach_avoid_spark_v1","""event"",""trial"",""time""
""fullscreenenter"",""1"",""11523""
","
","
","""event"",""trial"",""time""
""fullscreenenter"",""1"",""11523""
","
","","","","","","null","<div style=""font-size:60px;"">+</div>","null","","fixation","","","","","","","","","","",""
"aa-learning-trial","216","1079203","0.0-11.0-2.0-1.11","5721","1","8","Female","approach_avoid_spark_v1","""event"",""trial"",""time""
""fullscreenenter"",""1"",""11523""
","
","
","""event"",""trial"",""time""
""fullscreenenter"",""1"",""11523""
","
","","","","","","994.5999999996275","images/plane2.png","","","learning","-8","0","0","0","plane","vehicles","2","1","","bad","[-3]"
"html-keyboard-response","217","1079708","0.0-11.0-2.0-0.12","5721","1","8","Female","approach_avoid_spark_v1","""event"",""trial"",""time""
""fullscreenenter"",""1"",""11523""
","
","
","""event"",""trial"",""time""
""fullscreenenter"",""1"",""11523""
","
","","","","","","null","<div style=""font-size:60px;"">+</div>","null","","fixation","","","","","","","","","","",""
"aa-learning-trial","218","1082718","0.0-11.0-2.0-1.12","5721","1","8","Female","approach_avoid_spark_v1","""event"",""trial"",""time""
""fullscreenenter"",""1"",""11523""
","
","
","""event"",""trial"",""time""
""fullscreenenter"",""1"",""11523""
","
","","","","","","1610.3999999999069","images/truck3.png","","","learning","-1","0","0","0","truck","vehicles","2","1","","good","[4]"
"html-keyboard-response","219","1083226","0.0-11.0-2.0-0.13","5721","1","8","Female","approach_avoid_spark_v1","""event"",""trial"",""time""
""fullscreenenter"",""1"",""11523""
","
","
","""event"",""trial"",""time""
""fullscreenenter"",""1"",""11523""
","
","","","","","","null","<div style=""font-size:60px;"">+</div>","null","","fixation","","","","","","","","","","",""
"aa-learning-trial","220","1086252","0.0-11.0-2.0-1.13","5721","1","8","Female","approach_avoid_spark_v1","""event"",""trial"",""time""
""fullscreenenter"",""1"",""11523""
","
","
","""event"",""trial"",""time""
""fullscreenenter"",""1"",""11523""
","
","","","","","","2256.7999999998137","images/plane6.png","","","learning","-3","-3","1","1","plane","vehicles","2","1","","bad","[-3]"
"html-keyboard-response","221","1086787","0.0-11.0-2.0-0.14","5721","1","8","Female","approach_avoid_spark_v1","""event"",""trial"",""time""
""fullscreenenter"",""1"",""11523""
","
","
","""event"",""trial"",""time""
""fullscreenenter"",""1"",""11523""
","
","","","","","","null","<div style=""font-size:60px;"">+</div>","null","","fixation","","","","","","","","","","",""
"aa-learning-trial","222","1089794","0.0-11.0-2.0-1.14","5721","1","8","Female","approach_avoid_spark_v1","""event"",""trial"",""time""
""fullscreenenter"",""1"",""11523""
","
","
","""event"",""trial"",""time""
""fullscreenenter"",""1"",""11523""
","
","","","","","","1100","images/truck3.png","","","learning","-1","0","0","0","truck","vehicles","2","1","","good","[4]"
"html-keyboard-response","223","1090297","0.0-11.0-2.0-0.15","5721","1","8","Female","approach_avoid_spark_v1","""event"",""trial"",""time""
""fullscreenenter"",""1"",""11523""
","
","
","""event"",""trial"",""time""
""fullscreenenter"",""1"",""11523""
","
","","","","","","null","<div style=""font-size:60px;"">+</div>","null","","fixation","","","","","","","","","","",""
"aa-learning-trial","224","1093311","0.0-11.0-2.0-1.15","5721","1","8","Female","approach_avoid_spark_v1","""event"",""trial"",""time""
""fullscreenenter"",""1"",""11523""
","
","
","""event"",""trial"",""time""
""fullscreenenter"",""1"",""11523""
","
","","","","","","1148","images/train7.png","","","learning","5","0","0","0","train","vehicles","2","1","","neutral","0"
"html-keyboard-response","225","1093826","0.0-11.0-2.0-0.16","5721","1","8","Female","approach_avoid_spark_v1","""event"",""trial"",""time""
""fullscreenenter"",""1"",""11523""
","
","
","""event"",""trial"",""time""
""fullscreenenter"",""1"",""11523""
","
","","","","","","null","<div style=""font-size:60px;"">+</div>","null","","fixation","","","","","","","","","","",""
"aa-learning-trial","226","1096832","0.0-11.0-2.0-1.16","5721","1","8","Female","approach_avoid_spark_v1","""event"",""trial"",""time""
""fullscreenenter"",""1"",""11523""
","
","
","""event"",""trial"",""time""
""fullscreenenter"",""1"",""11523""
","
","","","","","","1487","images/train6.png","","","learning","7","0","0","0","train","vehicles","2","1","","neutral","0"
"html-keyboard-response","227","1097334","0.0-11.0-2.0-0.17","5721","1","8","Female","approach_avoid_spark_v1","""event"",""trial"",""time""
""fullscreenenter"",""1"",""11523""
","
","
","""event"",""trial"",""time""
""fullscreenenter"",""1"",""11523""
","
","","","","","","null","<div style=""font-size:60px;"">+</div>","null","","fixation","","","","","","","","","","",""
"aa-learning-trial","228","1100339","0.0-11.0-2.0-1.17","5721","1","8","Female","approach_avoid_spark_v1","""event"",""trial"",""time""
""fullscreenenter"",""1"",""11523""
","
","
","""event"",""trial"",""time""
""fullscreenenter"",""1"",""11523""
","
","","","","","","1132","images/truck1.png","","","learning","3","0","0","0","truck","vehicles","2","1","","good","[4]"
"html-keyboard-response","229","1100858","0.0-11.0-2.0-0.18","5721","1","8","Female","approach_avoid_spark_v1","""event"",""trial"",""time""
""fullscreenenter"",""1"",""11523""
","
","
","""event"",""trial"",""time""
""fullscreenenter"",""1"",""11523""
","
","","","","","","null","<div style=""font-size:60px;"">+</div>","null","","fixation","","","","","","","","","","",""
"aa-learning-trial","230","1103870","0.0-11.0-2.0-1.18","5721","1","8","Female","approach_avoid_spark_v1","""event"",""trial"",""time""
""fullscreenenter"",""1"",""11523""
","
","
","""event"",""trial"",""time""
""fullscreenenter"",""1"",""11523""
","
","","","","","","2185.7000000001863","images/plane3.png","","","learning","4","0","0","0","plane","vehicles","2","1","","bad","[-3]"
"html-keyboard-response","231","1104373","0.0-11.0-2.0-0.19","5721","1","8","Female","approach_avoid_spark_v1","""event"",""trial"",""time""
""fullscreenenter"",""1"",""11523""
","
","
","""event"",""trial"",""time""
""fullscreenenter"",""1"",""11523""
","
","","","","","","null","<div style=""font-size:60px;"">+</div>","null","","fixation","","","","","","","","","","",""
"aa-learning-trial","232","1107395","0.0-11.0-2.0-1.19","5721","1","8","Female","approach_avoid_spark_v1","""event"",""trial"",""time""
""fullscreenenter"",""1"",""11523""
","
","
","""event"",""trial"",""time""
""fullscreenenter"",""1"",""11523""
","
","","","","","","null","images/plane6.png","","","learning","-3","-5","","null","plane","vehicles","2","1","","bad","[-3]"
"html-keyboard-response","233","1107911","0.0-11.0-2.0-0.20","5721","1","8","Female","approach_avoid_spark_v1","""event"",""trial"",""time""
""fullscreenenter"",""1"",""11523""
","
","
","""event"",""trial"",""time""
""fullscreenenter"",""1"",""11523""
","
","","","","","","null","<div style=""font-size:60px;"">+</div>","null","","fixation","","","","","","","","","","",""
"aa-learning-trial","234","1110922","0.0-11.0-2.0-1.20","5721","1","8","Female","approach_avoid_spark_v1","""event"",""trial"",""time""
""fullscreenenter"",""1"",""11523""
","
","
","""event"",""trial"",""time""
""fullscreenenter"",""1"",""11523""
","
","","","","","","null","images/plane3.png","","","learning","4","-5","","null","plane","vehicles","2","1","","bad","[-3]"
