"trial_type","trial_index","time_elapsed","internal_node_id","subject_id","task_condition","age","gender","task_version","interactions","blur_events","focus_events","fullscreenenter_events","fullscreenexit_events","success","timeout","failed_images","failed_audio","failed_video","rt","stimulus","response","button_pressed","task_part","approach_reward","points","key_press","option_selected","stim_cat","task_block","block_condition","block_number","correct","cat_type","mean_cat_reward"
"pavlovia","0","3","0.0-0.0","3844","1","15","Male","approach_avoid_spark_v1","""event"",""trial"",""time""
""fullscreenenter"",""1"",""2652""
","
","
","""event"",""trial"",""time""
""fullscreenenter"",""1"",""2652""
","
","","","","","","","","","","","","","","","","","","","","",""
"fullscreen","1","3648","0.0-1.0","3844","1","15","Male","approach_avoid_spark_v1","""event"",""trial"",""time""
""fullscreenenter"",""1"",""2652""
","
","
","""event"",""trial"",""time""
""fullscreenenter"",""1"",""2652""
","
","true","","","","","","","","","","","","","","","","","","","",""
"preload","2","11764","0.0-2.0","3844","1","15","Male","approach_avoid_spark_v1","""event"",""trial"",""time""
""fullscreenenter"",""1"",""2652""
","
","
","""event"",""trial"",""time""
""fullscreenenter"",""1"",""2652""
","
","true","false","[]","[]","[]","","","","","","","","","","","","","","","",""
"audio-keyboard-response","3","13519","0.0-3.0","3844","1","15","Male","approach_avoid_spark_v1","""event"",""trial"",""time""
""fullscreenenter"",""1"",""2652""
","
","
","""event"",""trial"",""time""
""fullscreenenter"",""1"",""2652""
","
","","","","","","1759.9999999999998","audio/beep_loop.wav"," ","","","","","","","","","","","","",""
"audio-button-response","4","20904","0.0-4.0","3844","1","15","Male","approach_avoid_spark_v1","""event"",""trial"",""time""
""fullscreenenter"",""1"",""2652""
","
","
","""event"",""trial"",""time""
""fullscreenenter"",""1"",""2652""
","
","","","","","","7379","audio/shark.wav","0","","","","","","","","","","","","",""
"audio-button-response","5","25401","0.0-5.0","3844","1","15","Male","approach_avoid_spark_v1","""event"",""trial"",""time""
""fullscreenenter"",""1"",""2652""
","
","
","""event"",""trial"",""time""
""fullscreenenter"",""1"",""2652""
","
","","","","","","3491","audio/turtle.wav","0","","","","","","","","","","","","",""
"preload","6","29465","0.0-6.0","3844","1","15","Male","approach_avoid_spark_v1","""event"",""trial"",""time""
""fullscreenenter"",""1"",""2652""
""fullscreenexit"",""7"",""36387""
","
","
","""event"",""trial"",""time""
""fullscreenenter"",""1"",""2652""
","""event"",""trial"",""time""
""fullscreenexit"",""7"",""36387""
","true","false","[]","[]","[]","","","","","","","","","","","","","","","",""
"html-keyboard-response","7","41087","0.0-7.0","3844","1","15","Male","approach_avoid_spark_v1","""event"",""trial"",""time""
""fullscreenenter"",""1"",""2652""
""fullscreenexit"",""7"",""36387""
","
","
","""event"",""trial"",""time""
""fullscreenenter"",""1"",""2652""
","""event"",""trial"",""time""
""fullscreenexit"",""7"",""36387""
","","","","","","11621.299999713898","Welcome to the experiment. Press any key to begin and to advance the instructions.","f11","","","","","","","","","","","","",""
"learning-instructions","8","63482","0.0-8.0-0.0-0.0","3844","1","15","Male","approach_avoid_spark_v1","""event"",""trial"",""time""
""fullscreenenter"",""1"",""2652""
""fullscreenexit"",""7"",""36387""
","
","
","""event"",""trial"",""time""
""fullscreenenter"",""1"",""2652""
","""event"",""trial"",""time""
""fullscreenexit"",""7"",""36387""
","","","","","","15434.5","<p> Welcome! Today you are going to play 6 different rounds of a decision-making game. </p><p> Use the mouse to click next to continue. </p>","","0","instructions","","","","","","","","","","",""
"learning-instructions","9","66952","0.0-8.0-0.0-0.1","3844","1","15","Male","approach_avoid_spark_v1","""event"",""trial"",""time""
""fullscreenenter"",""1"",""2652""
""fullscreenexit"",""7"",""36387""
","
","
","""event"",""trial"",""time""
""fullscreenenter"",""1"",""2652""
","""event"",""trial"",""time""
""fullscreenexit"",""7"",""36387""
","","","","","","745.6999998092651","<p> You will start with a practice round to learn the rules. </p>","","0","instructions","","","","","","","","","","",""
"learning-instructions","10","71425","0.0-8.0-0.0-0.2","3844","1","15","Male","approach_avoid_spark_v1","""event"",""trial"",""time""
""fullscreenenter"",""1"",""2652""
""fullscreenexit"",""7"",""36387""
","
","
","""event"",""trial"",""time""
""fullscreenenter"",""1"",""2652""
","""event"",""trial"",""time""
""fullscreenexit"",""7"",""36387""
","","","","","","1027.8999996185303","<p> Your goal in this round is to give out sports equipment to kids. </p></div>","","0","instructions","","","","","","","","","","",""
"learning-instructions","11","79515","0.0-8.0-0.0-0.3","3844","1","15","Male","approach_avoid_spark_v1","""event"",""trial"",""time""
""fullscreenenter"",""1"",""2652""
""fullscreenexit"",""7"",""36387""
","
","
","""event"",""trial"",""time""
""fullscreenenter"",""1"",""2652""
","""event"",""trial"",""time""
""fullscreenexit"",""7"",""36387""
","","","","","","537.5999999046326","<p> The kids only like some of the equipment.  </p><p> On each turn, you will see a piece of sports equipment.   </p><p> You need to decide whether to give it to the kids or not.  </p>","","0","instructions","","","","","","","","","","",""
"learning-instructions","12","85734","0.0-8.0-0.0-0.4","3844","1","15","Male","approach_avoid_spark_v1","""event"",""trial"",""time""
""fullscreenenter"",""1"",""2652""
""fullscreenexit"",""7"",""36387""
","
","
","""event"",""trial"",""time""
""fullscreenenter"",""1"",""2652""
","""event"",""trial"",""time""
""fullscreenexit"",""7"",""36387""
","","","","","","1476.5","<p> You can give them the equipment by pressing 1 and choose not to give it to them by pressing 0. </p><br><div class=""choice-instructions-grid""> <div class=""choice-option""><img src=""images/approach.png"" class=""choice-option-img"" stage=""instructions"" position=""0"" ><div class=""choice-option-text""> Press ""1."" </div></div><div class=""choice-option""><img src=""images/avoid.png"" class=""choice-option-img"" stage=""instructions"" position=""1"" ><div class=""choice-option-text""> Press ""0."" </div></div>","","0","instructions","","","","","","","","","","",""
"learning-instructions","13","93989","0.0-8.0-0.0-0.5","3844","1","15","Male","approach_avoid_spark_v1","""event"",""trial"",""time""
""fullscreenenter"",""1"",""2652""
""fullscreenexit"",""7"",""36387""
","
","
","""event"",""trial"",""time""
""fullscreenenter"",""1"",""2652""
","""event"",""trial"",""time""
""fullscreenexit"",""7"",""36387""
","","","","","","862.5","<p> If you give them a piece of equipment they like, they will be happy! </p><p> But if you give them a piece of equipment they do not like, they will be sad. </p>","","0","instructions","","","","","","","","","","",""
"learning-instructions","14","106015","0.0-8.0-0.0-0.6","3844","1","15","Male","approach_avoid_spark_v1","""event"",""trial"",""time""
""fullscreenenter"",""1"",""2652""
""fullscreenexit"",""7"",""36387""
","
","
","""event"",""trial"",""time""
""fullscreenenter"",""1"",""2652""
","""event"",""trial"",""time""
""fullscreenexit"",""7"",""36387""
","","","","","","1517.6000003814697","<p> You will earn points based on how you make kids feel. </p><p> If you make them happy, you will WIN anywhere from 1 - 9 points, </p><p> but if you make them sad, you will LOSE anywhere from 1 - 9 points. </p>","","0","instructions","","","","","","","","","","",""
"learning-instructions","15","116344","0.0-8.0-0.0-0.7","3844","1","15","Male","approach_avoid_spark_v1","""event"",""trial"",""time""
""fullscreenenter"",""1"",""2652""
""fullscreenexit"",""7"",""36387""
","
","
","""event"",""trial"",""time""
""fullscreenenter"",""1"",""2652""
","""event"",""trial"",""time""
""fullscreenexit"",""7"",""36387""
","","","","","","786.5","<p> You will see how many points you won or lost in the center of the screen. </p><p> Here is what you would see if you won 6 points: </p><p style=""color:green;font-size:50px;font-weight:bolder"">6</p><p style=""color:green"">The text is GREEN because you WON points.</p>","","0","instructions","","","","","","","","","","",""
"learning-instructions","16","122354","0.0-8.0-0.0-0.8","3844","1","15","Male","approach_avoid_spark_v1","""event"",""trial"",""time""
""fullscreenenter"",""1"",""2652""
""fullscreenexit"",""7"",""36387""
","
","
","""event"",""trial"",""time""
""fullscreenenter"",""1"",""2652""
","""event"",""trial"",""time""
""fullscreenexit"",""7"",""36387""
","","","","","","517","<p> And here is what you would see if you lost 4 points: </p><p style=""color:red;font-size:50px;font-weight:bolder"">-4</p><p style=""color:red"">The text is RED because you LOST points. </p>","","0","instructions","","","","","","","","","","",""
"learning-instructions","17","138243","0.0-8.0-0.0-0.9","3844","1","15","Male","approach_avoid_spark_v1","""event"",""trial"",""time""
""fullscreenenter"",""1"",""2652""
""fullscreenexit"",""7"",""36387""
","
","
","""event"",""trial"",""time""
""fullscreenenter"",""1"",""2652""
","""event"",""trial"",""time""
""fullscreenexit"",""7"",""36387""
","","","","","","1186.6999998092651","<p> Some of the equipment will make the kids VERY happy or sad. </p><p> These pieces of equipment will make you win or lose LOTS of points. </p><p> Other pieces of equipment will only make the kids a little happy or sad. </p><p> These pieces of equipment will make you win or lose small amounts of points. </p>","","0","instructions","","","","","","","","","","",""
"learning-instructions","18","149679","0.0-8.0-0.0-0.10","3844","1","15","Male","approach_avoid_spark_v1","""event"",""trial"",""time""
""fullscreenenter"",""1"",""2652""
""fullscreenexit"",""7"",""36387""
","
","
","""event"",""trial"",""time""
""fullscreenenter"",""1"",""2652""
","""event"",""trial"",""time""
""fullscreenexit"",""7"",""36387""
","","","","","","812.5","<p> If you choose not to give them the equipment, you will not win or lose any points. </p><p>  However, in the center of the screen, you will see the number of points you WOULD HAVE won or lost if you had given them the equipment. </p>","","0","instructions","","","","","","","","","","",""
"learning-instructions","19","171682","0.0-8.0-0.0-0.11","3844","1","15","Male","approach_avoid_spark_v1","""event"",""trial"",""time""
""fullscreenenter"",""1"",""2652""
""fullscreenexit"",""7"",""36387""
""blur"",""20"",""193289""
""focus"",""20"",""194035""
","""event"",""trial"",""time""
""blur"",""20"",""193289""
","""event"",""trial"",""time""
""focus"",""20"",""194035""
","""event"",""trial"",""time""
""fullscreenenter"",""1"",""2652""
","""event"",""trial"",""time""
""fullscreenexit"",""7"",""36387""
","","","","","","475.40000009536743","<p> Here is what you might see if you did not give the equipment to the kids but it would have made them happy: </p><p style=""color:grey; font-size:50px; display: inline-block; border-spacing: 15px; border-width:3px; border-style:solid; border-color:red"">  &nbsp; 7 &nbsp; </p><p> Remember, in this case, you would not win or lose ANY points because you did not give them the equipment.  </p><p style=""color:grey"">The text is GREY because you earned ZERO points. </p><p style=""color:red"">However, choosing to give the kids the equipment would have made you win points. The box around the text is RED because you chose the worse option. </p>","","0","instructions","","","","","","","","","","",""
"learning-instructions","20","194630","0.0-8.0-0.0-0.12","3844","1","15","Male","approach_avoid_spark_v1","""event"",""trial"",""time""
""fullscreenenter"",""1"",""2652""
""fullscreenexit"",""7"",""36387""
""blur"",""20"",""193289""
""focus"",""20"",""194035""
","""event"",""trial"",""time""
""blur"",""20"",""193289""
","""event"",""trial"",""time""
""focus"",""20"",""194035""
","""event"",""trial"",""time""
""fullscreenenter"",""1"",""2652""
","""event"",""trial"",""time""
""fullscreenexit"",""7"",""36387""
","","","","","","1882.7000002861023","<p> Here is what you might see if you did not give the equipment to the kids but it would have made them sad: </p><p style=""color:grey;font-size:50px; display: inline-block; border-spacing: 15px; border-width:3px; border-style:solid; border-color:green"">  &nbsp; -8 &nbsp; </p><p> Remember, in this case, you would not win or lose ANY points because you did not give them the equipment.  </p><p style=""color:grey"">The text is GREY because you earned ZERO points. </p><p  style=""color:green""> Choosing to give the kids the equipment would have made you lose points. The box around the text is GREEN because you chose the better option.</p>","","0","instructions","","","","","","","","","","",""
"learning-instructions","21","204639","0.0-8.0-0.0-0.13","3844","1","15","Male","approach_avoid_spark_v1","""event"",""trial"",""time""
""fullscreenenter"",""1"",""2652""
""fullscreenexit"",""7"",""36387""
""blur"",""20"",""193289""
""focus"",""20"",""194035""
","""event"",""trial"",""time""
""blur"",""20"",""193289""
","""event"",""trial"",""time""
""focus"",""20"",""194035""
","""event"",""trial"",""time""
""fullscreenenter"",""1"",""2652""
","""event"",""trial"",""time""
""fullscreenexit"",""7"",""36387""
","","","","","","1002.3000001907349","<p> You will have 3 seconds to make each choice. Try to respond before time runs out! </p><p> You will lose 5 points each time you do not make a response. </p>","","0","instructions","","","","","","","","","","",""
"learning-instructions","22","210781","0.0-8.0-0.0-0.14","3844","1","15","Male","approach_avoid_spark_v1","""event"",""trial"",""time""
""fullscreenenter"",""1"",""2652""
""fullscreenexit"",""7"",""36387""
""blur"",""20"",""193289""
""focus"",""20"",""194035""
","""event"",""trial"",""time""
""blur"",""20"",""193289""
","""event"",""trial"",""time""
""focus"",""20"",""194035""
","""event"",""trial"",""time""
""fullscreenenter"",""1"",""2652""
","""event"",""trial"",""time""
""fullscreenexit"",""7"",""36387""
","","","","","","734.2000002861023","<p> This is just a practice round, but in the real game, your bonus payment will depend on your total number of points.","","0","instructions","","","","","","","","","","",""
"learning-instructions","23","216989","0.0-8.0-0.0-0.15","3844","1","15","Male","approach_avoid_spark_v1","""event"",""trial"",""time""
""fullscreenenter"",""1"",""2652""
""fullscreenexit"",""7"",""36387""
""blur"",""20"",""193289""
""focus"",""20"",""194035""
","""event"",""trial"",""time""
""blur"",""20"",""193289""
","""event"",""trial"",""time""
""focus"",""20"",""194035""
","""event"",""trial"",""time""
""fullscreenenter"",""1"",""2652""
","""event"",""trial"",""time""
""fullscreenexit"",""7"",""36387""
","","","","","","451.5","<p> Remember, you can give them the equipment by pressing 1 and choose not to give it to them by pressing 0. </p><br><div class=""choice-instructions-grid""> <div class=""choice-option""><img src=""images/approach.png"" class=""choice-option-img"" stage=""instructions"" position=""0"" ><div class=""choice-option-text""> Press ""1."" </div></div><div class=""choice-option""><img src=""images/avoid.png"" class=""choice-option-img"" stage=""instructions"" position=""1"" ><div class=""choice-option-text""> Press ""0."" </div></div>","","0","instructions","","","","","","","","","","",""
"html-button-response","24","218430","0.0-8.0-1.0","3844","1","15","Male","approach_avoid_spark_v1","""event"",""trial"",""time""
""fullscreenenter"",""1"",""2652""
""fullscreenexit"",""7"",""36387""
""blur"",""20"",""193289""
""focus"",""20"",""194035""
","""event"",""trial"",""time""
""blur"",""20"",""193289""
","""event"",""trial"",""time""
""focus"",""20"",""194035""
","""event"",""trial"",""time""
""fullscreenenter"",""1"",""2652""
","""event"",""trial"",""time""
""fullscreenexit"",""7"",""36387""
","","","","","","1339.9000000953674","<p> Ready to practice? </p>","0","","","","","","","","","","","","",""
"html-keyboard-response","25","219037","0.0-8.0-2.0-0.0","3844","1","15","Male","approach_avoid_spark_v1","""event"",""trial"",""time""
""fullscreenenter"",""1"",""2652""
""fullscreenexit"",""7"",""36387""
""blur"",""20"",""193289""
""focus"",""20"",""194035""
","""event"",""trial"",""time""
""blur"",""20"",""193289""
","""event"",""trial"",""time""
""focus"",""20"",""194035""
","""event"",""trial"",""time""
""fullscreenenter"",""1"",""2652""
","""event"",""trial"",""time""
""fullscreenexit"",""7"",""36387""
","","","","","","null","<div style=""font-size:60px;"">+</div>","null","","fixation","","","","","","","","","","",""
"aa-learning-trial","26","222053","0.0-8.0-2.0-1.0","3844","1","15","Male","approach_avoid_spark_v1","""event"",""trial"",""time""
""fullscreenenter"",""1"",""2652""
""fullscreenexit"",""7"",""36387""
""blur"",""20"",""193289""
""focus"",""20"",""194035""
","""event"",""trial"",""time""
""blur"",""20"",""193289""
","""event"",""trial"",""time""
""focus"",""20"",""194035""
","""event"",""trial"",""time""
""fullscreenenter"",""1"",""2652""
","""event"",""trial"",""time""
""fullscreenexit"",""7"",""36387""
","","","","","","null","images/racket4.png","","","learning","-7","-5","","null","practice","practice","practice","-1","","",""
"html-keyboard-response","27","222568","0.0-8.0-2.0-0.1","3844","1","15","Male","approach_avoid_spark_v1","""event"",""trial"",""time""
""fullscreenenter"",""1"",""2652""
""fullscreenexit"",""7"",""36387""
""blur"",""20"",""193289""
""focus"",""20"",""194035""
","""event"",""trial"",""time""
""blur"",""20"",""193289""
","""event"",""trial"",""time""
""focus"",""20"",""194035""
","""event"",""trial"",""time""
""fullscreenenter"",""1"",""2652""
","""event"",""trial"",""time""
""fullscreenexit"",""7"",""36387""
","","","","","","null","<div style=""font-size:60px;"">+</div>","null","","fixation","","","","","","","","","","",""
"aa-learning-trial","28","225577","0.0-8.0-2.0-1.1","3844","1","15","Male","approach_avoid_spark_v1","""event"",""trial"",""time""
""fullscreenenter"",""1"",""2652""
""fullscreenexit"",""7"",""36387""
""blur"",""20"",""193289""
""focus"",""20"",""194035""
","""event"",""trial"",""time""
""blur"",""20"",""193289""
","""event"",""trial"",""time""
""focus"",""20"",""194035""
","""event"",""trial"",""time""
""fullscreenenter"",""1"",""2652""
","""event"",""trial"",""time""
""fullscreenexit"",""7"",""36387""
","","","","","","null","images/ball1.png","","","learning","8","-5","","null","practice","practice","practice","-1","","",""
"html-keyboard-response","29","226085","0.0-8.0-2.0-0.2","3844","1","15","Male","approach_avoid_spark_v1","""event"",""trial"",""time""
""fullscreenenter"",""1"",""2652""
""fullscreenexit"",""7"",""36387""
""blur"",""20"",""193289""
""focus"",""20"",""194035""
","""event"",""trial"",""time""
""blur"",""20"",""193289""
","""event"",""trial"",""time""
""focus"",""20"",""194035""
","""event"",""trial"",""time""
""fullscreenenter"",""1"",""2652""
","""event"",""trial"",""time""
""fullscreenexit"",""7"",""36387""
","","","","","","null","<div style=""font-size:60px;"">+</div>","null","","fixation","","","","","","","","","","",""
"aa-learning-trial","30","229102","0.0-8.0-2.0-1.2","3844","1","15","Male","approach_avoid_spark_v1","""event"",""trial"",""time""
""fullscreenenter"",""1"",""2652""
""fullscreenexit"",""7"",""36387""
""blur"",""20"",""193289""
""focus"",""20"",""194035""
","""event"",""trial"",""time""
""blur"",""20"",""193289""
","""event"",""trial"",""time""
""focus"",""20"",""194035""
","""event"",""trial"",""time""
""fullscreenenter"",""1"",""2652""
","""event"",""trial"",""time""
""fullscreenexit"",""7"",""36387""
","","","","","","null","images/racket4.png","","","learning","-1","-5","","null","practice","practice","practice","-1","","",""
"html-keyboard-response","31","229616","0.0-8.0-2.0-0.3","3844","1","15","Male","approach_avoid_spark_v1","""event"",""trial"",""time""
""fullscreenenter"",""1"",""2652""
""fullscreenexit"",""7"",""36387""
""blur"",""20"",""193289""
""focus"",""20"",""194035""
","""event"",""trial"",""time""
""blur"",""20"",""193289""
","""event"",""trial"",""time""
""focus"",""20"",""194035""
","""event"",""trial"",""time""
""fullscreenenter"",""1"",""2652""
","""event"",""trial"",""time""
""fullscreenexit"",""7"",""36387""
","","","","","","null","<div style=""font-size:60px;"">+</div>","null","","fixation","","","","","","","","","","",""
"aa-learning-trial","32","232620","0.0-8.0-2.0-1.3","3844","1","15","Male","approach_avoid_spark_v1","""event"",""trial"",""time""
""fullscreenenter"",""1"",""2652""
""fullscreenexit"",""7"",""36387""
""blur"",""20"",""193289""
""focus"",""20"",""194035""
","""event"",""trial"",""time""
""blur"",""20"",""193289""
","""event"",""trial"",""time""
""focus"",""20"",""194035""
","""event"",""trial"",""time""
""fullscreenenter"",""1"",""2652""
","""event"",""trial"",""time""
""fullscreenexit"",""7"",""36387""
","","","","","","null","images/racket1.png","","","learning","5","-5","","null","practice","practice","practice","-1","","",""
"html-keyboard-response","33","233130","0.0-8.0-2.0-0.4","3844","1","15","Male","approach_avoid_spark_v1","""event"",""trial"",""time""
""fullscreenenter"",""1"",""2652""
""fullscreenexit"",""7"",""36387""
""blur"",""20"",""193289""
""focus"",""20"",""194035""
","""event"",""trial"",""time""
""blur"",""20"",""193289""
","""event"",""trial"",""time""
""focus"",""20"",""194035""
","""event"",""trial"",""time""
""fullscreenenter"",""1"",""2652""
","""event"",""trial"",""time""
""fullscreenexit"",""7"",""36387""
","","","","","","null","<div style=""font-size:60px;"">+</div>","null","","fixation","","","","","","","","","","",""
"aa-learning-trial","34","236132","0.0-8.0-2.0-1.4","3844","1","15","Male","approach_avoid_spark_v1","""event"",""trial"",""time""
""fullscreenenter"",""1"",""2652""
""fullscreenexit"",""7"",""36387""
""blur"",""20"",""193289""
""focus"",""20"",""194035""
","""event"",""trial"",""time""
""blur"",""20"",""193289""
","""event"",""trial"",""time""
""focus"",""20"",""194035""
","""event"",""trial"",""time""
""fullscreenenter"",""1"",""2652""
","""event"",""trial"",""time""
""fullscreenexit"",""7"",""36387""
","","","","","","null","images/racket3.png","","","learning","-3","-5","","null","practice","practice","practice","-1","","",""
"html-keyboard-response","35","236634","0.0-8.0-2.0-0.5","3844","1","15","Male","approach_avoid_spark_v1","""event"",""trial"",""time""
""fullscreenenter"",""1"",""2652""
""fullscreenexit"",""7"",""36387""
""blur"",""20"",""193289""
""focus"",""20"",""194035""
","""event"",""trial"",""time""
""blur"",""20"",""193289""
","""event"",""trial"",""time""
""focus"",""20"",""194035""
","""event"",""trial"",""time""
""fullscreenenter"",""1"",""2652""
","""event"",""trial"",""time""
""fullscreenexit"",""7"",""36387""
","","","","","","null","<div style=""font-size:60px;"">+</div>","null","","fixation","","","","","","","","","","",""
"aa-learning-trial","36","239649","0.0-8.0-2.0-1.5","3844","1","15","Male","approach_avoid_spark_v1","""event"",""trial"",""time""
""fullscreenenter"",""1"",""2652""
""fullscreenexit"",""7"",""36387""
""blur"",""20"",""193289""
""focus"",""20"",""194035""
","""event"",""trial"",""time""
""blur"",""20"",""193289""
","""event"",""trial"",""time""
""focus"",""20"",""194035""
","""event"",""trial"",""time""
""fullscreenenter"",""1"",""2652""
","""event"",""trial"",""time""
""fullscreenexit"",""7"",""36387""
","","","","","","null","images/racket3.png","","","learning","-1","-5","","null","practice","practice","practice","-1","","",""
"html-keyboard-response","37","240159","0.0-8.0-2.0-0.6","3844","1","15","Male","approach_avoid_spark_v1","""event"",""trial"",""time""
""fullscreenenter"",""1"",""2652""
""fullscreenexit"",""7"",""36387""
""blur"",""20"",""193289""
""focus"",""20"",""194035""
","""event"",""trial"",""time""
""blur"",""20"",""193289""
","""event"",""trial"",""time""
""focus"",""20"",""194035""
","""event"",""trial"",""time""
""fullscreenenter"",""1"",""2652""
","""event"",""trial"",""time""
""fullscreenexit"",""7"",""36387""
","","","","","","null","<div style=""font-size:60px;"">+</div>","null","","fixation","","","","","","","","","","",""
"aa-learning-trial","38","243170","0.0-8.0-2.0-1.6","3844","1","15","Male","approach_avoid_spark_v1","""event"",""trial"",""time""
""fullscreenenter"",""1"",""2652""
""fullscreenexit"",""7"",""36387""
""blur"",""20"",""193289""
""focus"",""20"",""194035""
","""event"",""trial"",""time""
""blur"",""20"",""193289""
","""event"",""trial"",""time""
""focus"",""20"",""194035""
","""event"",""trial"",""time""
""fullscreenenter"",""1"",""2652""
","""event"",""trial"",""time""
""fullscreenexit"",""7"",""36387""
","","","","","","null","images/racket3.png","","","learning","2","-5","","null","practice","practice","practice","-1","","",""
"html-keyboard-response","39","243681","0.0-8.0-2.0-0.7","3844","1","15","Male","approach_avoid_spark_v1","""event"",""trial"",""time""
""fullscreenenter"",""1"",""2652""
""fullscreenexit"",""7"",""36387""
""blur"",""20"",""193289""
""focus"",""20"",""194035""
","""event"",""trial"",""time""
""blur"",""20"",""193289""
","""event"",""trial"",""time""
""focus"",""20"",""194035""
","""event"",""trial"",""time""
""fullscreenenter"",""1"",""2652""
","""event"",""trial"",""time""
""fullscreenexit"",""7"",""36387""
","","","","","","null","<div style=""font-size:60px;"">+</div>","null","","fixation","","","","","","","","","","",""
"aa-learning-trial","40","246683","0.0-8.0-2.0-1.7","3844","1","15","Male","approach_avoid_spark_v1","""event"",""trial"",""time""
""fullscreenenter"",""1"",""2652""
""fullscreenexit"",""7"",""36387""
""blur"",""20"",""193289""
""focus"",""20"",""194035""
","""event"",""trial"",""time""
""blur"",""20"",""193289""
","""event"",""trial"",""time""
""focus"",""20"",""194035""
","""event"",""trial"",""time""
""fullscreenenter"",""1"",""2652""
","""event"",""trial"",""time""
""fullscreenexit"",""7"",""36387""
","","","","","","null","images/ball1.png","","","learning","4","-5","","null","practice","practice","practice","-1","","",""
"html-keyboard-response","41","247184","0.0-8.0-2.0-0.8","3844","1","15","Male","approach_avoid_spark_v1","""event"",""trial"",""time""
""fullscreenenter"",""1"",""2652""
""fullscreenexit"",""7"",""36387""
""blur"",""20"",""193289""
""focus"",""20"",""194035""
","""event"",""trial"",""time""
""blur"",""20"",""193289""
","""event"",""trial"",""time""
""focus"",""20"",""194035""
","""event"",""trial"",""time""
""fullscreenenter"",""1"",""2652""
","""event"",""trial"",""time""
""fullscreenexit"",""7"",""36387""
","","","","","","null","<div style=""font-size:60px;"">+</div>","null","","fixation","","","","","","","","","","",""
"aa-learning-trial","42","250186","0.0-8.0-2.0-1.8","3844","1","15","Male","approach_avoid_spark_v1","""event"",""trial"",""time""
""fullscreenenter"",""1"",""2652""
""fullscreenexit"",""7"",""36387""
""blur"",""20"",""193289""
""focus"",""20"",""194035""
","""event"",""trial"",""time""
""blur"",""20"",""193289""
","""event"",""trial"",""time""
""focus"",""20"",""194035""
","""event"",""trial"",""time""
""fullscreenenter"",""1"",""2652""
","""event"",""trial"",""time""
""fullscreenexit"",""7"",""36387""
","","","","","","null","images/racket3.png","","","learning","-1","-5","","null","practice","practice","practice","-1","","",""
"html-keyboard-response","43","250688","0.0-8.0-2.0-0.9","3844","1","15","Male","approach_avoid_spark_v1","""event"",""trial"",""time""
""fullscreenenter"",""1"",""2652""
""fullscreenexit"",""7"",""36387""
""blur"",""20"",""193289""
""focus"",""20"",""194035""
","""event"",""trial"",""time""
""blur"",""20"",""193289""
","""event"",""trial"",""time""
""focus"",""20"",""194035""
","""event"",""trial"",""time""
""fullscreenenter"",""1"",""2652""
","""event"",""trial"",""time""
""fullscreenexit"",""7"",""36387""
","","","","","","null","<div style=""font-size:60px;"">+</div>","null","","fixation","","","","","","","","","","",""
"aa-learning-trial","44","253689","0.0-8.0-2.0-1.9","3844","1","15","Male","approach_avoid_spark_v1","""event"",""trial"",""time""
""fullscreenenter"",""1"",""2652""
""fullscreenexit"",""7"",""36387""
""blur"",""20"",""193289""
""focus"",""20"",""194035""
","""event"",""trial"",""time""
""blur"",""20"",""193289""
","""event"",""trial"",""time""
""focus"",""20"",""194035""
","""event"",""trial"",""time""
""fullscreenenter"",""1"",""2652""
","""event"",""trial"",""time""
""fullscreenexit"",""7"",""36387""
","","","","","","null","images/racket2.png","","","learning","-7","-5","","null","practice","practice","practice","-1","","",""
"html-keyboard-response","45","254190","0.0-8.0-2.0-0.10","3844","1","15","Male","approach_avoid_spark_v1","""event"",""trial"",""time""
""fullscreenenter"",""1"",""2652""
""fullscreenexit"",""7"",""36387""
""blur"",""20"",""193289""
""focus"",""20"",""194035""
","""event"",""trial"",""time""
""blur"",""20"",""193289""
","""event"",""trial"",""time""
""focus"",""20"",""194035""
","""event"",""trial"",""time""
""fullscreenenter"",""1"",""2652""
","""event"",""trial"",""time""
""fullscreenexit"",""7"",""36387""
","","","","","","null","<div style=""font-size:60px;"">+</div>","null","","fixation","","","","","","","","","","",""
"aa-learning-trial","46","257192","0.0-8.0-2.0-1.10","3844","1","15","Male","approach_avoid_spark_v1","""event"",""trial"",""time""
""fullscreenenter"",""1"",""2652""
""fullscreenexit"",""7"",""36387""
""blur"",""20"",""193289""
""focus"",""20"",""194035""
","""event"",""trial"",""time""
""blur"",""20"",""193289""
","""event"",""trial"",""time""
""focus"",""20"",""194035""
","""event"",""trial"",""time""
""fullscreenenter"",""1"",""2652""
","""event"",""trial"",""time""
""fullscreenexit"",""7"",""36387""
","","","","","","null","images/ball2.png","","","learning","-7","-5","","null","practice","practice","practice","-1","","",""
"html-keyboard-response","47","257694","0.0-8.0-2.0-0.11","3844","1","15","Male","approach_avoid_spark_v1","""event"",""trial"",""time""
""fullscreenenter"",""1"",""2652""
""fullscreenexit"",""7"",""36387""
""blur"",""20"",""193289""
""focus"",""20"",""194035""
","""event"",""trial"",""time""
""blur"",""20"",""193289""
","""event"",""trial"",""time""
""focus"",""20"",""194035""
","""event"",""trial"",""time""
""fullscreenenter"",""1"",""2652""
","""event"",""trial"",""time""
""fullscreenexit"",""7"",""36387""
","","","","","","null","<div style=""font-size:60px;"">+</div>","null","","fixation","","","","","","","","","","",""
"aa-learning-trial","48","260695","0.0-8.0-2.0-1.11","3844","1","15","Male","approach_avoid_spark_v1","""event"",""trial"",""time""
""fullscreenenter"",""1"",""2652""
""fullscreenexit"",""7"",""36387""
""blur"",""20"",""193289""
""focus"",""20"",""194035""
","""event"",""trial"",""time""
""blur"",""20"",""193289""
","""event"",""trial"",""time""
""focus"",""20"",""194035""
","""event"",""trial"",""time""
""fullscreenenter"",""1"",""2652""
","""event"",""trial"",""time""
""fullscreenexit"",""7"",""36387""
","","","","","","null","images/ball2.png","","","learning","4","-5","","null","practice","practice","practice","-1","","",""
"html-button-response","49","351536","0.0-8.0-3.0","3844","1","15","Male","approach_avoid_spark_v1","""event"",""trial"",""time""
""fullscreenenter"",""1"",""2652""
""fullscreenexit"",""7"",""36387""
""blur"",""20"",""193289""
""focus"",""20"",""194035""
","""event"",""trial"",""time""
""blur"",""20"",""193289""
","""event"",""trial"",""time""
""focus"",""20"",""194035""
","""event"",""trial"",""time""
""fullscreenenter"",""1"",""2652""
","""event"",""trial"",""time""
""fullscreenexit"",""7"",""36387""
","","","","","","90839.2000002861","<p> You earned -60 points in the practice round! </p>","0","","break","","","","","","","","","","",""
"learning-instructions","50","358427","0.0-8.0-4.0-0.0","3844","1","15","Male","approach_avoid_spark_v1","""event"",""trial"",""time""
""fullscreenenter"",""1"",""2652""
""fullscreenexit"",""7"",""36387""
""blur"",""20"",""193289""
""focus"",""20"",""194035""
","""event"",""trial"",""time""
""blur"",""20"",""193289""
","""event"",""trial"",""time""
""focus"",""20"",""194035""
","""event"",""trial"",""time""
""fullscreenenter"",""1"",""2652""
","""event"",""trial"",""time""
""fullscreenexit"",""7"",""36387""
","","","","","","939.4000000953674","<p> It's almost time to start the real game. </p><p> Before you start, we're going to ask you a few questions about how the game works. </p>","","0","instructions","","","","","","","","","","",""
"preload","51","359869","0.0-8.0-5.0","3844","1","15","Male","approach_avoid_spark_v1","""event"",""trial"",""time""
""fullscreenenter"",""1"",""2652""
""fullscreenexit"",""7"",""36387""
""blur"",""20"",""193289""
""focus"",""20"",""194035""
","""event"",""trial"",""time""
""blur"",""20"",""193289""
","""event"",""trial"",""time""
""focus"",""20"",""194035""
","""event"",""trial"",""time""
""fullscreenenter"",""1"",""2652""
","""event"",""trial"",""time""
""fullscreenexit"",""7"",""36387""
","true","false","[]","[]","[]","","","","","","","","","","","","","","","",""
"comp-q","52","366462","0.0-8.0-6.0-0.0","3844","1","15","Male","approach_avoid_spark_v1","""event"",""trial"",""time""
""fullscreenenter"",""1"",""2652""
""fullscreenexit"",""7"",""36387""
""blur"",""20"",""193289""
""focus"",""20"",""194035""
","""event"",""trial"",""time""
""blur"",""20"",""193289""
","""event"",""trial"",""time""
""focus"",""20"",""194035""
","""event"",""trial"",""time""
""fullscreenenter"",""1"",""2652""
","""event"",""trial"",""time""
""fullscreenexit"",""7"",""36387""
","","","","","","1594.4000000953674","<p> <b> True or False? </b> </p><p> If you see a number in GREY, that means you earned that many points. </p>","","1","comp_question","","","","","","","","","true","",""
"comp-q","53","376514","0.0-8.0-6.0-1.0","3844","1","15","Male","approach_avoid_spark_v1","""event"",""trial"",""time""
""fullscreenenter"",""1"",""2652""
""fullscreenexit"",""7"",""36387""
""blur"",""20"",""193289""
""focus"",""20"",""194035""
","""event"",""trial"",""time""
""blur"",""20"",""193289""
","""event"",""trial"",""time""
""focus"",""20"",""194035""
","""event"",""trial"",""time""
""fullscreenenter"",""1"",""2652""
","""event"",""trial"",""time""
""fullscreenexit"",""7"",""36387""
","","","","","","1697.0999999046326","<p><b> That's right! </b> If you see a grey number, it means you earned ZERO points. <br> The grey numbers show the points you WOULD HAVE earned if you had made the other choice. </p>","","0","comp_answer","","","","","","","","","","",""
"comp-q","54","382340","0.0-8.0-7.0-0.0","3844","1","15","Male","approach_avoid_spark_v1","""event"",""trial"",""time""
""fullscreenenter"",""1"",""2652""
""fullscreenexit"",""7"",""36387""
""blur"",""20"",""193289""
""focus"",""20"",""194035""
","""event"",""trial"",""time""
""blur"",""20"",""193289""
","""event"",""trial"",""time""
""focus"",""20"",""194035""
","""event"",""trial"",""time""
""fullscreenenter"",""1"",""2652""
","""event"",""trial"",""time""
""fullscreenexit"",""7"",""36387""
","","","","","","1142.7000002861023","<p> <b> True or False? </b> </p><p> You will have as much time as you want to make each choice. </p>","","1","comp_question","","","","","","","","","true","",""
"comp-q","55","387958","0.0-8.0-7.0-1.0","3844","1","15","Male","approach_avoid_spark_v1","""event"",""trial"",""time""
""fullscreenenter"",""1"",""2652""
""fullscreenexit"",""7"",""36387""
""blur"",""20"",""193289""
""focus"",""20"",""194035""
","""event"",""trial"",""time""
""blur"",""20"",""193289""
","""event"",""trial"",""time""
""focus"",""20"",""194035""
","""event"",""trial"",""time""
""fullscreenenter"",""1"",""2652""
","""event"",""trial"",""time""
""fullscreenexit"",""7"",""36387""
","","","","","","1580.4000000953674","<p> <b> That's right! </b> You will only have 3 seconds to make each choice. </p>","","0","comp_answer","","","","","","","","","","",""
"comp-q","56","393583","0.0-8.0-8.0-0.0","3844","1","15","Male","approach_avoid_spark_v1","""event"",""trial"",""time""
""fullscreenenter"",""1"",""2652""
""fullscreenexit"",""7"",""36387""
""blur"",""20"",""193289""
""focus"",""20"",""194035""
","""event"",""trial"",""time""
""blur"",""20"",""193289""
","""event"",""trial"",""time""
""focus"",""20"",""194035""
","""event"",""trial"",""time""
""fullscreenenter"",""1"",""2652""
","""event"",""trial"",""time""
""fullscreenexit"",""7"",""36387""
","","","","","","956.0999999046326","<p> <b> True or False? </b> </p><p> You should use the '1' and '0' keys to make your choices. </p>","","0","comp_question","","","","","","","","","true","",""
"comp-q","57","399501","0.0-8.0-8.0-1.0","3844","1","15","Male","approach_avoid_spark_v1","""event"",""trial"",""time""
""fullscreenenter"",""1"",""2652""
""fullscreenexit"",""7"",""36387""
""blur"",""20"",""193289""
""focus"",""20"",""194035""
","""event"",""trial"",""time""
""blur"",""20"",""193289""
","""event"",""trial"",""time""
""focus"",""20"",""194035""
","""event"",""trial"",""time""
""fullscreenenter"",""1"",""2652""
","""event"",""trial"",""time""
""fullscreenexit"",""7"",""36387""
","","","","","","1314.0999999046326","<p> <b> That's right! </b> You should use the '1' and '0' keys to make each choice. </p>","","0","comp_answer","","","","","","","","","","",""
"learning-instructions","58","407230","0.0-8.0-9.0-0.0","3844","1","15","Male","approach_avoid_spark_v1","""event"",""trial"",""time""
""fullscreenenter"",""1"",""2652""
""fullscreenexit"",""7"",""36387""
""blur"",""20"",""193289""
""focus"",""20"",""194035""
","""event"",""trial"",""time""
""blur"",""20"",""193289""
","""event"",""trial"",""time""
""focus"",""20"",""194035""
","""event"",""trial"",""time""
""fullscreenenter"",""1"",""2652""
","""event"",""trial"",""time""
""fullscreenexit"",""7"",""36387""
","","","","","","1462.3999996185303","<p> It's now time to start the real game. </p>Do your best, because the points you earn in the next rounds will influence your bonus payment. </p>","","0","instructions","","","","","","","","","","",""
"preload","59","407338","0.0-9.0-0.0","3844","1","15","Male","approach_avoid_spark_v1","""event"",""trial"",""time""
""fullscreenenter"",""1"",""2652""
""fullscreenexit"",""7"",""36387""
""blur"",""20"",""193289""
""focus"",""20"",""194035""
","""event"",""trial"",""time""
""blur"",""20"",""193289""
","""event"",""trial"",""time""
""focus"",""20"",""194035""
","""event"",""trial"",""time""
""fullscreenenter"",""1"",""2652""
","""event"",""trial"",""time""
""fullscreenexit"",""7"",""36387""
","true","false","[]","[]","[]","","","","","","","","","","","","","","","",""
"learning-instructions","60","412435","0.0-9.0-1.0-0.0","3844","1","15","Male","approach_avoid_spark_v1","""event"",""trial"",""time""
""fullscreenenter"",""1"",""2652""
""fullscreenexit"",""7"",""36387""
""blur"",""20"",""193289""
""focus"",""20"",""194035""
","""event"",""trial"",""time""
""blur"",""20"",""193289""
","""event"",""trial"",""time""
""focus"",""20"",""194035""
","""event"",""trial"",""time""
""fullscreenenter"",""1"",""2652""
","""event"",""trial"",""time""
""fullscreenexit"",""7"",""36387""
","","","","","","1987","<p> Your goal in this round is to eat tasty fruit. </p></div>","","0","instructions","","","","","","","","","","",""
"learning-instructions","61","422714","0.0-9.0-1.0-0.1","3844","1","15","Male","approach_avoid_spark_v1","""event"",""trial"",""time""
""fullscreenenter"",""1"",""2652""
""fullscreenexit"",""7"",""36387""
""blur"",""20"",""193289""
""focus"",""20"",""194035""
","""event"",""trial"",""time""
""blur"",""20"",""193289""
","""event"",""trial"",""time""
""focus"",""20"",""194035""
","""event"",""trial"",""time""
""fullscreenenter"",""1"",""2652""
","""event"",""trial"",""time""
""fullscreenexit"",""7"",""36387""
","","","","","","886.5","<p> Some of the fruits you will see are tasty. Others are rotten on the inside.  </p><p> On each turn, you will see a fruit.   </p><p> You need to decide whether to eat it or not.  </p>","","0","instructions","","","","","","","","","","",""
"learning-instructions","62","429644","0.0-9.0-1.0-0.2","3844","1","15","Male","approach_avoid_spark_v1","""event"",""trial"",""time""
""fullscreenenter"",""1"",""2652""
""fullscreenexit"",""7"",""36387""
""blur"",""20"",""193289""
""focus"",""20"",""194035""
","""event"",""trial"",""time""
""blur"",""20"",""193289""
","""event"",""trial"",""time""
""focus"",""20"",""194035""
","""event"",""trial"",""time""
""fullscreenenter"",""1"",""2652""
","""event"",""trial"",""time""
""fullscreenexit"",""7"",""36387""
","","","","","","2185.8999996185303","<p> You can eat the fruit by pressing 1 and choose not to eat it by pressing 0. </p><br><div class=""choice-instructions-grid""> <div class=""choice-option""><img src=""images/approach.png"" class=""choice-option-img"" stage=""instructions"" position=""0"" ><div class=""choice-option-text""> Press ""1."" </div></div><div class=""choice-option""><img src=""images/avoid.png"" class=""choice-option-img"" stage=""instructions"" position=""1"" ><div class=""choice-option-text""> Press ""0."" </div></div>","","0","instructions","","","","","","","","","","",""
"learning-instructions","63","439034","0.0-9.0-1.0-0.3","3844","1","15","Male","approach_avoid_spark_v1","""event"",""trial"",""time""
""fullscreenenter"",""1"",""2652""
""fullscreenexit"",""7"",""36387""
""blur"",""20"",""193289""
""focus"",""20"",""194035""
","""event"",""trial"",""time""
""blur"",""20"",""193289""
","""event"",""trial"",""time""
""focus"",""20"",""194035""
","""event"",""trial"",""time""
""fullscreenenter"",""1"",""2652""
","""event"",""trial"",""time""
""fullscreenexit"",""7"",""36387""
","","","","","","2325.800000190735","<p> If you eat the fruit and it was tasty, you will win points! </p><p> But if you eat the fruit and it was rotten, you will lose points. </p>","","0","instructions","","","","","","","","","","",""
"learning-instructions","64","450615","0.0-9.0-1.0-0.4","3844","1","15","Male","approach_avoid_spark_v1","""event"",""trial"",""time""
""fullscreenenter"",""1"",""2652""
""fullscreenexit"",""7"",""36387""
""blur"",""20"",""193289""
""focus"",""20"",""194035""
","""event"",""trial"",""time""
""blur"",""20"",""193289""
","""event"",""trial"",""time""
""focus"",""20"",""194035""
","""event"",""trial"",""time""
""fullscreenenter"",""1"",""2652""
","""event"",""trial"",""time""
""fullscreenexit"",""7"",""36387""
","","","","","","677.4000000953674","<p> You will earn points based on how tasty or rotten the fruit was. </p><p> If it was tasty, you will WIN anywhere from 1 - 9 points, </p><p> but if it was rotten, you will LOSE anywhere from 1 - 9 points. </p>","","0","instructions","","","","","","","","","","",""
"learning-instructions","65","458997","0.0-9.0-1.0-0.5","3844","1","15","Male","approach_avoid_spark_v1","""event"",""trial"",""time""
""fullscreenenter"",""1"",""2652""
""fullscreenexit"",""7"",""36387""
""blur"",""20"",""193289""
""focus"",""20"",""194035""
","""event"",""trial"",""time""
""blur"",""20"",""193289""
","""event"",""trial"",""time""
""focus"",""20"",""194035""
","""event"",""trial"",""time""
""fullscreenenter"",""1"",""2652""
","""event"",""trial"",""time""
""fullscreenexit"",""7"",""36387""
","","","","","","1019.2000002861023","<p> You will see how many points you won or lost in the center of the screen. </p><p> Here is what you would see if you earned 5 points: </p><p style=""color:green;font-size:50px;font-weight:bolder"">5</p>","","0","instructions","","","","","","","","","","",""
"learning-instructions","66","462997","0.0-9.0-1.0-0.6","3844","1","15","Male","approach_avoid_spark_v1","""event"",""trial"",""time""
""fullscreenenter"",""1"",""2652""
""fullscreenexit"",""7"",""36387""
""blur"",""20"",""193289""
""focus"",""20"",""194035""
","""event"",""trial"",""time""
""blur"",""20"",""193289""
","""event"",""trial"",""time""
""focus"",""20"",""194035""
","""event"",""trial"",""time""
""fullscreenenter"",""1"",""2652""
","""event"",""trial"",""time""
""fullscreenexit"",""7"",""36387""
","","","","","","719","<p> And here is what you would see if you lost 3 points: </p><p style=""color:red;font-size:50px;font-weight:bolder"">-3</p>","","0","instructions","","","","","","","","","","",""
"learning-instructions","67","478491","0.0-9.0-1.0-0.7","3844","1","15","Male","approach_avoid_spark_v1","""event"",""trial"",""time""
""fullscreenenter"",""1"",""2652""
""fullscreenexit"",""7"",""36387""
""blur"",""20"",""193289""
""focus"",""20"",""194035""
","""event"",""trial"",""time""
""blur"",""20"",""193289""
","""event"",""trial"",""time""
""focus"",""20"",""194035""
","""event"",""trial"",""time""
""fullscreenenter"",""1"",""2652""
","""event"",""trial"",""time""
""fullscreenexit"",""7"",""36387""
","","","","","","2152.7000002861023","<p> Some fruit is very tasty or very rotten. </p><p> These fruits will make you win or lose LOTS of points. </p><p> Other fruits are only kind of tasty or kind of rotten. </p><p> These fruits will make you win or lose small amounts of points. </p>","","0","instructions","","","","","","","","","","",""
"learning-instructions","68","489685","0.0-9.0-1.0-0.8","3844","1","15","Male","approach_avoid_spark_v1","""event"",""trial"",""time""
""fullscreenenter"",""1"",""2652""
""fullscreenexit"",""7"",""36387""
""blur"",""20"",""193289""
""focus"",""20"",""194035""
","""event"",""trial"",""time""
""blur"",""20"",""193289""
","""event"",""trial"",""time""
""focus"",""20"",""194035""
","""event"",""trial"",""time""
""fullscreenenter"",""1"",""2652""
","""event"",""trial"",""time""
""fullscreenexit"",""7"",""36387""
","","","","","","1136.7999997138977","<p> If you choose to not eat the fruit, you will not win or lose any points. </p><p>  However, in the center of the screen, you will see the number of points you WOULD HAVE earned if you had eaten the fruit. </p>","","0","instructions","","","","","","","","","","",""
"learning-instructions","69","500150","0.0-9.0-1.0-0.9","3844","1","15","Male","approach_avoid_spark_v1","""event"",""trial"",""time""
""fullscreenenter"",""1"",""2652""
""fullscreenexit"",""7"",""36387""
""blur"",""20"",""193289""
""focus"",""20"",""194035""
","""event"",""trial"",""time""
""blur"",""20"",""193289""
","""event"",""trial"",""time""
""focus"",""20"",""194035""
","""event"",""trial"",""time""
""fullscreenenter"",""1"",""2652""
","""event"",""trial"",""time""
""fullscreenexit"",""7"",""36387""
","","","","","","912.2999997138977","<p> Here is what you might see if you did not eat the fruit but the fruit was tasty: </p><p style=""color:grey; font-size:50px; display: inline-block; border-spacing: 15px; border-width:3px; border-style:solid; border-color:red"">  &nbsp; 6 &nbsp; </p><p> Remember, in this case, you would not win or lose ANY points because you did not eat the fruit.  </p>","","0","instructions","","","","","","","","","","",""
"learning-instructions","70","508603","0.0-9.0-1.0-0.10","3844","1","15","Male","approach_avoid_spark_v1","""event"",""trial"",""time""
""fullscreenenter"",""1"",""2652""
""fullscreenexit"",""7"",""36387""
""blur"",""20"",""193289""
""focus"",""20"",""194035""
","""event"",""trial"",""time""
""blur"",""20"",""193289""
","""event"",""trial"",""time""
""focus"",""20"",""194035""
","""event"",""trial"",""time""
""fullscreenenter"",""1"",""2652""
","""event"",""trial"",""time""
""fullscreenexit"",""7"",""36387""
","","","","","","615.2999997138977","<p> Try to make the best choice for each fruit because </p><p> at the end of the game, you will earn bonus money based on how many points you earned. </p>","","0","instructions","","","","","","","","","","",""
"learning-instructions","71","517664","0.0-9.0-1.0-0.11","3844","1","15","Male","approach_avoid_spark_v1","""event"",""trial"",""time""
""fullscreenenter"",""1"",""2652""
""fullscreenexit"",""7"",""36387""
""blur"",""20"",""193289""
""focus"",""20"",""194035""
","""event"",""trial"",""time""
""blur"",""20"",""193289""
","""event"",""trial"",""time""
""focus"",""20"",""194035""
","""event"",""trial"",""time""
""fullscreenenter"",""1"",""2652""
","""event"",""trial"",""time""
""fullscreenexit"",""7"",""36387""
","","","","","","866.5","<p> You will have 3 seconds to make each choice. Try to respond before time runs out! </p><p> You will lose 5 points each time you do not make a response. </p>","","0","instructions","","","","","","","","","","",""
"html-keyboard-response","72","518278","0.0-9.0-2.0-0.0","3844","1","15","Male","approach_avoid_spark_v1","""event"",""trial"",""time""
""fullscreenenter"",""1"",""2652""
""fullscreenexit"",""7"",""36387""
""blur"",""20"",""193289""
""focus"",""20"",""194035""
","""event"",""trial"",""time""
""blur"",""20"",""193289""
","""event"",""trial"",""time""
""focus"",""20"",""194035""
","""event"",""trial"",""time""
""fullscreenenter"",""1"",""2652""
","""event"",""trial"",""time""
""fullscreenexit"",""7"",""36387""
","","","","","","null","<div style=""font-size:60px;"">+</div>","null","","fixation","","","","","","","","","","",""
"aa-learning-trial","73","521286","0.0-9.0-2.0-1.0","3844","1","15","Male","approach_avoid_spark_v1","""event"",""trial"",""time""
""fullscreenenter"",""1"",""2652""
""fullscreenexit"",""7"",""36387""
""blur"",""20"",""193289""
""focus"",""20"",""194035""
","""event"",""trial"",""time""
""blur"",""20"",""193289""
","""event"",""trial"",""time""
""focus"",""20"",""194035""
","""event"",""trial"",""time""
""fullscreenenter"",""1"",""2652""
","""event"",""trial"",""time""
""fullscreenexit"",""7"",""36387""
","","","","","","1071","images/banana4.png","","","learning","6","6","1","1","banana","fruit","1","0","","good","[6]"
"html-keyboard-response","74","521795","0.0-9.0-2.0-0.1","3844","1","15","Male","approach_avoid_spark_v1","""event"",""trial"",""time""
""fullscreenenter"",""1"",""2652""
""fullscreenexit"",""7"",""36387""
""blur"",""20"",""193289""
""focus"",""20"",""194035""
","""event"",""trial"",""time""
""blur"",""20"",""193289""
","""event"",""trial"",""time""
""focus"",""20"",""194035""
","""event"",""trial"",""time""
""fullscreenenter"",""1"",""2652""
","""event"",""trial"",""time""
""fullscreenexit"",""7"",""36387""
","","","","","","null","<div style=""font-size:60px;"">+</div>","null","","fixation","","","","","","","","","","",""
"aa-learning-trial","75","524798","0.0-9.0-2.0-1.1","3844","1","15","Male","approach_avoid_spark_v1","""event"",""trial"",""time""
""fullscreenenter"",""1"",""2652""
""fullscreenexit"",""7"",""36387""
""blur"",""20"",""193289""
""focus"",""20"",""194035""
","""event"",""trial"",""time""
""blur"",""20"",""193289""
","""event"",""trial"",""time""
""focus"",""20"",""194035""
","""event"",""trial"",""time""
""fullscreenenter"",""1"",""2652""
","""event"",""trial"",""time""
""fullscreenexit"",""7"",""36387""
","","","","","","683.1000003814697","images/orange3.png","","","learning","-8","0","0","0","orange","fruit","1","0","","bad","[-6]"
"html-keyboard-response","76","525310","0.0-9.0-2.0-0.2","3844","1","15","Male","approach_avoid_spark_v1","""event"",""trial"",""time""
""fullscreenenter"",""1"",""2652""
""fullscreenexit"",""7"",""36387""
""blur"",""20"",""193289""
""focus"",""20"",""194035""
","""event"",""trial"",""time""
""blur"",""20"",""193289""
","""event"",""trial"",""time""
""focus"",""20"",""194035""
","""event"",""trial"",""time""
""fullscreenenter"",""1"",""2652""
","""event"",""trial"",""time""
""fullscreenexit"",""7"",""36387""
","","","","","","null","<div style=""font-size:60px;"">+</div>","null","","fixation","","","","","","","","","","",""
"aa-learning-trial","77","528314","0.0-9.0-2.0-1.2","3844","1","15","Male","approach_avoid_spark_v1","""event"",""trial"",""time""
""fullscreenenter"",""1"",""2652""
""fullscreenexit"",""7"",""36387""
""blur"",""20"",""193289""
""focus"",""20"",""194035""
","""event"",""trial"",""time""
""blur"",""20"",""193289""
","""event"",""trial"",""time""
""focus"",""20"",""194035""
","""event"",""trial"",""time""
""fullscreenenter"",""1"",""2652""
","""event"",""trial"",""time""
""fullscreenexit"",""7"",""36387""
","","","","","","960.0999999046326","images/orange2.png","","","learning","-9","-9","1","1","orange","fruit","1","0","","bad","[-6]"
"html-keyboard-response","78","528823","0.0-9.0-2.0-0.3","3844","1","15","Male","approach_avoid_spark_v1","""event"",""trial"",""time""
""fullscreenenter"",""1"",""2652""
""fullscreenexit"",""7"",""36387""
""blur"",""20"",""193289""
""focus"",""20"",""194035""
","""event"",""trial"",""time""
""blur"",""20"",""193289""
","""event"",""trial"",""time""
""focus"",""20"",""194035""
","""event"",""trial"",""time""
""fullscreenenter"",""1"",""2652""
","""event"",""trial"",""time""
""fullscreenexit"",""7"",""36387""
","","","","","","null","<div style=""font-size:60px;"">+</div>","null","","fixation","","","","","","","","","","",""
"aa-learning-trial","79","531837","0.0-9.0-2.0-1.3","3844","1","15","Male","approach_avoid_spark_v1","""event"",""trial"",""time""
""fullscreenenter"",""1"",""2652""
""fullscreenexit"",""7"",""36387""
""blur"",""20"",""193289""
""focus"",""20"",""194035""
","""event"",""trial"",""time""
""blur"",""20"",""193289""
","""event"",""trial"",""time""
""focus"",""20"",""194035""
","""event"",""trial"",""time""
""fullscreenenter"",""1"",""2652""
","""event"",""trial"",""time""
""fullscreenexit"",""7"",""36387""
","","","","","","911.5","images/orange6.png","","","learning","-5","0","0","0","orange","fruit","1","0","","bad","[-6]"
"html-keyboard-response","80","532338","0.0-9.0-2.0-0.4","3844","1","15","Male","approach_avoid_spark_v1","""event"",""trial"",""time""
""fullscreenenter"",""1"",""2652""
""fullscreenexit"",""7"",""36387""
""blur"",""20"",""193289""
""focus"",""20"",""194035""
","""event"",""trial"",""time""
""blur"",""20"",""193289""
","""event"",""trial"",""time""
""focus"",""20"",""194035""
","""event"",""trial"",""time""
""fullscreenenter"",""1"",""2652""
","""event"",""trial"",""time""
""fullscreenexit"",""7"",""36387""
","","","","","","null","<div style=""font-size:60px;"">+</div>","null","","fixation","","","","","","","","","","",""
"aa-learning-trial","81","535352","0.0-9.0-2.0-1.4","3844","1","15","Male","approach_avoid_spark_v1","""event"",""trial"",""time""
""fullscreenenter"",""1"",""2652""
""fullscreenexit"",""7"",""36387""
""blur"",""20"",""193289""
""focus"",""20"",""194035""
","""event"",""trial"",""time""
""blur"",""20"",""193289""
","""event"",""trial"",""time""
""focus"",""20"",""194035""
","""event"",""trial"",""time""
""fullscreenenter"",""1"",""2652""
","""event"",""trial"",""time""
""fullscreenexit"",""7"",""36387""
","","","","","","730.8999996185303","images/apple8.png","","","learning","1","1","1","1","apple","fruit","1","0","","neutral","0"
"html-keyboard-response","82","535866","0.0-9.0-2.0-0.5","3844","1","15","Male","approach_avoid_spark_v1","""event"",""trial"",""time""
""fullscreenenter"",""1"",""2652""
""fullscreenexit"",""7"",""36387""
""blur"",""20"",""193289""
""focus"",""20"",""194035""
","""event"",""trial"",""time""
""blur"",""20"",""193289""
","""event"",""trial"",""time""
""focus"",""20"",""194035""
","""event"",""trial"",""time""
""fullscreenenter"",""1"",""2652""
","""event"",""trial"",""time""
""fullscreenexit"",""7"",""36387""
","","","","","","null","<div style=""font-size:60px;"">+</div>","null","","fixation","","","","","","","","","","",""
"aa-learning-trial","83","538872","0.0-9.0-2.0-1.5","3844","1","15","Male","approach_avoid_spark_v1","""event"",""trial"",""time""
""fullscreenenter"",""1"",""2652""
""fullscreenexit"",""7"",""36387""
""blur"",""20"",""193289""
""focus"",""20"",""194035""
","""event"",""trial"",""time""
""blur"",""20"",""193289""
","""event"",""trial"",""time""
""focus"",""20"",""194035""
","""event"",""trial"",""time""
""fullscreenenter"",""1"",""2652""
","""event"",""trial"",""time""
""fullscreenexit"",""7"",""36387""
","","","","","","692","images/orange2.png","","","learning","-11","0","0","0","orange","fruit","1","0","","bad","[-6]"
"html-keyboard-response","84","539384","0.0-9.0-2.0-0.6","3844","1","15","Male","approach_avoid_spark_v1","""event"",""trial"",""time""
""fullscreenenter"",""1"",""2652""
""fullscreenexit"",""7"",""36387""
""blur"",""20"",""193289""
""focus"",""20"",""194035""
","""event"",""trial"",""time""
""blur"",""20"",""193289""
","""event"",""trial"",""time""
""focus"",""20"",""194035""
","""event"",""trial"",""time""
""fullscreenenter"",""1"",""2652""
","""event"",""trial"",""time""
""fullscreenexit"",""7"",""36387""
","","","","","","null","<div style=""font-size:60px;"">+</div>","null","","fixation","","","","","","","","","","",""
"aa-learning-trial","85","542388","0.0-9.0-2.0-1.6","3844","1","15","Male","approach_avoid_spark_v1","""event"",""trial"",""time""
""fullscreenenter"",""1"",""2652""
""fullscreenexit"",""7"",""36387""
""blur"",""20"",""193289""
""focus"",""20"",""194035""
","""event"",""trial"",""time""
""blur"",""20"",""193289""
","""event"",""trial"",""time""
""focus"",""20"",""194035""
","""event"",""trial"",""time""
""fullscreenenter"",""1"",""2652""
","""event"",""trial"",""time""
""fullscreenexit"",""7"",""36387""
","","","","","","597.3000001907349","images/apple1.png","","","learning","[1]","1","1","1","apple","fruit","1","0","","neutral","0"
"html-keyboard-response","86","542894","0.0-9.0-2.0-0.7","3844","1","15","Male","approach_avoid_spark_v1","""event"",""trial"",""time""
""fullscreenenter"",""1"",""2652""
""fullscreenexit"",""7"",""36387""
""blur"",""20"",""193289""
""focus"",""20"",""194035""
","""event"",""trial"",""time""
""blur"",""20"",""193289""
","""event"",""trial"",""time""
""focus"",""20"",""194035""
","""event"",""trial"",""time""
""fullscreenenter"",""1"",""2652""
","""event"",""trial"",""time""
""fullscreenexit"",""7"",""36387""
","","","","","","null","<div style=""font-size:60px;"">+</div>","null","","fixation","","","","","","","","","","",""
"aa-learning-trial","87","545908","0.0-9.0-2.0-1.7","3844","1","15","Male","approach_avoid_spark_v1","""event"",""trial"",""time""
""fullscreenenter"",""1"",""2652""
""fullscreenexit"",""7"",""36387""
""blur"",""20"",""193289""
""focus"",""20"",""194035""
","""event"",""trial"",""time""
""blur"",""20"",""193289""
","""event"",""trial"",""time""
""focus"",""20"",""194035""
","""event"",""trial"",""time""
""fullscreenenter"",""1"",""2652""
","""event"",""trial"",""time""
""fullscreenexit"",""7"",""36387""
","","","","","","591.5","images/apple1.png","","","learning","-2","-2","1","1","apple","fruit","1","0","","neutral","0"
"html-keyboard-response","88","546409","0.0-9.0-2.0-0.8","3844","1","15","Male","approach_avoid_spark_v1","""event"",""trial"",""time""
""fullscreenenter"",""1"",""2652""
""fullscreenexit"",""7"",""36387""
""blur"",""20"",""193289""
""focus"",""20"",""194035""
","""event"",""trial"",""time""
""blur"",""20"",""193289""
","""event"",""trial"",""time""
""focus"",""20"",""194035""
","""event"",""trial"",""time""
""fullscreenenter"",""1"",""2652""
","""event"",""trial"",""time""
""fullscreenexit"",""7"",""36387""
","","","","","","null","<div style=""font-size:60px;"">+</div>","null","","fixation","","","","","","","","","","",""
"aa-learning-trial","89","549411","0.0-9.0-2.0-1.8","3844","1","15","Male","approach_avoid_spark_v1","""event"",""trial"",""time""
""fullscreenenter"",""1"",""2652""
""fullscreenexit"",""7"",""36387""
""blur"",""20"",""193289""
""focus"",""20"",""194035""
","""event"",""trial"",""time""
""blur"",""20"",""193289""
","""event"",""trial"",""time""
""focus"",""20"",""194035""
","""event"",""trial"",""time""
""fullscreenenter"",""1"",""2652""
","""event"",""trial"",""time""
""fullscreenexit"",""7"",""36387""
","","","","","","1044.5999999046326","images/apple3.png","","","learning","[-1]","-1","1","1","apple","fruit","1","0","","neutral","0"
"html-keyboard-response","90","549912","0.0-9.0-2.0-0.9","3844","1","15","Male","approach_avoid_spark_v1","""event"",""trial"",""time""
""fullscreenenter"",""1"",""2652""
""fullscreenexit"",""7"",""36387""
""blur"",""20"",""193289""
""focus"",""20"",""194035""
","""event"",""trial"",""time""
""blur"",""20"",""193289""
","""event"",""trial"",""time""
""focus"",""20"",""194035""
","""event"",""trial"",""time""
""fullscreenenter"",""1"",""2652""
","""event"",""trial"",""time""
""fullscreenexit"",""7"",""36387""
","","","","","","null","<div style=""font-size:60px;"">+</div>","null","","fixation","","","","","","","","","","",""
"aa-learning-trial","91","552925","0.0-9.0-2.0-1.9","3844","1","15","Male","approach_avoid_spark_v1","""event"",""trial"",""time""
""fullscreenenter"",""1"",""2652""
""fullscreenexit"",""7"",""36387""
""blur"",""20"",""193289""
""focus"",""20"",""194035""
","""event"",""trial"",""time""
""blur"",""20"",""193289""
","""event"",""trial"",""time""
""focus"",""20"",""194035""
","""event"",""trial"",""time""
""fullscreenenter"",""1"",""2652""
","""event"",""trial"",""time""
""fullscreenexit"",""7"",""36387""
","","","","","","1054","images/banana6.png","","","learning","5","5","1","1","banana","fruit","1","0","","good","[6]"
"html-keyboard-response","92","553427","0.0-9.0-2.0-0.10","3844","1","15","Male","approach_avoid_spark_v1","""event"",""trial"",""time""
""fullscreenenter"",""1"",""2652""
""fullscreenexit"",""7"",""36387""
""blur"",""20"",""193289""
""focus"",""20"",""194035""
","""event"",""trial"",""time""
""blur"",""20"",""193289""
","""event"",""trial"",""time""
""focus"",""20"",""194035""
","""event"",""trial"",""time""
""fullscreenenter"",""1"",""2652""
","""event"",""trial"",""time""
""fullscreenexit"",""7"",""36387""
","","","","","","null","<div style=""font-size:60px;"">+</div>","null","","fixation","","","","","","","","","","",""
"aa-learning-trial","93","556429","0.0-9.0-2.0-1.10","3844","1","15","Male","approach_avoid_spark_v1","""event"",""trial"",""time""
""fullscreenenter"",""1"",""2652""
""fullscreenexit"",""7"",""36387""
""blur"",""20"",""193289""
""focus"",""20"",""194035""
","""event"",""trial"",""time""
""blur"",""20"",""193289""
","""event"",""trial"",""time""
""focus"",""20"",""194035""
","""event"",""trial"",""time""
""fullscreenenter"",""1"",""2652""
","""event"",""trial"",""time""
""fullscreenexit"",""7"",""36387""
","","","","","","538.7999997138977","images/banana4.png","","","learning","6","6","1","1","banana","fruit","1","0","","good","[6]"
"html-keyboard-response","94","556930","0.0-9.0-2.0-0.11","3844","1","15","Male","approach_avoid_spark_v1","""event"",""trial"",""time""
""fullscreenenter"",""1"",""2652""
""fullscreenexit"",""7"",""36387""
""blur"",""20"",""193289""
""focus"",""20"",""194035""
","""event"",""trial"",""time""
""blur"",""20"",""193289""
","""event"",""trial"",""time""
""focus"",""20"",""194035""
","""event"",""trial"",""time""
""fullscreenenter"",""1"",""2652""
","""event"",""trial"",""time""
""fullscreenexit"",""7"",""36387""
","","","","","","null","<div style=""font-size:60px;"">+</div>","null","","fixation","","","","","","","","","","",""
"aa-learning-trial","95","559932","0.0-9.0-2.0-1.11","3844","1","15","Male","approach_avoid_spark_v1","""event"",""trial"",""time""
""fullscreenenter"",""1"",""2652""
""fullscreenexit"",""7"",""36387""
""blur"",""20"",""193289""
""focus"",""20"",""194035""
","""event"",""trial"",""time""
""blur"",""20"",""193289""
","""event"",""trial"",""time""
""focus"",""20"",""194035""
","""event"",""trial"",""time""
""fullscreenenter"",""1"",""2652""
","""event"",""trial"",""time""
""fullscreenexit"",""7"",""36387""
","","","","","","643.7999997138977","images/apple8.png","","","learning","[1]","1","1","1","apple","fruit","1","0","","neutral","0"
"html-keyboard-response","96","560433","0.0-9.0-2.0-0.12","3844","1","15","Male","approach_avoid_spark_v1","""event"",""trial"",""time""
""fullscreenenter"",""1"",""2652""
""fullscreenexit"",""7"",""36387""
""blur"",""20"",""193289""
""focus"",""20"",""194035""
","""event"",""trial"",""time""
""blur"",""20"",""193289""
","""event"",""trial"",""time""
""focus"",""20"",""194035""
","""event"",""trial"",""time""
""fullscreenenter"",""1"",""2652""
","""event"",""trial"",""time""
""fullscreenexit"",""7"",""36387""
","","","","","","null","<div style=""font-size:60px;"">+</div>","null","","fixation","","","","","","","","","","",""
"aa-learning-trial","97","563436","0.0-9.0-2.0-1.12","3844","1","15","Male","approach_avoid_spark_v1","""event"",""trial"",""time""
""fullscreenenter"",""1"",""2652""
""fullscreenexit"",""7"",""36387""
""blur"",""20"",""193289""
""focus"",""20"",""194035""
","""event"",""trial"",""time""
""blur"",""20"",""193289""
","""event"",""trial"",""time""
""focus"",""20"",""194035""
","""event"",""trial"",""time""
""fullscreenenter"",""1"",""2652""
","""event"",""trial"",""time""
""fullscreenexit"",""7"",""36387""
","","","","","","588.5","images/banana6.png","","","learning","7","7","1","1","banana","fruit","1","0","","good","[6]"
"html-keyboard-response","98","563947","0.0-9.0-2.0-0.13","3844","1","15","Male","approach_avoid_spark_v1","""event"",""trial"",""time""
""fullscreenenter"",""1"",""2652""
""fullscreenexit"",""7"",""36387""
""blur"",""20"",""193289""
""focus"",""20"",""194035""
","""event"",""trial"",""time""
""blur"",""20"",""193289""
","""event"",""trial"",""time""
""focus"",""20"",""194035""
","""event"",""trial"",""time""
""fullscreenenter"",""1"",""2652""
","""event"",""trial"",""time""
""fullscreenexit"",""7"",""36387""
","","","","","","null","<div style=""font-size:60px;"">+</div>","null","","fixation","","","","","","","","","","",""
"aa-learning-trial","99","566949","0.0-9.0-2.0-1.13","3844","1","15","Male","approach_avoid_spark_v1","""event"",""trial"",""time""
""fullscreenenter"",""1"",""2652""
""fullscreenexit"",""7"",""36387""
""blur"",""20"",""193289""
""focus"",""20"",""194035""
","""event"",""trial"",""time""
""blur"",""20"",""193289""
","""event"",""trial"",""time""
""focus"",""20"",""194035""
","""event"",""trial"",""time""
""fullscreenenter"",""1"",""2652""
","""event"",""trial"",""time""
""fullscreenexit"",""7"",""36387""
","","","","","","547.1000003814697","images/banana2.png","","","learning","6","6","1","1","banana","fruit","1","0","","good","[6]"
"html-keyboard-response","100","567450","0.0-9.0-2.0-0.14","3844","1","15","Male","approach_avoid_spark_v1","""event"",""trial"",""time""
""fullscreenenter"",""1"",""2652""
""fullscreenexit"",""7"",""36387""
""blur"",""20"",""193289""
""focus"",""20"",""194035""
","""event"",""trial"",""time""
""blur"",""20"",""193289""
","""event"",""trial"",""time""
""focus"",""20"",""194035""
","""event"",""trial"",""time""
""fullscreenenter"",""1"",""2652""
","""event"",""trial"",""time""
""fullscreenexit"",""7"",""36387""
","","","","","","null","<div style=""font-size:60px;"">+</div>","null","","fixation","","","","","","","","","","",""
"aa-learning-trial","101","570451","0.0-9.0-2.0-1.14","3844","1","15","Male","approach_avoid_spark_v1","""event"",""trial"",""time""
""fullscreenenter"",""1"",""2652""
""fullscreenexit"",""7"",""36387""
""blur"",""20"",""193289""
""focus"",""20"",""194035""
","""event"",""trial"",""time""
""blur"",""20"",""193289""
","""event"",""trial"",""time""
""focus"",""20"",""194035""
","""event"",""trial"",""time""
""fullscreenenter"",""1"",""2652""
","""event"",""trial"",""time""
""fullscreenexit"",""7"",""36387""
","","","","","","492","images/orange3.png","","","learning","-5","0","0","0","orange","fruit","1","0","","bad","[-6]"
"html-keyboard-response","102","570952","0.0-9.0-2.0-0.15","3844","1","15","Male","approach_avoid_spark_v1","""event"",""trial"",""time""
""fullscreenenter"",""1"",""2652""
""fullscreenexit"",""7"",""36387""
""blur"",""20"",""193289""
""focus"",""20"",""194035""
","""event"",""trial"",""time""
""blur"",""20"",""193289""
","""event"",""trial"",""time""
""focus"",""20"",""194035""
","""event"",""trial"",""time""
""fullscreenenter"",""1"",""2652""
","""event"",""trial"",""time""
""fullscreenexit"",""7"",""36387""
","","","","","","null","<div style=""font-size:60px;"">+</div>","null","","fixation","","","","","","","","","","",""
"aa-learning-trial","103","573954","0.0-9.0-2.0-1.15","3844","1","15","Male","approach_avoid_spark_v1","""event"",""trial"",""time""
""fullscreenenter"",""1"",""2652""
""fullscreenexit"",""7"",""36387""
""blur"",""20"",""193289""
""focus"",""20"",""194035""
","""event"",""trial"",""time""
""blur"",""20"",""193289""
","""event"",""trial"",""time""
""focus"",""20"",""194035""
","""event"",""trial"",""time""
""fullscreenenter"",""1"",""2652""
","""event"",""trial"",""time""
""fullscreenexit"",""7"",""36387""
","","","","","","646","images/apple8.png","","","learning","[-1]","-1","1","1","apple","fruit","1","0","","neutral","0"
"html-keyboard-response","104","574455","0.0-9.0-2.0-0.16","3844","1","15","Male","approach_avoid_spark_v1","""event"",""trial"",""time""
""fullscreenenter"",""1"",""2652""
""fullscreenexit"",""7"",""36387""
""blur"",""20"",""193289""
""focus"",""20"",""194035""
","""event"",""trial"",""time""
""blur"",""20"",""193289""
","""event"",""trial"",""time""
""focus"",""20"",""194035""
","""event"",""trial"",""time""
""fullscreenenter"",""1"",""2652""
","""event"",""trial"",""time""
""fullscreenexit"",""7"",""36387""
","","","","","","null","<div style=""font-size:60px;"">+</div>","null","","fixation","","","","","","","","","","",""
"aa-learning-trial","105","577457","0.0-9.0-2.0-1.16","3844","1","15","Male","approach_avoid_spark_v1","""event"",""trial"",""time""
""fullscreenenter"",""1"",""2652""
""fullscreenexit"",""7"",""36387""
""blur"",""20"",""193289""
""focus"",""20"",""194035""
","""event"",""trial"",""time""
""blur"",""20"",""193289""
","""event"",""trial"",""time""
""focus"",""20"",""194035""
","""event"",""trial"",""time""
""fullscreenenter"",""1"",""2652""
","""event"",""trial"",""time""
""fullscreenexit"",""7"",""36387""
","","","","","","710.9000000953674","images/orange2.png","","","learning","-7","0","0","0","orange","fruit","1","0","","bad","[-6]"
"html-keyboard-response","106","577959","0.0-9.0-2.0-0.17","3844","1","15","Male","approach_avoid_spark_v1","""event"",""trial"",""time""
""fullscreenenter"",""1"",""2652""
""fullscreenexit"",""7"",""36387""
""blur"",""20"",""193289""
""focus"",""20"",""194035""
","""event"",""trial"",""time""
""blur"",""20"",""193289""
","""event"",""trial"",""time""
""focus"",""20"",""194035""
","""event"",""trial"",""time""
""fullscreenenter"",""1"",""2652""
","""event"",""trial"",""time""
""fullscreenexit"",""7"",""36387""
","","","","","","null","<div style=""font-size:60px;"">+</div>","null","","fixation","","","","","","","","","","",""
"aa-learning-trial","107","580960","0.0-9.0-2.0-1.17","3844","1","15","Male","approach_avoid_spark_v1","""event"",""trial"",""time""
""fullscreenenter"",""1"",""2652""
""fullscreenexit"",""7"",""36387""
""blur"",""20"",""193289""
""focus"",""20"",""194035""
","""event"",""trial"",""time""
""blur"",""20"",""193289""
","""event"",""trial"",""time""
""focus"",""20"",""194035""
","""event"",""trial"",""time""
""fullscreenenter"",""1"",""2652""
","""event"",""trial"",""time""
""fullscreenexit"",""7"",""36387""
","","","","","","599.0999999046326","images/banana6.png","","","learning","6","6","1","1","banana","fruit","1","0","","good","[6]"
"html-keyboard-response","108","581461","0.0-9.0-2.0-0.18","3844","1","15","Male","approach_avoid_spark_v1","""event"",""trial"",""time""
""fullscreenenter"",""1"",""2652""
""fullscreenexit"",""7"",""36387""
""blur"",""20"",""193289""
""focus"",""20"",""194035""
","""event"",""trial"",""time""
""blur"",""20"",""193289""
","""event"",""trial"",""time""
""focus"",""20"",""194035""
","""event"",""trial"",""time""
""fullscreenenter"",""1"",""2652""
","""event"",""trial"",""time""
""fullscreenexit"",""7"",""36387""
","","","","","","null","<div style=""font-size:60px;"">+</div>","null","","fixation","","","","","","","","","","",""
"aa-learning-trial","109","584463","0.0-9.0-2.0-1.18","3844","1","15","Male","approach_avoid_spark_v1","""event"",""trial"",""time""
""fullscreenenter"",""1"",""2652""
""fullscreenexit"",""7"",""36387""
""blur"",""20"",""193289""
""focus"",""20"",""194035""
","""event"",""trial"",""time""
""blur"",""20"",""193289""
","""event"",""trial"",""time""
""focus"",""20"",""194035""
","""event"",""trial"",""time""
""fullscreenenter"",""1"",""2652""
","""event"",""trial"",""time""
""fullscreenexit"",""7"",""36387""
","","","","","","513.1999998092651","images/banana6.png","","","learning","8","8","1","1","banana","fruit","1","0","","good","[6]"
"html-keyboard-response","110","584964","0.0-9.0-2.0-0.19","3844","1","15","Male","approach_avoid_spark_v1","""event"",""trial"",""time""
""fullscreenenter"",""1"",""2652""
""fullscreenexit"",""7"",""36387""
""blur"",""20"",""193289""
""focus"",""20"",""194035""
","""event"",""trial"",""time""
""blur"",""20"",""193289""
","""event"",""trial"",""time""
""focus"",""20"",""194035""
","""event"",""trial"",""time""
""fullscreenenter"",""1"",""2652""
","""event"",""trial"",""time""
""fullscreenexit"",""7"",""36387""
","","","","","","null","<div style=""font-size:60px;"">+</div>","null","","fixation","","","","","","","","","","",""
"aa-learning-trial","111","587966","0.0-9.0-2.0-1.19","3844","1","15","Male","approach_avoid_spark_v1","""event"",""trial"",""time""
""fullscreenenter"",""1"",""2652""
""fullscreenexit"",""7"",""36387""
""blur"",""20"",""193289""
""focus"",""20"",""194035""
","""event"",""trial"",""time""
""blur"",""20"",""193289""
","""event"",""trial"",""time""
""focus"",""20"",""194035""
","""event"",""trial"",""time""
""fullscreenenter"",""1"",""2652""
","""event"",""trial"",""time""
""fullscreenexit"",""7"",""36387""
","","","","","","593.6999998092651","images/apple8.png","","","learning","4","4","1","1","apple","fruit","1","0","","neutral","0"
"html-keyboard-response","112","588467","0.0-9.0-2.0-0.20","3844","1","15","Male","approach_avoid_spark_v1","""event"",""trial"",""time""
""fullscreenenter"",""1"",""2652""
""fullscreenexit"",""7"",""36387""
""blur"",""20"",""193289""
""focus"",""20"",""194035""
","""event"",""trial"",""time""
""blur"",""20"",""193289""
","""event"",""trial"",""time""
""focus"",""20"",""194035""
","""event"",""trial"",""time""
""fullscreenenter"",""1"",""2652""
","""event"",""trial"",""time""
""fullscreenexit"",""7"",""36387""
","","","","","","null","<div style=""font-size:60px;"">+</div>","null","","fixation","","","","","","","","","","",""
"aa-learning-trial","113","591470","0.0-9.0-2.0-1.20","3844","1","15","Male","approach_avoid_spark_v1","""event"",""trial"",""time""
""fullscreenenter"",""1"",""2652""
""fullscreenexit"",""7"",""36387""
""blur"",""20"",""193289""
""focus"",""20"",""194035""
","""event"",""trial"",""time""
""blur"",""20"",""193289""
","""event"",""trial"",""time""
""focus"",""20"",""194035""
","""event"",""trial"",""time""
""fullscreenenter"",""1"",""2652""
","""event"",""trial"",""time""
""fullscreenexit"",""7"",""36387""
","","","","","","522.6000003814697","images/apple8.png","","","learning","-2","-2","1","1","apple","fruit","1","0","","neutral","0"
"html-keyboard-response","114","591971","0.0-9.0-2.0-0.21","3844","1","15","Male","approach_avoid_spark_v1","""event"",""trial"",""time""
""fullscreenenter"",""1"",""2652""
""fullscreenexit"",""7"",""36387""
""blur"",""20"",""193289""
""focus"",""20"",""194035""
","""event"",""trial"",""time""
""blur"",""20"",""193289""
","""event"",""trial"",""time""
""focus"",""20"",""194035""
","""event"",""trial"",""time""
""fullscreenenter"",""1"",""2652""
","""event"",""trial"",""time""
""fullscreenexit"",""7"",""36387""
","","","","","","null","<div style=""font-size:60px;"">+</div>","null","","fixation","","","","","","","","","","",""
"aa-learning-trial","115","594973","0.0-9.0-2.0-1.21","3844","1","15","Male","approach_avoid_spark_v1","""event"",""trial"",""time""
""fullscreenenter"",""1"",""2652""
""fullscreenexit"",""7"",""36387""
""blur"",""20"",""193289""
""focus"",""20"",""194035""
","""event"",""trial"",""time""
""blur"",""20"",""193289""
","""event"",""trial"",""time""
""focus"",""20"",""194035""
","""event"",""trial"",""time""
""fullscreenenter"",""1"",""2652""
","""event"",""trial"",""time""
""fullscreenexit"",""7"",""36387""
","","","","","","675.1999998092651","images/apple3.png","","","learning","[-1]","-1","1","1","apple","fruit","1","0","","neutral","0"
"html-keyboard-response","116","595474","0.0-9.0-2.0-0.22","3844","1","15","Male","approach_avoid_spark_v1","""event"",""trial"",""time""
""fullscreenenter"",""1"",""2652""
""fullscreenexit"",""7"",""36387""
""blur"",""20"",""193289""
""focus"",""20"",""194035""
","""event"",""trial"",""time""
""blur"",""20"",""193289""
","""event"",""trial"",""time""
""focus"",""20"",""194035""
","""event"",""trial"",""time""
""fullscreenenter"",""1"",""2652""
","""event"",""trial"",""time""
""fullscreenexit"",""7"",""36387""
","","","","","","null","<div style=""font-size:60px;"">+</div>","null","","fixation","","","","","","","","","","",""
"aa-learning-trial","117","598475","0.0-9.0-2.0-1.22","3844","1","15","Male","approach_avoid_spark_v1","""event"",""trial"",""time""
""fullscreenenter"",""1"",""2652""
""fullscreenexit"",""7"",""36387""
""blur"",""20"",""193289""
""focus"",""20"",""194035""
","""event"",""trial"",""time""
""blur"",""20"",""193289""
","""event"",""trial"",""time""
""focus"",""20"",""194035""
","""event"",""trial"",""time""
""fullscreenenter"",""1"",""2652""
","""event"",""trial"",""time""
""fullscreenexit"",""7"",""36387""
","","","","","","659.6999998092651","images/orange1.png","","","learning","-3","0","0","0","orange","fruit","1","0","","bad","[-6]"
"html-keyboard-response","118","598977","0.0-9.0-2.0-0.23","3844","1","15","Male","approach_avoid_spark_v1","""event"",""trial"",""time""
""fullscreenenter"",""1"",""2652""
""fullscreenexit"",""7"",""36387""
""blur"",""20"",""193289""
""focus"",""20"",""194035""
","""event"",""trial"",""time""
""blur"",""20"",""193289""
","""event"",""trial"",""time""
""focus"",""20"",""194035""
","""event"",""trial"",""time""
""fullscreenenter"",""1"",""2652""
","""event"",""trial"",""time""
""fullscreenexit"",""7"",""36387""
","","","","","","null","<div style=""font-size:60px;"">+</div>","null","","fixation","","","","","","","","","","",""
"aa-learning-trial","119","601978","0.0-9.0-2.0-1.23","3844","1","15","Male","approach_avoid_spark_v1","""event"",""trial"",""time""
""fullscreenenter"",""1"",""2652""
""fullscreenexit"",""7"",""36387""
""blur"",""20"",""193289""
""focus"",""20"",""194035""
","""event"",""trial"",""time""
""blur"",""20"",""193289""
","""event"",""trial"",""time""
""focus"",""20"",""194035""
","""event"",""trial"",""time""
""fullscreenenter"",""1"",""2652""
","""event"",""trial"",""time""
""fullscreenexit"",""7"",""36387""
","","","","","","661.2000002861023","images/orange2.png","","","learning","-8","0","0","0","orange","fruit","1","0","","bad","[-6]"
"html-keyboard-response","120","602479","0.0-9.0-2.0-0.24","3844","1","15","Male","approach_avoid_spark_v1","""event"",""trial"",""time""
""fullscreenenter"",""1"",""2652""
""fullscreenexit"",""7"",""36387""
""blur"",""20"",""193289""
""focus"",""20"",""194035""
","""event"",""trial"",""time""
""blur"",""20"",""193289""
","""event"",""trial"",""time""
""focus"",""20"",""194035""
","""event"",""trial"",""time""
""fullscreenenter"",""1"",""2652""
","""event"",""trial"",""time""
""fullscreenexit"",""7"",""36387""
","","","","","","null","<div style=""font-size:60px;"">+</div>","null","","fixation","","","","","","","","","","",""
"aa-learning-trial","121","605481","0.0-9.0-2.0-1.24","3844","1","15","Male","approach_avoid_spark_v1","""event"",""trial"",""time""
""fullscreenenter"",""1"",""2652""
""fullscreenexit"",""7"",""36387""
""blur"",""20"",""193289""
""focus"",""20"",""194035""
","""event"",""trial"",""time""
""blur"",""20"",""193289""
","""event"",""trial"",""time""
""focus"",""20"",""194035""
","""event"",""trial"",""time""
""fullscreenenter"",""1"",""2652""
","""event"",""trial"",""time""
""fullscreenexit"",""7"",""36387""
","","","","","","447.09999990463257","images/banana7.png","","","learning","7","0","0","0","banana","fruit","1","0","","good","[6]"
"html-keyboard-response","122","605982","0.0-9.0-2.0-0.25","3844","1","15","Male","approach_avoid_spark_v1","""event"",""trial"",""time""
""fullscreenenter"",""1"",""2652""
""fullscreenexit"",""7"",""36387""
""blur"",""20"",""193289""
""focus"",""20"",""194035""
","""event"",""trial"",""time""
""blur"",""20"",""193289""
","""event"",""trial"",""time""
""focus"",""20"",""194035""
","""event"",""trial"",""time""
""fullscreenenter"",""1"",""2652""
","""event"",""trial"",""time""
""fullscreenexit"",""7"",""36387""
","","","","","","null","<div style=""font-size:60px;"">+</div>","null","","fixation","","","","","","","","","","",""
"aa-learning-trial","123","608983","0.0-9.0-2.0-1.25","3844","1","15","Male","approach_avoid_spark_v1","""event"",""trial"",""time""
""fullscreenenter"",""1"",""2652""
""fullscreenexit"",""7"",""36387""
""blur"",""20"",""193289""
""focus"",""20"",""194035""
","""event"",""trial"",""time""
""blur"",""20"",""193289""
","""event"",""trial"",""time""
""focus"",""20"",""194035""
","""event"",""trial"",""time""
""fullscreenenter"",""1"",""2652""
","""event"",""trial"",""time""
""fullscreenexit"",""7"",""36387""
","","","","","","672.2000002861023","images/orange2.png","","","learning","-6","0","0","0","orange","fruit","1","0","","bad","[-6]"
"html-keyboard-response","124","609484","0.0-9.0-2.0-0.26","3844","1","15","Male","approach_avoid_spark_v1","""event"",""trial"",""time""
""fullscreenenter"",""1"",""2652""
""fullscreenexit"",""7"",""36387""
""blur"",""20"",""193289""
""focus"",""20"",""194035""
","""event"",""trial"",""time""
""blur"",""20"",""193289""
","""event"",""trial"",""time""
""focus"",""20"",""194035""
","""event"",""trial"",""time""
""fullscreenenter"",""1"",""2652""
","""event"",""trial"",""time""
""fullscreenexit"",""7"",""36387""
","","","","","","null","<div style=""font-size:60px;"">+</div>","null","","fixation","","","","","","","","","","",""
"aa-learning-trial","125","612486","0.0-9.0-2.0-1.26","3844","1","15","Male","approach_avoid_spark_v1","""event"",""trial"",""time""
""fullscreenenter"",""1"",""2652""
""fullscreenexit"",""7"",""36387""
""blur"",""20"",""193289""
""focus"",""20"",""194035""
","""event"",""trial"",""time""
""blur"",""20"",""193289""
","""event"",""trial"",""time""
""focus"",""20"",""194035""
","""event"",""trial"",""time""
""fullscreenenter"",""1"",""2652""
","""event"",""trial"",""time""
""fullscreenexit"",""7"",""36387""
","","","","","","641.6999998092651","images/orange6.png","","","learning","-7","0","0","0","orange","fruit","1","0","","bad","[-6]"
"html-keyboard-response","126","612987","0.0-9.0-2.0-0.27","3844","1","15","Male","approach_avoid_spark_v1","""event"",""trial"",""time""
""fullscreenenter"",""1"",""2652""
""fullscreenexit"",""7"",""36387""
""blur"",""20"",""193289""
""focus"",""20"",""194035""
","""event"",""trial"",""time""
""blur"",""20"",""193289""
","""event"",""trial"",""time""
""focus"",""20"",""194035""
","""event"",""trial"",""time""
""fullscreenenter"",""1"",""2652""
","""event"",""trial"",""time""
""fullscreenexit"",""7"",""36387""
","","","","","","null","<div style=""font-size:60px;"">+</div>","null","","fixation","","","","","","","","","","",""
"aa-learning-trial","127","615989","0.0-9.0-2.0-1.27","3844","1","15","Male","approach_avoid_spark_v1","""event"",""trial"",""time""
""fullscreenenter"",""1"",""2652""
""fullscreenexit"",""7"",""36387""
""blur"",""20"",""193289""
""focus"",""20"",""194035""
","""event"",""trial"",""time""
""blur"",""20"",""193289""
","""event"",""trial"",""time""
""focus"",""20"",""194035""
","""event"",""trial"",""time""
""fullscreenenter"",""1"",""2652""
","""event"",""trial"",""time""
""fullscreenexit"",""7"",""36387""
","","","","","","570.6999998092651","images/orange3.png","","","learning","-6","0","0","0","orange","fruit","1","0","","bad","[-6]"
"html-keyboard-response","128","616490","0.0-9.0-2.0-0.28","3844","1","15","Male","approach_avoid_spark_v1","""event"",""trial"",""time""
""fullscreenenter"",""1"",""2652""
""fullscreenexit"",""7"",""36387""
""blur"",""20"",""193289""
""focus"",""20"",""194035""
","""event"",""trial"",""time""
""blur"",""20"",""193289""
","""event"",""trial"",""time""
""focus"",""20"",""194035""
","""event"",""trial"",""time""
""fullscreenenter"",""1"",""2652""
","""event"",""trial"",""time""
""fullscreenexit"",""7"",""36387""
","","","","","","null","<div style=""font-size:60px;"">+</div>","null","","fixation","","","","","","","","","","",""
"aa-learning-trial","129","619492","0.0-9.0-2.0-1.28","3844","1","15","Male","approach_avoid_spark_v1","""event"",""trial"",""time""
""fullscreenenter"",""1"",""2652""
""fullscreenexit"",""7"",""36387""
""blur"",""20"",""193289""
""focus"",""20"",""194035""
","""event"",""trial"",""time""
""blur"",""20"",""193289""
","""event"",""trial"",""time""
""focus"",""20"",""194035""
","""event"",""trial"",""time""
""fullscreenenter"",""1"",""2652""
","""event"",""trial"",""time""
""fullscreenexit"",""7"",""36387""
","","","","","","500.2000002861023","images/apple7.png","","","learning","-2","-2","1","1","apple","fruit","1","0","","neutral","0"
"html-keyboard-response","130","619993","0.0-9.0-2.0-0.29","3844","1","15","Male","approach_avoid_spark_v1","""event"",""trial"",""time""
""fullscreenenter"",""1"",""2652""
""fullscreenexit"",""7"",""36387""
""blur"",""20"",""193289""
""focus"",""20"",""194035""
","""event"",""trial"",""time""
""blur"",""20"",""193289""
","""event"",""trial"",""time""
""focus"",""20"",""194035""
","""event"",""trial"",""time""
""fullscreenenter"",""1"",""2652""
","""event"",""trial"",""time""
""fullscreenexit"",""7"",""36387""
","","","","","","null","<div style=""font-size:60px;"">+</div>","null","","fixation","","","","","","","","","","",""
"aa-learning-trial","131","622994","0.0-9.0-2.0-1.29","3844","1","15","Male","approach_avoid_spark_v1","""event"",""trial"",""time""
""fullscreenenter"",""1"",""2652""
""fullscreenexit"",""7"",""36387""
""blur"",""20"",""193289""
""focus"",""20"",""194035""
","""event"",""trial"",""time""
""blur"",""20"",""193289""
","""event"",""trial"",""time""
""focus"",""20"",""194035""
","""event"",""trial"",""time""
""fullscreenenter"",""1"",""2652""
","""event"",""trial"",""time""
""fullscreenexit"",""7"",""36387""
","","","","","","629.5999999046326","images/banana2.png","","","learning","6","6","1","1","banana","fruit","1","0","","good","[6]"
"html-keyboard-response","132","623503","0.0-9.0-2.0-0.30","3844","1","15","Male","approach_avoid_spark_v1","""event"",""trial"",""time""
""fullscreenenter"",""1"",""2652""
""fullscreenexit"",""7"",""36387""
""blur"",""20"",""193289""
""focus"",""20"",""194035""
","""event"",""trial"",""time""
""blur"",""20"",""193289""
","""event"",""trial"",""time""
""focus"",""20"",""194035""
","""event"",""trial"",""time""
""fullscreenenter"",""1"",""2652""
","""event"",""trial"",""time""
""fullscreenexit"",""7"",""36387""
","","","","","","null","<div style=""font-size:60px;"">+</div>","null","","fixation","","","","","","","","","","",""
"aa-learning-trial","133","626505","0.0-9.0-2.0-1.30","3844","1","15","Male","approach_avoid_spark_v1","""event"",""trial"",""time""
""fullscreenenter"",""1"",""2652""
""fullscreenexit"",""7"",""36387""
""blur"",""20"",""193289""
""focus"",""20"",""194035""
","""event"",""trial"",""time""
""blur"",""20"",""193289""
","""event"",""trial"",""time""
""focus"",""20"",""194035""
","""event"",""trial"",""time""
""fullscreenenter"",""1"",""2652""
","""event"",""trial"",""time""
""fullscreenexit"",""7"",""36387""
","","","","","","712","images/apple8.png","","","learning","-2","-2","1","1","apple","fruit","1","0","","neutral","0"
"html-keyboard-response","134","627006","0.0-9.0-2.0-0.31","3844","1","15","Male","approach_avoid_spark_v1","""event"",""trial"",""time""
""fullscreenenter"",""1"",""2652""
""fullscreenexit"",""7"",""36387""
""blur"",""20"",""193289""
""focus"",""20"",""194035""
","""event"",""trial"",""time""
""blur"",""20"",""193289""
","""event"",""trial"",""time""
""focus"",""20"",""194035""
","""event"",""trial"",""time""
""fullscreenenter"",""1"",""2652""
","""event"",""trial"",""time""
""fullscreenexit"",""7"",""36387""
","","","","","","null","<div style=""font-size:60px;"">+</div>","null","","fixation","","","","","","","","","","",""
"aa-learning-trial","135","630008","0.0-9.0-2.0-1.31","3844","1","15","Male","approach_avoid_spark_v1","""event"",""trial"",""time""
""fullscreenenter"",""1"",""2652""
""fullscreenexit"",""7"",""36387""
""blur"",""20"",""193289""
""focus"",""20"",""194035""
","""event"",""trial"",""time""
""blur"",""20"",""193289""
","""event"",""trial"",""time""
""focus"",""20"",""194035""
","""event"",""trial"",""time""
""fullscreenenter"",""1"",""2652""
","""event"",""trial"",""time""
""fullscreenexit"",""7"",""36387""
","","","","","","752.2000002861023","images/apple1.png","","","learning","1","1","1","1","apple","fruit","1","0","","neutral","0"
"html-keyboard-response","136","630509","0.0-9.0-2.0-0.32","3844","1","15","Male","approach_avoid_spark_v1","""event"",""trial"",""time""
""fullscreenenter"",""1"",""2652""
""fullscreenexit"",""7"",""36387""
""blur"",""20"",""193289""
""focus"",""20"",""194035""
","""event"",""trial"",""time""
""blur"",""20"",""193289""
","""event"",""trial"",""time""
""focus"",""20"",""194035""
","""event"",""trial"",""time""
""fullscreenenter"",""1"",""2652""
","""event"",""trial"",""time""
""fullscreenexit"",""7"",""36387""
","","","","","","null","<div style=""font-size:60px;"">+</div>","null","","fixation","","","","","","","","","","",""
"aa-learning-trial","137","633510","0.0-9.0-2.0-1.32","3844","1","15","Male","approach_avoid_spark_v1","""event"",""trial"",""time""
""fullscreenenter"",""1"",""2652""
""fullscreenexit"",""7"",""36387""
""blur"",""20"",""193289""
""focus"",""20"",""194035""
","""event"",""trial"",""time""
""blur"",""20"",""193289""
","""event"",""trial"",""time""
""focus"",""20"",""194035""
","""event"",""trial"",""time""
""fullscreenenter"",""1"",""2652""
","""event"",""trial"",""time""
""fullscreenexit"",""7"",""36387""
","","","","","","569","images/banana4.png","","","learning","6","6","1","1","banana","fruit","1","0","","good","[6]"
"html-keyboard-response","138","634011","0.0-9.0-2.0-0.33","3844","1","15","Male","approach_avoid_spark_v1","""event"",""trial"",""time""
""fullscreenenter"",""1"",""2652""
""fullscreenexit"",""7"",""36387""
""blur"",""20"",""193289""
""focus"",""20"",""194035""
","""event"",""trial"",""time""
""blur"",""20"",""193289""
","""event"",""trial"",""time""
""focus"",""20"",""194035""
","""event"",""trial"",""time""
""fullscreenenter"",""1"",""2652""
","""event"",""trial"",""time""
""fullscreenexit"",""7"",""36387""
","","","","","","null","<div style=""font-size:60px;"">+</div>","null","","fixation","","","","","","","","","","",""
"aa-learning-trial","139","637013","0.0-9.0-2.0-1.33","3844","1","15","Male","approach_avoid_spark_v1","""event"",""trial"",""time""
""fullscreenenter"",""1"",""2652""
""fullscreenexit"",""7"",""36387""
""blur"",""20"",""193289""
""focus"",""20"",""194035""
","""event"",""trial"",""time""
""blur"",""20"",""193289""
","""event"",""trial"",""time""
""focus"",""20"",""194035""
","""event"",""trial"",""time""
""fullscreenenter"",""1"",""2652""
","""event"",""trial"",""time""
""fullscreenexit"",""7"",""36387""
","","","","","","683.3000001907349","images/apple1.png","","","learning","-1","-1","1","1","apple","fruit","1","0","","neutral","0"
"html-keyboard-response","140","637514","0.0-9.0-2.0-0.34","3844","1","15","Male","approach_avoid_spark_v1","""event"",""trial"",""time""
""fullscreenenter"",""1"",""2652""
""fullscreenexit"",""7"",""36387""
""blur"",""20"",""193289""
""focus"",""20"",""194035""
","""event"",""trial"",""time""
""blur"",""20"",""193289""
","""event"",""trial"",""time""
""focus"",""20"",""194035""
","""event"",""trial"",""time""
""fullscreenenter"",""1"",""2652""
","""event"",""trial"",""time""
""fullscreenexit"",""7"",""36387""
","","","","","","null","<div style=""font-size:60px;"">+</div>","null","","fixation","","","","","","","","","","",""
"aa-learning-trial","141","640515","0.0-9.0-2.0-1.34","3844","1","15","Male","approach_avoid_spark_v1","""event"",""trial"",""time""
""fullscreenenter"",""1"",""2652""
""fullscreenexit"",""7"",""36387""
""blur"",""20"",""193289""
""focus"",""20"",""194035""
","""event"",""trial"",""time""
""blur"",""20"",""193289""
","""event"",""trial"",""time""
""focus"",""20"",""194035""
","""event"",""trial"",""time""
""fullscreenenter"",""1"",""2652""
","""event"",""trial"",""time""
""fullscreenexit"",""7"",""36387""
","","","","","","764.4000000953674","images/orange3.png","","","learning","-8","0","0","0","orange","fruit","1","0","","bad","[-6]"
"html-keyboard-response","142","641023","0.0-9.0-2.0-0.35","3844","1","15","Male","approach_avoid_spark_v1","""event"",""trial"",""time""
""fullscreenenter"",""1"",""2652""
""fullscreenexit"",""7"",""36387""
""blur"",""20"",""193289""
""focus"",""20"",""194035""
","""event"",""trial"",""time""
""blur"",""20"",""193289""
","""event"",""trial"",""time""
""focus"",""20"",""194035""
","""event"",""trial"",""time""
""fullscreenenter"",""1"",""2652""
","""event"",""trial"",""time""
""fullscreenexit"",""7"",""36387""
","","","","","","null","<div style=""font-size:60px;"">+</div>","null","","fixation","","","","","","","","","","",""
"aa-learning-trial","143","644025","0.0-9.0-2.0-1.35","3844","1","15","Male","approach_avoid_spark_v1","""event"",""trial"",""time""
""fullscreenenter"",""1"",""2652""
""fullscreenexit"",""7"",""36387""
""blur"",""20"",""193289""
""focus"",""20"",""194035""
","""event"",""trial"",""time""
""blur"",""20"",""193289""
","""event"",""trial"",""time""
""focus"",""20"",""194035""
","""event"",""trial"",""time""
""fullscreenenter"",""1"",""2652""
","""event"",""trial"",""time""
""fullscreenexit"",""7"",""36387""
","","","","","","655.4000000953674","images/banana4.png","","","learning","4","4","1","1","banana","fruit","1","0","","good","[6]"
"html-keyboard-response","144","644526","0.0-9.0-2.0-0.36","3844","1","15","Male","approach_avoid_spark_v1","""event"",""trial"",""time""
""fullscreenenter"",""1"",""2652""
""fullscreenexit"",""7"",""36387""
""blur"",""20"",""193289""
""focus"",""20"",""194035""
","""event"",""trial"",""time""
""blur"",""20"",""193289""
","""event"",""trial"",""time""
""focus"",""20"",""194035""
","""event"",""trial"",""time""
""fullscreenenter"",""1"",""2652""
","""event"",""trial"",""time""
""fullscreenexit"",""7"",""36387""
","","","","","","null","<div style=""font-size:60px;"">+</div>","null","","fixation","","","","","","","","","","",""
"aa-learning-trial","145","647527","0.0-9.0-2.0-1.36","3844","1","15","Male","approach_avoid_spark_v1","""event"",""trial"",""time""
""fullscreenenter"",""1"",""2652""
""fullscreenexit"",""7"",""36387""
""blur"",""20"",""193289""
""focus"",""20"",""194035""
","""event"",""trial"",""time""
""blur"",""20"",""193289""
","""event"",""trial"",""time""
""focus"",""20"",""194035""
","""event"",""trial"",""time""
""fullscreenenter"",""1"",""2652""
","""event"",""trial"",""time""
""fullscreenexit"",""7"",""36387""
","","","","","","519.6999998092651","images/orange3.png","","","learning","-4","0","0","0","orange","fruit","1","0","","bad","[-6]"
"html-keyboard-response","146","648028","0.0-9.0-2.0-0.37","3844","1","15","Male","approach_avoid_spark_v1","""event"",""trial"",""time""
""fullscreenenter"",""1"",""2652""
""fullscreenexit"",""7"",""36387""
""blur"",""20"",""193289""
""focus"",""20"",""194035""
","""event"",""trial"",""time""
""blur"",""20"",""193289""
","""event"",""trial"",""time""
""focus"",""20"",""194035""
","""event"",""trial"",""time""
""fullscreenenter"",""1"",""2652""
","""event"",""trial"",""time""
""fullscreenexit"",""7"",""36387""
","","","","","","null","<div style=""font-size:60px;"">+</div>","null","","fixation","","","","","","","","","","",""
"aa-learning-trial","147","651029","0.0-9.0-2.0-1.37","3844","1","15","Male","approach_avoid_spark_v1","""event"",""trial"",""time""
""fullscreenenter"",""1"",""2652""
""fullscreenexit"",""7"",""36387""
""blur"",""20"",""193289""
""focus"",""20"",""194035""
","""event"",""trial"",""time""
""blur"",""20"",""193289""
","""event"",""trial"",""time""
""focus"",""20"",""194035""
","""event"",""trial"",""time""
""fullscreenenter"",""1"",""2652""
","""event"",""trial"",""time""
""fullscreenexit"",""7"",""36387""
","","","","","","601.9000000953674","images/banana2.png","","","learning","7","7","1","1","banana","fruit","1","0","","good","[6]"
"html-keyboard-response","148","651531","0.0-9.0-2.0-0.38","3844","1","15","Male","approach_avoid_spark_v1","""event"",""trial"",""time""
""fullscreenenter"",""1"",""2652""
""fullscreenexit"",""7"",""36387""
""blur"",""20"",""193289""
""focus"",""20"",""194035""
","""event"",""trial"",""time""
""blur"",""20"",""193289""
","""event"",""trial"",""time""
""focus"",""20"",""194035""
","""event"",""trial"",""time""
""fullscreenenter"",""1"",""2652""
","""event"",""trial"",""time""
""fullscreenexit"",""7"",""36387""
","","","","","","null","<div style=""font-size:60px;"">+</div>","null","","fixation","","","","","","","","","","",""
"aa-learning-trial","149","654532","0.0-9.0-2.0-1.38","3844","1","15","Male","approach_avoid_spark_v1","""event"",""trial"",""time""
