"trial_type","trial_index","time_elapsed","internal_node_id","subject_id","task_condition","age","gender","task_version","interactions","blur_events","focus_events","fullscreenenter_events","fullscreenexit_events","success","timeout","failed_images","failed_audio","failed_video","rt","stimulus","response","button_pressed","task_part","approach_reward","points","key_press","option_selected","stim_cat","task_block","block_condition","block_number","correct","cat_type","mean_cat_reward"
"pavlovia","0","19","0.0-0.0","4487","1","8","Male","approach_avoid_spark_v1","""event"",""trial"",""time""
""fullscreenenter"",""1"",""2535""
","
","
","""event"",""trial"",""time""
""fullscreenenter"",""1"",""2535""
","
","","","","","","","","","","","","","","","","","","","","",""
"fullscreen","1","3493","0.0-1.0","4487","1","8","Male","approach_avoid_spark_v1","""event"",""trial"",""time""
""fullscreenenter"",""1"",""2535""
","
","
","""event"",""trial"",""time""
""fullscreenenter"",""1"",""2535""
","
","true","","","","","","","","","","","","","","","","","","","",""
"preload","2","87064","0.0-2.0","4487","1","8","Male","approach_avoid_spark_v1","""event"",""trial"",""time""
""fullscreenenter"",""1"",""2535""
","
","
","""event"",""trial"",""time""
""fullscreenenter"",""1"",""2535""
","
","true","false","[]","[]","[]","","","","","","","","","","","","","","","",""
"audio-keyboard-response","3","92623","0.0-3.0","4487","1","8","Male","approach_avoid_spark_v1","""event"",""trial"",""time""
""fullscreenenter"",""1"",""2535""
","
","
","""event"",""trial"",""time""
""fullscreenenter"",""1"",""2535""
","
","","","","","","5482.66666666666","audio/beep_loop.wav"," ","","","","","","","","","","","","",""
"audio-button-response","4","96834","0.0-4.0","4487","1","8","Male","approach_avoid_spark_v1","""event"",""trial"",""time""
""fullscreenenter"",""1"",""2535""
","
","
","""event"",""trial"",""time""
""fullscreenenter"",""1"",""2535""
","
","","","","","","4192","audio/shark.wav","4","","","","","","","","","","","","",""
"audio-button-response","5","100383","0.0-5.0","4487","1","8","Male","approach_avoid_spark_v1","""event"",""trial"",""time""
""fullscreenenter"",""1"",""2535""
","
","
","""event"",""trial"",""time""
""fullscreenenter"",""1"",""2535""
","
","","","","","","2539","audio/turtle.wav","1","","","","","","","","","","","","",""
"preload","6","132259","0.0-6.0","4487","1","8","Male","approach_avoid_spark_v1","""event"",""trial"",""time""
""fullscreenenter"",""1"",""2535""
","
","
","""event"",""trial"",""time""
""fullscreenenter"",""1"",""2535""
","
","true","false","[]","[]","[]","","","","","","","","","","","","","","","",""
"html-keyboard-response","7","144213","0.0-7.0","4487","1","8","Male","approach_avoid_spark_v1","""event"",""trial"",""time""
""fullscreenenter"",""1"",""2535""
","
","
","""event"",""trial"",""time""
""fullscreenenter"",""1"",""2535""
","
","","","","","","11947.200000000186","Welcome to the experiment. Press any key to begin and to advance the instructions."," ","","","","","","","","","","","","",""
"learning-instructions","8","183266","0.0-8.0-0.0-0.0","4487","1","8","Male","approach_avoid_spark_v1","""event"",""trial"",""time""
""fullscreenenter"",""1"",""2535""
","
","
","""event"",""trial"",""time""
""fullscreenenter"",""1"",""2535""
","
","","","","","","32023.599999999627","<p> Welcome! Today you are going to play 6 different rounds of a decision-making game. </p><p> Use the mouse to click next to continue. </p>","","0","instructions","","","","","","","","","","",""
"learning-instructions","9","188013","0.0-8.0-0.0-0.1","4487","1","8","Male","approach_avoid_spark_v1","""event"",""trial"",""time""
""fullscreenenter"",""1"",""2535""
","
","
","""event"",""trial"",""time""
""fullscreenenter"",""1"",""2535""
","
","","","","","","2017.2000000001863","<p> You will start with a practice round to learn the rules. </p>","","0","instructions","","","","","","","","","","",""
"learning-instructions","10","193013","0.0-8.0-0.0-0.2","4487","1","8","Male","approach_avoid_spark_v1","""event"",""trial"",""time""
""fullscreenenter"",""1"",""2535""
","
","
","""event"",""trial"",""time""
""fullscreenenter"",""1"",""2535""
","
","","","","","","1542.3999999994412","<p> Your goal in this round is to give out sports equipment to kids. </p></div>","","0","instructions","","","","","","","","","","",""
"learning-instructions","11","202280","0.0-8.0-0.0-0.3","4487","1","8","Male","approach_avoid_spark_v1","""event"",""trial"",""time""
""fullscreenenter"",""1"",""2535""
","
","
","""event"",""trial"",""time""
""fullscreenenter"",""1"",""2535""
","
","","","","","","1712.2000000001863","<p> The kids only like some of the equipment.  </p><p> On each turn, you will see a piece of sports equipment.   </p><p> You need to decide whether to give it to the kids or not.  </p>","","0","instructions","","","","","","","","","","",""
"learning-instructions","12","209061","0.0-8.0-0.0-0.4","4487","1","8","Male","approach_avoid_spark_v1","""event"",""trial"",""time""
""fullscreenenter"",""1"",""2535""
","
","
","""event"",""trial"",""time""
""fullscreenenter"",""1"",""2535""
","
","","","","","","2029.5","<p> You can give them the equipment by pressing 1 and choose not to give it to them by pressing 0. </p><br><div class=""choice-instructions-grid""> <div class=""choice-option""><img src=""images/approach.png"" class=""choice-option-img"" stage=""instructions"" position=""0"" ><div class=""choice-option-text""> Press ""1."" </div></div><div class=""choice-option""><img src=""images/avoid.png"" class=""choice-option-img"" stage=""instructions"" position=""1"" ><div class=""choice-option-text""> Press ""0."" </div></div>","","0","instructions","","","","","","","","","","",""
"learning-instructions","13","219800","0.0-8.0-0.0-0.5","4487","1","8","Male","approach_avoid_spark_v1","""event"",""trial"",""time""
""fullscreenenter"",""1"",""2535""
","
","
","""event"",""trial"",""time""
""fullscreenenter"",""1"",""2535""
","
","","","","","","3349.7000000001863","<p> If you give them a piece of equipment they like, they will be happy! </p><p> But if you give them a piece of equipment they do not like, they will be sad. </p>","","0","instructions","","","","","","","","","","",""
"learning-instructions","14","230971","0.0-8.0-0.0-0.6","4487","1","8","Male","approach_avoid_spark_v1","""event"",""trial"",""time""
""fullscreenenter"",""1"",""2535""
","
","
","""event"",""trial"",""time""
""fullscreenenter"",""1"",""2535""
","
","","","","","","654","<p> You will earn points based on how you make kids feel. </p><p> If you make them happy, you will WIN anywhere from 1 - 9 points, </p><p> but if you make them sad, you will LOSE anywhere from 1 - 9 points. </p>","","0","instructions","","","","","","","","","","",""
"learning-instructions","15","244312","0.0-8.0-0.0-0.7","4487","1","8","Male","approach_avoid_spark_v1","""event"",""trial"",""time""
""fullscreenenter"",""1"",""2535""
","
","
","""event"",""trial"",""time""
""fullscreenenter"",""1"",""2535""
","
","","","","","","3784.5","<p> You will see how many points you won or lost in the center of the screen. </p><p> Here is what you would see if you won 6 points: </p><p style=""color:green;font-size:50px;font-weight:bolder"">6</p><p style=""color:green"">The text is GREEN because you WON points.</p>","","0","instructions","","","","","","","","","","",""
"learning-instructions","16","251746","0.0-8.0-0.0-0.8","4487","1","8","Male","approach_avoid_spark_v1","""event"",""trial"",""time""
""fullscreenenter"",""1"",""2535""
","
","
","""event"",""trial"",""time""
""fullscreenenter"",""1"",""2535""
","
","","","","","","1920","<p> And here is what you would see if you lost 4 points: </p><p style=""color:red;font-size:50px;font-weight:bolder"">-4</p><p style=""color:red"">The text is RED because you LOST points. </p>","","0","instructions","","","","","","","","","","",""
"learning-instructions","17","267650","0.0-8.0-0.0-0.9","4487","1","8","Male","approach_avoid_spark_v1","""event"",""trial"",""time""
""fullscreenenter"",""1"",""2535""
","
","
","""event"",""trial"",""time""
""fullscreenenter"",""1"",""2535""
","
","","","","","","1183.3999999994412","<p> Some of the equipment will make the kids VERY happy or sad. </p><p> These pieces of equipment will make you win or lose LOTS of points. </p><p> Other pieces of equipment will only make the kids a little happy or sad. </p><p> These pieces of equipment will make you win or lose small amounts of points. </p>","","0","instructions","","","","","","","","","","",""
"learning-instructions","18","280583","0.0-8.0-0.0-0.10","4487","1","8","Male","approach_avoid_spark_v1","""event"",""trial"",""time""
""fullscreenenter"",""1"",""2535""
","
","
","""event"",""trial"",""time""
""fullscreenenter"",""1"",""2535""
","
","","","","","","2297.4000000003725","<p> If you choose not to give them the equipment, you will not win or lose any points. </p><p>  However, in the center of the screen, you will see the number of points you WOULD HAVE won or lost if you had given them the equipment. </p>","","0","instructions","","","","","","","","","","",""
"learning-instructions","19","303675","0.0-8.0-0.0-0.11","4487","1","8","Male","approach_avoid_spark_v1","""event"",""trial"",""time""
""fullscreenenter"",""1"",""2535""
","
","
","""event"",""trial"",""time""
""fullscreenenter"",""1"",""2535""
","
","","","","","","1559.4000000003725","<p> Here is what you might see if you did not give the equipment to the kids but it would have made them happy: </p><p style=""color:grey; font-size:50px; display: inline-block; border-spacing: 15px; border-width:3px; border-style:solid; border-color:red"">  &nbsp; 7 &nbsp; </p><p> Remember, in this case, you would not win or lose ANY points because you did not give them the equipment.  </p><p style=""color:grey"">The text is GREY because you earned ZERO points. </p><p style=""color:red"">However, choosing to give the kids the equipment would have made you win points. The box around the text is RED because you chose the worse option. </p>","","0","instructions","","","","","","","","","","",""
"learning-instructions","20","326465","0.0-8.0-0.0-0.12","4487","1","8","Male","approach_avoid_spark_v1","""event"",""trial"",""time""
""fullscreenenter"",""1"",""2535""
","
","
","""event"",""trial"",""time""
""fullscreenenter"",""1"",""2535""
","
","","","","","","1705.4000000003725","<p> Here is what you might see if you did not give the equipment to the kids but it would have made them sad: </p><p style=""color:grey;font-size:50px; display: inline-block; border-spacing: 15px; border-width:3px; border-style:solid; border-color:green"">  &nbsp; -8 &nbsp; </p><p> Remember, in this case, you would not win or lose ANY points because you did not give them the equipment.  </p><p style=""color:grey"">The text is GREY because you earned ZERO points. </p><p  style=""color:green""> Choosing to give the kids the equipment would have made you lose points. The box around the text is GREEN because you chose the better option.</p>","","0","instructions","","","","","","","","","","",""
"learning-instructions","21","337595","0.0-8.0-0.0-0.13","4487","1","8","Male","approach_avoid_spark_v1","""event"",""trial"",""time""
""fullscreenenter"",""1"",""2535""
","
","
","""event"",""trial"",""time""
""fullscreenenter"",""1"",""2535""
","
","","","","","","1390.1000000005588","<p> You will have 3 seconds to make each choice. Try to respond before time runs out! </p><p> You will lose 5 points each time you do not make a response. </p>","","0","instructions","","","","","","","","","","",""
"learning-instructions","22","344551","0.0-8.0-0.0-0.14","4487","1","8","Male","approach_avoid_spark_v1","""event"",""trial"",""time""
""fullscreenenter"",""1"",""2535""
","
","
","""event"",""trial"",""time""
""fullscreenenter"",""1"",""2535""
","
","","","","","","1531.4000000003725","<p> This is just a practice round, but in the real game, your bonus payment will depend on your total number of points.","","0","instructions","","","","","","","","","","",""
"learning-instructions","23","352060","0.0-8.0-0.0-0.15","4487","1","8","Male","approach_avoid_spark_v1","""event"",""trial"",""time""
""fullscreenenter"",""1"",""2535""
","
","
","""event"",""trial"",""time""
""fullscreenenter"",""1"",""2535""
","
","","","","","","1742.800000000745","<p> Remember, you can give them the equipment by pressing 1 and choose not to give it to them by pressing 0. </p><br><div class=""choice-instructions-grid""> <div class=""choice-option""><img src=""images/approach.png"" class=""choice-option-img"" stage=""instructions"" position=""0"" ><div class=""choice-option-text""> Press ""1."" </div></div><div class=""choice-option""><img src=""images/avoid.png"" class=""choice-option-img"" stage=""instructions"" position=""1"" ><div class=""choice-option-text""> Press ""0."" </div></div>","","0","instructions","","","","","","","","","","",""
"html-button-response","24","353996","0.0-8.0-1.0","4487","1","8","Male","approach_avoid_spark_v1","""event"",""trial"",""time""
""fullscreenenter"",""1"",""2535""
","
","
","""event"",""trial"",""time""
""fullscreenenter"",""1"",""2535""
","
","","","","","","1824.2999999998137","<p> Ready to practice? </p>","0","","","","","","","","","","","","",""
"html-keyboard-response","25","354606","0.0-8.0-2.0-0.0","4487","1","8","Male","approach_avoid_spark_v1","""event"",""trial"",""time""
""fullscreenenter"",""1"",""2535""
","
","
","""event"",""trial"",""time""
""fullscreenenter"",""1"",""2535""
","
","","","","","","null","<div style=""font-size:60px;"">+</div>","null","","fixation","","","","","","","","","","",""
"aa-learning-trial","26","357614","0.0-8.0-2.0-1.0","4487","1","8","Male","approach_avoid_spark_v1","""event"",""trial"",""time""
""fullscreenenter"",""1"",""2535""
","
","
","""event"",""trial"",""time""
""fullscreenenter"",""1"",""2535""
","
","","","","","","null","images/racket1.png","","","learning","-6","-5","","null","practice","practice","practice","-1","","",""
"html-keyboard-response","27","358118","0.0-8.0-2.0-0.1","4487","1","8","Male","approach_avoid_spark_v1","""event"",""trial"",""time""
""fullscreenenter"",""1"",""2535""
","
","
","""event"",""trial"",""time""
""fullscreenenter"",""1"",""2535""
","
","","","","","","null","<div style=""font-size:60px;"">+</div>","null","","fixation","","","","","","","","","","",""
"aa-learning-trial","28","361126","0.0-8.0-2.0-1.1","4487","1","8","Male","approach_avoid_spark_v1","""event"",""trial"",""time""
""fullscreenenter"",""1"",""2535""
","
","
","""event"",""trial"",""time""
""fullscreenenter"",""1"",""2535""
","
","","","","","","null","images/ball2.png","","","learning","3","-5","","null","practice","practice","practice","-1","","",""
"html-keyboard-response","29","361630","0.0-8.0-2.0-0.2","4487","1","8","Male","approach_avoid_spark_v1","""event"",""trial"",""time""
""fullscreenenter"",""1"",""2535""
","
","
","""event"",""trial"",""time""
""fullscreenenter"",""1"",""2535""
","
","","","","","","null","<div style=""font-size:60px;"">+</div>","null","","fixation","","","","","","","","","","",""
"aa-learning-trial","30","364638","0.0-8.0-2.0-1.2","4487","1","8","Male","approach_avoid_spark_v1","""event"",""trial"",""time""
""fullscreenenter"",""1"",""2535""
","
","
","""event"",""trial"",""time""
""fullscreenenter"",""1"",""2535""
","
","","","","","","null","images/racket2.png","","","learning","-2","-5","","null","practice","practice","practice","-1","","",""
"html-keyboard-response","31","365141","0.0-8.0-2.0-0.3","4487","1","8","Male","approach_avoid_spark_v1","""event"",""trial"",""time""
""fullscreenenter"",""1"",""2535""
","
","
","""event"",""trial"",""time""
""fullscreenenter"",""1"",""2535""
","
","","","","","","null","<div style=""font-size:60px;"">+</div>","null","","fixation","","","","","","","","","","",""
"aa-learning-trial","32","368150","0.0-8.0-2.0-1.3","4487","1","8","Male","approach_avoid_spark_v1","""event"",""trial"",""time""
""fullscreenenter"",""1"",""2535""
","
","
","""event"",""trial"",""time""
""fullscreenenter"",""1"",""2535""
","
","","","","","","null","images/racket4.png","","","learning","6","-5","","null","practice","practice","practice","-1","","",""
"html-keyboard-response","33","368654","0.0-8.0-2.0-0.4","4487","1","8","Male","approach_avoid_spark_v1","""event"",""trial"",""time""
""fullscreenenter"",""1"",""2535""
","
","
","""event"",""trial"",""time""
""fullscreenenter"",""1"",""2535""
","
","","","","","","null","<div style=""font-size:60px;"">+</div>","null","","fixation","","","","","","","","","","",""
"aa-learning-trial","34","371662","0.0-8.0-2.0-1.4","4487","1","8","Male","approach_avoid_spark_v1","""event"",""trial"",""time""
""fullscreenenter"",""1"",""2535""
","
","
","""event"",""trial"",""time""
""fullscreenenter"",""1"",""2535""
","
","","","","","","null","images/ball1.png","","","learning","-3","-5","","null","practice","practice","practice","-1","","",""
"html-keyboard-response","35","372165","0.0-8.0-2.0-0.5","4487","1","8","Male","approach_avoid_spark_v1","""event"",""trial"",""time""
""fullscreenenter"",""1"",""2535""
","
","
","""event"",""trial"",""time""
""fullscreenenter"",""1"",""2535""
","
","","","","","","null","<div style=""font-size:60px;"">+</div>","null","","fixation","","","","","","","","","","",""
"aa-learning-trial","36","375171","0.0-8.0-2.0-1.5","4487","1","8","Male","approach_avoid_spark_v1","""event"",""trial"",""time""
""fullscreenenter"",""1"",""2535""
","
","
","""event"",""trial"",""time""
""fullscreenenter"",""1"",""2535""
","
","","","","","","null","images/ball3.png","","","learning","-7","-5","","null","practice","practice","practice","-1","","",""
"html-keyboard-response","37","375674","0.0-8.0-2.0-0.6","4487","1","8","Male","approach_avoid_spark_v1","""event"",""trial"",""time""
""fullscreenenter"",""1"",""2535""
","
","
","""event"",""trial"",""time""
""fullscreenenter"",""1"",""2535""
","
","","","","","","null","<div style=""font-size:60px;"">+</div>","null","","fixation","","","","","","","","","","",""
"aa-learning-trial","38","378688","0.0-8.0-2.0-1.6","4487","1","8","Male","approach_avoid_spark_v1","""event"",""trial"",""time""
""fullscreenenter"",""1"",""2535""
","
","
","""event"",""trial"",""time""
""fullscreenenter"",""1"",""2535""
","
","","","","","","null","images/ball2.png","","","learning","3","-5","","null","practice","practice","practice","-1","","",""
"html-keyboard-response","39","379198","0.0-8.0-2.0-0.7","4487","1","8","Male","approach_avoid_spark_v1","""event"",""trial"",""time""
""fullscreenenter"",""1"",""2535""
","
","
","""event"",""trial"",""time""
""fullscreenenter"",""1"",""2535""
","
","","","","","","null","<div style=""font-size:60px;"">+</div>","null","","fixation","","","","","","","","","","",""
"aa-learning-trial","40","382208","0.0-8.0-2.0-1.7","4487","1","8","Male","approach_avoid_spark_v1","""event"",""trial"",""time""
""fullscreenenter"",""1"",""2535""
","
","
","""event"",""trial"",""time""
""fullscreenenter"",""1"",""2535""
","
","","","","","","null","images/ball1.png","","","learning","-2","-5","","null","practice","practice","practice","-1","","",""
"html-keyboard-response","41","382715","0.0-8.0-2.0-0.8","4487","1","8","Male","approach_avoid_spark_v1","""event"",""trial"",""time""
""fullscreenenter"",""1"",""2535""
","
","
","""event"",""trial"",""time""
""fullscreenenter"",""1"",""2535""
","
","","","","","","null","<div style=""font-size:60px;"">+</div>","null","","fixation","","","","","","","","","","",""
"aa-learning-trial","42","385726","0.0-8.0-2.0-1.8","4487","1","8","Male","approach_avoid_spark_v1","""event"",""trial"",""time""
""fullscreenenter"",""1"",""2535""
","
","
","""event"",""trial"",""time""
""fullscreenenter"",""1"",""2535""
","
","","","","","","null","images/ball2.png","","","learning","-6","-5","","null","practice","practice","practice","-1","","",""
"html-keyboard-response","43","386230","0.0-8.0-2.0-0.9","4487","1","8","Male","approach_avoid_spark_v1","""event"",""trial"",""time""
""fullscreenenter"",""1"",""2535""
","
","
","""event"",""trial"",""time""
""fullscreenenter"",""1"",""2535""
","
","","","","","","null","<div style=""font-size:60px;"">+</div>","null","","fixation","","","","","","","","","","",""
"aa-learning-trial","44","389238","0.0-8.0-2.0-1.9","4487","1","8","Male","approach_avoid_spark_v1","""event"",""trial"",""time""
""fullscreenenter"",""1"",""2535""
","
","
","""event"",""trial"",""time""
""fullscreenenter"",""1"",""2535""
","
","","","","","","null","images/racket1.png","","","learning","2","-5","","null","practice","practice","practice","-1","","",""
"html-keyboard-response","45","389742","0.0-8.0-2.0-0.10","4487","1","8","Male","approach_avoid_spark_v1","""event"",""trial"",""time""
""fullscreenenter"",""1"",""2535""
","
","
","""event"",""trial"",""time""
""fullscreenenter"",""1"",""2535""
","
","","","","","","null","<div style=""font-size:60px;"">+</div>","null","","fixation","","","","","","","","","","",""
"aa-learning-trial","46","392755","0.0-8.0-2.0-1.10","4487","1","8","Male","approach_avoid_spark_v1","""event"",""trial"",""time""
""fullscreenenter"",""1"",""2535""
","
","
","""event"",""trial"",""time""
""fullscreenenter"",""1"",""2535""
","
","","","","","","null","images/ball3.png","","","learning","3","-5","","null","practice","practice","practice","-1","","",""
"html-keyboard-response","47","393262","0.0-8.0-2.0-0.11","4487","1","8","Male","approach_avoid_spark_v1","""event"",""trial"",""time""
""fullscreenenter"",""1"",""2535""
","
","
","""event"",""trial"",""time""
""fullscreenenter"",""1"",""2535""
","
","","","","","","null","<div style=""font-size:60px;"">+</div>","null","","fixation","","","","","","","","","","",""
"aa-learning-trial","48","396271","0.0-8.0-2.0-1.11","4487","1","8","Male","approach_avoid_spark_v1","""event"",""trial"",""time""
""fullscreenenter"",""1"",""2535""
","
","
","""event"",""trial"",""time""
""fullscreenenter"",""1"",""2535""
","
","","","","","","null","images/ball4.png","","","learning","-2","-5","","null","practice","practice","practice","-1","","",""
"html-button-response","49","401503","0.0-8.0-3.0","4487","1","8","Male","approach_avoid_spark_v1","""event"",""trial"",""time""
""fullscreenenter"",""1"",""2535""
","
","
","""event"",""trial"",""time""
""fullscreenenter"",""1"",""2535""
","
","","","","","","5223.799999999814","<p> You earned -60 points in the practice round! </p>","0","","break","","","","","","","","","","",""
"learning-instructions","50","409267","0.0-8.0-4.0-0.0","4487","1","8","Male","approach_avoid_spark_v1","""event"",""trial"",""time""
""fullscreenenter"",""1"",""2535""
","
","
","""event"",""trial"",""time""
""fullscreenenter"",""1"",""2535""
","
","","","","","","1729.9000000003725","<p> It's almost time to start the real game. </p><p> Before you start, we're going to ask you a few questions about how the game works. </p>","","0","instructions","","","","","","","","","","",""
"preload","51","424409","0.0-8.0-5.0","4487","1","8","Male","approach_avoid_spark_v1","""event"",""trial"",""time""
""fullscreenenter"",""1"",""2535""
","
","
","""event"",""trial"",""time""
""fullscreenenter"",""1"",""2535""
","
","true","false","[]","[]","[]","","","","","","","","","","","","","","","",""
"comp-q","52","433826","0.0-8.0-6.0-0.0","4487","1","8","Male","approach_avoid_spark_v1","""event"",""trial"",""time""
""fullscreenenter"",""1"",""2535""
","
","
","""event"",""trial"",""time""
""fullscreenenter"",""1"",""2535""
","
","","","","","","4410.5999999996275","<p> <b> True or False? </b> </p><p> If you see a number in GREY, that means you earned that many points. </p>","","1","comp_question","","","","","","","","","true","",""
"comp-q","53","443571","0.0-8.0-6.0-1.0","4487","1","8","Male","approach_avoid_spark_v1","""event"",""trial"",""time""
""fullscreenenter"",""1"",""2535""
","
","
","""event"",""trial"",""time""
""fullscreenenter"",""1"",""2535""
","
","","","","","","1379.699999999255","<p><b> That's right! </b> If you see a grey number, it means you earned ZERO points. <br> The grey numbers show the points you WOULD HAVE earned if you had made the other choice. </p>","","0","comp_answer","","","","","","","","","","",""
"comp-q","54","450953","0.0-8.0-7.0-0.0","4487","1","8","Male","approach_avoid_spark_v1","""event"",""trial"",""time""
""fullscreenenter"",""1"",""2535""
","
","
","""event"",""trial"",""time""
""fullscreenenter"",""1"",""2535""
","
","","","","","","2691.7000000001863","<p> <b> True or False? </b> </p><p> You will have as much time as you want to make each choice. </p>","","1","comp_question","","","","","","","","","true","",""
"comp-q","55","455997","0.0-8.0-7.0-1.0","4487","1","8","Male","approach_avoid_spark_v1","""event"",""trial"",""time""
""fullscreenenter"",""1"",""2535""
","
","
","""event"",""trial"",""time""
""fullscreenenter"",""1"",""2535""
","
","","","","","","994.9000000003725","<p> <b> That's right! </b> You will only have 3 seconds to make each choice. </p>","","0","comp_answer","","","","","","","","","","",""
"comp-q","56","461541","0.0-8.0-8.0-0.0","4487","1","8","Male","approach_avoid_spark_v1","""event"",""trial"",""time""
""fullscreenenter"",""1"",""2535""
","
","
","""event"",""trial"",""time""
""fullscreenenter"",""1"",""2535""
","
","","","","","","885.9000000003725","<p> <b> True or False? </b> </p><p> You should use the '1' and '0' keys to make your choices. </p>","","0","comp_question","","","","","","","","","true","",""
"comp-q","57","470264","0.0-8.0-8.0-1.0","4487","1","8","Male","approach_avoid_spark_v1","""event"",""trial"",""time""
""fullscreenenter"",""1"",""2535""
","
","
","""event"",""trial"",""time""
""fullscreenenter"",""1"",""2535""
","
","","","","","","4104.299999999814","<p> <b> That's right! </b> You should use the '1' and '0' keys to make each choice. </p>","","0","comp_answer","","","","","","","","","","",""
"learning-instructions","58","478444","0.0-8.0-9.0-0.0","4487","1","8","Male","approach_avoid_spark_v1","""event"",""trial"",""time""
""fullscreenenter"",""1"",""2535""
","
","
","""event"",""trial"",""time""
""fullscreenenter"",""1"",""2535""
","
","","","","","","1914","<p> It's now time to start the real game. </p>Do your best, because the points you earn in the next rounds will influence your bonus payment. </p>","","0","instructions","","","","","","","","","","",""
"preload","59","478605","0.0-9.0-0.0","4487","1","8","Male","approach_avoid_spark_v1","""event"",""trial"",""time""
""fullscreenenter"",""1"",""2535""
","
","
","""event"",""trial"",""time""
""fullscreenenter"",""1"",""2535""
","
","true","false","[]","[]","[]","","","","","","","","","","","","","","","",""
"learning-instructions","60","489935","0.0-9.0-1.0-0.0","4487","1","8","Male","approach_avoid_spark_v1","""event"",""trial"",""time""
""fullscreenenter"",""1"",""2535""
","
","
","""event"",""trial"",""time""
""fullscreenenter"",""1"",""2535""
","
","","","","","","2899.2999999998137","<p> Your goal in this round is to sell different plants to a picky customer. </p></div>","","0","instructions","","","","","","","","","","",""
"learning-instructions","61","504281","0.0-9.0-1.0-0.1","4487","1","8","Male","approach_avoid_spark_v1","""event"",""trial"",""time""
""fullscreenenter"",""1"",""2535""
","
","
","""event"",""trial"",""time""
""fullscreenenter"",""1"",""2535""
","
","","","","","","1821.2000000001863","<p> The customer likes some plants and dislikes others.  </p><p> On each turn, you will see a plant.   </p><p> You need to decide whether to offer it to the customer or not.  </p>","","0","instructions","","","","","","","","","","",""
"learning-instructions","62","517138","0.0-9.0-1.0-0.2","4487","1","8","Male","approach_avoid_spark_v1","""event"",""trial"",""time""
""fullscreenenter"",""1"",""2535""
","
","
","""event"",""trial"",""time""
""fullscreenenter"",""1"",""2535""
","
","","","","","","5858.200000000186","<p> You can offer the plant by pressing 1 and decide to not offer it by pressing 0. </p><br><div class=""choice-instructions-grid""> <div class=""choice-option""><img src=""images/approach.png"" class=""choice-option-img"" stage=""instructions"" position=""0"" ><div class=""choice-option-text""> Press ""1."" </div></div><div class=""choice-option""><img src=""images/avoid.png"" class=""choice-option-img"" stage=""instructions"" position=""1"" ><div class=""choice-option-text""> Press ""0."" </div></div>","","0","instructions","","","","","","","","","","",""
"learning-instructions","63","529364","0.0-9.0-1.0-0.3","4487","1","8","Male","approach_avoid_spark_v1","""event"",""trial"",""time""
""fullscreenenter"",""1"",""2535""
","
","
","""event"",""trial"",""time""
""fullscreenenter"",""1"",""2535""
","
","","","","","","2362.2999999998137","<p> If you offer a plant to the customer that she likes, she will be very pleased! </p><p> But if you offer a plant that she does NOT like, she will be annoyed. </p>","","0","instructions","","","","","","","","","","",""
"learning-instructions","64","543927","0.0-9.0-1.0-0.4","4487","1","8","Male","approach_avoid_spark_v1","""event"",""trial"",""time""
""fullscreenenter"",""1"",""2535""
","
","
","""event"",""trial"",""time""
""fullscreenenter"",""1"",""2535""
","
","","","","","","1254.7000000001863","<p> You will earn points based on how you made the customer feel. </p><p> If you made her pleased, you will WIN anywhere from 1 - 9 points, </p><p> but if you made her annoyed, you will LOSE anywhere from 1 - 9 points. </p>","","0","instructions","","","","","","","","","","",""
"learning-instructions","65","552803","0.0-9.0-1.0-0.5","4487","1","8","Male","approach_avoid_spark_v1","""event"",""trial"",""time""
""fullscreenenter"",""1"",""2535""
","
","
","""event"",""trial"",""time""
""fullscreenenter"",""1"",""2535""
","
","","","","","","520.2000000001863","<p> You will see how many points you won or lost in the center of the screen. </p><p> Here is what you would see if you won 5 points: </p><p style=""color:green;font-size:50px;font-weight:bolder"">5</p>","","0","instructions","","","","","","","","","","",""
"learning-instructions","66","557528","0.0-9.0-1.0-0.6","4487","1","8","Male","approach_avoid_spark_v1","""event"",""trial"",""time""
""fullscreenenter"",""1"",""2535""
","
","
","""event"",""trial"",""time""
""fullscreenenter"",""1"",""2535""
","
","","","","","","702.2000000001863","<p> And here is what you would see if you lost 3 points: </p><p style=""color:red;font-size:50px;font-weight:bolder"">-3</p>","","0","instructions","","","","","","","","","","",""
"learning-instructions","67","578688","0.0-9.0-1.0-0.7","4487","1","8","Male","approach_avoid_spark_v1","""event"",""trial"",""time""
""fullscreenenter"",""1"",""2535""
","
","
","""event"",""trial"",""time""
""fullscreenenter"",""1"",""2535""
","
","","","","","","4432.5999999996275","<p> Some plants will make the customer VERY pleased or annoyed. </p><p> These plants will make you win or lose LOTS of points. </p><p> The customer will have less strong feelings about other plants. </p><p> These plants will make you win or lose small amounts of points. </p>","","0","instructions","","","","","","","","","","",""
"learning-instructions","68","605003","0.0-9.0-1.0-0.8","4487","1","8","Male","approach_avoid_spark_v1","""event"",""trial"",""time""
""fullscreenenter"",""1"",""2535""
","
","
","""event"",""trial"",""time""
""fullscreenenter"",""1"",""2535""
","
","","","","","","5614.600000000559","<p> If you choose to not offer the plant to the customer, you will not win or lose any points. </p><p>  However, in the center of the screen, you will see the number of points you WOULD HAVE won or lost if you had offered the plant. </p>","","0","instructions","","","","","","","","","","",""
"learning-instructions","69","621196","0.0-9.0-1.0-0.9","4487","1","8","Male","approach_avoid_spark_v1","""event"",""trial"",""time""
""fullscreenenter"",""1"",""2535""
","
","
","""event"",""trial"",""time""
""fullscreenenter"",""1"",""2535""
","
","","","","","","1628.2000000001863","<p> Here is what you might see if you did not offer the plant but the customer would have liked it: </p><p style=""color:grey; font-size:50px; display: inline-block; border-spacing: 15px; border-width:3px; border-style:solid; border-color:red"">  &nbsp; 6 &nbsp; </p><p> Remember, in this case, you would not win or lose ANY points because you did not offer the plant.  </p>","","0","instructions","","","","","","","","","","",""
"learning-instructions","70","630656","0.0-9.0-1.0-0.10","4487","1","8","Male","approach_avoid_spark_v1","""event"",""trial"",""time""
""fullscreenenter"",""1"",""2535""
","
","
","""event"",""trial"",""time""
""fullscreenenter"",""1"",""2535""
","
","","","","","","1242.7999999998137","<p> Try to make the best choice for each plant because </p><p> at the end of the game, you will earn bonus money based on how many points you earned. </p>","","0","instructions","","","","","","","","","","",""
"learning-instructions","71","640675","0.0-9.0-1.0-0.11","4487","1","8","Male","approach_avoid_spark_v1","""event"",""trial"",""time""
""fullscreenenter"",""1"",""2535""
","
","
","""event"",""trial"",""time""
""fullscreenenter"",""1"",""2535""
","
","","","","","","1832","<p> You will have 3 seconds to make each choice. Try to respond before time runs out! </p><p> You will lose 5 points each time you do not make a response. </p>","","0","instructions","","","","","","","","","","",""
"html-keyboard-response","72","641286","0.0-9.0-2.0-0.0","4487","1","8","Male","approach_avoid_spark_v1","""event"",""trial"",""time""
""fullscreenenter"",""1"",""2535""
","
","
","""event"",""trial"",""time""
""fullscreenenter"",""1"",""2535""
","
","","","","","","null","<div style=""font-size:60px;"">+</div>","null","","fixation","","","","","","","","","","",""
"aa-learning-trial","73","644302","0.0-9.0-2.0-1.0","4487","1","8","Male","approach_avoid_spark_v1","""event"",""trial"",""time""
""fullscreenenter"",""1"",""2535""
","
","
","""event"",""trial"",""time""
""fullscreenenter"",""1"",""2535""
","
","","","","","","1480.5999999996275","images/tree2.png","","","learning","3","3","1","1","tree","plants","1","0","","good","[3]"
"html-keyboard-response","74","644806","0.0-9.0-2.0-0.1","4487","1","8","Male","approach_avoid_spark_v1","""event"",""trial"",""time""
""fullscreenenter"",""1"",""2535""
","
","
","""event"",""trial"",""time""
""fullscreenenter"",""1"",""2535""
","
","","","","","","null","<div style=""font-size:60px;"">+</div>","null","","fixation","","","","","","","","","","",""
"aa-learning-trial","75","647814","0.0-9.0-2.0-1.1","4487","1","8","Male","approach_avoid_spark_v1","""event"",""trial"",""time""
""fullscreenenter"",""1"",""2535""
","
","
","""event"",""trial"",""time""
""fullscreenenter"",""1"",""2535""
","
","","","","","","null","images/tree2.png","","","learning","3","-5","","null","tree","plants","1","0","","good","[3]"
"html-keyboard-response","76","648318","0.0-9.0-2.0-0.2","4487","1","8","Male","approach_avoid_spark_v1","""event"",""trial"",""time""
""fullscreenenter"",""1"",""2535""
","
","
","""event"",""trial"",""time""
""fullscreenenter"",""1"",""2535""
","
","","","","","","null","<div style=""font-size:60px;"">+</div>","null","","fixation","","","","","","","","","","",""
"aa-learning-trial","77","651326","0.0-9.0-2.0-1.2","4487","1","8","Male","approach_avoid_spark_v1","""event"",""trial"",""time""
""fullscreenenter"",""1"",""2535""
","
","
","""event"",""trial"",""time""
""fullscreenenter"",""1"",""2535""
","
","","","","","","1968.9000000003725","images/cactus8.png","","","learning","-1","-1","1","1","cactus","plants","1","0","","neutral","0"
"html-keyboard-response","78","651831","0.0-9.0-2.0-0.3","4487","1","8","Male","approach_avoid_spark_v1","""event"",""trial"",""time""
""fullscreenenter"",""1"",""2535""
","
","
","""event"",""trial"",""time""
""fullscreenenter"",""1"",""2535""
","
","","","","","","null","<div style=""font-size:60px;"">+</div>","null","","fixation","","","","","","","","","","",""
"aa-learning-trial","79","654838","0.0-9.0-2.0-1.3","4487","1","8","Male","approach_avoid_spark_v1","""event"",""trial"",""time""
""fullscreenenter"",""1"",""2535""
","
","
","""event"",""trial"",""time""
""fullscreenenter"",""1"",""2535""
","
","","","","","","2112.2999999998137","images/cactus7.png","","","learning","3","0","0","0","cactus","plants","1","0","","neutral","0"
"html-keyboard-response","80","655342","0.0-9.0-2.0-0.4","4487","1","8","Male","approach_avoid_spark_v1","""event"",""trial"",""time""
""fullscreenenter"",""1"",""2535""
","
","
","""event"",""trial"",""time""
""fullscreenenter"",""1"",""2535""
","
","","","","","","null","<div style=""font-size:60px;"">+</div>","null","","fixation","","","","","","","","","","",""
"aa-learning-trial","81","658350","0.0-9.0-2.0-1.4","4487","1","8","Male","approach_avoid_spark_v1","""event"",""trial"",""time""
""fullscreenenter"",""1"",""2535""
","
","
","""event"",""trial"",""time""
""fullscreenenter"",""1"",""2535""
","
","","","","","","1808.2999999998137","images/tree5.png","","","learning","5","5","1","1","tree","plants","1","0","","good","[3]"
"html-keyboard-response","82","658854","0.0-9.0-2.0-0.5","4487","1","8","Male","approach_avoid_spark_v1","""event"",""trial"",""time""
""fullscreenenter"",""1"",""2535""
","
","
","""event"",""trial"",""time""
""fullscreenenter"",""1"",""2535""
","
","","","","","","null","<div style=""font-size:60px;"">+</div>","null","","fixation","","","","","","","","","","",""
"aa-learning-trial","83","661870","0.0-9.0-2.0-1.5","4487","1","8","Male","approach_avoid_spark_v1","""event"",""trial"",""time""
""fullscreenenter"",""1"",""2535""
","
","
","""event"",""trial"",""time""
""fullscreenenter"",""1"",""2535""
","
","","","","","","1621.2000000001863","images/bush8.png","","","learning","-6","0","0","0","bush","plants","1","0","","bad","[-6]"
"html-keyboard-response","84","662374","0.0-9.0-2.0-0.6","4487","1","8","Male","approach_avoid_spark_v1","""event"",""trial"",""time""
""fullscreenenter"",""1"",""2535""
","
","
","""event"",""trial"",""time""
""fullscreenenter"",""1"",""2535""
","
","","","","","","null","<div style=""font-size:60px;"">+</div>","null","","fixation","","","","","","","","","","",""
"aa-learning-trial","85","665390","0.0-9.0-2.0-1.6","4487","1","8","Male","approach_avoid_spark_v1","""event"",""trial"",""time""
""fullscreenenter"",""1"",""2535""
","
","
","""event"",""trial"",""time""
""fullscreenenter"",""1"",""2535""
","
","","","","","","1539.2000000001863","images/bush7.png","","","learning","-8","-8","1","1","bush","plants","1","0","","bad","[-6]"
"html-keyboard-response","86","665894","0.0-9.0-2.0-0.7","4487","1","8","Male","approach_avoid_spark_v1","""event"",""trial"",""time""
""fullscreenenter"",""1"",""2535""
","
","
","""event"",""trial"",""time""
""fullscreenenter"",""1"",""2535""
","
","","","","","","null","<div style=""font-size:60px;"">+</div>","null","","fixation","","","","","","","","","","",""
"aa-learning-trial","87","668911","0.0-9.0-2.0-1.7","4487","1","8","Male","approach_avoid_spark_v1","""event"",""trial"",""time""
""fullscreenenter"",""1"",""2535""
","
","
","""event"",""trial"",""time""
""fullscreenenter"",""1"",""2535""
","
","","","","","","1541.9000000003725","images/cactus4.png","","","learning","-1","0","0","0","cactus","plants","1","0","","neutral","0"
"html-keyboard-response","88","669414","0.0-9.0-2.0-0.8","4487","1","8","Male","approach_avoid_spark_v1","""event"",""trial"",""time""
""fullscreenenter"",""1"",""2535""
","
","
","""event"",""trial"",""time""
""fullscreenenter"",""1"",""2535""
","
","","","","","","null","<div style=""font-size:60px;"">+</div>","null","","fixation","","","","","","","","","","",""
"aa-learning-trial","89","672431","0.0-9.0-2.0-1.8","4487","1","8","Male","approach_avoid_spark_v1","""event"",""trial"",""time""
""fullscreenenter"",""1"",""2535""
","
","
","""event"",""trial"",""time""
""fullscreenenter"",""1"",""2535""
","
","","","","","","1830.699999999255","images/cactus8.png","","","learning","[-1]","-1","1","1","cactus","plants","1","0","","neutral","0"
"html-keyboard-response","90","672934","0.0-9.0-2.0-0.9","4487","1","8","Male","approach_avoid_spark_v1","""event"",""trial"",""time""
""fullscreenenter"",""1"",""2535""
","
","
","""event"",""trial"",""time""
""fullscreenenter"",""1"",""2535""
","
","","","","","","null","<div style=""font-size:60px;"">+</div>","null","","fixation","","","","","","","","","","",""
"aa-learning-trial","91","675944","0.0-9.0-2.0-1.9","4487","1","8","Male","approach_avoid_spark_v1","""event"",""trial"",""time""
""fullscreenenter"",""1"",""2535""
","
","
","""event"",""trial"",""time""
""fullscreenenter"",""1"",""2535""
","
","","","","","","1605.7000000001863","images/tree5.png","","","learning","3","3","1","1","tree","plants","1","0","","good","[3]"
"html-keyboard-response","92","676454","0.0-9.0-2.0-0.10","4487","1","8","Male","approach_avoid_spark_v1","""event"",""trial"",""time""
""fullscreenenter"",""1"",""2535""
","
","
","""event"",""trial"",""time""
""fullscreenenter"",""1"",""2535""
","
","","","","","","null","<div style=""font-size:60px;"">+</div>","null","","fixation","","","","","","","","","","",""
"aa-learning-trial","93","679463","0.0-9.0-2.0-1.10","4487","1","8","Male","approach_avoid_spark_v1","""event"",""trial"",""time""
""fullscreenenter"",""1"",""2535""
","
","
","""event"",""trial"",""time""
""fullscreenenter"",""1"",""2535""
","
","","","","","","1834.2000000001863","images/tree8.png","","","learning","3","3","1","1","tree","plants","1","0","","good","[3]"
"html-keyboard-response","94","679973","0.0-9.0-2.0-0.11","4487","1","8","Male","approach_avoid_spark_v1","""event"",""trial"",""time""
""fullscreenenter"",""1"",""2535""
","
","
","""event"",""trial"",""time""
""fullscreenenter"",""1"",""2535""
","
","","","","","","null","<div style=""font-size:60px;"">+</div>","null","","fixation","","","","","","","","","","",""
"aa-learning-trial","95","682983","0.0-9.0-2.0-1.11","4487","1","8","Male","approach_avoid_spark_v1","""event"",""trial"",""time""
""fullscreenenter"",""1"",""2535""
","
","
","""event"",""trial"",""time""
""fullscreenenter"",""1"",""2535""
","
","","","","","","1377.5","images/bush3.png","","","learning","-6","0","0","0","bush","plants","1","0","","bad","[-6]"
"html-keyboard-response","96","683495","0.0-9.0-2.0-0.12","4487","1","8","Male","approach_avoid_spark_v1","""event"",""trial"",""time""
""fullscreenenter"",""1"",""2535""
","
","
","""event"",""trial"",""time""
""fullscreenenter"",""1"",""2535""
","
","","","","","","null","<div style=""font-size:60px;"">+</div>","null","","fixation","","","","","","","","","","",""
"aa-learning-trial","97","686512","0.0-9.0-2.0-1.12","4487","1","8","Male","approach_avoid_spark_v1","""event"",""trial"",""time""
""fullscreenenter"",""1"",""2535""
","
","
","""event"",""trial"",""time""
""fullscreenenter"",""1"",""2535""
","
","","","","","","1981.2999999998137","images/cactus7.png","","","learning","2","0","0","0","cactus","plants","1","0","","neutral","0"
"html-keyboard-response","98","687022","0.0-9.0-2.0-0.13","4487","1","8","Male","approach_avoid_spark_v1","""event"",""trial"",""time""
""fullscreenenter"",""1"",""2535""
","
","
","""event"",""trial"",""time""
""fullscreenenter"",""1"",""2535""
","
","","","","","","null","<div style=""font-size:60px;"">+</div>","null","","fixation","","","","","","","","","","",""
"aa-learning-trial","99","690031","0.0-9.0-2.0-1.13","4487","1","8","Male","approach_avoid_spark_v1","""event"",""trial"",""time""
""fullscreenenter"",""1"",""2535""
","
","
","""event"",""trial"",""time""
""fullscreenenter"",""1"",""2535""
","
","","","","","","2133.9000000003725","images/bush7.png","","","learning","-4","0","0","0","bush","plants","1","0","","bad","[-6]"
"html-keyboard-response","100","690542","0.0-9.0-2.0-0.14","4487","1","8","Male","approach_avoid_spark_v1","""event"",""trial"",""time""
""fullscreenenter"",""1"",""2535""
","
","
","""event"",""trial"",""time""
""fullscreenenter"",""1"",""2535""
","
","","","","","","null","<div style=""font-size:60px;"">+</div>","null","","fixation","","","","","","","","","","",""
"aa-learning-trial","101","693560","0.0-9.0-2.0-1.14","4487","1","8","Male","approach_avoid_spark_v1","""event"",""trial"",""time""
""fullscreenenter"",""1"",""2535""
","
","
","""event"",""trial"",""time""
""fullscreenenter"",""1"",""2535""
","
","","","","","","1666","images/bush8.png","","","learning","-6","0","0","0","bush","plants","1","0","","bad","[-6]"
"html-keyboard-response","102","694070","0.0-9.0-2.0-0.15","4487","1","8","Male","approach_avoid_spark_v1","""event"",""trial"",""time""
""fullscreenenter"",""1"",""2535""
","
","
","""event"",""trial"",""time""
""fullscreenenter"",""1"",""2535""
","
","","","","","","null","<div style=""font-size:60px;"">+</div>","null","","fixation","","","","","","","","","","",""
"aa-learning-trial","103","697087","0.0-9.0-2.0-1.15","4487","1","8","Male","approach_avoid_spark_v1","""event"",""trial"",""time""
""fullscreenenter"",""1"",""2535""
","
","
","""event"",""trial"",""time""
""fullscreenenter"",""1"",""2535""
","
","","","","","","1651.2999999998137","images/cactus8.png","","","learning","[1]","1","1","1","cactus","plants","1","0","","neutral","0"
"html-keyboard-response","104","697598","0.0-9.0-2.0-0.16","4487","1","8","Male","approach_avoid_spark_v1","""event"",""trial"",""time""
""fullscreenenter"",""1"",""2535""
","
","
","""event"",""trial"",""time""
""fullscreenenter"",""1"",""2535""
","
","","","","","","null","<div style=""font-size:60px;"">+</div>","null","","fixation","","","","","","","","","","",""
"aa-learning-trial","105","700611","0.0-9.0-2.0-1.16","4487","1","8","Male","approach_avoid_spark_v1","""event"",""trial"",""time""
""fullscreenenter"",""1"",""2535""
","
","
","""event"",""trial"",""time""
""fullscreenenter"",""1"",""2535""
","
","","","","","","2468.2000000001863","images/bush5.png","","","learning","-5","-5","1","1","bush","plants","1","0","","bad","[-6]"
"html-keyboard-response","106","701118","0.0-9.0-2.0-0.17","4487","1","8","Male","approach_avoid_spark_v1","""event"",""trial"",""time""
""fullscreenenter"",""1"",""2535""
","
","
","""event"",""trial"",""time""
""fullscreenenter"",""1"",""2535""
","
","","","","","","null","<div style=""font-size:60px;"">+</div>","null","","fixation","","","","","","","","","","",""
"aa-learning-trial","107","704128","0.0-9.0-2.0-1.17","4487","1","8","Male","approach_avoid_spark_v1","""event"",""trial"",""time""
""fullscreenenter"",""1"",""2535""
","
","
","""event"",""trial"",""time""
""fullscreenenter"",""1"",""2535""
","
","","","","","","1672.9000000003725","images/bush3.png","","","learning","-3","0","0","0","bush","plants","1","0","","bad","[-6]"
"html-keyboard-response","108","704638","0.0-9.0-2.0-0.18","4487","1","8","Male","approach_avoid_spark_v1","""event"",""trial"",""time""
""fullscreenenter"",""1"",""2535""
","
","
","""event"",""trial"",""time""
""fullscreenenter"",""1"",""2535""
","
","","","","","","null","<div style=""font-size:60px;"">+</div>","null","","fixation","","","","","","","","","","",""
"aa-learning-trial","109","707655","0.0-9.0-2.0-1.18","4487","1","8","Male","approach_avoid_spark_v1","""event"",""trial"",""time""
""fullscreenenter"",""1"",""2535""
","
","
","""event"",""trial"",""time""
""fullscreenenter"",""1"",""2535""
","
","","","","","","1237","images/cactus7.png","","","learning","-2","-2","1","1","cactus","plants","1","0","","neutral","0"
"html-keyboard-response","110","708166","0.0-9.0-2.0-0.19","4487","1","8","Male","approach_avoid_spark_v1","""event"",""trial"",""time""
""fullscreenenter"",""1"",""2535""
","
","
","""event"",""trial"",""time""
""fullscreenenter"",""1"",""2535""
","
","","","","","","null","<div style=""font-size:60px;"">+</div>","null","","fixation","","","","","","","","","","",""
"aa-learning-trial","111","711176","0.0-9.0-2.0-1.19","4487","1","8","Male","approach_avoid_spark_v1","""event"",""trial"",""time""
""fullscreenenter"",""1"",""2535""
","
","
","""event"",""trial"",""time""
""fullscreenenter"",""1"",""2535""
","
","","","","","","2169.0999999996275","images/tree2.png","","","learning","1","1","1","1","tree","plants","1","0","","good","[3]"
"html-keyboard-response","112","711686","0.0-9.0-2.0-0.20","4487","1","8","Male","approach_avoid_spark_v1","""event"",""trial"",""time""
""fullscreenenter"",""1"",""2535""
","
","
","""event"",""trial"",""time""
""fullscreenenter"",""1"",""2535""
","
","","","","","","null","<div style=""font-size:60px;"">+</div>","null","","fixation","","","","","","","","","","",""
"aa-learning-trial","113","714703","0.0-9.0-2.0-1.20","4487","1","8","Male","approach_avoid_spark_v1","""event"",""trial"",""time""
""fullscreenenter"",""1"",""2535""
","
","
","""event"",""trial"",""time""
""fullscreenenter"",""1"",""2535""
","
","","","","","","1888.699999999255","images/bush8.png","","","learning","-6","-6","1","1","bush","plants","1","0","","bad","[-6]"
"html-keyboard-response","114","715214","0.0-9.0-2.0-0.21","4487","1","8","Male","approach_avoid_spark_v1","""event"",""trial"",""time""
""fullscreenenter"",""1"",""2535""
","
","
","""event"",""trial"",""time""
""fullscreenenter"",""1"",""2535""
","
","","","","","","null","<div style=""font-size:60px;"">+</div>","null","","fixation","","","","","","","","","","",""
"aa-learning-trial","115","718223","0.0-9.0-2.0-1.21","4487","1","8","Male","approach_avoid_spark_v1","""event"",""trial"",""time""
""fullscreenenter"",""1"",""2535""
","
","
","""event"",""trial"",""time""
""fullscreenenter"",""1"",""2535""
","
","","","","","","1502.3999999994412","images/bush2.png","","","learning","-4","0","0","0","bush","plants","1","0","","bad","[-6]"
"html-keyboard-response","116","718734","0.0-9.0-2.0-0.22","4487","1","8","Male","approach_avoid_spark_v1","""event"",""trial"",""time""
""fullscreenenter"",""1"",""2535""
","
","
","""event"",""trial"",""time""
""fullscreenenter"",""1"",""2535""
","
","","","","","","null","<div style=""font-size:60px;"">+</div>","null","","fixation","","","","","","","","","","",""
"aa-learning-trial","117","721752","0.0-9.0-2.0-1.22","4487","1","8","Male","approach_avoid_spark_v1","""event"",""trial"",""time""
""fullscreenenter"",""1"",""2535""
","
","
","""event"",""trial"",""time""
""fullscreenenter"",""1"",""2535""
","
","","","","","","1310.0999999996275","images/tree8.png","","","learning","1","1","1","1","tree","plants","1","0","","good","[3]"
"html-keyboard-response","118","722262","0.0-9.0-2.0-0.23","4487","1","8","Male","approach_avoid_spark_v1","""event"",""trial"",""time""
""fullscreenenter"",""1"",""2535""
","
","
","""event"",""trial"",""time""
""fullscreenenter"",""1"",""2535""
","
","","","","","","null","<div style=""font-size:60px;"">+</div>","null","","fixation","","","","","","","","","","",""
"aa-learning-trial","119","725278","0.0-9.0-2.0-1.23","4487","1","8","Male","approach_avoid_spark_v1","""event"",""trial"",""time""
""fullscreenenter"",""1"",""2535""
","
","
","""event"",""trial"",""time""
""fullscreenenter"",""1"",""2535""
","
","","","","","","1574.9000000003725","images/bush8.png","","","learning","-4","0","0","0","bush","plants","1","0","","bad","[-6]"
"html-keyboard-response","120","725782","0.0-9.0-2.0-0.24","4487","1","8","Male","approach_avoid_spark_v1","""event"",""trial"",""time""
""fullscreenenter"",""1"",""2535""
","
","
","""event"",""trial"",""time""
""fullscreenenter"",""1"",""2535""
","
","","","","","","null","<div style=""font-size:60px;"">+</div>","null","","fixation","","","","","","","","","","",""
"aa-learning-trial","121","728798","0.0-9.0-2.0-1.24","4487","1","8","Male","approach_avoid_spark_v1","""event"",""trial"",""time""
""fullscreenenter"",""1"",""2535""
","
","
","""event"",""trial"",""time""
""fullscreenenter"",""1"",""2535""
","
","","","","","","1389.7999999998137","images/tree2.png","","","learning","2","2","1","1","tree","plants","1","0","","good","[3]"
"html-keyboard-response","122","729303","0.0-9.0-2.0-0.25","4487","1","8","Male","approach_avoid_spark_v1","""event"",""trial"",""time""
""fullscreenenter"",""1"",""2535""
","
","
","""event"",""trial"",""time""
""fullscreenenter"",""1"",""2535""
","
","","","","","","null","<div style=""font-size:60px;"">+</div>","null","","fixation","","","","","","","","","","",""
"aa-learning-trial","123","732318","0.0-9.0-2.0-1.25","4487","1","8","Male","approach_avoid_spark_v1","""event"",""trial"",""time""
""fullscreenenter"",""1"",""2535""
","
","
","""event"",""trial"",""time""
""fullscreenenter"",""1"",""2535""
","
","","","","","","2549.100000000559","images/cactus8.png","","","learning","-2","0","0","0","cactus","plants","1","0","","neutral","0"
"html-keyboard-response","124","732822","0.0-9.0-2.0-0.26","4487","1","8","Male","approach_avoid_spark_v1","""event"",""trial"",""time""
""fullscreenenter"",""1"",""2535""
","
","
","""event"",""trial"",""time""
""fullscreenenter"",""1"",""2535""
","
","","","","","","null","<div style=""font-size:60px;"">+</div>","null","","fixation","","","","","","","","","","",""
"aa-learning-trial","125","735836","0.0-9.0-2.0-1.26","4487","1","8","Male","approach_avoid_spark_v1","""event"",""trial"",""time""
""fullscreenenter"",""1"",""2535""
","
","
","""event"",""trial"",""time""
""fullscreenenter"",""1"",""2535""
","
","","","","","","1506.2000000001863","images/tree5.png","","","learning","5","5","1","1","tree","plants","1","0","","good","[3]"
"html-keyboard-response","126","736341","0.0-9.0-2.0-0.27","4487","1","8","Male","approach_avoid_spark_v1","""event"",""trial"",""time""
""fullscreenenter"",""1"",""2535""
","
","
","""event"",""trial"",""time""
""fullscreenenter"",""1"",""2535""
","
","","","","","","null","<div style=""font-size:60px;"">+</div>","null","","fixation","","","","","","","","","","",""
"aa-learning-trial","127","739351","0.0-9.0-2.0-1.27","4487","1","8","Male","approach_avoid_spark_v1","""event"",""trial"",""time""
""fullscreenenter"",""1"",""2535""
","
","
","""event"",""trial"",""time""
""fullscreenenter"",""1"",""2535""
","
","","","","","","2173.0999999996275","images/tree5.png","","","learning","3","0","0","0","tree","plants","1","0","","good","[3]"
"html-keyboard-response","128","739862","0.0-9.0-2.0-0.28","4487","1","8","Male","approach_avoid_spark_v1","""event"",""trial"",""time""
""fullscreenenter"",""1"",""2535""
","
","
","""event"",""trial"",""time""
""fullscreenenter"",""1"",""2535""
","
","","","","","","null","<div style=""font-size:60px;"">+</div>","null","","fixation","","","","","","","","","","",""
"aa-learning-trial","129","742871","0.0-9.0-2.0-1.28","4487","1","8","Male","approach_avoid_spark_v1","""event"",""trial"",""time""
""fullscreenenter"",""1"",""2535""
","
","
","""event"",""trial"",""time""
""fullscreenenter"",""1"",""2535""
","
","","","","","","null","images/tree4.png","","","learning","1","-5","","null","tree","plants","1","0","","good","[3]"
"html-keyboard-response","130","743382","0.0-9.0-2.0-0.29","4487","1","8","Male","approach_avoid_spark_v1","""event"",""trial"",""time""
""fullscreenenter"",""1"",""2535""
","
","
","""event"",""trial"",""time""
""fullscreenenter"",""1"",""2535""
","
","","","","","","null","<div style=""font-size:60px;"">+</div>","null","","fixation","","","","","","","","","","",""
"aa-learning-trial","131","746390","0.0-9.0-2.0-1.29","4487","1","8","Male","approach_avoid_spark_v1","""event"",""trial"",""time""
""fullscreenenter"",""1"",""2535""
","
","
","""event"",""trial"",""time""
""fullscreenenter"",""1"",""2535""
","
","","","","","","null","images/cactus5.png","","","learning","-1","-5","","null","cactus","plants","1","0","","neutral","0"
"html-keyboard-response","132","746894","0.0-9.0-2.0-0.30","4487","1","8","Male","approach_avoid_spark_v1","""event"",""trial"",""time""
""fullscreenenter"",""1"",""2535""
","
","
","""event"",""trial"",""time""
""fullscreenenter"",""1"",""2535""
","
","","","","","","null","<div style=""font-size:60px;"">+</div>","null","","fixation","","","","","","","","","","",""
"aa-learning-trial","133","749910","0.0-9.0-2.0-1.30","4487","1","8","Male","approach_avoid_spark_v1","""event"",""trial"",""time""
""fullscreenenter"",""1"",""2535""
","
","
","""event"",""trial"",""time""
""fullscreenenter"",""1"",""2535""
","
","","","","","","1700.5","images/cactus7.png","","","learning","1","1","1","1","cactus","plants","1","0","","neutral","0"
"html-keyboard-response","134","750413","0.0-9.0-2.0-0.31","4487","1","8","Male","approach_avoid_spark_v1","""event"",""trial"",""time""
""fullscreenenter"",""1"",""2535""
","
","
","""event"",""trial"",""time""
""fullscreenenter"",""1"",""2535""
","
","","","","","","null","<div style=""font-size:60px;"">+</div>","null","","fixation","","","","","","","","","","",""
"aa-learning-trial","135","753422","0.0-9.0-2.0-1.31","4487","1","8","Male","approach_avoid_spark_v1","""event"",""trial"",""time""
""fullscreenenter"",""1"",""2535""
","
","
","""event"",""trial"",""time""
""fullscreenenter"",""1"",""2535""
","
","","","","","","1833.7999999998137","images/cactus7.png","","","learning","[1]","0","0","0","cactus","plants","1","0","","neutral","0"
"html-keyboard-response","136","753926","0.0-9.0-2.0-0.32","4487","1","8","Male","approach_avoid_spark_v1","""event"",""trial"",""time""
""fullscreenenter"",""1"",""2535""
","
","
","""event"",""trial"",""time""
""fullscreenenter"",""1"",""2535""
","
","","","","","","null","<div style=""font-size:60px;"">+</div>","null","","fixation","","","","","","","","","","",""
"aa-learning-trial","137","756936","0.0-9.0-2.0-1.32","4487","1","8","Male","approach_avoid_spark_v1","""event"",""trial"",""time""
""fullscreenenter"",""1"",""2535""
","
","
","""event"",""trial"",""time""
""fullscreenenter"",""1"",""2535""
","
","","","","","","1263.2999999998137","images/bush7.png","","","learning","-7","-7","1","1","bush","plants","1","0","","bad","[-6]"
"html-keyboard-response","138","757446","0.0-9.0-2.0-0.33","4487","1","8","Male","approach_avoid_spark_v1","""event"",""trial"",""time""
""fullscreenenter"",""1"",""2535""
","
","
","""event"",""trial"",""time""
""fullscreenenter"",""1"",""2535""
","
","","","","","","null","<div style=""font-size:60px;"">+</div>","null","","fixation","","","","","","","","","","",""
"aa-learning-trial","139","760454","0.0-9.0-2.0-1.33","4487","1","8","Male","approach_avoid_spark_v1","""event"",""trial"",""time""
""fullscreenenter"",""1"",""2535""
","
","
","""event"",""trial"",""time""
""fullscreenenter"",""1"",""2535""
","
","","","","","","1598.5999999996275","images/bush7.png","","","learning","-4","0","0","0","bush","plants","1","0","","bad","[-6]"
"html-keyboard-response","140","760958","0.0-9.0-2.0-0.34","4487","1","8","Male","approach_avoid_spark_v1","""event"",""trial"",""time""
""fullscreenenter"",""1"",""2535""
","
","
","""event"",""trial"",""time""
""fullscreenenter"",""1"",""2535""
","
","","","","","","null","<div style=""font-size:60px;"">+</div>","null","","fixation","","","","","","","","","","",""
"aa-learning-trial","141","763966","0.0-9.0-2.0-1.34","4487","1","8","Male","approach_avoid_spark_v1","""event"",""trial"",""time""
""fullscreenenter"",""1"",""2535""
","
","
","""event"",""trial"",""time""
""fullscreenenter"",""1"",""2535""
","
","","","","","","2275.60000000149","images/bush8.png","","","learning","-6","-6","1","1","bush","plants","1","0","","bad","[-6]"
"html-keyboard-response","142","764471","0.0-9.0-2.0-0.35","4487","1","8","Male","approach_avoid_spark_v1","""event"",""trial"",""time""
""fullscreenenter"",""1"",""2535""
","
","
","""event"",""trial"",""time""
""fullscreenenter"",""1"",""2535""
","
","","","","","","null","<div style=""font-size:60px;"">+</div>","null","","fixation","","","","","","","","","","",""
"aa-learning-trial","143","767486","0.0-9.0-2.0-1.35","4487","1","8","Male","approach_avoid_spark_v1","""event"",""trial"",""time""
""fullscreenenter"",""1"",""2535""
","
","
","""event"",""trial"",""time""
""fullscreenenter"",""1"",""2535""
","
","","","","","","1068","images/bush8.png","","","learning","-5","0","0","0","bush","plants","1","0","","bad","[-6]"
"html-keyboard-response","144","767991","0.0-9.0-2.0-0.36","4487","1","8","Male","approach_avoid_spark_v1","""event"",""trial"",""time""
""fullscreenenter"",""1"",""2535""
","
","
","""event"",""trial"",""time""
""fullscreenenter"",""1"",""2535""
","
","","","","","","null","<div style=""font-size:60px;"">+</div>","null","","fixation","","","","","","","","","","",""
"aa-learning-trial","145","771007","0.0-9.0-2.0-1.36","4487","1","8","Male","approach_avoid_spark_v1","""event"",""trial"",""time""
""fullscreenenter"",""1"",""2535""
","
","
","""event"",""trial"",""time""
""fullscreenenter"",""1"",""2535""
","
","","","","","","1436.0999999996275","images/cactus8.png","","","learning","1","1","1","1","cactus","plants","1","0","","neutral","0"
"html-keyboard-response","146","771510","0.0-9.0-2.0-0.37","4487","1","8","Male","approach_avoid_spark_v1","""event"",""trial"",""time""
""fullscreenenter"",""1"",""2535""
","
","
","""event"",""trial"",""time""
""fullscreenenter"",""1"",""2535""
","
","","","","","","null","<div style=""font-size:60px;"">+</div>","null","","fixation","","","","","","","","","","",""
"aa-learning-trial","147","774518","0.0-9.0-2.0-1.37","4487","1","8","Male","approach_avoid_spark_v1","""event"",""trial"",""time""
""fullscreenenter"",""1"",""2535""
","
","
","""event"",""trial"",""time""
""fullscreenenter"",""1"",""2535""
","
","","","","","","2110.2000000011176","images/cactus8.png","","","learning","[1]","0","0","0","cactus","plants","1","0","","neutral","0"
"html-keyboard-response","148","775022","0.0-9.0-2.0-0.38","4487","1","8","Male","approach_avoid_spark_v1","""event"",""trial"",""time""
""fullscreenenter"",""1"",""2535""
","
","
","""event"",""trial"",""time""
""fullscreenenter"",""1"",""2535""
","
","","","","","","null","<div style=""font-size:60px;"">+</div>","null","","fixation","","","","","","","","","","",""
"aa-learning-trial","149","778038","0.0-9.0-2.0-1.38","4487","1","8","Male","approach_avoid_spark_v1","""event"",""trial"",""time""
""fullscreenenter"",""1"",""2535""
","
","
","""event"",""trial"",""time""
""fullscreenenter"",""1"",""2535""
","
","","","","","","1686","images/bush3.png","","","learning","-6","-6","1","1","bush","plants","1","0","","bad","[-6]"
"html-keyboard-response","150","778542","0.0-9.0-2.0-0.39","4487","1","8","Male","approach_avoid_spark_v1","""event"",""trial"",""time""
""fullscreenenter"",""1"",""2535""
","
","
","""event"",""trial"",""time""
""fullscreenenter"",""1"",""2535""
","
","","","","","","null","<div style=""font-size:60px;"">+</div>","null","","fixation","","","","","","","","","","",""
"aa-learning-trial","151","781550","0.0-9.0-2.0-1.39","4487","1","8","Male","approach_avoid_spark_v1","""event"",""trial"",""time""
""fullscreenenter"",""1"",""2535""
","
","
","""event"",""trial"",""time""
""fullscreenenter"",""1"",""2535""
","
","","","","","","1380.4000000003725","images/cactus4.png","","","learning","3","0","0","0","cactus","plants","1","0","","neutral","0"
"html-keyboard-response","152","782054","0.0-9.0-2.0-0.40","4487","1","8","Male","approach_avoid_spark_v1","""event"",""trial"",""time""
""fullscreenenter"",""1"",""2535""
","
","
","""event"",""trial"",""time""
""fullscreenenter"",""1"",""2535""
","
","","","","","","null","<div style=""font-size:60px;"">+</div>","null","","fixation","","","","","","","","","","",""
"aa-learning-trial","153","785062","0.0-9.0-2.0-1.40","4487","1","8","Male","approach_avoid_spark_v1","""event"",""trial"",""time""
""fullscreenenter"",""1"",""2535""
","
","
","""event"",""trial"",""time""
""fullscreenenter"",""1"",""2535""
","
","","","","","","1925","images/cactus3.png","","","learning","-2","-2","1","1","cactus","plants","1","0","","neutral","0"
"html-keyboard-response","154","785566","0.0-9.0-2.0-0.41","4487","1","8","Male","approach_avoid_spark_v1","""event"",""trial"",""time""
""fullscreenenter"",""1"",""2535""
","
","
","""event"",""trial"",""time""
""fullscreenenter"",""1"",""2535""
","
","","","","","","null","<div style=""font-size:60px;"">+</div>","null","","fixation","","","","","","","","","","",""
"aa-learning-trial","155","788574","0.0-9.0-2.0-1.41","4487","1","8","Male","approach_avoid_spark_v1","""event"",""trial"",""time""
""fullscreenenter"",""1"",""2535""
","
","
","""event"",""trial"",""time""
""fullscreenenter"",""1"",""2535""
","
","","","","","","1416.5999999996275","images/tree2.png","","","learning","1","0","0","0","tree","plants","1","0","","good","[3]"
"html-keyboard-response","156","789078","0.0-9.0-2.0-0.42","4487","1","8","Male","approach_avoid_spark_v1","""event"",""trial"",""time""
""fullscreenenter"",""1"",""2535""
","
","
","""event"",""trial"",""time""
""fullscreenenter"",""1"",""2535""
","
","","","","","","null","<div style=""font-size:60px;"">+</div>","null","","fixation","","","","","","","","","","",""
"aa-learning-trial","157","792094","0.0-9.0-2.0-1.42","4487","1","8","Male","approach_avoid_spark_v1","""event"",""trial"",""time""
""fullscreenenter"",""1"",""2535""
","
","
","""event"",""trial"",""time""
""fullscreenenter"",""1"",""2535""
","
","","","","","","2734.300000000745","images/tree2.png","","","learning","4","4","1","1","tree","plants","1","0","","good","[3]"
"html-keyboard-response","158","792597","0.0-9.0-2.0-0.43","4487","1","8","Male","approach_avoid_spark_v1","""event"",""trial"",""time""
""fullscreenenter"",""1"",""2535""
","
","
","""event"",""trial"",""time""
""fullscreenenter"",""1"",""2535""
","
","","","","","","null","<div style=""font-size:60px;"">+</div>","null","","fixation","","","","","","","","","","",""
"aa-learning-trial","159","795606","0.0-9.0-2.0-1.43","4487","1","8","Male","approach_avoid_spark_v1","""event"",""trial"",""time""
""fullscreenenter"",""1"",""2535""
","
","
","""event"",""trial"",""time""
""fullscreenenter"",""1"",""2535""
","
","","","","","","1409.5","images/tree5.png","","","learning","1","1","1","1","tree","plants","1","0","","good","[3]"
"html-keyboard-response","160","796109","0.0-9.0-2.0-0.44","4487","1","8","Male","approach_avoid_spark_v1","""event"",""trial"",""time""
""fullscreenenter"",""1"",""2535""
","
","
","""event"",""trial"",""time""
""fullscreenenter"",""1"",""2535""
","
","","","","","","null","<div style=""font-size:60px;"">+</div>","null","","fixation","","","","","","","","","","",""
"aa-learning-trial","161","799119","0.0-9.0-2.0-1.44","4487","1","8","Male","approach_avoid_spark_v1","""event"",""trial"",""time""
""fullscreenenter"",""1"",""2535""
","
","
","""event"",""trial"",""time""
""fullscreenenter"",""1"",""2535""
","
","","","","","","1547.699999999255","images/cactus7.png","","","learning","-2","-2","1","1","cactus","plants","1","0","","neutral","0"
"html-keyboard-response","162","799622","0.0-9.0-2.0-0.45","4487","1","8","Male","approach_avoid_spark_v1","""event"",""trial"",""time""
""fullscreenenter"",""1"",""2535""
","
","
","""event"",""trial"",""time""
""fullscreenenter"",""1"",""2535""
","
","","","","","","null","<div style=""font-size:60px;"">+</div>","null","","fixation","","","","","","","","","","",""
"aa-learning-trial","163","802630","0.0-9.0-2.0-1.45","4487","1","8","Male","approach_avoid_spark_v1","""event"",""trial"",""time""
""fullscreenenter"",""1"",""2535""
","
","
","""event"",""trial"",""time""
""fullscreenenter"",""1"",""2535""
","
","","","","","","1162.7999999988824","images/tree8.png","","","learning","4","0","0","0","tree","plants","1","0","","good","[3]"
"html-keyboard-response","164","803134","0.0-9.0-2.0-0.46","4487","1","8","Male","approach_avoid_spark_v1","""event"",""trial"",""time""
""fullscreenenter"",""1"",""2535""
","
","
","""event"",""trial"",""time""
""fullscreenenter"",""1"",""2535""
","
","","","","","","null","<div style=""font-size:60px;"">+</div>","null","","fixation","","","","","","","","","","",""
"aa-learning-trial","165","806142","0.0-9.0-2.0-1.46","4487","1","8","Male","approach_avoid_spark_v1","""event"",""trial"",""time""
""fullscreenenter"",""1"",""2535""
","
","
","""event"",""trial"",""time""
""fullscreenenter"",""1"",""2535""
","
","","","","","","1246.2999999988824","images/tree5.png","","","learning","2","2","1","1","tree","plants","1","0","","good","[3]"
"html-keyboard-response","166","806646","0.0-9.0-2.0-0.47","4487","1","8","Male","approach_avoid_spark_v1","""event"",""trial"",""time""
""fullscreenenter"",""1"",""2535""
","
","
","""event"",""trial"",""time""
""fullscreenenter"",""1"",""2535""
","
","","","","","","null","<div style=""font-size:60px;"">+</div>","null","","fixation","","","","","","","","","","",""
"aa-learning-trial","167","809662","0.0-9.0-2.0-1.47","4487","1","8","Male","approach_avoid_spark_v1","""event"",""trial"",""time""
""fullscreenenter"",""1"",""2535""
","
","
","""event"",""trial"",""time""
""fullscreenenter"",""1"",""2535""
","
","","","","","","1469.5","images/cactus4.png","","","learning","1","1","1","1","cactus","plants","1","0","","neutral","0"
"html-keyboard-response","168","810166","0.0-9.0-2.0-0.48","4487","1","8","Male","approach_avoid_spark_v1","""event"",""trial"",""time""
""fullscreenenter"",""1"",""2535""
","
","
","""event"",""trial"",""time""
""fullscreenenter"",""1"",""2535""
","
","","","","","","null","<div style=""font-size:60px;"">+</div>","null","","fixation","","","","","","","","","","",""
"aa-learning-trial","169","813175","0.0-9.0-2.0-1.48","4487","1","8","Male","approach_avoid_spark_v1","""event"",""trial"",""time""
""fullscreenenter"",""1"",""2535""
","
","
","""event"",""trial"",""time""
""fullscreenenter"",""1"",""2535""
","
","","","","","","2053.9000000003725","images/bush7.png","","","learning","-7","-7","1","1","bush","plants","1","0","","bad","[-6]"
"html-keyboard-response","170","813686","0.0-9.0-2.0-0.49","4487","1","8","Male","approach_avoid_spark_v1","""event"",""trial"",""time""
""fullscreenenter"",""1"",""2535""
","
","
","""event"",""trial"",""time""
""fullscreenenter"",""1"",""2535""
","
","","","","","","null","<div style=""font-size:60px;"">+</div>","null","","fixation","","","","","","","","","","",""
"aa-learning-trial","171","816694","0.0-9.0-2.0-1.49","4487","1","8","Male","approach_avoid_spark_v1","""event"",""trial"",""time""
""fullscreenenter"",""1"",""2535""
","
","
","""event"",""trial"",""time""
""fullscreenenter"",""1"",""2535""
","
","","","","","","2249.5999999996275","images/bush7.png","","","learning","-6","-6","1","1","bush","plants","1","0","","bad","[-6]"
"html-keyboard-response","172","817198","0.0-9.0-2.0-0.50","4487","1","8","Male","approach_avoid_spark_v1","""event"",""trial"",""time""
""fullscreenenter"",""1"",""2535""
","
","
","""event"",""trial"",""time""
""fullscreenenter"",""1"",""2535""
","
","","","","","","null","<div style=""font-size:60px;"">+</div>","null","","fixation","","","","","","","","","","",""
"aa-learning-trial","173","820214","0.0-9.0-2.0-1.50","4487","1","8","Male","approach_avoid_spark_v1","""event"",""trial"",""time""
""fullscreenenter"",""1"",""2535""
","
","
","""event"",""trial"",""time""
""fullscreenenter"",""1"",""2535""
","
","","","","","","2513.699999999255","images/tree1.png","","","learning","4","4","1","1","tree","plants","1","0","","good","[3]"
"html-button-response","174","825692","0.0-9.0-3.0","4487","1","8","Male","approach_avoid_spark_v1","""event"",""trial"",""time""
""fullscreenenter"",""1"",""2535""
","
","
","""event"",""trial"",""time""
""fullscreenenter"",""1"",""2535""
","
","","","","","","5472.5","<p> You have completed the round! <p> In this round, you earned -36 points! </p>","0","","break","","","","","","","","","","",""
"html-button-response","175","826897","0.0-10.0","4487","1","8","Male","approach_avoid_spark_v1","""event"",""trial"",""time""
""fullscreenenter"",""1"",""2535""
","
","
","""event"",""trial"",""time""
""fullscreenenter"",""1"",""2535""
","
","","","","","","1201.300000000745","<p> Now it's time to play another round. </p>","0","","transition_screen","","","","","","","","","","",""
"preload","176","827092","0.0-11.0-0.0","4487","1","8","Male","approach_avoid_spark_v1","""event"",""trial"",""time""
""fullscreenenter"",""1"",""2535""
","
","
","""event"",""trial"",""time""
""fullscreenenter"",""1"",""2535""
","
","true","false","[]","[]","[]","","","","","","","","","","","","","","","",""
"learning-instructions","177","835282","0.0-11.0-1.0-0.0","4487","1","8","Male","approach_avoid_spark_v1","""event"",""trial"",""time""
""fullscreenenter"",""1"",""2535""
","
","
","""event"",""trial"",""time""
""fullscreenenter"",""1"",""2535""
","
","","","","","","1724.4000000003725","<p> Your goal in this round is to take care of lots of farm animals. </p></div>","","0","instructions","","","","","","","","","","",""
"learning-instructions","178","852116","0.0-11.0-1.0-0.1","4487","1","8","Male","approach_avoid_spark_v1","""event"",""trial"",""time""
""fullscreenenter"",""1"",""2535""
","
","
","""event"",""trial"",""time""
""fullscreenenter"",""1"",""2535""
","
","","","","","","3422.39999999851","<p> Some farm animals are hungry, while other farm animals are already full.  </p><p> On each turn, you will see a farm animal.   </p><p> You need to decide whether to feed it or not.  </p>","","0","instructions","","","","","","","","","","",""
"learning-instructions","179","860079","0.0-11.0-1.0-0.2","4487","1","8","Male","approach_avoid_spark_v1","""event"",""trial"",""time""
""fullscreenenter"",""1"",""2535""
","
","
","""event"",""trial"",""time""
""fullscreenenter"",""1"",""2535""
","
","","","","","","556.8000000007451","<p> You can feed the farm animal by pressing 1 and leave the farm animal alone by pressing 0. </p><br><div class=""choice-instructions-grid""> <div class=""choice-option""><img src=""images/approach.png"" class=""choice-option-img"" stage=""instructions"" position=""0"" ><div class=""choice-option-text""> Press ""1."" </div></div><div class=""choice-option""><img src=""images/avoid.png"" class=""choice-option-img"" stage=""instructions"" position=""1"" ><div class=""choice-option-text""> Press ""0."" </div></div>","","0","instructions","","","","","","","","","","",""
"learning-instructions","180","874059","0.0-11.0-1.0-0.3","4487","1","8","Male","approach_avoid_spark_v1","""event"",""trial"",""time""
""fullscreenenter"",""1"",""2535""
","
","
","""event"",""trial"",""time""
""fullscreenenter"",""1"",""2535""
","
","","","","","","831.1999999992549","<p> If you feed a hungry farm animal, you will make it feel satisfied! </p><p> But if you feed the farm animal and it was already full, you will make it feel sick. </p>","","0","instructions","","","","","","","","","","",""
"learning-instructions","181","890363","0.0-11.0-1.0-0.4","4487","1","8","Male","approach_avoid_spark_v1","""event"",""trial"",""time""
""fullscreenenter"",""1"",""2535""
","
","
","""event"",""trial"",""time""
""fullscreenenter"",""1"",""2535""
","
","","","","","","335.59999999962747","<p> You will earn points based on how you made the farm animal feel. </p><p> If you made it satisfied, you will WIN anywhere from 1 - 9 points, </p><p> but if you made it sick, you will LOSE anywhere from 1 - 9 points. </p>","","0","instructions","","","","","","","","","","",""
"learning-instructions","182","897326","0.0-11.0-1.0-0.5","4487","1","8","Male","approach_avoid_spark_v1","""event"",""trial"",""time""
""fullscreenenter"",""1"",""2535""
","
","
","""event"",""trial"",""time""
""fullscreenenter"",""1"",""2535""
","
","","","","","","302.09999999962747","<p> You will see how many points you won or lost in the center of the screen. </p><p> Here is what you would see if you won 5 points: </p><p style=""color:green;font-size:50px;font-weight:bolder"">5</p>","","0","instructions","","","","","","","","","","",""
"learning-instructions","183","900350","0.0-11.0-1.0-0.6","4487","1","8","Male","approach_avoid_spark_v1","""event"",""trial"",""time""
""fullscreenenter"",""1"",""2535""
","
","
","""event"",""trial"",""time""
""fullscreenenter"",""1"",""2535""
","
","","","","","","189.60000000149012","<p> And here is what you would see if you lost 3 points: </p><p style=""color:red;font-size:50px;font-weight:bolder"">-3</p>","","0","instructions","","","","","","","","","","",""
"learning-instructions","184","919394","0.0-11.0-1.0-0.7","4487","1","8","Male","approach_avoid_spark_v1","""event"",""trial"",""time""
""fullscreenenter"",""1"",""2535""
","
","
","""event"",""trial"",""time""
""fullscreenenter"",""1"",""2535""
","
","","","","","","1024.9000000003725","<p> Some farm animals will become very satisfied or very sick. </p><p> These farm animals will make you win or lose LOTS of points. </p><p> Other farm animals have less strong feelings. </p><p> These farm animals will make you win or lose small amounts of points. </p>","","0","instructions","","","","","","","","","","",""
"learning-instructions","185","936587","0.0-11.0-1.0-0.8","4487","1","8","Male","approach_avoid_spark_v1","""event"",""trial"",""time""
""fullscreenenter"",""1"",""2535""
","
","
","""event"",""trial"",""time""
""fullscreenenter"",""1"",""2535""
","
","","","","","","3990","<p> If you choose to leave the farm animal alone, you will not win or lose any points. </p><p>  However, in the center of the screen, you will see the number of points you WOULD HAVE won or lost if you had fed the farm animal. </p>","","0","instructions","","","","","","","","","","",""
"learning-instructions","186","950216","0.0-11.0-1.0-0.9","4487","1","8","Male","approach_avoid_spark_v1","""event"",""trial"",""time""
""fullscreenenter"",""1"",""2535""
","
","
","""event"",""trial"",""time""
""fullscreenenter"",""1"",""2535""
","
","","","","","","1340.5","<p> Here is what you might see if you did not feed the farm animal but the animal was hungry: </p><p style=""color:grey; font-size:50px; display: inline-block; border-spacing: 15px; border-width:3px; border-style:solid; border-color:red"">  &nbsp; 6 &nbsp; </p><p> Remember, in this case, you would not win or lose ANY points because you did not feed the farm animal.  </p>","","0","instructions","","","","","","","","","","",""
"learning-instructions","187","960282","0.0-11.0-1.0-0.10","4487","1","8","Male","approach_avoid_spark_v1","""event"",""trial"",""time""
""fullscreenenter"",""1"",""2535""
","
","
","""event"",""trial"",""time""
""fullscreenenter"",""1"",""2535""
","
","","","","","","1699.300000000745","<p> Try to make the best choice for each farm animal because </p><p> at the end of the game, you will earn bonus money based on how many points you earned. </p>","","0","instructions","","","","","","","","","","",""
"learning-instructions","188","969258","0.0-11.0-1.0-0.11","4487","1","8","Male","approach_avoid_spark_v1","""event"",""trial"",""time""
""fullscreenenter"",""1"",""2535""
","
","
","""event"",""trial"",""time""
""fullscreenenter"",""1"",""2535""
","
","","","","","","788","<p> You will have 3 seconds to make each choice. Try to respond before time runs out! </p><p> You will lose 5 points each time you do not make a response. </p>","","0","instructions","","","","","","","","","","",""
"html-keyboard-response","189","969871","0.0-11.0-2.0-0.0","4487","1","8","Male","approach_avoid_spark_v1","""event"",""trial"",""time""
""fullscreenenter"",""1"",""2535""
","
","
","""event"",""trial"",""time""
""fullscreenenter"",""1"",""2535""
","
","","","","","","null","<div style=""font-size:60px;"">+</div>","null","","fixation","","","","","","","","","","",""
"aa-learning-trial","190","972878","0.0-11.0-2.0-1.0","4487","1","8","Male","approach_avoid_spark_v1","""event"",""trial"",""time""
""fullscreenenter"",""1"",""2535""
","
","
","""event"",""trial"",""time""
""fullscreenenter"",""1"",""2535""
","
","","","","","","2417.5","images/cow2.png","","","learning","4","4","1","1","cow","animals","2","1","","good","[5]"
"html-keyboard-response","191","973382","0.0-11.0-2.0-0.1","4487","1","8","Male","approach_avoid_spark_v1","""event"",""trial"",""time""
""fullscreenenter"",""1"",""2535""
","
","
","""event"",""trial"",""time""
""fullscreenenter"",""1"",""2535""
","
","","","","","","null","<div style=""font-size:60px;"">+</div>","null","","fixation","","","","","","","","","","",""
"aa-learning-trial","192","976390","0.0-11.0-2.0-1.1","4487","1","8","Male","approach_avoid_spark_v1","""event"",""trial"",""time""
""fullscreenenter"",""1"",""2535""
","
","
","""event"",""trial"",""time""
""fullscreenenter"",""1"",""2535""
","
","","","","","","2351","images/horse3.png","","","learning","8","0","0","0","horse","animals","2","1","","bad","[-3]"
"html-keyboard-response","193","976895","0.0-11.0-2.0-0.2","4487","1","8","Male","approach_avoid_spark_v1","""event"",""trial"",""time""
""fullscreenenter"",""1"",""2535""
","
","
","""event"",""trial"",""time""
""fullscreenenter"",""1"",""2535""
","
","","","","","","null","<div style=""font-size:60px;"">+</div>","null","","fixation","","","","","","","","","","",""
"aa-learning-trial","194","979902","0.0-11.0-2.0-1.2","4487","1","8","Male","approach_avoid_spark_v1","""event"",""trial"",""time""
""fullscreenenter"",""1"",""2535""
","
","
","""event"",""trial"",""time""
""fullscreenenter"",""1"",""2535""
","
","","","","","","1558.5","images/cow1.png","","","learning","-9","-9","1","1","cow","animals","2","1","","good","[5]"
"html-keyboard-response","195","980406","0.0-11.0-2.0-0.3","4487","1","8","Male","approach_avoid_spark_v1","""event"",""trial"",""time""
""fullscreenenter"",""1"",""2535""
","
","
","""event"",""trial"",""time""
""fullscreenenter"",""1"",""2535""
","
","","","","","","null","<div style=""font-size:60px;"">+</div>","null","","fixation","","","","","","","","","","",""
"aa-learning-trial","196","983414","0.0-11.0-2.0-1.3","4487","1","8","Male","approach_avoid_spark_v1","""event"",""trial"",""time""
""fullscreenenter"",""1"",""2535""
","
","
","""event"",""trial"",""time""
""fullscreenenter"",""1"",""2535""
","
","","","","","","2167.5","images/cow1.png","","","learning","-9","-9","1","1","cow","animals","2","1","","good","[5]"
"html-keyboard-response","197","983917","0.0-11.0-2.0-0.4","4487","1","8","Male","approach_avoid_spark_v1","""event"",""trial"",""time""
""fullscreenenter"",""1"",""2535""
","
","
","""event"",""trial"",""time""
""fullscreenenter"",""1"",""2535""
","
","","","","","","null","<div style=""font-size:60px;"">+</div>","null","","fixation","","","","","","","","","","",""
"aa-learning-trial","198","986927","0.0-11.0-2.0-1.4","4487","1","8","Male","approach_avoid_spark_v1","""event"",""trial"",""time""
""fullscreenenter"",""1"",""2535""
","
","
","""event"",""trial"",""time""
""fullscreenenter"",""1"",""2535""
","
","","","","","","1654.9000000003725","images/horse5.png","","","learning","5","0","0","0","horse","animals","2","1","","bad","[-3]"
"html-keyboard-response","199","987430","0.0-11.0-2.0-0.5","4487","1","8","Male","approach_avoid_spark_v1","""event"",""trial"",""time""
""fullscreenenter"",""1"",""2535""
","
","
","""event"",""trial"",""time""
""fullscreenenter"",""1"",""2535""
","
","","","","","","null","<div style=""font-size:60px;"">+</div>","null","","fixation","","","","","","","","","","",""
"aa-learning-trial","200","990435","0.0-11.0-2.0-1.5","4487","1","8","Male","approach_avoid_spark_v1","""event"",""trial"",""time""
""fullscreenenter"",""1"",""2535""
","
","
","""event"",""trial"",""time""
""fullscreenenter"",""1"",""2535""
","
","","","","","","1447.2000000011176","images/horse5.png","","","learning","5","5","1","1","horse","animals","2","1","","bad","[-3]"
"html-keyboard-response","201","990942","0.0-11.0-2.0-0.6","4487","1","8","Male","approach_avoid_spark_v1","""event"",""trial"",""time""
""fullscreenenter"",""1"",""2535""
","
","
","""event"",""trial"",""time""
""fullscreenenter"",""1"",""2535""
","
","","","","","","null","<div style=""font-size:60px;"">+</div>","null","","fixation","","","","","","","","","","",""
"aa-learning-trial","202","993951","0.0-11.0-2.0-1.6","4487","1","8","Male","approach_avoid_spark_v1","""event"",""trial"",""time""
""fullscreenenter"",""1"",""2535""
","
","
","""event"",""trial"",""time""
""fullscreenenter"",""1"",""2535""
","
","","","","","","2089.9000000003725","images/goat3.png","","","learning","-2","0","0","0","goat","animals","2","1","","neutral","0"
"html-keyboard-response","203","994453","0.0-11.0-2.0-0.7","4487","1","8","Male","approach_avoid_spark_v1","""event"",""trial"",""time""
""fullscreenenter"",""1"",""2535""
","
","
","""event"",""trial"",""time""
""fullscreenenter"",""1"",""2535""
","
","","","","","","null","<div style=""font-size:60px;"">+</div>","null","","fixation","","","","","","","","","","",""
"aa-learning-trial","204","997461","0.0-11.0-2.0-1.7","4487","1","8","Male","approach_avoid_spark_v1","""event"",""trial"",""time""
""fullscreenenter"",""1"",""2535""
","
","
","""event"",""trial"",""time""
""fullscreenenter"",""1"",""2535""
","
","","","","","","1706.6000000014901","images/goat5.png","","","learning","6","6","1","1","goat","animals","2","1","","neutral","0"
"html-keyboard-response","205","997966","0.0-11.0-2.0-0.8","4487","1","8","Male","approach_avoid_spark_v1","""event"",""trial"",""time""
""fullscreenenter"",""1"",""2535""
","
","
","""event"",""trial"",""time""
""fullscreenenter"",""1"",""2535""
","
","","","","","","null","<div style=""font-size:60px;"">+</div>","null","","fixation","","","","","","","","","","",""
"aa-learning-trial","206","1000974","0.0-11.0-2.0-1.8","4487","1","8","Male","approach_avoid_spark_v1","""event"",""trial"",""time""
""fullscreenenter"",""1"",""2535""
","
","
","""event"",""trial"",""time""
""fullscreenenter"",""1"",""2535""
","
","","","","","","null","images/goat2.png","","","learning","3","-5","","null","goat","animals","2","1","","neutral","0"
"html-keyboard-response","207","1001478","0.0-11.0-2.0-0.9","4487","1","8","Male","approach_avoid_spark_v1","""event"",""trial"",""time""
""fullscreenenter"",""1"",""2535""
","
","
","""event"",""trial"",""time""
""fullscreenenter"",""1"",""2535""
","
","","","","","","null","<div style=""font-size:60px;"">+</div>","null","","fixation","","","","","","","","","","",""
"aa-learning-trial","208","1004488","0.0-11.0-2.0-1.9","4487","1","8","Male","approach_avoid_spark_v1","""event"",""trial"",""time""
""fullscreenenter"",""1"",""2535""
","
","
","""event"",""trial"",""time""
""fullscreenenter"",""1"",""2535""
","
","","","","","","1873","images/cow7.png","","","learning","-5","-5","1","1","cow","animals","2","1","","good","[5]"
"html-keyboard-response","209","1004998","0.0-11.0-2.0-0.10","4487","1","8","Male","approach_avoid_spark_v1","""event"",""trial"",""time""
""fullscreenenter"",""1"",""2535""
","
","
","""event"",""trial"",""time""
""fullscreenenter"",""1"",""2535""
","
","","","","","","null","<div style=""font-size:60px;"">+</div>","null","","fixation","","","","","","","","","","",""
"aa-learning-trial","210","1008015","0.0-11.0-2.0-1.10","4487","1","8","Male","approach_avoid_spark_v1","""event"",""trial"",""time""
""fullscreenenter"",""1"",""2535""
","
","
","""event"",""trial"",""time""
""fullscreenenter"",""1"",""2535""
","
","","","","","","1766.2000000011176","images/goat3.png","","","learning","-2","0","0","0","goat","animals","2","1","","neutral","0"
"html-keyboard-response","211","1008527","0.0-11.0-2.0-0.11","4487","1","8","Male","approach_avoid_spark_v1","""event"",""trial"",""time""
""fullscreenenter"",""1"",""2535""
","
","
","""event"",""trial"",""time""
""fullscreenenter"",""1"",""2535""
","
","","","","","","null","<div style=""font-size:60px;"">+</div>","null","","fixation","","","","","","","","","","",""
"aa-learning-trial","212","1011543","0.0-11.0-2.0-1.11","4487","1","8","Male","approach_avoid_spark_v1","""event"",""trial"",""time""
""fullscreenenter"",""1"",""2535""
","
","
","""event"",""trial"",""time""
""fullscreenenter"",""1"",""2535""
","
","","","","","","1212.5","images/horse4.png","","","learning","-8","-8","1","1","horse","animals","2","1","","bad","[-3]"
"html-keyboard-response","213","1012054","0.0-11.0-2.0-0.12","4487","1","8","Male","approach_avoid_spark_v1","""event"",""trial"",""time""
""fullscreenenter"",""1"",""2535""
","
","
","""event"",""trial"",""time""
""fullscreenenter"",""1"",""2535""
","
","","","","","","null","<div style=""font-size:60px;"">+</div>","null","","fixation","","","","","","","","","","",""
"aa-learning-trial","214","1015072","0.0-11.0-2.0-1.12","4487","1","8","Male","approach_avoid_spark_v1","""event"",""trial"",""time""
""fullscreenenter"",""1"",""2535""
","
","
","""event"",""trial"",""time""
""fullscreenenter"",""1"",""2535""
","
","","","","","","1202.4000000003725","images/cow2.png","","","learning","4","0","0","0","cow","animals","2","1","","good","[5]"
"html-keyboard-response","215","1015582","0.0-11.0-2.0-0.13","4487","1","8","Male","approach_avoid_spark_v1","""event"",""trial"",""time""
""fullscreenenter"",""1"",""2535""
","
","
","""event"",""trial"",""time""
""fullscreenenter"",""1"",""2535""
","
","","","","","","null","<div style=""font-size:60px;"">+</div>","null","","fixation","","","","","","","","","","",""
"aa-learning-trial","216","1018591","0.0-11.0-2.0-1.13","4487","1","8","Male","approach_avoid_spark_v1","""event"",""trial"",""time""
""fullscreenenter"",""1"",""2535""
","
","
","""event"",""trial"",""time""
""fullscreenenter"",""1"",""2535""
","
","","","","","","1781.699999999255","images/goat2.png","","","learning","3","3","1","1","goat","animals","2","1","","neutral","0"
"html-keyboard-response","217","1019102","0.0-11.0-2.0-0.14","4487","1","8","Male","approach_avoid_spark_v1","""event"",""trial"",""time""
""fullscreenenter"",""1"",""2535""
","
","
","""event"",""trial"",""time""
""fullscreenenter"",""1"",""2535""
","
","","","","","","null","<div style=""font-size:60px;"">+</div>","null","","fixation","","","","","","","","","","",""
"aa-learning-trial","218","1022118","0.0-11.0-2.0-1.14","4487","1","8","Male","approach_avoid_spark_v1","""event"",""trial"",""time""
""fullscreenenter"",""1"",""2535""
","
","
","""event"",""trial"",""time""
""fullscreenenter"",""1"",""2535""
","
","","","","","","1993.9000000003725","images/horse3.png","","","learning","8","8","1","1","horse","animals","2","1","","bad","[-3]"
"html-keyboard-response","219","1022630","0.0-11.0-2.0-0.15","4487","1","8","Male","approach_avoid_spark_v1","""event"",""trial"",""time""
""fullscreenenter"",""1"",""2535""
","
","
","""event"",""trial"",""time""
""fullscreenenter"",""1"",""2535""
","
","","","","","","null","<div style=""font-size:60px;"">+</div>","null","","fixation","","","","","","","","","","",""
"aa-learning-trial","220","1025646","0.0-11.0-2.0-1.15","4487","1","8","Male","approach_avoid_spark_v1","""event"",""trial"",""time""
""fullscreenenter"",""1"",""2535""
","
","
","""event"",""trial"",""time""
""fullscreenenter"",""1"",""2535""
","
","","","","","","1797.0999999996275","images/horse3.png","","","learning","8","0","0","0","horse","animals","2","1","","bad","[-3]"
"html-keyboard-response","221","1026150","0.0-11.0-2.0-0.16","4487","1","8","Male","approach_avoid_spark_v1","""event"",""trial"",""time""
""fullscreenenter"",""1"",""2535""
","
","
","""event"",""trial"",""time""
""fullscreenenter"",""1"",""2535""
","
","","","","","","null","<div style=""font-size:60px;"">+</div>","null","","fixation","","","","","","","","","","",""
"aa-learning-trial","222","1029158","0.0-11.0-2.0-1.16","4487","1","8","Male","approach_avoid_spark_v1","""event"",""trial"",""time""
""fullscreenenter"",""1"",""2535""
","
","
","""event"",""trial"",""time""
""fullscreenenter"",""1"",""2535""
","
","","","","","","1735.3999999985099","images/goat3.png","","","learning","-2","-2","1","1","goat","animals","2","1","","neutral","0"
"html-keyboard-response","223","1029661","0.0-11.0-2.0-0.17","4487","1","8","Male","approach_avoid_spark_v1","""event"",""trial"",""time""
""fullscreenenter"",""1"",""2535""
","
","
","""event"",""trial"",""time""
""fullscreenenter"",""1"",""2535""
","
","","","","","","null","<div style=""font-size:60px;"">+</div>","null","","fixation","","","","","","","","","","",""
"aa-learning-trial","224","1032670","0.0-11.0-2.0-1.17","4487","1","8","Male","approach_avoid_spark_v1","""event"",""trial"",""time""
""fullscreenenter"",""1"",""2535""
","
","
","""event"",""trial"",""time""
""fullscreenenter"",""1"",""2535""
","
","","","","","","1830.7999999988824","images/goat3.png","","","learning","-2","-2","1","1","goat","animals","2","1","","neutral","0"
"html-keyboard-response","225","1033174","0.0-11.0-2.0-0.18","4487","1","8","Male","approach_avoid_spark_v1","""event"",""trial"",""time""
""fullscreenenter"",""1"",""2535""
","
","
","""event"",""trial"",""time""
""fullscreenenter"",""1"",""2535""
","
","","","","","","null","<div style=""font-size:60px;"">+</div>","null","","fixation","","","","","","","","","","",""
"aa-learning-trial","226","1036182","0.0-11.0-2.0-1.18","4487","1","8","Male","approach_avoid_spark_v1","""event"",""trial"",""time""
""fullscreenenter"",""1"",""2535""
","
","
","""event"",""trial"",""time""
""fullscreenenter"",""1"",""2535""
","
","","","","","","2551.2999999988824","images/cow2.png","","","learning","4","0","0","0","cow","animals","2","1","","good","[5]"
"html-keyboard-response","227","1036686","0.0-11.0-2.0-0.19","4487","1","8","Male","approach_avoid_spark_v1","""event"",""trial"",""time""
""fullscreenenter"",""1"",""2535""
","
","
","""event"",""trial"",""time""
""fullscreenenter"",""1"",""2535""
","
","","","","","","null","<div style=""font-size:60px;"">+</div>","null","","fixation","","","","","","","","","","",""
"aa-learning-trial","228","1039702","0.0-11.0-2.0-1.19","4487","1","8","Male","approach_avoid_spark_v1","""event"",""trial"",""time""
""fullscreenenter"",""1"",""2535""
","
","
","""event"",""trial"",""time""
""fullscreenenter"",""1"",""2535""
","
","","","","","","2079.300000000745","images/goat5.png","","","learning","6","6","1","1","goat","animals","2","1","","neutral","0"
"html-keyboard-response","229","1040214","0.0-11.0-2.0-0.20","4487","1","8","Male","approach_avoid_spark_v1","""event"",""trial"",""time""
""fullscreenenter"",""1"",""2535""
","
","
","""event"",""trial"",""time""
""fullscreenenter"",""1"",""2535""
","
","","","","","","null","<div style=""font-size:60px;"">+</div>","null","","fixation","","","","","","","","","","",""
"aa-learning-trial","230","1043222","0.0-11.0-2.0-1.20","4487","1","8","Male","approach_avoid_spark_v1","""event"",""trial"",""time""
""fullscreenenter"",""1"",""2535""
","
","
","""event"",""trial"",""time""
""fullscreenenter"",""1"",""2535""
","
","","","","","","1808.699999999255","images/horse5.png","","","learning","5","5","1","1","horse","animals","2","1","","bad","[-3]"
"html-keyboard-response","231","1043725","0.0-11.0-2.0-0.21","4487","1","8","Male","approach_avoid_spark_v1","""event"",""trial"",""time""
""fullscreenenter"",""1"",""2535""
","
","
","""event"",""trial"",""time""
""fullscreenenter"",""1"",""2535""
","
","","","","","","null","<div style=""font-size:60px;"">+</div>","null","","fixation","","","","","","","","","","",""
"aa-learning-trial","232","1046734","0.0-11.0-2.0-1.21","4487","1","8","Male","approach_avoid_spark_v1","""event"",""trial"",""time""
""fullscreenenter"",""1"",""2535""
","
","
","""event"",""trial"",""time""
""fullscreenenter"",""1"",""2535""
","
","","","","","","1520.5999999996275","images/goat2.png","","","learning","3","0","0","0","goat","animals","2","1","","neutral","0"
"html-keyboard-response","233","1047238","0.0-11.0-2.0-0.22","4487","1","8","Male","approach_avoid_spark_v1","""event"",""trial"",""time""
""fullscreenenter"",""1"",""2535""
","
","
","""event"",""trial"",""time""
""fullscreenenter"",""1"",""2535""
","
","","","","","","null","<div style=""font-size:60px;"">+</div>","null","","fixation","","","","","","","","","","",""
"aa-learning-trial","234","1050254","0.0-11.0-2.0-1.22","4487","1","8","Male","approach_avoid_spark_v1","""event"",""trial"",""time""
""fullscreenenter"",""1"",""2535""
","
","
","""event"",""trial"",""time""
""fullscreenenter"",""1"",""2535""
","
","","","","","","1267.300000000745","images/goat2.png","","","learning","3","3","1","1","goat","animals","2","1","","neutral","0"
"html-keyboard-response","235","1050758","0.0-11.0-2.0-0.23","4487","1","8","Male","approach_avoid_spark_v1","""event"",""trial"",""time""
""fullscreenenter"",""1"",""2535""
","
","
","""event"",""trial"",""time""
""fullscreenenter"",""1"",""2535""
","
","","","","","","null","<div style=""font-size:60px;"">+</div>","null","","fixation","","","","","","","","","","",""
"aa-learning-trial","236","1053766","0.0-11.0-2.0-1.23","4487","1","8","Male","approach_avoid_spark_v1","""event"",""trial"",""time""
""fullscreenenter"",""1"",""2535""
","
","
","""event"",""trial"",""time""
""fullscreenenter"",""1"",""2535""
","
","","","","","","1560","images/horse6.png","","","learning","-4","0","0","0","horse","animals","2","1","","bad","[-3]"
"html-keyboard-response","237","1054270","0.0-11.0-2.0-0.24","4487","1","8","Male","approach_avoid_spark_v1","""event"",""trial"",""time""
""fullscreenenter"",""1"",""2535""
","
","
","""event"",""trial"",""time""
""fullscreenenter"",""1"",""2535""
","
","","","","","","null","<div style=""font-size:60px;"">+</div>","null","","fixation","","","","","","","","","","",""
"aa-learning-trial","238","1057287","0.0-11.0-2.0-1.24","4487","1","8","Male","approach_avoid_spark_v1","""event"",""trial"",""time""
""fullscreenenter"",""1"",""2535""
","
","
","""event"",""trial"",""time""
""fullscreenenter"",""1"",""2535""
","
