"trial_type","trial_index","time_elapsed","internal_node_id","subject_id","task_condition","age","gender","task_version","interactions","blur_events","focus_events","fullscreenenter_events","fullscreenexit_events","success","timeout","failed_images","failed_audio","failed_video","rt","stimulus","response","button_pressed","task_part","approach_reward","points","key_press","option_selected","stim_cat","task_block","block_condition","block_number","correct","cat_type","mean_cat_reward"
"pavlovia","0","3","0.0-0.0","3856","1","16","Male","approach_avoid_spark_v1","""event"",""trial"",""time""
""fullscreenenter"",""1"",""4233""
","
","
","""event"",""trial"",""time""
""fullscreenenter"",""1"",""4233""
","
","","","","","","","","","","","","","","","","","","","","",""
"fullscreen","1","5240","0.0-1.0","3856","1","16","Male","approach_avoid_spark_v1","""event"",""trial"",""time""
""fullscreenenter"",""1"",""4233""
","
","
","""event"",""trial"",""time""
""fullscreenenter"",""1"",""4233""
","
","true","","","","","","","","","","","","","","","","","","","",""
"preload","2","16900","0.0-2.0","3856","1","16","Male","approach_avoid_spark_v1","""event"",""trial"",""time""
""fullscreenenter"",""1"",""4233""
","
","
","""event"",""trial"",""time""
""fullscreenenter"",""1"",""4233""
","
","true","false","[]","[]","[]","","","","","","","","","","","","","","","",""
"audio-keyboard-response","3","19871","0.0-3.0","3856","1","16","Male","approach_avoid_spark_v1","""event"",""trial"",""time""
""fullscreenenter"",""1"",""4233""
","
","
","""event"",""trial"",""time""
""fullscreenenter"",""1"",""4233""
","
","","","","","","2965.3333333333335","audio/beep_loop.wav"," ","","","","","","","","","","","","",""
"audio-button-response","4","22416","0.0-4.0","3856","1","16","Male","approach_avoid_spark_v1","""event"",""trial"",""time""
""fullscreenenter"",""1"",""4233""
","
","
","""event"",""trial"",""time""
""fullscreenenter"",""1"",""4233""
","
","","","","","","2549","audio/shark.wav","4","","","","","","","","","","","","",""
"audio-button-response","5","24791","0.0-5.0","3856","1","16","Male","approach_avoid_spark_v1","""event"",""trial"",""time""
""fullscreenenter"",""1"",""4233""
","
","
","""event"",""trial"",""time""
""fullscreenenter"",""1"",""4233""
","
","","","","","","1355","audio/turtle.wav","1","","","","","","","","","","","","",""
"preload","6","29373","0.0-6.0","3856","1","16","Male","approach_avoid_spark_v1","""event"",""trial"",""time""
""fullscreenenter"",""1"",""4233""
","
","
","""event"",""trial"",""time""
""fullscreenenter"",""1"",""4233""
","
","true","false","[]","[]","[]","","","","","","","","","","","","","","","",""
"html-keyboard-response","7","31395","0.0-7.0","3856","1","16","Male","approach_avoid_spark_v1","""event"",""trial"",""time""
""fullscreenenter"",""1"",""4233""
","
","
","""event"",""trial"",""time""
""fullscreenenter"",""1"",""4233""
","
","","","","","","2020.3000000715256","Welcome to the experiment. Press any key to begin and to advance the instructions."," ","","","","","","","","","","","","",""
"learning-instructions","8","41444","0.0-8.0-0.0-0.0","3856","1","16","Male","approach_avoid_spark_v1","""event"",""trial"",""time""
""fullscreenenter"",""1"",""4233""
","
","
","""event"",""trial"",""time""
""fullscreenenter"",""1"",""4233""
","
","","","","","","3095","<p> Welcome! Today you are going to play 6 different rounds of a decision-making game. </p><p> Use the mouse to click next to continue. </p>","","0","instructions","","","","","","","","","","",""
"learning-instructions","9","46521","0.0-8.0-0.0-0.1","3856","1","16","Male","approach_avoid_spark_v1","""event"",""trial"",""time""
""fullscreenenter"",""1"",""4233""
","
","
","""event"",""trial"",""time""
""fullscreenenter"",""1"",""4233""
","
","","","","","","2347.899999976158","<p> You will start with a practice round to learn the rules. </p>","","0","instructions","","","","","","","","","","",""
"learning-instructions","10","53372","0.0-8.0-0.0-0.2","3856","1","16","Male","approach_avoid_spark_v1","""event"",""trial"",""time""
""fullscreenenter"",""1"",""4233""
","
","
","""event"",""trial"",""time""
""fullscreenenter"",""1"",""4233""
","
","","","","","","3396.100000023842","<p> Your goal in this round is to give out sports equipment to kids. </p></div>","","0","instructions","","","","","","","","","","",""
"learning-instructions","11","64836","0.0-8.0-0.0-0.3","3856","1","16","Male","approach_avoid_spark_v1","""event"",""trial"",""time""
""fullscreenenter"",""1"",""4233""
","
","
","""event"",""trial"",""time""
""fullscreenenter"",""1"",""4233""
","
","","","","","","3906.2999999523163","<p> The kids only like some of the equipment.  </p><p> On each turn, you will see a piece of sports equipment.   </p><p> You need to decide whether to give it to the kids or not.  </p>","","0","instructions","","","","","","","","","","",""
"learning-instructions","12","71729","0.0-8.0-0.0-0.4","3856","1","16","Male","approach_avoid_spark_v1","""event"",""trial"",""time""
""fullscreenenter"",""1"",""4233""
","
","
","""event"",""trial"",""time""
""fullscreenenter"",""1"",""4233""
","
","","","","","","2137.100000023842","<p> You can give them the equipment by pressing 1 and choose not to give it to them by pressing 0. </p><br><div class=""choice-instructions-grid""> <div class=""choice-option""><img src=""images/approach.png"" class=""choice-option-img"" stage=""instructions"" position=""0"" ><div class=""choice-option-text""> Press ""1."" </div></div><div class=""choice-option""><img src=""images/avoid.png"" class=""choice-option-img"" stage=""instructions"" position=""1"" ><div class=""choice-option-text""> Press ""0."" </div></div>","","0","instructions","","","","","","","","","","",""
"learning-instructions","13","79722","0.0-8.0-0.0-0.5","3856","1","16","Male","approach_avoid_spark_v1","""event"",""trial"",""time""
""fullscreenenter"",""1"",""4233""
","
","
","""event"",""trial"",""time""
""fullscreenenter"",""1"",""4233""
","
","","","","","","594.3000000715256","<p> If you give them a piece of equipment they like, they will be happy! </p><p> But if you give them a piece of equipment they do not like, they will be sad. </p>","","0","instructions","","","","","","","","","","",""
"learning-instructions","14","90800","0.0-8.0-0.0-0.6","3856","1","16","Male","approach_avoid_spark_v1","""event"",""trial"",""time""
""fullscreenenter"",""1"",""4233""
","
","
","""event"",""trial"",""time""
""fullscreenenter"",""1"",""4233""
","
","","","","","","548","<p> You will earn points based on how you make kids feel. </p><p> If you make them happy, you will WIN anywhere from 1 - 9 points, </p><p> but if you make them sad, you will LOSE anywhere from 1 - 9 points. </p>","","0","instructions","","","","","","","","","","",""
"learning-instructions","15","100981","0.0-8.0-0.0-0.7","3856","1","16","Male","approach_avoid_spark_v1","""event"",""trial"",""time""
""fullscreenenter"",""1"",""4233""
","
","
","""event"",""trial"",""time""
""fullscreenenter"",""1"",""4233""
","
","","","","","","627","<p> You will see how many points you won or lost in the center of the screen. </p><p> Here is what you would see if you won 6 points: </p><p style=""color:green;font-size:50px;font-weight:bolder"">6</p><p style=""color:green"">The text is GREEN because you WON points.</p>","","0","instructions","","","","","","","","","","",""
"learning-instructions","16","107139","0.0-8.0-0.0-0.8","3856","1","16","Male","approach_avoid_spark_v1","""event"",""trial"",""time""
""fullscreenenter"",""1"",""4233""
","
","
","""event"",""trial"",""time""
""fullscreenenter"",""1"",""4233""
","
","","","","","","640.3999999761581","<p> And here is what you would see if you lost 4 points: </p><p style=""color:red;font-size:50px;font-weight:bolder"">-4</p><p style=""color:red"">The text is RED because you LOST points. </p>","","0","instructions","","","","","","","","","","",""
"learning-instructions","17","122532","0.0-8.0-0.0-0.9","3856","1","16","Male","approach_avoid_spark_v1","""event"",""trial"",""time""
""fullscreenenter"",""1"",""4233""
","
","
","""event"",""trial"",""time""
""fullscreenenter"",""1"",""4233""
","
","","","","","","663.5","<p> Some of the equipment will make the kids VERY happy or sad. </p><p> These pieces of equipment will make you win or lose LOTS of points. </p><p> Other pieces of equipment will only make the kids a little happy or sad. </p><p> These pieces of equipment will make you win or lose small amounts of points. </p>","","0","instructions","","","","","","","","","","",""
"learning-instructions","18","133701","0.0-8.0-0.0-0.10","3856","1","16","Male","approach_avoid_spark_v1","""event"",""trial"",""time""
""fullscreenenter"",""1"",""4233""
","
","
","""event"",""trial"",""time""
""fullscreenenter"",""1"",""4233""
","
","","","","","","536.1000000238419","<p> If you choose not to give them the equipment, you will not win or lose any points. </p><p>  However, in the center of the screen, you will see the number of points you WOULD HAVE won or lost if you had given them the equipment. </p>","","0","instructions","","","","","","","","","","",""
"learning-instructions","19","155963","0.0-8.0-0.0-0.11","3856","1","16","Male","approach_avoid_spark_v1","""event"",""trial"",""time""
""fullscreenenter"",""1"",""4233""
","
","
","""event"",""trial"",""time""
""fullscreenenter"",""1"",""4233""
","
","","","","","","729.3999999761581","<p> Here is what you might see if you did not give the equipment to the kids but it would have made them happy: </p><p style=""color:grey; font-size:50px; display: inline-block; border-spacing: 15px; border-width:3px; border-style:solid; border-color:red"">  &nbsp; 7 &nbsp; </p><p> Remember, in this case, you would not win or lose ANY points because you did not give them the equipment.  </p><p style=""color:grey"">The text is GREY because you earned ZERO points. </p><p style=""color:red"">However, choosing to give the kids the equipment would have made you win points. The box around the text is RED because you chose the worse option. </p>","","0","instructions","","","","","","","","","","",""
"learning-instructions","20","177859","0.0-8.0-0.0-0.12","3856","1","16","Male","approach_avoid_spark_v1","""event"",""trial"",""time""
""fullscreenenter"",""1"",""4233""
","
","
","""event"",""trial"",""time""
""fullscreenenter"",""1"",""4233""
","
","","","","","","822.6000000238419","<p> Here is what you might see if you did not give the equipment to the kids but it would have made them sad: </p><p style=""color:grey;font-size:50px; display: inline-block; border-spacing: 15px; border-width:3px; border-style:solid; border-color:green"">  &nbsp; -8 &nbsp; </p><p> Remember, in this case, you would not win or lose ANY points because you did not give them the equipment.  </p><p style=""color:grey"">The text is GREY because you earned ZERO points. </p><p  style=""color:green""> Choosing to give the kids the equipment would have made you lose points. The box around the text is GREEN because you chose the better option.</p>","","0","instructions","","","","","","","","","","",""
"learning-instructions","21","188554","0.0-8.0-0.0-0.13","3856","1","16","Male","approach_avoid_spark_v1","""event"",""trial"",""time""
""fullscreenenter"",""1"",""4233""
","
","
","""event"",""trial"",""time""
""fullscreenenter"",""1"",""4233""
","
","","","","","","1693.0999999046326","<p> You will have 3 seconds to make each choice. Try to respond before time runs out! </p><p> You will lose 5 points each time you do not make a response. </p>","","0","instructions","","","","","","","","","","",""
"learning-instructions","22","195170","0.0-8.0-0.0-0.14","3856","1","16","Male","approach_avoid_spark_v1","""event"",""trial"",""time""
""fullscreenenter"",""1"",""4233""
","
","
","""event"",""trial"",""time""
""fullscreenenter"",""1"",""4233""
","
","","","","","","1193.3999999761581","<p> This is just a practice round, but in the real game, your bonus payment will depend on your total number of points.","","0","instructions","","","","","","","","","","",""
"learning-instructions","23","201515","0.0-8.0-0.0-0.15","3856","1","16","Male","approach_avoid_spark_v1","""event"",""trial"",""time""
""fullscreenenter"",""1"",""4233""
","
","
","""event"",""trial"",""time""
""fullscreenenter"",""1"",""4233""
","
","","","","","","573.6000000238419","<p> Remember, you can give them the equipment by pressing 1 and choose not to give it to them by pressing 0. </p><br><div class=""choice-instructions-grid""> <div class=""choice-option""><img src=""images/approach.png"" class=""choice-option-img"" stage=""instructions"" position=""0"" ><div class=""choice-option-text""> Press ""1."" </div></div><div class=""choice-option""><img src=""images/avoid.png"" class=""choice-option-img"" stage=""instructions"" position=""1"" ><div class=""choice-option-text""> Press ""0."" </div></div>","","0","instructions","","","","","","","","","","",""
"html-button-response","24","203979","0.0-8.0-1.0","3856","1","16","Male","approach_avoid_spark_v1","""event"",""trial"",""time""
""fullscreenenter"",""1"",""4233""
","
","
","""event"",""trial"",""time""
""fullscreenenter"",""1"",""4233""
","
","","","","","","2347.0999999046326","<p> Ready to practice? </p>","0","","","","","","","","","","","","",""
"html-keyboard-response","25","204580","0.0-8.0-2.0-0.0","3856","1","16","Male","approach_avoid_spark_v1","""event"",""trial"",""time""
""fullscreenenter"",""1"",""4233""
","
","
","""event"",""trial"",""time""
""fullscreenenter"",""1"",""4233""
","
","","","","","","null","<div style=""font-size:60px;"">+</div>","null","","fixation","","","","","","","","","","",""
"aa-learning-trial","26","207596","0.0-8.0-2.0-1.0","3856","1","16","Male","approach_avoid_spark_v1","""event"",""trial"",""time""
""fullscreenenter"",""1"",""4233""
","
","
","""event"",""trial"",""time""
""fullscreenenter"",""1"",""4233""
","
","","","","","","1267.3999999761581","images/racket1.png","","","learning","-7","-7","1","1","practice","practice","practice","-1","","",""
"html-keyboard-response","27","208109","0.0-8.0-2.0-0.1","3856","1","16","Male","approach_avoid_spark_v1","""event"",""trial"",""time""
""fullscreenenter"",""1"",""4233""
","
","
","""event"",""trial"",""time""
""fullscreenenter"",""1"",""4233""
","
","","","","","","null","<div style=""font-size:60px;"">+</div>","null","","fixation","","","","","","","","","","",""
"aa-learning-trial","28","211123","0.0-8.0-2.0-1.1","3856","1","16","Male","approach_avoid_spark_v1","""event"",""trial"",""time""
""fullscreenenter"",""1"",""4233""
","
","
","""event"",""trial"",""time""
""fullscreenenter"",""1"",""4233""
","
","","","","","","553.7999999523163","images/ball2.png","","","learning","3","3","1","1","practice","practice","practice","-1","","",""
"html-keyboard-response","29","211632","0.0-8.0-2.0-0.2","3856","1","16","Male","approach_avoid_spark_v1","""event"",""trial"",""time""
""fullscreenenter"",""1"",""4233""
","
","
","""event"",""trial"",""time""
""fullscreenenter"",""1"",""4233""
","
","","","","","","null","<div style=""font-size:60px;"">+</div>","null","","fixation","","","","","","","","","","",""
"aa-learning-trial","30","214644","0.0-8.0-2.0-1.2","3856","1","16","Male","approach_avoid_spark_v1","""event"",""trial"",""time""
""fullscreenenter"",""1"",""4233""
","
","
","""event"",""trial"",""time""
""fullscreenenter"",""1"",""4233""
","
","","","","","","623.8000000715256","images/ball4.png","","","learning","5","5","1","1","practice","practice","practice","-1","","",""
"html-keyboard-response","31","215159","0.0-8.0-2.0-0.3","3856","1","16","Male","approach_avoid_spark_v1","""event"",""trial"",""time""
""fullscreenenter"",""1"",""4233""
","
","
","""event"",""trial"",""time""
""fullscreenenter"",""1"",""4233""
","
","","","","","","null","<div style=""font-size:60px;"">+</div>","null","","fixation","","","","","","","","","","",""
"aa-learning-trial","32","218171","0.0-8.0-2.0-1.3","3856","1","16","Male","approach_avoid_spark_v1","""event"",""trial"",""time""
""fullscreenenter"",""1"",""4233""
","
","
","""event"",""trial"",""time""
""fullscreenenter"",""1"",""4233""
","
","","","","","","697.8000000715256","images/racket4.png","","","learning","9","0","0","0","practice","practice","practice","-1","","",""
"html-keyboard-response","33","218692","0.0-8.0-2.0-0.4","3856","1","16","Male","approach_avoid_spark_v1","""event"",""trial"",""time""
""fullscreenenter"",""1"",""4233""
","
","
","""event"",""trial"",""time""
""fullscreenenter"",""1"",""4233""
","
","","","","","","null","<div style=""font-size:60px;"">+</div>","null","","fixation","","","","","","","","","","",""
"aa-learning-trial","34","221701","0.0-8.0-2.0-1.4","3856","1","16","Male","approach_avoid_spark_v1","""event"",""trial"",""time""
""fullscreenenter"",""1"",""4233""
","
","
","""event"",""trial"",""time""
""fullscreenenter"",""1"",""4233""
","
","","","","","","955.1000000238419","images/racket4.png","","","learning","6","0","0","0","practice","practice","practice","-1","","",""
"html-keyboard-response","35","222210","0.0-8.0-2.0-0.5","3856","1","16","Male","approach_avoid_spark_v1","""event"",""trial"",""time""
""fullscreenenter"",""1"",""4233""
","
","
","""event"",""trial"",""time""
""fullscreenenter"",""1"",""4233""
","
","","","","","","null","<div style=""font-size:60px;"">+</div>","null","","fixation","","","","","","","","","","",""
"aa-learning-trial","36","225220","0.0-8.0-2.0-1.5","3856","1","16","Male","approach_avoid_spark_v1","""event"",""trial"",""time""
""fullscreenenter"",""1"",""4233""
","
","
","""event"",""trial"",""time""
""fullscreenenter"",""1"",""4233""
","
","","","","","","580.0999999046326","images/ball1.png","","","learning","2","2","1","1","practice","practice","practice","-1","","",""
"html-keyboard-response","37","225740","0.0-8.0-2.0-0.6","3856","1","16","Male","approach_avoid_spark_v1","""event"",""trial"",""time""
""fullscreenenter"",""1"",""4233""
","
","
","""event"",""trial"",""time""
""fullscreenenter"",""1"",""4233""
","
","","","","","","null","<div style=""font-size:60px;"">+</div>","null","","fixation","","","","","","","","","","",""
"aa-learning-trial","38","228756","0.0-8.0-2.0-1.6","3856","1","16","Male","approach_avoid_spark_v1","""event"",""trial"",""time""
""fullscreenenter"",""1"",""4233""
","
","
","""event"",""trial"",""time""
""fullscreenenter"",""1"",""4233""
","
","","","","","","591.6999999284744","images/ball1.png","","","learning","4","4","1","1","practice","practice","practice","-1","","",""
"html-keyboard-response","39","229261","0.0-8.0-2.0-0.7","3856","1","16","Male","approach_avoid_spark_v1","""event"",""trial"",""time""
""fullscreenenter"",""1"",""4233""
","
","
","""event"",""trial"",""time""
""fullscreenenter"",""1"",""4233""
","
","","","","","","null","<div style=""font-size:60px;"">+</div>","null","","fixation","","","","","","","","","","",""
"aa-learning-trial","40","232269","0.0-8.0-2.0-1.7","3856","1","16","Male","approach_avoid_spark_v1","""event"",""trial"",""time""
""fullscreenenter"",""1"",""4233""
","
","
","""event"",""trial"",""time""
""fullscreenenter"",""1"",""4233""
","
","","","","","","550.1000000238419","images/racket1.png","","","learning","-8","0","0","0","practice","practice","practice","-1","","",""
"html-keyboard-response","41","232776","0.0-8.0-2.0-0.8","3856","1","16","Male","approach_avoid_spark_v1","""event"",""trial"",""time""
""fullscreenenter"",""1"",""4233""
","
","
","""event"",""trial"",""time""
""fullscreenenter"",""1"",""4233""
","
","","","","","","null","<div style=""font-size:60px;"">+</div>","null","","fixation","","","","","","","","","","",""
"aa-learning-trial","42","235781","0.0-8.0-2.0-1.8","3856","1","16","Male","approach_avoid_spark_v1","""event"",""trial"",""time""
""fullscreenenter"",""1"",""4233""
","
","
","""event"",""trial"",""time""
""fullscreenenter"",""1"",""4233""
","
","","","","","","548","images/ball4.png","","","learning","-2","-2","1","1","practice","practice","practice","-1","","",""
"html-keyboard-response","43","236284","0.0-8.0-2.0-0.9","3856","1","16","Male","approach_avoid_spark_v1","""event"",""trial"",""time""
""fullscreenenter"",""1"",""4233""
","
","
","""event"",""trial"",""time""
""fullscreenenter"",""1"",""4233""
","
","","","","","","null","<div style=""font-size:60px;"">+</div>","null","","fixation","","","","","","","","","","",""
"aa-learning-trial","44","239294","0.0-8.0-2.0-1.9","3856","1","16","Male","approach_avoid_spark_v1","""event"",""trial"",""time""
""fullscreenenter"",""1"",""4233""
","
","
","""event"",""trial"",""time""
""fullscreenenter"",""1"",""4233""
","
","","","","","","722.6000000238419","images/racket1.png","","","learning","-2","-2","1","1","practice","practice","practice","-1","","",""
"html-keyboard-response","45","239796","0.0-8.0-2.0-0.10","3856","1","16","Male","approach_avoid_spark_v1","""event"",""trial"",""time""
""fullscreenenter"",""1"",""4233""
","
","
","""event"",""trial"",""time""
""fullscreenenter"",""1"",""4233""
","
","","","","","","null","<div style=""font-size:60px;"">+</div>","null","","fixation","","","","","","","","","","",""
"aa-learning-trial","46","242804","0.0-8.0-2.0-1.10","3856","1","16","Male","approach_avoid_spark_v1","""event"",""trial"",""time""
""fullscreenenter"",""1"",""4233""
","
","
","""event"",""trial"",""time""
""fullscreenenter"",""1"",""4233""
","
","","","","","","943.4000000953674","images/racket4.png","","","learning","-9","0","0","0","practice","practice","practice","-1","","",""
"html-keyboard-response","47","243308","0.0-8.0-2.0-0.11","3856","1","16","Male","approach_avoid_spark_v1","""event"",""trial"",""time""
""fullscreenenter"",""1"",""4233""
","
","
","""event"",""trial"",""time""
""fullscreenenter"",""1"",""4233""
","
","","","","","","null","<div style=""font-size:60px;"">+</div>","null","","fixation","","","","","","","","","","",""
"aa-learning-trial","48","246316","0.0-8.0-2.0-1.11","3856","1","16","Male","approach_avoid_spark_v1","""event"",""trial"",""time""
""fullscreenenter"",""1"",""4233""
","
","
","""event"",""trial"",""time""
""fullscreenenter"",""1"",""4233""
","
","","","","","","595.5","images/racket3.png","","","learning","7","0","0","0","practice","practice","practice","-1","","",""
"html-button-response","49","248846","0.0-8.0-3.0","3856","1","16","Male","approach_avoid_spark_v1","""event"",""trial"",""time""
""fullscreenenter"",""1"",""4233""
","
","
","""event"",""trial"",""time""
""fullscreenenter"",""1"",""4233""
","
","","","","","","2526.7999999523163","<p> You earned 3 points in the practice round! </p>","0","","break","","","","","","","","","","",""
"learning-instructions","50","257250","0.0-8.0-4.0-0.0","3856","1","16","Male","approach_avoid_spark_v1","""event"",""trial"",""time""
""fullscreenenter"",""1"",""4233""
","
","
","""event"",""trial"",""time""
""fullscreenenter"",""1"",""4233""
","
","","","","","","2449.5","<p> It's almost time to start the real game. </p><p> Before you start, we're going to ask you a few questions about how the game works. </p>","","0","instructions","","","","","","","","","","",""
"preload","51","258919","0.0-8.0-5.0","3856","1","16","Male","approach_avoid_spark_v1","""event"",""trial"",""time""
""fullscreenenter"",""1"",""4233""
","
","
","""event"",""trial"",""time""
""fullscreenenter"",""1"",""4233""
","
","true","false","[]","[]","[]","","","","","","","","","","","","","","","",""
"comp-q","52","265631","0.0-8.0-6.0-0.0","3856","1","16","Male","approach_avoid_spark_v1","""event"",""trial"",""time""
""fullscreenenter"",""1"",""4233""
","
","
","""event"",""trial"",""time""
""fullscreenenter"",""1"",""4233""
","
","","","","","","1709.3000000715256","<p> <b> True or False? </b> </p><p> If you see a number in GREY, that means you earned that many points. </p>","","0","comp_question","","","","","","","","","false","",""
"comp-q","53","276278","0.0-8.0-6.0-1.0","3856","1","16","Male","approach_avoid_spark_v1","""event"",""trial"",""time""
""fullscreenenter"",""1"",""4233""
","
","
","""event"",""trial"",""time""
""fullscreenenter"",""1"",""4233""
","
","","","","","","1840","<p><b> Incorrect. </b> If you see a grey number, it means you earned ZERO points. <br> The grey numbers show the points you WOULD HAVE earned if you had made the other choice. </p>","","0","comp_answer","","","","","","","","","","",""
"comp-q","54","282297","0.0-8.0-6.1-0.1","3856","1","16","Male","approach_avoid_spark_v1","""event"",""trial"",""time""
""fullscreenenter"",""1"",""4233""
","
","
","""event"",""trial"",""time""
""fullscreenenter"",""1"",""4233""
","
","","","","","","914.6000000238419","<p> <b> True or False? </b> </p><p> If you see a number in GREY, that means you earned that many points. </p>","","1","comp_question","","","","","","","","","true","",""
"comp-q","55","291840","0.0-8.0-6.1-1.1","3856","1","16","Male","approach_avoid_spark_v1","""event"",""trial"",""time""
""fullscreenenter"",""1"",""4233""
","
","
","""event"",""trial"",""time""
""fullscreenenter"",""1"",""4233""
","
","","","","","","1188.6999999284744","<p><b> That's right! </b> If you see a grey number, it means you earned ZERO points. <br> The grey numbers show the points you WOULD HAVE earned if you had made the other choice. </p>","","0","comp_answer","","","","","","","","","","",""
"comp-q","56","297395","0.0-8.0-7.0-0.0","3856","1","16","Male","approach_avoid_spark_v1","""event"",""trial"",""time""
""fullscreenenter"",""1"",""4233""
","
","
","""event"",""trial"",""time""
""fullscreenenter"",""1"",""4233""
","
","","","","","","855.6000000238419","<p> <b> True or False? </b> </p><p> You will have as much time as you want to make each choice. </p>","","1","comp_question","","","","","","","","","true","",""
"comp-q","57","303017","0.0-8.0-7.0-1.0","3856","1","16","Male","approach_avoid_spark_v1","""event"",""trial"",""time""
""fullscreenenter"",""1"",""4233""
","
","
","""event"",""trial"",""time""
""fullscreenenter"",""1"",""4233""
","
","","","","","","1581.6000000238419","<p> <b> That's right! </b> You will only have 3 seconds to make each choice. </p>","","0","comp_answer","","","","","","","","","","",""
"comp-q","58","308283","0.0-8.0-8.0-0.0","3856","1","16","Male","approach_avoid_spark_v1","""event"",""trial"",""time""
""fullscreenenter"",""1"",""4233""
","
","
","""event"",""trial"",""time""
""fullscreenenter"",""1"",""4233""
","
","","","","","","596.8000000715256","<p> <b> True or False? </b> </p><p> You should use the '1' and '0' keys to make your choices. </p>","","0","comp_question","","","","","","","","","true","",""
"comp-q","59","314371","0.0-8.0-8.0-1.0","3856","1","16","Male","approach_avoid_spark_v1","""event"",""trial"",""time""
""fullscreenenter"",""1"",""4233""
","
","
","""event"",""trial"",""time""
""fullscreenenter"",""1"",""4233""
","
","","","","","","1468.8000000715256","<p> <b> That's right! </b> You should use the '1' and '0' keys to make each choice. </p>","","0","comp_answer","","","","","","","","","","",""
"learning-instructions","60","323777","0.0-8.0-9.0-0.0","3856","1","16","Male","approach_avoid_spark_v1","""event"",""trial"",""time""
""fullscreenenter"",""1"",""4233""
","
","
","""event"",""trial"",""time""
""fullscreenenter"",""1"",""4233""
","
","","","","","","3131","<p> It's now time to start the real game. </p>Do your best, because the points you earn in the next rounds will influence your bonus payment. </p>","","0","instructions","","","","","","","","","","",""
"preload","61","323918","0.0-9.0-0.0","3856","1","16","Male","approach_avoid_spark_v1","""event"",""trial"",""time""
""fullscreenenter"",""1"",""4233""
","
","
","""event"",""trial"",""time""
""fullscreenenter"",""1"",""4233""
","
","true","false","[]","[]","[]","","","","","","","","","","","","","","","",""
"learning-instructions","62","329360","0.0-9.0-1.0-0.0","3856","1","16","Male","approach_avoid_spark_v1","""event"",""trial"",""time""
""fullscreenenter"",""1"",""4233""
","
","
","""event"",""trial"",""time""
""fullscreenenter"",""1"",""4233""
","
","","","","","","1674.6000000238419","<p> Your goal in this round is to take care of lots of animals. </p></div>","","0","instructions","","","","","","","","","","",""
"learning-instructions","63","340563","0.0-9.0-1.0-0.1","3856","1","16","Male","approach_avoid_spark_v1","""event"",""trial"",""time""
""fullscreenenter"",""1"",""4233""
","
","
","""event"",""trial"",""time""
""fullscreenenter"",""1"",""4233""
","
","","","","","","1847.3999999761581","<p> Some animals want to be pet, while other animals want to be left alone.  </p><p> On each turn, you will see an animal.   </p><p> You need to decide whether to pet it or not.  </p>","","0","instructions","","","","","","","","","","",""
"learning-instructions","64","348681","0.0-9.0-1.0-0.2","3856","1","16","Male","approach_avoid_spark_v1","""event"",""trial"",""time""
""fullscreenenter"",""1"",""4233""
","
","
","""event"",""trial"",""time""
""fullscreenenter"",""1"",""4233""
","
","","","","","","3116.600000023842","<p> You can pet the animal by pressing 1 and leave the animal alone by pressing 0. </p><br><div class=""choice-instructions-grid""> <div class=""choice-option""><img src=""images/approach.png"" class=""choice-option-img"" stage=""instructions"" position=""0"" ><div class=""choice-option-text""> Press ""1."" </div></div><div class=""choice-option""><img src=""images/avoid.png"" class=""choice-option-img"" stage=""instructions"" position=""1"" ><div class=""choice-option-text""> Press ""0."" </div></div>","","0","instructions","","","","","","","","","","",""
"learning-instructions","65","360337","0.0-9.0-1.0-0.3","3856","1","16","Male","approach_avoid_spark_v1","""event"",""trial"",""time""
""fullscreenenter"",""1"",""4233""
","
","
","""event"",""trial"",""time""
""fullscreenenter"",""1"",""4233""
","
","","","","","","2773.2999999523163","<p> If you pet an animal that wants to be pet, you will make it feel happy! </p><p> But if you pet an animal that wants to be left alone, you will make it feel angry. </p>","","0","instructions","","","","","","","","","","",""
"learning-instructions","66","376714","0.0-9.0-1.0-0.4","3856","1","16","Male","approach_avoid_spark_v1","""event"",""trial"",""time""
""fullscreenenter"",""1"",""4233""
","
","
","""event"",""trial"",""time""
""fullscreenenter"",""1"",""4233""
","
","","","","","","4269.700000047684","<p> You will earn points based on how you made the animal feel. </p><p> If you made it feel happy, you will WIN anywhere from 1 - 9 points, </p><p> but if you made it feel angry, you will LOSE anywhere from 1 - 9 points. </p>","","0","instructions","","","","","","","","","","",""
"learning-instructions","67","385409","0.0-9.0-1.0-0.5","3856","1","16","Male","approach_avoid_spark_v1","""event"",""trial"",""time""
""fullscreenenter"",""1"",""4233""
","
","
","""event"",""trial"",""time""
""fullscreenenter"",""1"",""4233""
","
","","","","","","1295.2999999523163","<p> You will see how many points you won or lost in the center of the screen. </p><p> Here is what you would see if you won 5 points: </p><p style=""color:green;font-size:50px;font-weight:bolder"">5</p>","","0","instructions","","","","","","","","","","",""
"learning-instructions","68","389346","0.0-9.0-1.0-0.6","3856","1","16","Male","approach_avoid_spark_v1","""event"",""trial"",""time""
""fullscreenenter"",""1"",""4233""
","
","
","""event"",""trial"",""time""
""fullscreenenter"",""1"",""4233""
","
","","","","","","592.5","<p> And here is what you would see if you lost 3 points: </p><p style=""color:red;font-size:50px;font-weight:bolder"">-3</p>","","0","instructions","","","","","","","","","","",""
"learning-instructions","69","403413","0.0-9.0-1.0-0.7","3856","1","16","Male","approach_avoid_spark_v1","""event"",""trial"",""time""
""fullscreenenter"",""1"",""4233""
","
","
","""event"",""trial"",""time""
""fullscreenenter"",""1"",""4233""
","
","","","","","","526.7000000476837","<p> Some animals will become very happy or very angry. </p><p> These animals will make you win or lose LOTS of points. </p><p> Other animals have less strong feelings. </p><p> These animals will make you win or lose small amounts of points. </p>","","0","instructions","","","","","","","","","","",""
"learning-instructions","70","415065","0.0-9.0-1.0-0.8","3856","1","16","Male","approach_avoid_spark_v1","""event"",""trial"",""time""
""fullscreenenter"",""1"",""4233""
","
","
","""event"",""trial"",""time""
""fullscreenenter"",""1"",""4233""
","
","","","","","","690.8000000715256","<p> If you choose to leave the animal alone, you will not win or lose any points. </p><p>  However, in the center of the screen, you will see the number of points you WOULD HAVE won or lost if you had pet the animal. </p>","","0","instructions","","","","","","","","","","",""
"learning-instructions","71","427035","0.0-9.0-1.0-0.9","3856","1","16","Male","approach_avoid_spark_v1","""event"",""trial"",""time""
""fullscreenenter"",""1"",""4233""
","
","
","""event"",""trial"",""time""
""fullscreenenter"",""1"",""4233""
","
","","","","","","596.2000000476837","<p> Here is what you might see if you did not pet the animal but the animal wanted to be pet: </p><p style=""color:grey; font-size:50px; display: inline-block; border-spacing: 15px; border-width:3px; border-style:solid; border-color:red"">  &nbsp; 6 &nbsp; </p><p> Remember, in this case, you would not win or lose ANY points because you did not pet the animal.  </p>","","0","instructions","","","","","","","","","","",""
"learning-instructions","72","434682","0.0-9.0-1.0-0.10","3856","1","16","Male","approach_avoid_spark_v1","""event"",""trial"",""time""
""fullscreenenter"",""1"",""4233""
","
","
","""event"",""trial"",""time""
""fullscreenenter"",""1"",""4233""
","
","","","","","","659.3999999761581","<p> Try to make the best choice for each animal because </p><p> at the end of the game, you will earn bonus money based on how many points you earned. </p>","","0","instructions","","","","","","","","","","",""
"learning-instructions","73","444287","0.0-9.0-1.0-0.11","3856","1","16","Male","approach_avoid_spark_v1","""event"",""trial"",""time""
""fullscreenenter"",""1"",""4233""
","
","
","""event"",""trial"",""time""
""fullscreenenter"",""1"",""4233""
","
","","","","","","1410.1000000238419","<p> You will have 3 seconds to make each choice. Try to respond before time runs out! </p><p> You will lose 5 points each time you do not make a response. </p>","","0","instructions","","","","","","","","","","",""
"html-keyboard-response","74","444915","0.0-9.0-2.0-0.0","3856","1","16","Male","approach_avoid_spark_v1","""event"",""trial"",""time""
""fullscreenenter"",""1"",""4233""
","
","
","""event"",""trial"",""time""
""fullscreenenter"",""1"",""4233""
","
","","","","","","null","<div style=""font-size:60px;"">+</div>","null","","fixation","","","","","","","","","","",""
"aa-learning-trial","75","447929","0.0-9.0-2.0-1.0","3856","1","16","Male","approach_avoid_spark_v1","""event"",""trial"",""time""
""fullscreenenter"",""1"",""4233""
","
","
","""event"",""trial"",""time""
""fullscreenenter"",""1"",""4233""
","
","","","","","","1878.3999999761581","images/rabbit3.png","","","learning","-4","-4","1","1","rabbit","pets","1","0","","bad","[-4]"
"html-keyboard-response","76","448445","0.0-9.0-2.0-0.1","3856","1","16","Male","approach_avoid_spark_v1","""event"",""trial"",""time""
""fullscreenenter"",""1"",""4233""
","
","
","""event"",""trial"",""time""
""fullscreenenter"",""1"",""4233""
","
","","","","","","null","<div style=""font-size:60px;"">+</div>","null","","fixation","","","","","","","","","","",""
"aa-learning-trial","77","451467","0.0-9.0-2.0-1.1","3856","1","16","Male","approach_avoid_spark_v1","""event"",""trial"",""time""
""fullscreenenter"",""1"",""4233""
","
","
","""event"",""trial"",""time""
""fullscreenenter"",""1"",""4233""
","
","","","","","","464.89999997615814","images/dog6.png","","","learning","8","8","1","1","dog","pets","1","0","","good","[6]"
"html-keyboard-response","78","451979","0.0-9.0-2.0-0.2","3856","1","16","Male","approach_avoid_spark_v1","""event"",""trial"",""time""
""fullscreenenter"",""1"",""4233""
","
","
","""event"",""trial"",""time""
""fullscreenenter"",""1"",""4233""
","
","","","","","","null","<div style=""font-size:60px;"">+</div>","null","","fixation","","","","","","","","","","",""
"aa-learning-trial","79","455004","0.0-9.0-2.0-1.2","3856","1","16","Male","approach_avoid_spark_v1","""event"",""trial"",""time""
""fullscreenenter"",""1"",""4233""
","
","
","""event"",""trial"",""time""
""fullscreenenter"",""1"",""4233""
","
","","","","","","686.6000000238419","images/cat5.png","","","learning","5","0","0","0","cat","pets","1","0","","neutral","0"
"html-keyboard-response","80","455509","0.0-9.0-2.0-0.3","3856","1","16","Male","approach_avoid_spark_v1","""event"",""trial"",""time""
""fullscreenenter"",""1"",""4233""
","
","
","""event"",""trial"",""time""
""fullscreenenter"",""1"",""4233""
","
","","","","","","null","<div style=""font-size:60px;"">+</div>","null","","fixation","","","","","","","","","","",""
"aa-learning-trial","81","458524","0.0-9.0-2.0-1.3","3856","1","16","Male","approach_avoid_spark_v1","""event"",""trial"",""time""
""fullscreenenter"",""1"",""4233""
","
","
","""event"",""trial"",""time""
""fullscreenenter"",""1"",""4233""
","
","","","","","","1368.9000000953674","images/cat7.png","","","learning","[-1]","-1","1","1","cat","pets","1","0","","neutral","0"
"html-keyboard-response","82","459030","0.0-9.0-2.0-0.4","3856","1","16","Male","approach_avoid_spark_v1","""event"",""trial"",""time""
""fullscreenenter"",""1"",""4233""
","
","
","""event"",""trial"",""time""
""fullscreenenter"",""1"",""4233""
","
","","","","","","null","<div style=""font-size:60px;"">+</div>","null","","fixation","","","","","","","","","","",""
"aa-learning-trial","83","462052","0.0-9.0-2.0-1.4","3856","1","16","Male","approach_avoid_spark_v1","""event"",""trial"",""time""
""fullscreenenter"",""1"",""4233""
","
","
","""event"",""trial"",""time""
""fullscreenenter"",""1"",""4233""
","
","","","","","","632.0999999046326","images/rabbit6.png","","","learning","-4","-4","1","1","rabbit","pets","1","0","","bad","[-4]"
"html-keyboard-response","84","462563","0.0-9.0-2.0-0.5","3856","1","16","Male","approach_avoid_spark_v1","""event"",""trial"",""time""
""fullscreenenter"",""1"",""4233""
","
","
","""event"",""trial"",""time""
""fullscreenenter"",""1"",""4233""
","
","","","","","","null","<div style=""font-size:60px;"">+</div>","null","","fixation","","","","","","","","","","",""
"aa-learning-trial","85","465568","0.0-9.0-2.0-1.5","3856","1","16","Male","approach_avoid_spark_v1","""event"",""trial"",""time""
""fullscreenenter"",""1"",""4233""
","
","
","""event"",""trial"",""time""
""fullscreenenter"",""1"",""4233""
","
","","","","","","1106.3000000715256","images/cat2.png","","","learning","2","2","1","1","cat","pets","1","0","","neutral","0"
"html-keyboard-response","86","466081","0.0-9.0-2.0-0.6","3856","1","16","Male","approach_avoid_spark_v1","""event"",""trial"",""time""
""fullscreenenter"",""1"",""4233""
","
","
","""event"",""trial"",""time""
""fullscreenenter"",""1"",""4233""
","
","","","","","","null","<div style=""font-size:60px;"">+</div>","null","","fixation","","","","","","","","","","",""
"aa-learning-trial","87","469095","0.0-9.0-2.0-1.6","3856","1","16","Male","approach_avoid_spark_v1","""event"",""trial"",""time""
""fullscreenenter"",""1"",""4233""
","
","
","""event"",""trial"",""time""
""fullscreenenter"",""1"",""4233""
","
","","","","","","558.2000000476837","images/dog1.png","","","learning","8","8","1","1","dog","pets","1","0","","good","[6]"
"html-keyboard-response","88","469598","0.0-9.0-2.0-0.7","3856","1","16","Male","approach_avoid_spark_v1","""event"",""trial"",""time""
""fullscreenenter"",""1"",""4233""
","
","
","""event"",""trial"",""time""
""fullscreenenter"",""1"",""4233""
","
","","","","","","null","<div style=""font-size:60px;"">+</div>","null","","fixation","","","","","","","","","","",""
"aa-learning-trial","89","472614","0.0-9.0-2.0-1.7","3856","1","16","Male","approach_avoid_spark_v1","""event"",""trial"",""time""
""fullscreenenter"",""1"",""4233""
","
","
","""event"",""trial"",""time""
""fullscreenenter"",""1"",""4233""
","
","","","","","","669.2000000476837","images/rabbit6.png","","","learning","-5","0","0","0","rabbit","pets","1","0","","bad","[-4]"
"html-keyboard-response","90","473118","0.0-9.0-2.0-0.8","3856","1","16","Male","approach_avoid_spark_v1","""event"",""trial"",""time""
""fullscreenenter"",""1"",""4233""
","
","
","""event"",""trial"",""time""
""fullscreenenter"",""1"",""4233""
","
","","","","","","null","<div style=""font-size:60px;"">+</div>","null","","fixation","","","","","","","","","","",""
"aa-learning-trial","91","476126","0.0-9.0-2.0-1.8","3856","1","16","Male","approach_avoid_spark_v1","""event"",""trial"",""time""
""fullscreenenter"",""1"",""4233""
","
","
","""event"",""trial"",""time""
""fullscreenenter"",""1"",""4233""
","
","","","","","","892.5","images/dog3.png","","","learning","5","5","1","1","dog","pets","1","0","","good","[6]"
"html-keyboard-response","92","476628","0.0-9.0-2.0-0.9","3856","1","16","Male","approach_avoid_spark_v1","""event"",""trial"",""time""
""fullscreenenter"",""1"",""4233""
","
","
","""event"",""trial"",""time""
""fullscreenenter"",""1"",""4233""
","
","","","","","","null","<div style=""font-size:60px;"">+</div>","null","","fixation","","","","","","","","","","",""
"aa-learning-trial","93","479637","0.0-9.0-2.0-1.9","3856","1","16","Male","approach_avoid_spark_v1","""event"",""trial"",""time""
""fullscreenenter"",""1"",""4233""
","
","
","""event"",""trial"",""time""
""fullscreenenter"",""1"",""4233""
","
","","","","","","1152.7000000476837","images/dog1.png","","","learning","4","4","1","1","dog","pets","1","0","","good","[6]"
"html-keyboard-response","94","480141","0.0-9.0-2.0-0.10","3856","1","16","Male","approach_avoid_spark_v1","""event"",""trial"",""time""
""fullscreenenter"",""1"",""4233""
","
","
","""event"",""trial"",""time""
""fullscreenenter"",""1"",""4233""
","
","","","","","","null","<div style=""font-size:60px;"">+</div>","null","","fixation","","","","","","","","","","",""
"aa-learning-trial","95","483149","0.0-9.0-2.0-1.10","3856","1","16","Male","approach_avoid_spark_v1","""event"",""trial"",""time""
""fullscreenenter"",""1"",""4233""
","
","
","""event"",""trial"",""time""
""fullscreenenter"",""1"",""4233""
","
","","","","","","870","images/cat7.png","","","learning","3","0","0","0","cat","pets","1","0","","neutral","0"
"html-keyboard-response","96","483653","0.0-9.0-2.0-0.11","3856","1","16","Male","approach_avoid_spark_v1","""event"",""trial"",""time""
""fullscreenenter"",""1"",""4233""
","
","
","""event"",""trial"",""time""
""fullscreenenter"",""1"",""4233""
","
","","","","","","null","<div style=""font-size:60px;"">+</div>","null","","fixation","","","","","","","","","","",""
"aa-learning-trial","97","486661","0.0-9.0-2.0-1.11","3856","1","16","Male","approach_avoid_spark_v1","""event"",""trial"",""time""
""fullscreenenter"",""1"",""4233""
","
","
","""event"",""trial"",""time""
""fullscreenenter"",""1"",""4233""
","
","","","","","","819.5","images/dog3.png","","","learning","6","6","1","1","dog","pets","1","0","","good","[6]"
"html-keyboard-response","98","487180","0.0-9.0-2.0-0.12","3856","1","16","Male","approach_avoid_spark_v1","""event"",""trial"",""time""
""fullscreenenter"",""1"",""4233""
","
","
","""event"",""trial"",""time""
""fullscreenenter"",""1"",""4233""
","
","","","","","","null","<div style=""font-size:60px;"">+</div>","null","","fixation","","","","","","","","","","",""
"aa-learning-trial","99","490189","0.0-9.0-2.0-1.12","3856","1","16","Male","approach_avoid_spark_v1","""event"",""trial"",""time""
""fullscreenenter"",""1"",""4233""
","
","
","""event"",""trial"",""time""
""fullscreenenter"",""1"",""4233""
","
","","","","","","686.3999999761581","images/rabbit8.png","","","learning","-5","0","0","0","rabbit","pets","1","0","","bad","[-4]"
"html-keyboard-response","100","490692","0.0-9.0-2.0-0.13","3856","1","16","Male","approach_avoid_spark_v1","""event"",""trial"",""time""
""fullscreenenter"",""1"",""4233""
","
","
","""event"",""trial"",""time""
""fullscreenenter"",""1"",""4233""
","
","","","","","","null","<div style=""font-size:60px;"">+</div>","null","","fixation","","","","","","","","","","",""
"aa-learning-trial","101","493701","0.0-9.0-2.0-1.13","3856","1","16","Male","approach_avoid_spark_v1","""event"",""trial"",""time""
""fullscreenenter"",""1"",""4233""
","
","
","""event"",""trial"",""time""
""fullscreenenter"",""1"",""4233""
","
","","","","","","888","images/cat5.png","","","learning","2","0","0","0","cat","pets","1","0","","neutral","0"
"html-keyboard-response","102","494205","0.0-9.0-2.0-0.14","3856","1","16","Male","approach_avoid_spark_v1","""event"",""trial"",""time""
""fullscreenenter"",""1"",""4233""
","
","
","""event"",""trial"",""time""
""fullscreenenter"",""1"",""4233""
","
","","","","","","null","<div style=""font-size:60px;"">+</div>","null","","fixation","","","","","","","","","","",""
"aa-learning-trial","103","497213","0.0-9.0-2.0-1.14","3856","1","16","Male","approach_avoid_spark_v1","""event"",""trial"",""time""
""fullscreenenter"",""1"",""4233""
","
","
","""event"",""trial"",""time""
""fullscreenenter"",""1"",""4233""
","
","","","","","","634","images/rabbit3.png","","","learning","-4","-4","1","1","rabbit","pets","1","0","","bad","[-4]"
"html-keyboard-response","104","497718","0.0-9.0-2.0-0.15","3856","1","16","Male","approach_avoid_spark_v1","""event"",""trial"",""time""
""fullscreenenter"",""1"",""4233""
","
","
","""event"",""trial"",""time""
""fullscreenenter"",""1"",""4233""
","
","","","","","","null","<div style=""font-size:60px;"">+</div>","null","","fixation","","","","","","","","","","",""
"aa-learning-trial","105","500725","0.0-9.0-2.0-1.15","3856","1","16","Male","approach_avoid_spark_v1","""event"",""trial"",""time""
""fullscreenenter"",""1"",""4233""
","
","
","""event"",""trial"",""time""
""fullscreenenter"",""1"",""4233""
","
","","","","","","617.1000000238419","images/dog1.png","","","learning","8","8","1","1","dog","pets","1","0","","good","[6]"
"html-keyboard-response","106","501233","0.0-9.0-2.0-0.16","3856","1","16","Male","approach_avoid_spark_v1","""event"",""trial"",""time""
""fullscreenenter"",""1"",""4233""
","
","
","""event"",""trial"",""time""
""fullscreenenter"",""1"",""4233""
","
","","","","","","null","<div style=""font-size:60px;"">+</div>","null","","fixation","","","","","","","","","","",""
"aa-learning-trial","107","504237","0.0-9.0-2.0-1.16","3856","1","16","Male","approach_avoid_spark_v1","""event"",""trial"",""time""
""fullscreenenter"",""1"",""4233""
","
","
","""event"",""trial"",""time""
""fullscreenenter"",""1"",""4233""
","
","","","","","","1293","images/cat7.png","","","learning","[1]","0","0","0","cat","pets","1","0","","neutral","0"
"html-keyboard-response","108","504741","0.0-9.0-2.0-0.17","3856","1","16","Male","approach_avoid_spark_v1","""event"",""trial"",""time""
""fullscreenenter"",""1"",""4233""
","
","
","""event"",""trial"",""time""
""fullscreenenter"",""1"",""4233""
","
","","","","","","null","<div style=""font-size:60px;"">+</div>","null","","fixation","","","","","","","","","","",""
"aa-learning-trial","109","507749","0.0-9.0-2.0-1.17","3856","1","16","Male","approach_avoid_spark_v1","""event"",""trial"",""time""
""fullscreenenter"",""1"",""4233""
","
","
","""event"",""trial"",""time""
""fullscreenenter"",""1"",""4233""
","
","","","","","","1198.7000000476837","images/rabbit6.png","","","learning","-4","0","0","0","rabbit","pets","1","0","","bad","[-4]"
"html-keyboard-response","110","508253","0.0-9.0-2.0-0.18","3856","1","16","Male","approach_avoid_spark_v1","""event"",""trial"",""time""
""fullscreenenter"",""1"",""4233""
","
","
","""event"",""trial"",""time""
""fullscreenenter"",""1"",""4233""
","
","","","","","","null","<div style=""font-size:60px;"">+</div>","null","","fixation","","","","","","","","","","",""
"aa-learning-trial","111","511262","0.0-9.0-2.0-1.18","3856","1","16","Male","approach_avoid_spark_v1","""event"",""trial"",""time""
""fullscreenenter"",""1"",""4233""
","
","
","""event"",""trial"",""time""
""fullscreenenter"",""1"",""4233""
","
","","","","","","710.8000000715256","images/rabbit3.png","","","learning","-7","0","0","0","rabbit","pets","1","0","","bad","[-4]"
"html-keyboard-response","112","511764","0.0-9.0-2.0-0.19","3856","1","16","Male","approach_avoid_spark_v1","""event"",""trial"",""time""
""fullscreenenter"",""1"",""4233""
","
","
","""event"",""trial"",""time""
""fullscreenenter"",""1"",""4233""
","
","","","","","","null","<div style=""font-size:60px;"">+</div>","null","","fixation","","","","","","","","","","",""
"aa-learning-trial","113","514773","0.0-9.0-2.0-1.19","3856","1","16","Male","approach_avoid_spark_v1","""event"",""trial"",""time""
""fullscreenenter"",""1"",""4233""
","
","
","""event"",""trial"",""time""
""fullscreenenter"",""1"",""4233""
","
","","","","","","557","images/dog1.png","","","learning","5","5","1","1","dog","pets","1","0","","good","[6]"
"html-keyboard-response","114","515276","0.0-9.0-2.0-0.20","3856","1","16","Male","approach_avoid_spark_v1","""event"",""trial"",""time""
""fullscreenenter"",""1"",""4233""
","
","
","""event"",""trial"",""time""
""fullscreenenter"",""1"",""4233""
","
","","","","","","null","<div style=""font-size:60px;"">+</div>","null","","fixation","","","","","","","","","","",""
"aa-learning-trial","115","518284","0.0-9.0-2.0-1.20","3856","1","16","Male","approach_avoid_spark_v1","""event"",""trial"",""time""
""fullscreenenter"",""1"",""4233""
","
","
","""event"",""trial"",""time""
""fullscreenenter"",""1"",""4233""
","
","","","","","","1013.0999999046326","images/rabbit7.png","","","learning","-4","-4","1","1","rabbit","pets","1","0","","bad","[-4]"
"html-keyboard-response","116","518790","0.0-9.0-2.0-0.21","3856","1","16","Male","approach_avoid_spark_v1","""event"",""trial"",""time""
""fullscreenenter"",""1"",""4233""
","
","
","""event"",""trial"",""time""
""fullscreenenter"",""1"",""4233""
","
","","","","","","null","<div style=""font-size:60px;"">+</div>","null","","fixation","","","","","","","","","","",""
"aa-learning-trial","117","521797","0.0-9.0-2.0-1.21","3856","1","16","Male","approach_avoid_spark_v1","""event"",""trial"",""time""
""fullscreenenter"",""1"",""4233""
","
","
","""event"",""trial"",""time""
""fullscreenenter"",""1"",""4233""
","
","","","","","","652.7999999523163","images/rabbit6.png","","","learning","-5","-5","1","1","rabbit","pets","1","0","","bad","[-4]"
"html-keyboard-response","118","522302","0.0-9.0-2.0-0.22","3856","1","16","Male","approach_avoid_spark_v1","""event"",""trial"",""time""
""fullscreenenter"",""1"",""4233""
","
","
","""event"",""trial"",""time""
""fullscreenenter"",""1"",""4233""
","
","","","","","","null","<div style=""font-size:60px;"">+</div>","null","","fixation","","","","","","","","","","",""
"aa-learning-trial","119","525320","0.0-9.0-2.0-1.22","3856","1","16","Male","approach_avoid_spark_v1","""event"",""trial"",""time""
""fullscreenenter"",""1"",""4233""
","
","
","""event"",""trial"",""time""
""fullscreenenter"",""1"",""4233""
","
","","","","","","463.10000002384186","images/cat5.png","","","learning","-2","-2","1","1","cat","pets","1","0","","neutral","0"
"html-keyboard-response","120","525829","0.0-9.0-2.0-0.23","3856","1","16","Male","approach_avoid_spark_v1","""event"",""trial"",""time""
""fullscreenenter"",""1"",""4233""
","
","
","""event"",""trial"",""time""
""fullscreenenter"",""1"",""4233""
","
","","","","","","null","<div style=""font-size:60px;"">+</div>","null","","fixation","","","","","","","","","","",""
"aa-learning-trial","121","528837","0.0-9.0-2.0-1.23","3856","1","16","Male","approach_avoid_spark_v1","""event"",""trial"",""time""
""fullscreenenter"",""1"",""4233""
","
","
","""event"",""trial"",""time""
""fullscreenenter"",""1"",""4233""
","
","","","","","","744.7000000476837","images/rabbit8.png","","","learning","-4","-4","1","1","rabbit","pets","1","0","","bad","[-4]"
"html-keyboard-response","122","529340","0.0-9.0-2.0-0.24","3856","1","16","Male","approach_avoid_spark_v1","""event"",""trial"",""time""
""fullscreenenter"",""1"",""4233""
","
","
","""event"",""trial"",""time""
""fullscreenenter"",""1"",""4233""
","
","","","","","","null","<div style=""font-size:60px;"">+</div>","null","","fixation","","","","","","","","","","",""
"aa-learning-trial","123","532350","0.0-9.0-2.0-1.24","3856","1","16","Male","approach_avoid_spark_v1","""event"",""trial"",""time""
""fullscreenenter"",""1"",""4233""
","
","
","""event"",""trial"",""time""
""fullscreenenter"",""1"",""4233""
","
","","","","","","287.5","images/dog6.png","","","learning","7","7","1","1","dog","pets","1","0","","good","[6]"
"html-keyboard-response","124","532853","0.0-9.0-2.0-0.25","3856","1","16","Male","approach_avoid_spark_v1","""event"",""trial"",""time""
""fullscreenenter"",""1"",""4233""
","
","
","""event"",""trial"",""time""
""fullscreenenter"",""1"",""4233""
","
","","","","","","null","<div style=""font-size:60px;"">+</div>","null","","fixation","","","","","","","","","","",""
"aa-learning-trial","125","535862","0.0-9.0-2.0-1.25","3856","1","16","Male","approach_avoid_spark_v1","""event"",""trial"",""time""
""fullscreenenter"",""1"",""4233""
","
","
","""event"",""trial"",""time""
""fullscreenenter"",""1"",""4233""
","
","","","","","","498","images/cat7.png","","","learning","2","0","0","0","cat","pets","1","0","","neutral","0"
"html-keyboard-response","126","536365","0.0-9.0-2.0-0.26","3856","1","16","Male","approach_avoid_spark_v1","""event"",""trial"",""time""
""fullscreenenter"",""1"",""4233""
","
","
","""event"",""trial"",""time""
""fullscreenenter"",""1"",""4233""
","
","","","","","","null","<div style=""font-size:60px;"">+</div>","null","","fixation","","","","","","","","","","",""
"aa-learning-trial","127","539374","0.0-9.0-2.0-1.26","3856","1","16","Male","approach_avoid_spark_v1","""event"",""trial"",""time""
""fullscreenenter"",""1"",""4233""
","
","
","""event"",""trial"",""time""
""fullscreenenter"",""1"",""4233""
","
","","","","","","535.2000000476837","images/dog3.png","","","learning","9","9","1","1","dog","pets","1","0","","good","[6]"
"html-keyboard-response","128","539877","0.0-9.0-2.0-0.27","3856","1","16","Male","approach_avoid_spark_v1","""event"",""trial"",""time""
""fullscreenenter"",""1"",""4233""
","
","
","""event"",""trial"",""time""
""fullscreenenter"",""1"",""4233""
","
","","","","","","null","<div style=""font-size:60px;"">+</div>","null","","fixation","","","","","","","","","","",""
"aa-learning-trial","129","542884","0.0-9.0-2.0-1.27","3856","1","16","Male","approach_avoid_spark_v1","""event"",""trial"",""time""
""fullscreenenter"",""1"",""4233""
","
","
","""event"",""trial"",""time""
""fullscreenenter"",""1"",""4233""
","
","","","","","","675.3999999761581","images/cat5.png","","","learning","[-1]","0","0","0","cat","pets","1","0","","neutral","0"
"html-keyboard-response","130","543389","0.0-9.0-2.0-0.28","3856","1","16","Male","approach_avoid_spark_v1","""event"",""trial"",""time""
""fullscreenenter"",""1"",""4233""
","
","
","""event"",""trial"",""time""
""fullscreenenter"",""1"",""4233""
","
","","","","","","null","<div style=""font-size:60px;"">+</div>","null","","fixation","","","","","","","","","","",""
"aa-learning-trial","131","546397","0.0-9.0-2.0-1.28","3856","1","16","Male","approach_avoid_spark_v1","""event"",""trial"",""time""
""fullscreenenter"",""1"",""4233""
","
","
","""event"",""trial"",""time""
""fullscreenenter"",""1"",""4233""
","
","","","","","","746.3999999761581","images/cat2.png","","","learning","[-1]","0","0","0","cat","pets","1","0","","neutral","0"
"html-keyboard-response","132","546901","0.0-9.0-2.0-0.29","3856","1","16","Male","approach_avoid_spark_v1","""event"",""trial"",""time""
""fullscreenenter"",""1"",""4233""
","
","
","""event"",""trial"",""time""
""fullscreenenter"",""1"",""4233""
","
","","","","","","null","<div style=""font-size:60px;"">+</div>","null","","fixation","","","","","","","","","","",""
"aa-learning-trial","133","549909","0.0-9.0-2.0-1.29","3856","1","16","Male","approach_avoid_spark_v1","""event"",""trial"",""time""
""fullscreenenter"",""1"",""4233""
","
","
","""event"",""trial"",""time""
""fullscreenenter"",""1"",""4233""
","
","","","","","","862","images/cat7.png","","","learning","[1]","0","0","0","cat","pets","1","0","","neutral","0"
"html-keyboard-response","134","550425","0.0-9.0-2.0-0.30","3856","1","16","Male","approach_avoid_spark_v1","""event"",""trial"",""time""
""fullscreenenter"",""1"",""4233""
","
","
","""event"",""trial"",""time""
""fullscreenenter"",""1"",""4233""
","
","","","","","","null","<div style=""font-size:60px;"">+</div>","null","","fixation","","","","","","","","","","",""
"aa-learning-trial","135","553429","0.0-9.0-2.0-1.30","3856","1","16","Male","approach_avoid_spark_v1","""event"",""trial"",""time""
""fullscreenenter"",""1"",""4233""
","
","
","""event"",""trial"",""time""
""fullscreenenter"",""1"",""4233""
","
","","","","","","775.1000000238419","images/cat4.png","","","learning","1","0","0","0","cat","pets","1","0","","neutral","0"
"html-keyboard-response","136","553933","0.0-9.0-2.0-0.31","3856","1","16","Male","approach_avoid_spark_v1","""event"",""trial"",""time""
""fullscreenenter"",""1"",""4233""
","
","
","""event"",""trial"",""time""
""fullscreenenter"",""1"",""4233""
","
","","","","","","null","<div style=""font-size:60px;"">+</div>","null","","fixation","","","","","","","","","","",""
"aa-learning-trial","137","556940","0.0-9.0-2.0-1.31","3856","1","16","Male","approach_avoid_spark_v1","""event"",""trial"",""time""
""fullscreenenter"",""1"",""4233""
","
","
","""event"",""trial"",""time""
""fullscreenenter"",""1"",""4233""
","
","","","","","","454.90000009536743","images/dog1.png","","","learning","6","6","1","1","dog","pets","1","0","","good","[6]"
"html-keyboard-response","138","557445","0.0-9.0-2.0-0.32","3856","1","16","Male","approach_avoid_spark_v1","""event"",""trial"",""time""
""fullscreenenter"",""1"",""4233""
","
","
","""event"",""trial"",""time""
""fullscreenenter"",""1"",""4233""
","
","","","","","","null","<div style=""font-size:60px;"">+</div>","null","","fixation","","","","","","","","","","",""
"aa-learning-trial","139","560453","0.0-9.0-2.0-1.32","3856","1","16","Male","approach_avoid_spark_v1","""event"",""trial"",""time""
""fullscreenenter"",""1"",""4233""
","
","
","""event"",""trial"",""time""
""fullscreenenter"",""1"",""4233""
","
","","","","","","715.8999999761581","images/cat5.png","","","learning","[1]","0","0","0","cat","pets","1","0","","neutral","0"
"html-keyboard-response","140","560957","0.0-9.0-2.0-0.33","3856","1","16","Male","approach_avoid_spark_v1","""event"",""trial"",""time""
""fullscreenenter"",""1"",""4233""
","
","
","""event"",""trial"",""time""
""fullscreenenter"",""1"",""4233""
","
","","","","","","null","<div style=""font-size:60px;"">+</div>","null","","fixation","","","","","","","","","","",""
"aa-learning-trial","141","563964","0.0-9.0-2.0-1.33","3856","1","16","Male","approach_avoid_spark_v1","""event"",""trial"",""time""
""fullscreenenter"",""1"",""4233""
","
","
","""event"",""trial"",""time""
""fullscreenenter"",""1"",""4233""
","
","","","","","","865.5","images/cat7.png","","","learning","[-1]","0","0","0","cat","pets","1","0","","neutral","0"
"html-keyboard-response","142","564468","0.0-9.0-2.0-0.34","3856","1","16","Male","approach_avoid_spark_v1","""event"",""trial"",""time""
""fullscreenenter"",""1"",""4233""
","
","
","""event"",""trial"",""time""
""fullscreenenter"",""1"",""4233""
","
","","","","","","null","<div style=""font-size:60px;"">+</div>","null","","fixation","","","","","","","","","","",""
"aa-learning-trial","143","567477","0.0-9.0-2.0-1.34","3856","1","16","Male","approach_avoid_spark_v1","""event"",""trial"",""time""
""fullscreenenter"",""1"",""4233""
","
","
","""event"",""trial"",""time""
""fullscreenenter"",""1"",""4233""
","
","","","","","","876.7000000476837","images/rabbit3.png","","","learning","-5","-5","1","1","rabbit","pets","1","0","","bad","[-4]"
"html-keyboard-response","144","567980","0.0-9.0-2.0-0.35","3856","1","16","Male","approach_avoid_spark_v1","""event"",""trial"",""time""
""fullscreenenter"",""1"",""4233""
","
","
","""event"",""trial"",""time""
""fullscreenenter"",""1"",""4233""
","
","","","","","","null","<div style=""font-size:60px;"">+</div>","null","","fixation","","","","","","","","","","",""
"aa-learning-trial","145","570989","0.0-9.0-2.0-1.35","3856","1","16","Male","approach_avoid_spark_v1","""event"",""trial"",""time""
""fullscreenenter"",""1"",""4233""
","
","
","""event"",""trial"",""time""
""fullscreenenter"",""1"",""4233""
","
","","","","","","504.39999997615814","images/dog3.png","","","learning","8","8","1","1","dog","pets","1","0","","good","[6]"
"html-keyboard-response","146","571493","0.0-9.0-2.0-0.36","3856","1","16","Male","approach_avoid_spark_v1","""event"",""trial"",""time""
""fullscreenenter"",""1"",""4233""
","
","
","""event"",""trial"",""time""
""fullscreenenter"",""1"",""4233""
","
","","","","","","null","<div style=""font-size:60px;"">+</div>","null","","fixation","","","","","","","","","","",""
"aa-learning-trial","147","574500","0.0-9.0-2.0-1.36","3856","1","16","Male","approach_avoid_spark_v1","""event"",""trial"",""time""
""fullscreenenter"",""1"",""4233""
","
","
","""event"",""trial"",""time""
""fullscreenenter"",""1"",""4233""
","
","","","","","","523","images/dog1.png","","","learning","4","4","1","1","dog","pets","1","0","","good","[6]"
"html-keyboard-response","148","575004","0.0-9.0-2.0-0.37","3856","1","16","Male","approach_avoid_spark_v1","""event"",""trial"",""time""
""fullscreenenter"",""1"",""4233""
","
","
","""event"",""trial"",""time""
""fullscreenenter"",""1"",""4233""
","
","","","","","","null","<div style=""font-size:60px;"">+</div>","null","","fixation","","","","","","","","","","",""
"aa-learning-trial","149","578014","0.0-9.0-2.0-1.37","3856","1","16","Male","approach_avoid_spark_v1","""event"",""trial"",""time""
""fullscreenenter"",""1"",""4233""
","
","
","""event"",""trial"",""time""
""fullscreenenter"",""1"",""4233""
","
","","","","","","564.1999999284744","images/dog5.png","","","learning","4","4","1","1","dog","pets","1","0","","good","[6]"
"html-keyboard-response","150","578516","0.0-9.0-2.0-0.38","3856","1","16","Male","approach_avoid_spark_v1","""event"",""trial"",""time""
""fullscreenenter"",""1"",""4233""
","
","
","""event"",""trial"",""time""
""fullscreenenter"",""1"",""4233""
","
","","","","","","null","<div style=""font-size:60px;"">+</div>","null","","fixation","","","","","","","","","","",""
"aa-learning-trial","151","581525","0.0-9.0-2.0-1.38","3856","1","16","Male","approach_avoid_spark_v1","""event"",""trial"",""time""
""fullscreenenter"",""1"",""4233""
","
","
","""event"",""trial"",""time""
""fullscreenenter"",""1"",""4233""
","
","","","","","","879.6999999284744","images/rabbit4.png","","","learning","-4","0","0","0","rabbit","pets","1","0","","bad","[-4]"
"html-keyboard-response","152","582028","0.0-9.0-2.0-0.39","3856","1","16","Male","approach_avoid_spark_v1","""event"",""trial"",""time""
""fullscreenenter"",""1"",""4233""
","
","
","""event"",""trial"",""time""
""fullscreenenter"",""1"",""4233""
","
","","","","","","null","<div style=""font-size:60px;"">+</div>","null","","fixation","","","","","","","","","","",""
"aa-learning-trial","153","585037","0.0-9.0-2.0-1.39","3856","1","16","Male","approach_avoid_spark_v1","""event"",""trial"",""time""
""fullscreenenter"",""1"",""4233""
","
","
","""event"",""trial"",""time""
""fullscreenenter"",""1"",""4233""
","
","","","","","","968.5","images/cat5.png","","","learning","[-1]","-1","1","1","cat","pets","1","0","","neutral","0"
"html-keyboard-response","154","585542","0.0-9.0-2.0-0.40","3856","1","16","Male","approach_avoid_spark_v1","""event"",""trial"",""time""
""fullscreenenter"",""1"",""4233""
","
","
","""event"",""trial"",""time""
""fullscreenenter"",""1"",""4233""
","
","","","","","","null","<div style=""font-size:60px;"">+</div>","null","","fixation","","","","","","","","","","",""
"aa-learning-trial","155","588549","0.0-9.0-2.0-1.40","3856","1","16","Male","approach_avoid_spark_v1","""event"",""trial"",""time""
""fullscreenenter"",""1"",""4233""
","
","
","""event"",""trial"",""time""
""fullscreenenter"",""1"",""4233""
","
","","","","","","434.3000000715256","images/dog6.png","","","learning","5","5","1","1","dog","pets","1","0","","good","[6]"
"html-keyboard-response","156","589053","0.0-9.0-2.0-0.41","3856","1","16","Male","approach_avoid_spark_v1","""event"",""trial"",""time""
""fullscreenenter"",""1"",""4233""
","
","
","""event"",""trial"",""time""
""fullscreenenter"",""1"",""4233""
","
","","","","","","null","<div style=""font-size:60px;"">+</div>","null","","fixation","","","","","","","","","","",""
"aa-learning-trial","157","592061","0.0-9.0-2.0-1.41","3856","1","16","Male","approach_avoid_spark_v1","""event"",""trial"",""time""
""fullscreenenter"",""1"",""4233""
","
","
","""event"",""trial"",""time""
""fullscreenenter"",""1"",""4233""
","
","","","","","","990.4000000953674","images/rabbit6.png","","","learning","-6","-6","1","1","rabbit","pets","1","0","","bad","[-4]"
"html-keyboard-response","158","592565","0.0-9.0-2.0-0.42","3856","1","16","Male","approach_avoid_spark_v1","""event"",""trial"",""time""
""fullscreenenter"",""1"",""4233""
","
","
","""event"",""trial"",""time""
""fullscreenenter"",""1"",""4233""
","
","","","","","","null","<div style=""font-size:60px;"">+</div>","null","","fixation","","","","","","","","","","",""
"aa-learning-trial","159","595573","0.0-9.0-2.0-1.42","3856","1","16","Male","approach_avoid_spark_v1","""event"",""trial"",""time""
""fullscreenenter"",""1"",""4233""
","
","
","""event"",""trial"",""time""
""fullscreenenter"",""1"",""4233""
","
","","","","","","367.2999999523163","images/dog3.png","","","learning","6","6","1","1","dog","pets","1","0","","good","[6]"
"html-keyboard-response","160","596077","0.0-9.0-2.0-0.43","3856","1","16","Male","approach_avoid_spark_v1","""event"",""trial"",""time""
""fullscreenenter"",""1"",""4233""
","
","
","""event"",""trial"",""time""
""fullscreenenter"",""1"",""4233""
","
","","","","","","null","<div style=""font-size:60px;"">+</div>","null","","fixation","","","","","","","","","","",""
"aa-learning-trial","161","599085","0.0-9.0-2.0-1.43","3856","1","16","Male","approach_avoid_spark_v1","""event"",""trial"",""time""
""fullscreenenter"",""1"",""4233""
","
","
","""event"",""trial"",""time""
""fullscreenenter"",""1"",""4233""
","
","","","","","","560.7000000476837","images/rabbit3.png","","","learning","-3","0","0","0","rabbit","pets","1","0","","bad","[-4]"
"html-keyboard-response","162","599591","0.0-9.0-2.0-0.44","3856","1","16","Male","approach_avoid_spark_v1","""event"",""trial"",""time""
""fullscreenenter"",""1"",""4233""
","
","
","""event"",""trial"",""time""
""fullscreenenter"",""1"",""4233""
","
","","","","","","null","<div style=""font-size:60px;"">+</div>","null","","fixation","","","","","","","","","","",""
"aa-learning-trial","163","602597","0.0-9.0-2.0-1.44","3856","1","16","Male","approach_avoid_spark_v1","""event"",""trial"",""time""
""fullscreenenter"",""1"",""4233""
","
","
","""event"",""trial"",""time""
""fullscreenenter"",""1"",""4233""
","
","","","","","","510","images/rabbit8.png","","","learning","-4","-4","1","1","rabbit","pets","1","0","","bad","[-4]"
"html-keyboard-response","164","603101","0.0-9.0-2.0-0.45","3856","1","16","Male","approach_avoid_spark_v1","""event"",""trial"",""time""
""fullscreenenter"",""1"",""4233""
","
","
","""event"",""trial"",""time""
""fullscreenenter"",""1"",""4233""
","
","","","","","","null","<div style=""font-size:60px;"">+</div>","null","","fixation","","","","","","","","","","",""
"aa-learning-trial","165","606109","0.0-9.0-2.0-1.45","3856","1","16","Male","approach_avoid_spark_v1","""event"",""trial"",""time""
""fullscreenenter"",""1"",""4233""
","
","
","""event"",""trial"",""time""
""fullscreenenter"",""1"",""4233""
","
","","","","","","726.8999999761581","images/rabbit3.png","","","learning","-4","-4","1","1","rabbit","pets","1","0","","bad","[-4]"
"html-keyboard-response","166","606613","0.0-9.0-2.0-0.46","3856","1","16","Male","approach_avoid_spark_v1","""event"",""trial"",""time""
""fullscreenenter"",""1"",""4233""
","
","
","""event"",""trial"",""time""
""fullscreenenter"",""1"",""4233""
","
","","","","","","null","<div style=""font-size:60px;"">+</div>","null","","fixation","","","","","","","","","","",""
"aa-learning-trial","167","609621","0.0-9.0-2.0-1.46","3856","1","16","Male","approach_avoid_spark_v1","""event"",""trial"",""time""
""fullscreenenter"",""1"",""4233""
","
","
","""event"",""trial"",""time""
""fullscreenenter"",""1"",""4233""
","
","","","","","","393.39999997615814","images/cat2.png","","","learning","-1","-1","1","1","cat","pets","1","0","","neutral","0"
"html-keyboard-response","168","610125","0.0-9.0-2.0-0.47","3856","1","16","Male","approach_avoid_spark_v1","""event"",""trial"",""time""
""fullscreenenter"",""1"",""4233""
","
","
","""event"",""trial"",""time""
""fullscreenenter"",""1"",""4233""
","
","","","","","","null","<div style=""font-size:60px;"">+</div>","null","","fixation","","","","","","","","","","",""
"aa-learning-trial","169","613134","0.0-9.0-2.0-1.47","3856","1","16","Male","approach_avoid_spark_v1","""event"",""trial"",""time""
""fullscreenenter"",""1"",""4233""
","
","
","""event"",""trial"",""time""
""fullscreenenter"",""1"",""4233""
","
","","","","","","398","images/dog2.png","","","learning","9","9","1","1","dog","pets","1","0","","good","[6]"
"html-keyboard-response","170","613636","0.0-9.0-2.0-0.48","3856","1","16","Male","approach_avoid_spark_v1","""event"",""trial"",""time""
""fullscreenenter"",""1"",""4233""
","
","
","""event"",""trial"",""time""
""fullscreenenter"",""1"",""4233""
","
","","","","","","null","<div style=""font-size:60px;"">+</div>","null","","fixation","","","","","","","","","","",""
"aa-learning-trial","171","616645","0.0-9.0-2.0-1.48","3856","1","16","Male","approach_avoid_spark_v1","""event"",""trial"",""time""
""fullscreenenter"",""1"",""4233""
","
","
","""event"",""trial"",""time""
""fullscreenenter"",""1"",""4233""
","
","","","","","","518.8999999761581","images/rabbit6.png","","","learning","-3","0","0","0","rabbit","pets","1","0","","bad","[-4]"
"html-keyboard-response","172","617148","0.0-9.0-2.0-0.49","3856","1","16","Male","approach_avoid_spark_v1","""event"",""trial"",""time""
""fullscreenenter"",""1"",""4233""
","
","
","""event"",""trial"",""time""
""fullscreenenter"",""1"",""4233""
","
","","","","","","null","<div style=""font-size:60px;"">+</div>","null","","fixation","","","","","","","","","","",""
"aa-learning-trial","173","620156","0.0-9.0-2.0-1.49","3856","1","16","Male","approach_avoid_spark_v1","""event"",""trial"",""time""
""fullscreenenter"",""1"",""4233""
","
","
","""event"",""trial"",""time""
""fullscreenenter"",""1"",""4233""
","
","","","","","","683.7999999523163","images/cat6.png","","","learning","[-1]","0","0","0","cat","pets","1","0","","neutral","0"
"html-keyboard-response","174","620661","0.0-9.0-2.0-0.50","3856","1","16","Male","approach_avoid_spark_v1","""event"",""trial"",""time""
""fullscreenenter"",""1"",""4233""
","
","
","""event"",""trial"",""time""
""fullscreenenter"",""1"",""4233""
","
","","","","","","null","<div style=""font-size:60px;"">+</div>","null","","fixation","","","","","","","","","","",""
"aa-learning-trial","175","623669","0.0-9.0-2.0-1.50","3856","1","16","Male","approach_avoid_spark_v1","""event"",""trial"",""time""
""fullscreenenter"",""1"",""4233""
","
","
","""event"",""trial"",""time""
""fullscreenenter"",""1"",""4233""
","
","","","","","","594.5","images/dog3.png","","","learning","3","3","1","1","dog","pets","1","0","","good","[6]"
"html-button-response","176","628692","0.0-9.0-3.0","3856","1","16","Male","approach_avoid_spark_v1","""event"",""trial"",""time""
""fullscreenenter"",""1"",""4233""
","
","
","""event"",""trial"",""time""
""fullscreenenter"",""1"",""4233""
","
","","","","","","5021.399999976158","<p> You have completed the round! <p> In this round, you earned 58 points! </p>","0","","break","","","","","","","","","","",""
"html-button-response","177","629935","0.0-10.0","3856","1","16","Male","approach_avoid_spark_v1","""event"",""trial"",""time""
""fullscreenenter"",""1"",""4233""
","
","
","""event"",""trial"",""time""
""fullscreenenter"",""1"",""4233""
","
","","","","","","1242.5","<p> Now it's time to play another round. </p>","0","","transition_screen","","","","","","","","","","",""
"preload","178","630056","0.0-11.0-0.0","3856","1","16","Male","approach_avoid_spark_v1","""event"",""trial"",""time""
""fullscreenenter"",""1"",""4233""
","
","
","""event"",""trial"",""time""
""fullscreenenter"",""1"",""4233""
","
","true","false","[]","[]","[]","","","","","","","","","","","","","","","",""
"learning-instructions","179","638966","0.0-11.0-1.0-0.0","3856","1","16","Male","approach_avoid_spark_v1","""event"",""trial"",""time""
""fullscreenenter"",""1"",""4233""
","
","
","""event"",""trial"",""time""
""fullscreenenter"",""1"",""4233""
","
","","","","","","3068.899999976158","<p> Your goal in this round is to sell different plants to a picky customer. </p></div>","","0","instructions","","","","","","","","","","",""
"learning-instructions","180","648749","0.0-11.0-1.0-0.1","3856","1","16","Male","approach_avoid_spark_v1","""event"",""trial"",""time""
""fullscreenenter"",""1"",""4233""
","
","
","""event"",""trial"",""time""
""fullscreenenter"",""1"",""4233""
","
","","","","","","606.5","<p> The customer likes some plants and dislikes others.  </p><p> On each turn, you will see a plant.   </p><p> You need to decide whether to offer it to the customer or not.  </p>","","0","instructions","","","","","","","","","","",""
"learning-instructions","181","654889","0.0-11.0-1.0-0.2","3856","1","16","Male","approach_avoid_spark_v1","""event"",""trial"",""time""
""fullscreenenter"",""1"",""4233""
","
","
","""event"",""trial"",""time""
""fullscreenenter"",""1"",""4233""
","
","","","","","","612.2000000476837","<p> You can offer the plant by pressing 1 and decide to not offer it by pressing 0. </p><br><div class=""choice-instructions-grid""> <div class=""choice-option""><img src=""images/approach.png"" class=""choice-option-img"" stage=""instructions"" position=""0"" ><div class=""choice-option-text""> Press ""1."" </div></div><div class=""choice-option""><img src=""images/avoid.png"" class=""choice-option-img"" stage=""instructions"" position=""1"" ><div class=""choice-option-text""> Press ""0."" </div></div>","","0","instructions","","","","","","","","","","",""
"learning-instructions","182","664223","0.0-11.0-1.0-0.3","3856","1","16","Male","approach_avoid_spark_v1","""event"",""trial"",""time""
""fullscreenenter"",""1"",""4233""
","
","
","""event"",""trial"",""time""
""fullscreenenter"",""1"",""4233""
","
","","","","","","517.8999999761581","<p> If you offer a plant to the customer that she likes, she will be very pleased! </p><p> But if you offer a plant that she does NOT like, she will be annoyed. </p>","","0","instructions","","","","","","","","","","",""
"learning-instructions","183","678197","0.0-11.0-1.0-0.4","3856","1","16","Male","approach_avoid_spark_v1","""event"",""trial"",""time""
""fullscreenenter"",""1"",""4233""
","
","
","""event"",""trial"",""time""
""fullscreenenter"",""1"",""4233""
","
","","","","","","1627.3999999761581","<p> You will earn points based on how you made the customer feel. </p><p> If you made her pleased, you will WIN anywhere from 1 - 9 points, </p><p> but if you made her annoyed, you will LOSE anywhere from 1 - 9 points. </p>","","0","instructions","","","","","","","","","","",""
"learning-instructions","184","685704","0.0-11.0-1.0-0.5","3856","1","16","Male","approach_avoid_spark_v1","""event"",""trial"",""time""
""fullscreenenter"",""1"",""4233""
","
","
","""event"",""trial"",""time""
""fullscreenenter"",""1"",""4233""
","
","","","","","","857","<p> You will see how many points you won or lost in the center of the screen. </p><p> Here is what you would see if you won 5 points: </p><p style=""color:green;font-size:50px;font-weight:bolder"">5</p>","","0","instructions","","","","","","","","","","",""
"learning-instructions","185","689377","0.0-11.0-1.0-0.6","3856","1","16","Male","approach_avoid_spark_v1","""event"",""trial"",""time""
""fullscreenenter"",""1"",""4233""
","
","
","""event"",""trial"",""time""
""fullscreenenter"",""1"",""4233""
","
","","","","","","828.7000000476837","<p> And here is what you would see if you lost 3 points: </p><p style=""color:red;font-size:50px;font-weight:bolder"">-3</p>","","0","instructions","","","","","","","","","","",""
"learning-instructions","186","704464","0.0-11.0-1.0-0.7","3856","1","16","Male","approach_avoid_spark_v1","""event"",""trial"",""time""
""fullscreenenter"",""1"",""4233""
","
","
","""event"",""trial"",""time""
""fullscreenenter"",""1"",""4233""
","
","","","","","","471.10000002384186","<p> Some plants will make the customer VERY pleased or annoyed. </p><p> These plants will make you win or lose LOTS of points. </p><p> The customer will have less strong feelings about other plants. </p><p> These plants will make you win or lose small amounts of points. </p>","","0","instructions","","","","","","","","","","",""
"learning-instructions","187","718059","0.0-11.0-1.0-0.8","3856","1","16","Male","approach_avoid_spark_v1","""event"",""trial"",""time""
""fullscreenenter"",""1"",""4233""
","
","
","""event"",""trial"",""time""
""fullscreenenter"",""1"",""4233""
","
","","","","","","1094.2999999523163","<p> If you choose to not offer the plant to the customer, you will not win or lose any points. </p><p>  However, in the center of the screen, you will see the number of points you WOULD HAVE won or lost if you had offered the plant. </p>","","0","instructions","","","","","","","","","","",""
"learning-instructions","188","730520","0.0-11.0-1.0-0.9","3856","1","16","Male","approach_avoid_spark_v1","""event"",""trial"",""time""
""fullscreenenter"",""1"",""4233""
","
","
","""event"",""trial"",""time""
""fullscreenenter"",""1"",""4233""
","
","","","","","","1000.6000000238419","<p> Here is what you might see if you did not offer the plant but the customer would have liked it: </p><p style=""color:grey; font-size:50px; display: inline-block; border-spacing: 15px; border-width:3px; border-style:solid; border-color:red"">  &nbsp; 6 &nbsp; </p><p> Remember, in this case, you would not win or lose ANY points because you did not offer the plant.  </p>","","0","instructions","","","","","","","","","","",""
"learning-instructions","189","740650","0.0-11.0-1.0-0.10","3856","1","16","Male","approach_avoid_spark_v1","""event"",""trial"",""time""
""fullscreenenter"",""1"",""4233""
","
","
","""event"",""trial"",""time""
""fullscreenenter"",""1"",""4233""
","
","","","","","","2545.2000000476837","<p> Try to make the best choice for each plant because </p><p> at the end of the game, you will earn bonus money based on how many points you earned. </p>","","0","instructions","","","","","","","","","","",""
"learning-instructions","190","750466","0.0-11.0-1.0-0.11","3856","1","16","Male","approach_avoid_spark_v1","""event"",""trial"",""time""
""fullscreenenter"",""1"",""4233""
","
","
","""event"",""trial"",""time""
""fullscreenenter"",""1"",""4233""
","
","","","","","","1630.1999999284744","<p> You will have 3 seconds to make each choice. Try to respond before time runs out! </p><p> You will lose 5 points each time you do not make a response. </p>","","0","instructions","","","","","","","","","","",""
"html-keyboard-response","191","751091","0.0-11.0-2.0-0.0","3856","1","16","Male","approach_avoid_spark_v1","""event"",""trial"",""time""
""fullscreenenter"",""1"",""4233""
","
","
","""event"",""trial"",""time""
""fullscreenenter"",""1"",""4233""
","
","","","","","","null","<div style=""font-size:60px;"">+</div>","null","","fixation","","","","","","","","","","",""
"aa-learning-trial","192","754110","0.0-11.0-2.0-1.0","3856","1","16","Male","approach_avoid_spark_v1","""event"",""trial"",""time""
""fullscreenenter"",""1"",""4233""
","
","
","""event"",""trial"",""time""
""fullscreenenter"",""1"",""4233""
","
","","","","","","1163.8999999761581","images/cactus5.png","","","learning","-3","-3","1","1","cactus","plants","2","1","","neutral","0"
"html-keyboard-response","193","754621","0.0-11.0-2.0-0.1","3856","1","16","Male","approach_avoid_spark_v1","""event"",""trial"",""time""
""fullscreenenter"",""1"",""4233""
","
","
","""event"",""trial"",""time""
""fullscreenenter"",""1"",""4233""
","
","","","","","","null","<div style=""font-size:60px;"">+</div>","null","","fixation","","","","","","","","","","",""
"aa-learning-trial","194","757643","0.0-11.0-2.0-1.1","3856","1","16","Male","approach_avoid_spark_v1","""event"",""trial"",""time""
""fullscreenenter"",""1"",""4233""
","
","
","""event"",""trial"",""time""
""fullscreenenter"",""1"",""4233""
","
","","","","","","700.2999999523163","images/cactus2.png","","","learning","2","0","0","0","cactus","plants","2","1","","neutral","0"
"html-keyboard-response","195","758155","0.0-11.0-2.0-0.2","3856","1","16","Male","approach_avoid_spark_v1","""event"",""trial"",""time""
""fullscreenenter"",""1"",""4233""
","
","
","""event"",""trial"",""time""
""fullscreenenter"",""1"",""4233""
","
","","","","","","null","<div style=""font-size:60px;"">+</div>","null","","fixation","","","","","","","","","","",""
"aa-learning-trial","196","761177","0.0-11.0-2.0-1.2","3856","1","16","Male","approach_avoid_spark_v1","""event"",""trial"",""time""
""fullscreenenter"",""1"",""4233""
","
","
","""event"",""trial"",""time""
""fullscreenenter"",""1"",""4233""
","
","","","","","","763.2999999523163","images/bush3.png","","","learning","6","6","1","1","bush","plants","2","1","","bad","[-3]"
"html-keyboard-response","197","761689","0.0-11.0-2.0-0.3","3856","1","16","Male","approach_avoid_spark_v1","""event"",""trial"",""time""
""fullscreenenter"",""1"",""4233""
","
","
","""event"",""trial"",""time""
""fullscreenenter"",""1"",""4233""
","
","","","","","","null","<div style=""font-size:60px;"">+</div>","null","","fixation","","","","","","","","","","",""
"aa-learning-trial","198","764700","0.0-11.0-2.0-1.3","3856","1","16","Male","approach_avoid_spark_v1","""event"",""trial"",""time""
""fullscreenenter"",""1"",""4233""
","
","
","""event"",""trial"",""time""
""fullscreenenter"",""1"",""4233""
","
","","","","","","572.5","images/tree5.png","","","learning","5","5","1","1","tree","plants","2","1","","good","[4]"
"html-keyboard-response","199","765219","0.0-11.0-2.0-0.4","3856","1","16","Male","approach_avoid_spark_v1","""event"",""trial"",""time""
""fullscreenenter"",""1"",""4233""
","
","
","""event"",""trial"",""time""
""fullscreenenter"",""1"",""4233""
","
","","","","","","null","<div style=""font-size:60px;"">+</div>","null","","fixation","","","","","","","","","","",""
"aa-learning-trial","200","768232","0.0-11.0-2.0-1.4","3856","1","16","Male","approach_avoid_spark_v1","""event"",""trial"",""time""
""fullscreenenter"",""1"",""4233""
","
","
","""event"",""trial"",""time""
""fullscreenenter"",""1"",""4233""
","
","","","","","","594.5","images/tree4.png","","","learning","8","8","1","1","tree","plants","2","1","","good","[4]"
"html-keyboard-response","201","768755","0.0-11.0-2.0-0.5","3856","1","16","Male","approach_avoid_spark_v1","""event"",""trial"",""time""
""fullscreenenter"",""1"",""4233""
","
","
","""event"",""trial"",""time""
""fullscreenenter"",""1"",""4233""
","
","","","","","","null","<div style=""font-size:60px;"">+</div>","null","","fixation","","","","","","","","","","",""
"aa-learning-trial","202","771778","0.0-11.0-2.0-1.5","3856","1","16","Male","approach_avoid_spark_v1","""event"",""trial"",""time""
""fullscreenenter"",""1"",""4233""
","
","
","""event"",""trial"",""time""
""fullscreenenter"",""1"",""4233""
","
","","","","","","665.8999999761581","images/bush6.png","","","learning","-2","-2","1","1","bush","plants","2","1","","bad","[-3]"
"html-keyboard-response","203","772286","0.0-11.0-2.0-0.6","3856","1","16","Male","approach_avoid_spark_v1","""event"",""trial"",""time""
""fullscreenenter"",""1"",""4233""
","
","
","""event"",""trial"",""time""
""fullscreenenter"",""1"",""4233""
","
","","","","","","null","<div style=""font-size:60px;"">+</div>","null","","fixation","","","","","","","","","","",""
"aa-learning-trial","204","775306","0.0-11.0-2.0-1.6","3856","1","16","Male","approach_avoid_spark_v1","""event"",""trial"",""time""
""fullscreenenter"",""1"",""4233""
","
","
","""event"",""trial"",""time""
""fullscreenenter"",""1"",""4233""
","
","","","","","","551.3999999761581","images/bush1.png","","","learning","-7","-7","1","1","bush","plants","2","1","","bad","[-3]"
"html-keyboard-response","205","775820","0.0-11.0-2.0-0.7","3856","1","16","Male","approach_avoid_spark_v1","""event"",""trial"",""time""
""fullscreenenter"",""1"",""4233""
","
","
","""event"",""trial"",""time""
""fullscreenenter"",""1"",""4233""
","
","","","","","","null","<div style=""font-size:60px;"">+</div>","null","","fixation","","","","","","","","","","",""
"aa-learning-trial","206","778835","0.0-11.0-2.0-1.7","3856","1","16","Male","approach_avoid_spark_v1","""event"",""trial"",""time""
""fullscreenenter"",""1"",""4233""
","
","
","""event"",""trial"",""time""
""fullscreenenter"",""1"",""4233""
","
","","","","","","495.2000000476837","images/bush6.png","","","learning","-2","-2","1","1","bush","plants","2","1","","bad","[-3]"
"html-keyboard-response","207","779346","0.0-11.0-2.0-0.8","3856","1","16","Male","approach_avoid_spark_v1","""event"",""trial"",""time""
""fullscreenenter"",""1"",""4233""
","
","
","""event"",""trial"",""time""
""fullscreenenter"",""1"",""4233""
","
","","","","","","null","<div style=""font-size:60px;"">+</div>","null","","fixation","","","","","","","","","","",""
"aa-learning-trial","208","782356","0.0-11.0-2.0-1.8","3856","1","16","Male","approach_avoid_spark_v1","""event"",""trial"",""time""
""fullscreenenter"",""1"",""4233""
","
","
","""event"",""trial"",""time""
""fullscreenenter"",""1"",""4233""
","
","","","","","","650.1000000238419","images/tree2.png","","","learning","-1","-1","1","1","tree","plants","2","1","","good","[4]"
"html-keyboard-response","209","782859","0.0-11.0-2.0-0.9","3856","1","16","Male","approach_avoid_spark_v1","""event"",""trial"",""time""
""fullscreenenter"",""1"",""4233""
","
","
","""event"",""trial"",""time""
""fullscreenenter"",""1"",""4233""
","
","","","","","","null","<div style=""font-size:60px;"">+</div>","null","","fixation","","","","","","","","","","",""
"aa-learning-trial","210","785868","0.0-11.0-2.0-1.9","3856","1","16","Male","approach_avoid_spark_v1","""event"",""trial"",""time""
""fullscreenenter"",""1"",""4233""
","
","
","""event"",""trial"",""time""
""fullscreenenter"",""1"",""4233""
","
","","","","","","345.3000000715256","images/cactus4.png","","","learning","7","7","1","1","cactus","plants","2","1","","neutral","0"
"html-keyboard-response","211","786372","0.0-11.0-2.0-0.10","3856","1","16","Male","approach_avoid_spark_v1","""event"",""trial"",""time""
""fullscreenenter"",""1"",""4233""
","
","
","""event"",""trial"",""time""
""fullscreenenter"",""1"",""4233""
","
","","","","","","null","<div style=""font-size:60px;"">+</div>","null","","fixation","","","","","","","","","","",""
"aa-learning-trial","212","789381","0.0-11.0-2.0-1.10","3856","1","16","Male","approach_avoid_spark_v1","""event"",""trial"",""time""
""fullscreenenter"",""1"",""4233""
","
","
","""event"",""trial"",""time""
""fullscreenenter"",""1"",""4233""
","
","","","","","","793.3999999761581","images/tree5.png","","","learning","5","5","1","1","tree","plants","2","1","","good","[4]"
"html-keyboard-response","213","789884","0.0-11.0-2.0-0.11","3856","1","16","Male","approach_avoid_spark_v1","""event"",""trial"",""time""
""fullscreenenter"",""1"",""4233""
","
","
","""event"",""trial"",""time""
""fullscreenenter"",""1"",""4233""
","
","","","","","","null","<div style=""font-size:60px;"">+</div>","null","","fixation","","","","","","","","","","",""
"aa-learning-trial","214","792893","0.0-11.0-2.0-1.11","3856","1","16","Male","approach_avoid_spark_v1","""event"",""trial"",""time""
""fullscreenenter"",""1"",""4233""
","
","
","""event"",""trial"",""time""
""fullscreenenter"",""1"",""4233""
","
","","","","","","639.2000000476837","images/cactus4.png","","","learning","7","0","0","0","cactus","plants","2","1","","neutral","0"
"html-keyboard-response","215","793396","0.0-11.0-2.0-0.12","3856","1","16","Male","approach_avoid_spark_v1","""event"",""trial"",""time""
""fullscreenenter"",""1"",""4233""
","
","
","""event"",""trial"",""time""
""fullscreenenter"",""1"",""4233""
","
","","","","","","null","<div style=""font-size:60px;"">+</div>","null","","fixation","","","","","","","","","","",""
"aa-learning-trial","216","796404","0.0-11.0-2.0-1.12","3856","1","16","Male","approach_avoid_spark_v1","""event"",""trial"",""time""
""fullscreenenter"",""1"",""4233""
","
","
","""event"",""trial"",""time""
""fullscreenenter"",""1"",""4233""
","
","","","","","","723","images/cactus5.png","","","learning","-3","0","0","0","cactus","plants","2","1","","neutral","0"
"html-keyboard-response","217","796908","0.0-11.0-2.0-0.13","3856","1","16","Male","approach_avoid_spark_v1","""event"",""trial"",""time""
""fullscreenenter"",""1"",""4233""
","
","
","""event"",""trial"",""time""
""fullscreenenter"",""1"",""4233""
","
","","","","","","null","<div style=""font-size:60px;"">+</div>","null","","fixation","","","","","","","","","","",""
"aa-learning-trial","218","799916","0.0-11.0-2.0-1.13","3856","1","16","Male","approach_avoid_spark_v1","""event"",""trial"",""time""
""fullscreenenter"",""1"",""4233""
","
","
","""event"",""trial"",""time""
""fullscreenenter"",""1"",""4233""
","
","","","","","","945","images/tree4.png","","","learning","8","0","0","0","tree","plants","2","1","","good","[4]"
"html-keyboard-response","219","800420","0.0-11.0-2.0-0.14","3856","1","16","Male","approach_avoid_spark_v1","""event"",""trial"",""time""
""fullscreenenter"",""1"",""4233""
","
","
","""event"",""trial"",""time""
""fullscreenenter"",""1"",""4233""
","
","","","","","","null","<div style=""font-size:60px;"">+</div>","null","","fixation","","","","","","","","","","",""
"aa-learning-trial","220","803429","0.0-11.0-2.0-1.14","3856","1","16","Male","approach_avoid_spark_v1","""event"",""trial"",""time""
""fullscreenenter"",""1"",""4233""
","
","
","""event"",""trial"",""time""
""fullscreenenter"",""1"",""4233""
","
","","","","","","545.5","images/bush1.png","","","learning","-7","-7","1","1","bush","plants","2","1","","bad","[-3]"
"html-keyboard-response","221","803932","0.0-11.0-2.0-0.15","3856","1","16","Male","approach_avoid_spark_v1","""event"",""trial"",""time""
""fullscreenenter"",""1"",""4233""
","
","
","""event"",""trial"",""time""
""fullscreenenter"",""1"",""4233""
","
","","","","","","null","<div style=""font-size:60px;"">+</div>","null","","fixation","","","","","","","","","","",""
"aa-learning-trial","222","806941","0.0-11.0-2.0-1.15","3856","1","16","Male","approach_avoid_spark_v1","""event"",""trial"",""time""
""fullscreenenter"",""1"",""4233""
","
","
","""event"",""trial"",""time""
""fullscreenenter"",""1"",""4233""
","
","","","","","","634.7000000476837","images/bush3.png","","","learning","6","6","1","1","bush","plants","2","1","","bad","[-3]"
"html-keyboard-response","223","807446","0.0-11.0-2.0-0.16","3856","1","16","Male","approach_avoid_spark_v1","""event"",""trial"",""time""
""fullscreenenter"",""1"",""4233""
","
","
","""event"",""trial"",""time""
""fullscreenenter"",""1"",""4233""
","
","","","","","","null","<div style=""font-size:60px;"">+</div>","null","","fixation","","","","","","","","","","",""
"aa-learning-trial","224","810452","0.0-11.0-2.0-1.16","3856","1","16","Male","approach_avoid_spark_v1","""event"",""trial"",""time""
""fullscreenenter"",""1"",""4233""
","
","
","""event"",""trial"",""time""
""fullscreenenter"",""1"",""4233""
","
","","","","","","1113","images/cactus4.png","","","learning","7","0","0","0","cactus","plants","2","1","","neutral","0"
"html-keyboard-response","225","810957","0.0-11.0-2.0-0.17","3856","1","16","Male","approach_avoid_spark_v1","""event"",""trial"",""time""
""fullscreenenter"",""1"",""4233""
","
","
","""event"",""trial"",""time""
""fullscreenenter"",""1"",""4233""
","
","","","","","","null","<div style=""font-size:60px;"">+</div>","null","","fixation","","","","","","","","","","",""
"aa-learning-trial","226","813964","0.0-11.0-2.0-1.17","3856","1","16","Male","approach_avoid_spark_v1","""event"",""trial"",""time""
""fullscreenenter"",""1"",""4233""
","
","
","""event"",""trial"",""time""
""fullscreenenter"",""1"",""4233""
","
","","","","","","828.7999999523163","images/tree4.png","","","learning","8","0","0","0","tree","plants","2","1","","good","[4]"
"html-keyboard-response","227","814468","0.0-11.0-2.0-0.18","3856","1","16","Male","approach_avoid_spark_v1","""event"",""trial"",""time""
""fullscreenenter"",""1"",""4233""
","
","
","""event"",""trial"",""time""
""fullscreenenter"",""1"",""4233""
","
","","","","","","null","<div style=""font-size:60px;"">+</div>","null","","fixation","","","","","","","","","","",""
"aa-learning-trial","228","817476","0.0-11.0-2.0-1.18","3856","1","16","Male","approach_avoid_spark_v1","""event"",""trial"",""time""
""fullscreenenter"",""1"",""4233""
","
","
","""event"",""trial"",""time""
""fullscreenenter"",""1"",""4233""
","
","","","","","","501.1999999284744","images/tree4.png","","","learning","8","0","0","0","tree","plants","2","1","","good","[4]"
"html-keyboard-response","229","817980","0.0-11.0-2.0-0.19","3856","1","16","Male","approach_avoid_spark_v1","""event"",""trial"",""time""
""fullscreenenter"",""1"",""4233""
","
","
","""event"",""trial"",""time""
""fullscreenenter"",""1"",""4233""
","
","","","","","","null","<div style=""font-size:60px;"">+</div>","null","","fixation","","","","","","","","","","",""
"aa-learning-trial","230","820989","0.0-11.0-2.0-1.19","3856","1","16","Male","approach_avoid_spark_v1","""event"",""trial"",""time""
""fullscreenenter"",""1"",""4233""
","
","
","""event"",""trial"",""time""
""fullscreenenter"",""1"",""4233""
","
","","","","","","704.8999999761581","images/tree2.png","","","learning","-1","0","0","0","tree","plants","2","1","","good","[4]"
"html-keyboard-response","231","821492","0.0-11.0-2.0-0.20","3856","1","16","Male","approach_avoid_spark_v1","""event"",""trial"",""time""
""fullscreenenter"",""1"",""4233""
","
","
","""event"",""trial"",""time""
""fullscreenenter"",""1"",""4233""
","
","","","","","","null","<div style=""font-size:60px;"">+</div>","null","","fixation","","","","","","","","","","",""
"aa-learning-trial","232","824501","0.0-11.0-2.0-1.20","3856","1","16","Male","approach_avoid_spark_v1","""event"",""trial"",""time""
""fullscreenenter"",""1"",""4233""
","
","
","""event"",""trial"",""time""
""fullscreenenter"",""1"",""4233""
","
","","","","","","1378.1000000238419","images/bush1.png","","","learning","-7","0","0","0","bush","plants","2","1","","bad","[-3]"
"html-keyboard-response","233","825004","0.0-11.0-2.0-0.21","3856","1","16","Male","approach_avoid_spark_v1","""event"",""trial"",""time""
""fullscreenenter"",""1"",""4233""
","
","
","""event"",""trial"",""time""
""fullscreenenter"",""1"",""4233""
","
","","","","","","null","<div style=""font-size:60px;"">+</div>","null","","fixation","","","","","","","","","","",""
"aa-learning-trial","234","828012","0.0-11.0-2.0-1.21","3856","1","16","Male","approach_avoid_spark_v1","""event"",""trial"",""time""
""fullscreenenter"",""1"",""4233""
","
","
","""event"",""trial"",""time""
""fullscreenenter"",""1"",""4233""
","
","","","","","","855.6000000238419","images/bush6.png","","","learning","-2","0","0","0","bush","plants","2","1","","bad","[-3]"
"html-keyboard-response","235","828516","0.0-11.0-2.0-0.22","3856","1","16","Male","approach_avoid_spark_v1","""event"",""trial"",""time""
""fullscreenenter"",""1"",""4233""
","
","
","""event"",""trial"",""time""
""fullscreenenter"",""1"",""4233""
","
","","","","","","null","<div style=""font-size:60px;"">+</div>","null","","fixation","","","","","","","","","","",""
"aa-learning-trial","236","831524","0.0-11.0-2.0-1.22","3856","1","16","Male","approach_avoid_spark_v1","""event"",""trial"",""time""
""fullscreenenter"",""1"",""4233""
","
","
","""event"",""trial"",""time""
""fullscreenenter"",""1"",""4233""
","
","","","","","","725.9000000953674","images/cactus5.png","","","learning","-3","0","0","0","cactus","plants","2","1","","neutral","0"
"html-keyboard-response","237","832028","0.0-11.0-2.0-0.23","3856","1","16","Male","approach_avoid_spark_v1","""event"",""trial"",""time""
""fullscreenenter"",""1"",""4233""
","
","
","""event"",""trial"",""time""
""fullscreenenter"",""1"",""4233""
","
","","","","","","null","<div style=""font-size:60px;"">+</div>","null","","fixation","","","","","","","","","","",""
