"trial_type","trial_index","time_elapsed","internal_node_id","subject_id","task_condition","age","gender","task_version","interactions","blur_events","focus_events","fullscreenenter_events","fullscreenexit_events","success","timeout","failed_images","failed_audio","failed_video","rt","stimulus","response","button_pressed","task_part","approach_reward","points","key_press","option_selected","stim_cat","task_block","block_condition","block_number","correct","cat_type","mean_cat_reward"
"pavlovia","0","2","0.0-0.0","4521","2","24","Female","approach_avoid_spark_v1","""event"",""trial"",""time""
""fullscreenenter"",""1"",""4725""
","
","
","""event"",""trial"",""time""
""fullscreenenter"",""1"",""4725""
","
","","","","","","","","","","","","","","","","","","","","",""
"fullscreen","1","5700","0.0-1.0","4521","2","24","Female","approach_avoid_spark_v1","""event"",""trial"",""time""
""fullscreenenter"",""1"",""4725""
","
","
","""event"",""trial"",""time""
""fullscreenenter"",""1"",""4725""
","
","true","","","","","","","","","","","","","","","","","","","",""
"preload","2","11367","0.0-2.0","4521","2","24","Female","approach_avoid_spark_v1","""event"",""trial"",""time""
""fullscreenenter"",""1"",""4725""
","
","
","""event"",""trial"",""time""
""fullscreenenter"",""1"",""4725""
","
","true","false","[]","[]","[]","","","","","","","","","","","","","","","",""
"audio-keyboard-response","3","13858","0.0-3.0","4521","2","24","Female","approach_avoid_spark_v1","""event"",""trial"",""time""
""fullscreenenter"",""1"",""4725""
","
","
","""event"",""trial"",""time""
""fullscreenenter"",""1"",""4725""
","
","","","","","","2490.666666666667","audio/beep_loop.wav","audiovolumeup","","","","","","","","","","","","",""
"audio-button-response","4","16275","0.0-4.0","4521","2","24","Female","approach_avoid_spark_v1","""event"",""trial"",""time""
""fullscreenenter"",""1"",""4725""
","
","
","""event"",""trial"",""time""
""fullscreenenter"",""1"",""4725""
","
","","","","","","2419","audio/shark.wav","0","","","","","","","","","","","","",""
"audio-button-response","5","19472","0.0-5.0","4521","2","24","Female","approach_avoid_spark_v1","""event"",""trial"",""time""
""fullscreenenter"",""1"",""4725""
","
","
","""event"",""trial"",""time""
""fullscreenenter"",""1"",""4725""
","
","","","","","","2179","audio/turtle.wav","1","","","","","","","","","","","","",""
"preload","6","22698","0.0-6.0","4521","2","24","Female","approach_avoid_spark_v1","""event"",""trial"",""time""
""fullscreenenter"",""1"",""4725""
","
","
","""event"",""trial"",""time""
""fullscreenenter"",""1"",""4725""
","
","true","false","[]","[]","[]","","","","","","","","","","","","","","","",""
"html-keyboard-response","7","26962","0.0-7.0","4521","2","24","Female","approach_avoid_spark_v1","""event"",""trial"",""time""
""fullscreenenter"",""1"",""4725""
","
","
","""event"",""trial"",""time""
""fullscreenenter"",""1"",""4725""
","
","","","","","","4262","Welcome to the experiment. Press any key to begin and to advance the instructions."," ","","","","","","","","","","","","",""
"learning-instructions","8","34713","0.0-8.0-0.0-0.0","4521","2","24","Female","approach_avoid_spark_v1","""event"",""trial"",""time""
""fullscreenenter"",""1"",""4725""
","
","
","""event"",""trial"",""time""
""fullscreenenter"",""1"",""4725""
","
","","","","","","789.6000001430511","<p> Welcome! Today you are going to play 6 different rounds of a decision-making game. </p><p> Use the mouse to click next to continue. </p>","","0","instructions","","","","","","","","","","",""
"learning-instructions","9","38227","0.0-8.0-0.0-0.1","4521","2","24","Female","approach_avoid_spark_v1","""event"",""trial"",""time""
""fullscreenenter"",""1"",""4725""
","
","
","""event"",""trial"",""time""
""fullscreenenter"",""1"",""4725""
","
","","","","","","773.5","<p> You will start with a practice round to learn the rules. </p>","","0","instructions","","","","","","","","","","",""
"learning-instructions","10","42223","0.0-8.0-0.0-0.2","4521","2","24","Female","approach_avoid_spark_v1","""event"",""trial"",""time""
""fullscreenenter"",""1"",""4725""
","
","
","""event"",""trial"",""time""
""fullscreenenter"",""1"",""4725""
","
","","","","","","550.3000001907349","<p> Your goal in this round is to give out sports equipment to kids. </p></div>","","0","instructions","","","","","","","","","","",""
"learning-instructions","11","50359","0.0-8.0-0.0-0.3","4521","2","24","Female","approach_avoid_spark_v1","""event"",""trial"",""time""
""fullscreenenter"",""1"",""4725""
","
","
","""event"",""trial"",""time""
""fullscreenenter"",""1"",""4725""
","
","","","","","","575.7999999523163","<p> The kids only like some of the equipment.  </p><p> On each turn, you will see a piece of sports equipment.   </p><p> You need to decide whether to give it to the kids or not.  </p>","","0","instructions","","","","","","","","","","",""
"learning-instructions","12","55685","0.0-8.0-0.0-0.4","4521","2","24","Female","approach_avoid_spark_v1","""event"",""trial"",""time""
""fullscreenenter"",""1"",""4725""
","
","
","""event"",""trial"",""time""
""fullscreenenter"",""1"",""4725""
","
","","","","","","561.2000000476837","<p> You can give them the equipment by pressing 1 and choose not to give it to them by pressing 0. </p><br><div class=""choice-instructions-grid""> <div class=""choice-option""><img src=""images/approach.png"" class=""choice-option-img"" stage=""instructions"" position=""0"" ><div class=""choice-option-text""> Press ""1."" </div></div><div class=""choice-option""><img src=""images/avoid.png"" class=""choice-option-img"" stage=""instructions"" position=""1"" ><div class=""choice-option-text""> Press ""0."" </div></div>","","0","instructions","","","","","","","","","","",""
"learning-instructions","13","63641","0.0-8.0-0.0-0.5","4521","2","24","Female","approach_avoid_spark_v1","""event"",""trial"",""time""
""fullscreenenter"",""1"",""4725""
","
","
","""event"",""trial"",""time""
""fullscreenenter"",""1"",""4725""
","
","","","","","","558.7000000476837","<p> If you give them a piece of equipment they like, they will be happy! </p><p> But if you give them a piece of equipment they do not like, they will be sad. </p>","","0","instructions","","","","","","","","","","",""
"learning-instructions","14","89380","0.0-8.0-0.0-0.6","4521","2","24","Female","approach_avoid_spark_v1","""event"",""trial"",""time""
""fullscreenenter"",""1"",""4725""
","
","
","""event"",""trial"",""time""
""fullscreenenter"",""1"",""4725""
","
","","","","","","15216.799999952316","<p> You will earn points based on how you make kids feel. </p><p> If you make them happy, you will WIN anywhere from 1 - 9 points, </p><p> but if you make them sad, you will LOSE anywhere from 1 - 9 points. </p>","","0","instructions","","","","","","","","","","",""
"learning-instructions","15","99752","0.0-8.0-0.0-0.7","4521","2","24","Female","approach_avoid_spark_v1","""event"",""trial"",""time""
""fullscreenenter"",""1"",""4725""
","
","
","""event"",""trial"",""time""
""fullscreenenter"",""1"",""4725""
","
","","","","","","799.0999999046326","<p> You will see how many points you won or lost in the center of the screen. </p><p> Here is what you would see if you won 6 points: </p><p style=""color:green;font-size:50px;font-weight:bolder"">6</p><p style=""color:green"">The text is GREEN because you WON points.</p>","","0","instructions","","","","","","","","","","",""
"learning-instructions","16","105721","0.0-8.0-0.0-0.8","4521","2","24","Female","approach_avoid_spark_v1","""event"",""trial"",""time""
""fullscreenenter"",""1"",""4725""
","
","
","""event"",""trial"",""time""
""fullscreenenter"",""1"",""4725""
","
","","","","","","457.90000009536743","<p> And here is what you would see if you lost 4 points: </p><p style=""color:red;font-size:50px;font-weight:bolder"">-4</p><p style=""color:red"">The text is RED because you LOST points. </p>","","0","instructions","","","","","","","","","","",""
"learning-instructions","17","121302","0.0-8.0-0.0-0.9","4521","2","24","Female","approach_avoid_spark_v1","""event"",""trial"",""time""
""fullscreenenter"",""1"",""4725""
","
","
","""event"",""trial"",""time""
""fullscreenenter"",""1"",""4725""
","
","","","","","","849.2000000476837","<p> Some of the equipment will make the kids VERY happy or sad. </p><p> These pieces of equipment will make you win or lose LOTS of points. </p><p> Other pieces of equipment will only make the kids a little happy or sad. </p><p> These pieces of equipment will make you win or lose small amounts of points. </p>","","0","instructions","","","","","","","","","","",""
"learning-instructions","18","132624","0.0-8.0-0.0-0.10","4521","2","24","Female","approach_avoid_spark_v1","""event"",""trial"",""time""
""fullscreenenter"",""1"",""4725""
","
","
","""event"",""trial"",""time""
""fullscreenenter"",""1"",""4725""
","
","","","","","","681.7000000476837","<p> If you choose not to give them the equipment, you will not win or lose any points. </p><p>  However, in the center of the screen, you will see the number of points you WOULD HAVE won or lost if you had given them the equipment. </p>","","0","instructions","","","","","","","","","","",""
"learning-instructions","19","155888","0.0-8.0-0.0-0.11","4521","2","24","Female","approach_avoid_spark_v1","""event"",""trial"",""time""
""fullscreenenter"",""1"",""4725""
","
","
","""event"",""trial"",""time""
""fullscreenenter"",""1"",""4725""
","
","","","","","","1726.6000001430511","<p> Here is what you might see if you did not give the equipment to the kids but it would have made them happy: </p><p style=""color:grey; font-size:50px; display: inline-block; border-spacing: 15px; border-width:3px; border-style:solid; border-color:red"">  &nbsp; 7 &nbsp; </p><p> Remember, in this case, you would not win or lose ANY points because you did not give them the equipment.  </p><p style=""color:grey"">The text is GREY because you earned ZERO points. </p><p style=""color:red"">However, choosing to give the kids the equipment would have made you win points. The box around the text is RED because you chose the worse option. </p>","","0","instructions","","","","","","","","","","",""
"learning-instructions","20","177802","0.0-8.0-0.0-0.12","4521","2","24","Female","approach_avoid_spark_v1","""event"",""trial"",""time""
""fullscreenenter"",""1"",""4725""
","
","
","""event"",""trial"",""time""
""fullscreenenter"",""1"",""4725""
","
","","","","","","830.1000001430511","<p> Here is what you might see if you did not give the equipment to the kids but it would have made them sad: </p><p style=""color:grey;font-size:50px; display: inline-block; border-spacing: 15px; border-width:3px; border-style:solid; border-color:green"">  &nbsp; -8 &nbsp; </p><p> Remember, in this case, you would not win or lose ANY points because you did not give them the equipment.  </p><p style=""color:grey"">The text is GREY because you earned ZERO points. </p><p  style=""color:green""> Choosing to give the kids the equipment would have made you lose points. The box around the text is GREEN because you chose the better option.</p>","","0","instructions","","","","","","","","","","",""
"learning-instructions","21","187787","0.0-8.0-0.0-0.13","4521","2","24","Female","approach_avoid_spark_v1","""event"",""trial"",""time""
""fullscreenenter"",""1"",""4725""
","
","
","""event"",""trial"",""time""
""fullscreenenter"",""1"",""4725""
","
","","","","","","754.7000000476837","<p> You will have 3 seconds to make each choice. Try to respond before time runs out! </p><p> You will lose 5 points each time you do not make a response. </p>","","0","instructions","","","","","","","","","","",""
"learning-instructions","22","193949","0.0-8.0-0.0-0.14","4521","2","24","Female","approach_avoid_spark_v1","""event"",""trial"",""time""
""fullscreenenter"",""1"",""4725""
","
","
","""event"",""trial"",""time""
""fullscreenenter"",""1"",""4725""
","
","","","","","","737.5","<p> This is just a practice round, but in the real game, your bonus payment will depend on your total number of points.","","0","instructions","","","","","","","","","","",""
"learning-instructions","23","200753","0.0-8.0-0.0-0.15","4521","2","24","Female","approach_avoid_spark_v1","""event"",""trial"",""time""
""fullscreenenter"",""1"",""4725""
","
","
","""event"",""trial"",""time""
""fullscreenenter"",""1"",""4725""
","
","","","","","","1030.7000000476837","<p> Remember, you can give them the equipment by pressing 1 and choose not to give it to them by pressing 0. </p><br><div class=""choice-instructions-grid""> <div class=""choice-option""><img src=""images/approach.png"" class=""choice-option-img"" stage=""instructions"" position=""0"" ><div class=""choice-option-text""> Press ""1."" </div></div><div class=""choice-option""><img src=""images/avoid.png"" class=""choice-option-img"" stage=""instructions"" position=""1"" ><div class=""choice-option-text""> Press ""0."" </div></div>","","0","instructions","","","","","","","","","","",""
"html-button-response","24","202677","0.0-8.0-1.0","4521","2","24","Female","approach_avoid_spark_v1","""event"",""trial"",""time""
""fullscreenenter"",""1"",""4725""
","
","
","""event"",""trial"",""time""
""fullscreenenter"",""1"",""4725""
","
","","","","","","1820.8999998569489","<p> Ready to practice? </p>","0","","","","","","","","","","","","",""
"html-keyboard-response","25","203310","0.0-8.0-2.0-0.0","4521","2","24","Female","approach_avoid_spark_v1","""event"",""trial"",""time""
""fullscreenenter"",""1"",""4725""
","
","
","""event"",""trial"",""time""
""fullscreenenter"",""1"",""4725""
","
","","","","","","null","<div style=""font-size:60px;"">+</div>","null","","fixation","","","","","","","","","","",""
"aa-learning-trial","26","206321","0.0-8.0-2.0-1.0","4521","2","24","Female","approach_avoid_spark_v1","""event"",""trial"",""time""
""fullscreenenter"",""1"",""4725""
","
","
","""event"",""trial"",""time""
""fullscreenenter"",""1"",""4725""
","
","","","","","","1204.3999998569489","images/racket2.png","","","learning","1","1","1","1","practice","practice","practice","-1","","",""
"html-keyboard-response","27","206840","0.0-8.0-2.0-0.1","4521","2","24","Female","approach_avoid_spark_v1","""event"",""trial"",""time""
""fullscreenenter"",""1"",""4725""
","
","
","""event"",""trial"",""time""
""fullscreenenter"",""1"",""4725""
","
","","","","","","null","<div style=""font-size:60px;"">+</div>","null","","fixation","","","","","","","","","","",""
"aa-learning-trial","28","209850","0.0-8.0-2.0-1.1","4521","2","24","Female","approach_avoid_spark_v1","""event"",""trial"",""time""
""fullscreenenter"",""1"",""4725""
","
","
","""event"",""trial"",""time""
""fullscreenenter"",""1"",""4725""
","
","","","","","","790.1999998092651","images/racket2.png","","","learning","-3","-3","1","1","practice","practice","practice","-1","","",""
"html-keyboard-response","29","210370","0.0-8.0-2.0-0.2","4521","2","24","Female","approach_avoid_spark_v1","""event"",""trial"",""time""
""fullscreenenter"",""1"",""4725""
","
","
","""event"",""trial"",""time""
""fullscreenenter"",""1"",""4725""
","
","","","","","","null","<div style=""font-size:60px;"">+</div>","null","","fixation","","","","","","","","","","",""
"aa-learning-trial","30","213390","0.0-8.0-2.0-1.2","4521","2","24","Female","approach_avoid_spark_v1","""event"",""trial"",""time""
""fullscreenenter"",""1"",""4725""
","
","
","""event"",""trial"",""time""
""fullscreenenter"",""1"",""4725""
","
","","","","","","909.3999998569489","images/ball2.png","","","learning","-4","-4","1","1","practice","practice","practice","-1","","",""
"html-keyboard-response","31","213910","0.0-8.0-2.0-0.3","4521","2","24","Female","approach_avoid_spark_v1","""event"",""trial"",""time""
""fullscreenenter"",""1"",""4725""
","
","
","""event"",""trial"",""time""
""fullscreenenter"",""1"",""4725""
","
","","","","","","null","<div style=""font-size:60px;"">+</div>","null","","fixation","","","","","","","","","","",""
"aa-learning-trial","32","216921","0.0-8.0-2.0-1.3","4521","2","24","Female","approach_avoid_spark_v1","""event"",""trial"",""time""
""fullscreenenter"",""1"",""4725""
","
","
","""event"",""trial"",""time""
""fullscreenenter"",""1"",""4725""
","
","","","","","","938.0999999046326","images/racket3.png","","","learning","-5","-5","1","1","practice","practice","practice","-1","","",""
"html-keyboard-response","33","217440","0.0-8.0-2.0-0.4","4521","2","24","Female","approach_avoid_spark_v1","""event"",""trial"",""time""
""fullscreenenter"",""1"",""4725""
","
","
","""event"",""trial"",""time""
""fullscreenenter"",""1"",""4725""
","
","","","","","","null","<div style=""font-size:60px;"">+</div>","null","","fixation","","","","","","","","","","",""
"aa-learning-trial","34","220451","0.0-8.0-2.0-1.4","4521","2","24","Female","approach_avoid_spark_v1","""event"",""trial"",""time""
""fullscreenenter"",""1"",""4725""
","
","
","""event"",""trial"",""time""
""fullscreenenter"",""1"",""4725""
","
","","","","","","1255.2999999523163","images/ball4.png","","","learning","5","5","1","1","practice","practice","practice","-1","","",""
"html-keyboard-response","35","220960","0.0-8.0-2.0-0.5","4521","2","24","Female","approach_avoid_spark_v1","""event"",""trial"",""time""
""fullscreenenter"",""1"",""4725""
","
","
","""event"",""trial"",""time""
""fullscreenenter"",""1"",""4725""
","
","","","","","","null","<div style=""font-size:60px;"">+</div>","null","","fixation","","","","","","","","","","",""
"aa-learning-trial","36","223980","0.0-8.0-2.0-1.5","4521","2","24","Female","approach_avoid_spark_v1","""event"",""trial"",""time""
""fullscreenenter"",""1"",""4725""
","
","
","""event"",""trial"",""time""
""fullscreenenter"",""1"",""4725""
","
","","","","","","1160.5999999046326","images/ball1.png","","","learning","9","9","1","1","practice","practice","practice","-1","","",""
"html-keyboard-response","37","224500","0.0-8.0-2.0-0.6","4521","2","24","Female","approach_avoid_spark_v1","""event"",""trial"",""time""
""fullscreenenter"",""1"",""4725""
","
","
","""event"",""trial"",""time""
""fullscreenenter"",""1"",""4725""
","
","","","","","","null","<div style=""font-size:60px;"">+</div>","null","","fixation","","","","","","","","","","",""
"aa-learning-trial","38","227531","0.0-8.0-2.0-1.6","4521","2","24","Female","approach_avoid_spark_v1","""event"",""trial"",""time""
""fullscreenenter"",""1"",""4725""
","
","
","""event"",""trial"",""time""
""fullscreenenter"",""1"",""4725""
","
","","","","","","942.7999999523163","images/ball3.png","","","learning","5","5","1","1","practice","practice","practice","-1","","",""
"html-keyboard-response","39","228051","0.0-8.0-2.0-0.7","4521","2","24","Female","approach_avoid_spark_v1","""event"",""trial"",""time""
""fullscreenenter"",""1"",""4725""
","
","
","""event"",""trial"",""time""
""fullscreenenter"",""1"",""4725""
","
","","","","","","null","<div style=""font-size:60px;"">+</div>","null","","fixation","","","","","","","","","","",""
"aa-learning-trial","40","231057","0.0-8.0-2.0-1.7","4521","2","24","Female","approach_avoid_spark_v1","""event"",""trial"",""time""
""fullscreenenter"",""1"",""4725""
","
","
","""event"",""trial"",""time""
""fullscreenenter"",""1"",""4725""
","
","","","","","","807.5999999046326","images/ball4.png","","","learning","3","3","1","1","practice","practice","practice","-1","","",""
"html-keyboard-response","41","231559","0.0-8.0-2.0-0.8","4521","2","24","Female","approach_avoid_spark_v1","""event"",""trial"",""time""
""fullscreenenter"",""1"",""4725""
","
","
","""event"",""trial"",""time""
""fullscreenenter"",""1"",""4725""
","
","","","","","","null","<div style=""font-size:60px;"">+</div>","null","","fixation","","","","","","","","","","",""
"aa-learning-trial","42","234568","0.0-8.0-2.0-1.8","4521","2","24","Female","approach_avoid_spark_v1","""event"",""trial"",""time""
""fullscreenenter"",""1"",""4725""
","
","
","""event"",""trial"",""time""
""fullscreenenter"",""1"",""4725""
","
","","","","","","1013.8000001907349","images/racket1.png","","","learning","-6","0","0","0","practice","practice","practice","-1","","",""
"html-keyboard-response","43","235077","0.0-8.0-2.0-0.9","4521","2","24","Female","approach_avoid_spark_v1","""event"",""trial"",""time""
""fullscreenenter"",""1"",""4725""
","
","
","""event"",""trial"",""time""
""fullscreenenter"",""1"",""4725""
","
","","","","","","null","<div style=""font-size:60px;"">+</div>","null","","fixation","","","","","","","","","","",""
"aa-learning-trial","44","238087","0.0-8.0-2.0-1.9","4521","2","24","Female","approach_avoid_spark_v1","""event"",""trial"",""time""
""fullscreenenter"",""1"",""4725""
","
","
","""event"",""trial"",""time""
""fullscreenenter"",""1"",""4725""
","
","","","","","","589.7000000476837","images/racket1.png","","","learning","7","0","0","0","practice","practice","practice","-1","","",""
"html-keyboard-response","45","238594","0.0-8.0-2.0-0.10","4521","2","24","Female","approach_avoid_spark_v1","""event"",""trial"",""time""
""fullscreenenter"",""1"",""4725""
","
","
","""event"",""trial"",""time""
""fullscreenenter"",""1"",""4725""
","
","","","","","","null","<div style=""font-size:60px;"">+</div>","null","","fixation","","","","","","","","","","",""
"aa-learning-trial","46","241607","0.0-8.0-2.0-1.10","4521","2","24","Female","approach_avoid_spark_v1","""event"",""trial"",""time""
""fullscreenenter"",""1"",""4725""
","
","
","""event"",""trial"",""time""
""fullscreenenter"",""1"",""4725""
","
","","","","","","611.0999999046326","images/ball4.png","","","learning","-7","-7","1","1","practice","practice","practice","-1","","",""
"html-keyboard-response","47","242115","0.0-8.0-2.0-0.11","4521","2","24","Female","approach_avoid_spark_v1","""event"",""trial"",""time""
""fullscreenenter"",""1"",""4725""
","
","
","""event"",""trial"",""time""
""fullscreenenter"",""1"",""4725""
","
","","","","","","null","<div style=""font-size:60px;"">+</div>","null","","fixation","","","","","","","","","","",""
"aa-learning-trial","48","245127","0.0-8.0-2.0-1.11","4521","2","24","Female","approach_avoid_spark_v1","""event"",""trial"",""time""
""fullscreenenter"",""1"",""4725""
","
","
","""event"",""trial"",""time""
""fullscreenenter"",""1"",""4725""
","
","","","","","","949.7000000476837","images/ball4.png","","","learning","-3","0","0","0","practice","practice","practice","-1","","",""
"html-button-response","49","247381","0.0-8.0-3.0","4521","2","24","Female","approach_avoid_spark_v1","""event"",""trial"",""time""
""fullscreenenter"",""1"",""4725""
","
","
","""event"",""trial"",""time""
""fullscreenenter"",""1"",""4725""
","
","","","","","","2251.600000143051","<p> You earned 4 points in the practice round! </p>","0","","break","","","","","","","","","","",""
"learning-instructions","50","254908","0.0-8.0-4.0-0.0","4521","2","24","Female","approach_avoid_spark_v1","""event"",""trial"",""time""
""fullscreenenter"",""1"",""4725""
","
","
","""event"",""trial"",""time""
""fullscreenenter"",""1"",""4725""
","
","","","","","","898.0999999046326","<p> It's almost time to start the real game. </p><p> Before you start, we're going to ask you a few questions about how the game works. </p>","","0","instructions","","","","","","","","","","",""
"preload","51","256437","0.0-8.0-5.0","4521","2","24","Female","approach_avoid_spark_v1","""event"",""trial"",""time""
""fullscreenenter"",""1"",""4725""
","
","
","""event"",""trial"",""time""
""fullscreenenter"",""1"",""4725""
","
","true","false","[]","[]","[]","","","","","","","","","","","","","","","",""
"comp-q","52","262542","0.0-8.0-6.0-0.0","4521","2","24","Female","approach_avoid_spark_v1","""event"",""trial"",""time""
""fullscreenenter"",""1"",""4725""
","
","
","""event"",""trial"",""time""
""fullscreenenter"",""1"",""4725""
","
","","","","","","1112.3000001907349","<p> <b> True or False? </b> </p><p> If you see a number in GREY, that means you earned that many points. </p>","","1","comp_question","","","","","","","","","true","",""
"comp-q","53","272236","0.0-8.0-6.0-1.0","4521","2","24","Female","approach_avoid_spark_v1","""event"",""trial"",""time""
""fullscreenenter"",""1"",""4725""
","
","
","""event"",""trial"",""time""
""fullscreenenter"",""1"",""4725""
","
","","","","","","1326.5999999046326","<p><b> That's right! </b> If you see a grey number, it means you earned ZERO points. <br> The grey numbers show the points you WOULD HAVE earned if you had made the other choice. </p>","","0","comp_answer","","","","","","","","","","",""
"comp-q","54","277777","0.0-8.0-7.0-0.0","4521","2","24","Female","approach_avoid_spark_v1","""event"",""trial"",""time""
""fullscreenenter"",""1"",""4725""
","
","
","""event"",""trial"",""time""
""fullscreenenter"",""1"",""4725""
","
","","","","","","847","<p> <b> True or False? </b> </p><p> You will have as much time as you want to make each choice. </p>","","1","comp_question","","","","","","","","","true","",""
"comp-q","55","284074","0.0-8.0-7.0-1.0","4521","2","24","Female","approach_avoid_spark_v1","""event"",""trial"",""time""
""fullscreenenter"",""1"",""4725""
","
","
","""event"",""trial"",""time""
""fullscreenenter"",""1"",""4725""
","
","","","","","","2244.2999999523163","<p> <b> That's right! </b> You will only have 3 seconds to make each choice. </p>","","0","comp_answer","","","","","","","","","","",""
"comp-q","56","289329","0.0-8.0-8.0-0.0","4521","2","24","Female","approach_avoid_spark_v1","""event"",""trial"",""time""
""fullscreenenter"",""1"",""4725""
","
","
","""event"",""trial"",""time""
""fullscreenenter"",""1"",""4725""
","
","","","","","","599","<p> <b> True or False? </b> </p><p> You should use the '1' and '0' keys to make your choices. </p>","","0","comp_question","","","","","","","","","true","",""
"comp-q","57","294576","0.0-8.0-8.0-1.0","4521","2","24","Female","approach_avoid_spark_v1","""event"",""trial"",""time""
""fullscreenenter"",""1"",""4725""
","
","
","""event"",""trial"",""time""
""fullscreenenter"",""1"",""4725""
","
","","","","","","636.2999999523163","<p> <b> That's right! </b> You should use the '1' and '0' keys to make each choice. </p>","","0","comp_answer","","","","","","","","","","",""
"learning-instructions","58","303714","0.0-8.0-9.0-0.0","4521","2","24","Female","approach_avoid_spark_v1","""event"",""trial"",""time""
""fullscreenenter"",""1"",""4725""
","
","
","""event"",""trial"",""time""
""fullscreenenter"",""1"",""4725""
","
","","","","","","2854.5","<p> It's now time to start the real game. </p>Do your best, because the points you earn in the next rounds will influence your bonus payment. </p>","","0","instructions","","","","","","","","","","",""
"preload","59","303848","0.0-9.0-0.0","4521","2","24","Female","approach_avoid_spark_v1","""event"",""trial"",""time""
""fullscreenenter"",""1"",""4725""
","
","
","""event"",""trial"",""time""
""fullscreenenter"",""1"",""4725""
","
","true","false","[]","[]","[]","","","","","","","","","","","","","","","",""
"learning-instructions","60","313469","0.0-9.0-1.0-0.0","4521","2","24","Female","approach_avoid_spark_v1","""event"",""trial"",""time""
""fullscreenenter"",""1"",""4725""
","
","
","""event"",""trial"",""time""
""fullscreenenter"",""1"",""4725""
","
","","","","","","3819.7999999523163","<p> Your goal in this round is to take your friend for rides in different vehicles. </p></div>","","0","instructions","","","","","","","","","","",""
"learning-instructions","61","324243","0.0-9.0-1.0-0.1","4521","2","24","Female","approach_avoid_spark_v1","""event"",""trial"",""time""
""fullscreenenter"",""1"",""4725""
","
","
","""event"",""trial"",""time""
""fullscreenenter"",""1"",""4725""
","
","","","","","","663.7999999523163","<p> Your friend enjoys riding in some vehicles but not in others.  </p><p> On each turn, you will see a vehicle.   </p><p> You need to decide whether to take your friend for a ride or not.  </p>","","0","instructions","","","","","","","","","","",""
"learning-instructions","62","333607","0.0-9.0-1.0-0.2","4521","2","24","Female","approach_avoid_spark_v1","""event"",""trial"",""time""
""fullscreenenter"",""1"",""4725""
","
","
","""event"",""trial"",""time""
""fullscreenenter"",""1"",""4725""
","
","","","","","","2787.399999856949","<p> You can take your friend for a ride in the vehicle by pressing 1 and skip the ride by pressing 0. </p><br><div class=""choice-instructions-grid""> <div class=""choice-option""><img src=""images/approach.png"" class=""choice-option-img"" stage=""instructions"" position=""0"" ><div class=""choice-option-text""> Press ""1."" </div></div><div class=""choice-option""><img src=""images/avoid.png"" class=""choice-option-img"" stage=""instructions"" position=""1"" ><div class=""choice-option-text""> Press ""0."" </div></div>","","0","instructions","","","","","","","","","","",""
"learning-instructions","63","343094","0.0-9.0-1.0-0.3","4521","2","24","Female","approach_avoid_spark_v1","""event"",""trial"",""time""
""fullscreenenter"",""1"",""4725""
","
","
","""event"",""trial"",""time""
""fullscreenenter"",""1"",""4725""
","
","","","","","","584.7999999523163","<p> If you take them for a ride in a vehicle they like, they will be thrilled! </p><p> But if you take them for a ride in a vehicle they do not like, they will be upset. </p>","","0","instructions","","","","","","","","","","",""
"learning-instructions","64","355226","0.0-9.0-1.0-0.4","4521","2","24","Female","approach_avoid_spark_v1","""event"",""trial"",""time""
""fullscreenenter"",""1"",""4725""
","
","
","""event"",""trial"",""time""
""fullscreenenter"",""1"",""4725""
","
","","","","","","466.7999999523163","<p> You will earn points based on how you made your friend feel. </p><p> If you made him thrilled, you will WIN anywhere from 1 - 9 points, </p><p> but if you made him upset, you will LOSE anywhere from 1 - 9 points. </p>","","0","instructions","","","","","","","","","","",""
"learning-instructions","65","364357","0.0-9.0-1.0-0.5","4521","2","24","Female","approach_avoid_spark_v1","""event"",""trial"",""time""
""fullscreenenter"",""1"",""4725""
","
","
","""event"",""trial"",""time""
""fullscreenenter"",""1"",""4725""
","
","","","","","","1317.5","<p> You will see how many points you won or lost in the center of the screen. </p><p> Here is what you would see if you won 5 points: </p><p style=""color:green;font-size:50px;font-weight:bolder"">5</p>","","0","instructions","","","","","","","","","","",""
"learning-instructions","66","368552","0.0-9.0-1.0-0.6","4521","2","24","Female","approach_avoid_spark_v1","""event"",""trial"",""time""
""fullscreenenter"",""1"",""4725""
","
","
","""event"",""trial"",""time""
""fullscreenenter"",""1"",""4725""
","
","","","","","","872.5","<p> And here is what you would see if you lost 3 points: </p><p style=""color:red;font-size:50px;font-weight:bolder"">-3</p>","","0","instructions","","","","","","","","","","",""
"learning-instructions","67","384249","0.0-9.0-1.0-0.7","4521","2","24","Female","approach_avoid_spark_v1","""event"",""trial"",""time""
""fullscreenenter"",""1"",""4725""
","
","
","""event"",""trial"",""time""
""fullscreenenter"",""1"",""4725""
","
","","","","","","499","<p> Some vehicles will make your friend REALLY thrilled or upset. </p><p> These vehicles will make you win or lose LOTS of points. </p><p> Other vehicles will only make him feel a little thrilled or upset. </p><p> These vehicles will make you win or lose small amounts of points. </p>","","0","instructions","","","","","","","","","","",""
"learning-instructions","68","397102","0.0-9.0-1.0-0.8","4521","2","24","Female","approach_avoid_spark_v1","""event"",""trial"",""time""
""fullscreenenter"",""1"",""4725""
","
","
","""event"",""trial"",""time""
""fullscreenenter"",""1"",""4725""
","
","","","","","","1091.3999998569489","<p> If you choose to skip the ride, you will not win or lose any points. </p><p>  However, in the center of the screen, you will see the number of points you WOULD HAVE won or lost if you had taken your friend for a ride. </p>","","0","instructions","","","","","","","","","","",""
"learning-instructions","69","410157","0.0-9.0-1.0-0.9","4521","2","24","Female","approach_avoid_spark_v1","""event"",""trial"",""time""
""fullscreenenter"",""1"",""4725""
","
","
","""event"",""trial"",""time""
""fullscreenenter"",""1"",""4725""
","
","","","","","","2055.7000000476837","<p> Here is what you might see if you did not take your friend for a ride but he would have enjoyed it: </p><p style=""color:grey; font-size:50px; display: inline-block; border-spacing: 15px; border-width:3px; border-style:solid; border-color:red"">  &nbsp; 6 &nbsp; </p><p> Remember, in this case, you would not win or lose ANY points because you skipped the ride.  </p>","","0","instructions","","","","","","","","","","",""
"learning-instructions","70","418320","0.0-9.0-1.0-0.10","4521","2","24","Female","approach_avoid_spark_v1","""event"",""trial"",""time""
""fullscreenenter"",""1"",""4725""
","
","
","""event"",""trial"",""time""
""fullscreenenter"",""1"",""4725""
","
","","","","","","428.80000019073486","<p> Try to make the best choice for each vehicle because </p><p> at the end of the game, you will earn bonus money based on how many points you earned. </p>","","0","instructions","","","","","","","","","","",""
"learning-instructions","71","429029","0.0-9.0-1.0-0.11","4521","2","24","Female","approach_avoid_spark_v1","""event"",""trial"",""time""
""fullscreenenter"",""1"",""4725""
","
","
","""event"",""trial"",""time""
""fullscreenenter"",""1"",""4725""
","
","","","","","","2506.9000000953674","<p> You will have 3 seconds to make each choice. Try to respond before time runs out! </p><p> You will lose 5 points each time you do not make a response. </p>","","0","instructions","","","","","","","","","","",""
"html-keyboard-response","72","429650","0.0-9.0-2.0-0.0","4521","2","24","Female","approach_avoid_spark_v1","""event"",""trial"",""time""
""fullscreenenter"",""1"",""4725""
","
","
","""event"",""trial"",""time""
""fullscreenenter"",""1"",""4725""
","
","","","","","","null","<div style=""font-size:60px;"">+</div>","null","","fixation","","","","","","","","","","",""
"aa-learning-trial","73","432660","0.0-9.0-2.0-1.0","4521","2","24","Female","approach_avoid_spark_v1","""event"",""trial"",""time""
""fullscreenenter"",""1"",""4725""
","
","
","""event"",""trial"",""time""
""fullscreenenter"",""1"",""4725""
","
","","","","","","null","images/plane5.png","","","learning","4","-5","","null","plane","vehicles","2","0","","bad","[-6]"
"html-keyboard-response","74","433179","0.0-9.0-2.0-0.1","4521","2","24","Female","approach_avoid_spark_v1","""event"",""trial"",""time""
""fullscreenenter"",""1"",""4725""
","
","
","""event"",""trial"",""time""
""fullscreenenter"",""1"",""4725""
","
","","","","","","null","<div style=""font-size:60px;"">+</div>","null","","fixation","","","","","","","","","","",""
"aa-learning-trial","75","436190","0.0-9.0-2.0-1.1","4521","2","24","Female","approach_avoid_spark_v1","""event"",""trial"",""time""
""fullscreenenter"",""1"",""4725""
","
","
","""event"",""trial"",""time""
""fullscreenenter"",""1"",""4725""
","
","","","","","","null","images/train4.png","","","learning","6","-5","","null","train","vehicles","2","0","","neutral","0"
"html-keyboard-response","76","436699","0.0-9.0-2.0-0.2","4521","2","24","Female","approach_avoid_spark_v1","""event"",""trial"",""time""
""fullscreenenter"",""1"",""4725""
","
","
","""event"",""trial"",""time""
""fullscreenenter"",""1"",""4725""
","
","","","","","","null","<div style=""font-size:60px;"">+</div>","null","","fixation","","","","","","","","","","",""
"aa-learning-trial","77","439710","0.0-9.0-2.0-1.2","4521","2","24","Female","approach_avoid_spark_v1","""event"",""trial"",""time""
""fullscreenenter"",""1"",""4725""
","
","
","""event"",""trial"",""time""
""fullscreenenter"",""1"",""4725""
","
","","","","","","560.7000000476837","images/plane4.png","","","learning","-1","-1","1","1","plane","vehicles","2","0","","bad","[-6]"
"html-keyboard-response","78","440230","0.0-9.0-2.0-0.3","4521","2","24","Female","approach_avoid_spark_v1","""event"",""trial"",""time""
""fullscreenenter"",""1"",""4725""
","
","
","""event"",""trial"",""time""
""fullscreenenter"",""1"",""4725""
","
","","","","","","null","<div style=""font-size:60px;"">+</div>","null","","fixation","","","","","","","","","","",""
"aa-learning-trial","79","443259","0.0-9.0-2.0-1.3","4521","2","24","Female","approach_avoid_spark_v1","""event"",""trial"",""time""
""fullscreenenter"",""1"",""4725""
","
","
","""event"",""trial"",""time""
""fullscreenenter"",""1"",""4725""
","
","","","","","","781.8000001907349","images/truck5.png","","","learning","-4","-4","1","1","truck","vehicles","2","0","","good","[3]"
"html-keyboard-response","80","443780","0.0-9.0-2.0-0.4","4521","2","24","Female","approach_avoid_spark_v1","""event"",""trial"",""time""
""fullscreenenter"",""1"",""4725""
","
","
","""event"",""trial"",""time""
""fullscreenenter"",""1"",""4725""
","
","","","","","","null","<div style=""font-size:60px;"">+</div>","null","","fixation","","","","","","","","","","",""
"aa-learning-trial","81","446790","0.0-9.0-2.0-1.4","4521","2","24","Female","approach_avoid_spark_v1","""event"",""trial"",""time""
""fullscreenenter"",""1"",""4725""
","
","
","""event"",""trial"",""time""
""fullscreenenter"",""1"",""4725""
","
","","","","","","973","images/train7.png","","","learning","5","5","1","1","train","vehicles","2","0","","neutral","0"
"html-keyboard-response","82","447300","0.0-9.0-2.0-0.5","4521","2","24","Female","approach_avoid_spark_v1","""event"",""trial"",""time""
""fullscreenenter"",""1"",""4725""
","
","
","""event"",""trial"",""time""
""fullscreenenter"",""1"",""4725""
","
","","","","","","null","<div style=""font-size:60px;"">+</div>","null","","fixation","","","","","","","","","","",""
"aa-learning-trial","83","450309","0.0-9.0-2.0-1.5","4521","2","24","Female","approach_avoid_spark_v1","""event"",""trial"",""time""
""fullscreenenter"",""1"",""4725""
","
","
","""event"",""trial"",""time""
""fullscreenenter"",""1"",""4725""
","
","","","","","","996.9000000953674","images/plane3.png","","","learning","-7","0","0","0","plane","vehicles","2","0","","bad","[-6]"
"html-keyboard-response","84","450819","0.0-9.0-2.0-0.6","4521","2","24","Female","approach_avoid_spark_v1","""event"",""trial"",""time""
""fullscreenenter"",""1"",""4725""
","
","
","""event"",""trial"",""time""
""fullscreenenter"",""1"",""4725""
","
","","","","","","null","<div style=""font-size:60px;"">+</div>","null","","fixation","","","","","","","","","","",""
"aa-learning-trial","85","453830","0.0-9.0-2.0-1.6","4521","2","24","Female","approach_avoid_spark_v1","""event"",""trial"",""time""
""fullscreenenter"",""1"",""4725""
","
","
","""event"",""trial"",""time""
""fullscreenenter"",""1"",""4725""
","
","","","","","","1278.4000000953674","images/truck5.png","","","learning","-4","0","0","0","truck","vehicles","2","0","","good","[3]"
"html-keyboard-response","86","454349","0.0-9.0-2.0-0.7","4521","2","24","Female","approach_avoid_spark_v1","""event"",""trial"",""time""
""fullscreenenter"",""1"",""4725""
","
","
","""event"",""trial"",""time""
""fullscreenenter"",""1"",""4725""
","
","","","","","","null","<div style=""font-size:60px;"">+</div>","null","","fixation","","","","","","","","","","",""
"aa-learning-trial","87","457368","0.0-9.0-2.0-1.7","4521","2","24","Female","approach_avoid_spark_v1","""event"",""trial"",""time""
""fullscreenenter"",""1"",""4725""
","
","
","""event"",""trial"",""time""
""fullscreenenter"",""1"",""4725""
","
","","","","","","973.3999998569489","images/plane5.png","","","learning","4","0","0","0","plane","vehicles","2","0","","bad","[-6]"
"html-keyboard-response","88","457875","0.0-9.0-2.0-0.8","4521","2","24","Female","approach_avoid_spark_v1","""event"",""trial"",""time""
""fullscreenenter"",""1"",""4725""
","
","
","""event"",""trial"",""time""
""fullscreenenter"",""1"",""4725""
","
","","","","","","null","<div style=""font-size:60px;"">+</div>","null","","fixation","","","","","","","","","","",""
"aa-learning-trial","89","460894","0.0-9.0-2.0-1.8","4521","2","24","Female","approach_avoid_spark_v1","""event"",""trial"",""time""
""fullscreenenter"",""1"",""4725""
","
","
","""event"",""trial"",""time""
""fullscreenenter"",""1"",""4725""
","
","","","","","","1287.9000000953674","images/truck6.png","","","learning","8","0","0","0","truck","vehicles","2","0","","good","[3]"
"html-keyboard-response","90","461404","0.0-9.0-2.0-0.9","4521","2","24","Female","approach_avoid_spark_v1","""event"",""trial"",""time""
""fullscreenenter"",""1"",""4725""
","
","
","""event"",""trial"",""time""
""fullscreenenter"",""1"",""4725""
","
","","","","","","null","<div style=""font-size:60px;"">+</div>","null","","fixation","","","","","","","","","","",""
"aa-learning-trial","91","464410","0.0-9.0-2.0-1.9","4521","2","24","Female","approach_avoid_spark_v1","""event"",""trial"",""time""
""fullscreenenter"",""1"",""4725""
","
","
","""event"",""trial"",""time""
""fullscreenenter"",""1"",""4725""
","
","","","","","","1113.3000001907349","images/plane3.png","","","learning","-7","0","0","0","plane","vehicles","2","0","","bad","[-6]"
"html-keyboard-response","92","464912","0.0-9.0-2.0-0.10","4521","2","24","Female","approach_avoid_spark_v1","""event"",""trial"",""time""
""fullscreenenter"",""1"",""4725""
","
","
","""event"",""trial"",""time""
""fullscreenenter"",""1"",""4725""
","
","","","","","","null","<div style=""font-size:60px;"">+</div>","null","","fixation","","","","","","","","","","",""
"aa-learning-trial","93","467930","0.0-9.0-2.0-1.10","4521","2","24","Female","approach_avoid_spark_v1","""event"",""trial"",""time""
""fullscreenenter"",""1"",""4725""
","
","
","""event"",""trial"",""time""
""fullscreenenter"",""1"",""4725""
","
","","","","","","943.2999999523163","images/truck8.png","","","learning","1","1","1","1","truck","vehicles","2","0","","good","[3]"
"html-keyboard-response","94","468437","0.0-9.0-2.0-0.11","4521","2","24","Female","approach_avoid_spark_v1","""event"",""trial"",""time""
""fullscreenenter"",""1"",""4725""
","
","
","""event"",""trial"",""time""
""fullscreenenter"",""1"",""4725""
","
","","","","","","null","<div style=""font-size:60px;"">+</div>","null","","fixation","","","","","","","","","","",""
"aa-learning-trial","95","471450","0.0-9.0-2.0-1.11","4521","2","24","Female","approach_avoid_spark_v1","""event"",""trial"",""time""
""fullscreenenter"",""1"",""4725""
","
","
","""event"",""trial"",""time""
""fullscreenenter"",""1"",""4725""
","
","","","","","","839.2999999523163","images/truck6.png","","","learning","8","8","1","1","truck","vehicles","2","0","","good","[3]"
"html-keyboard-response","96","471955","0.0-9.0-2.0-0.12","4521","2","24","Female","approach_avoid_spark_v1","""event"",""trial"",""time""
""fullscreenenter"",""1"",""4725""
","
","
","""event"",""trial"",""time""
""fullscreenenter"",""1"",""4725""
","
","","","","","","null","<div style=""font-size:60px;"">+</div>","null","","fixation","","","","","","","","","","",""
"aa-learning-trial","97","474961","0.0-9.0-2.0-1.12","4521","2","24","Female","approach_avoid_spark_v1","""event"",""trial"",""time""
""fullscreenenter"",""1"",""4725""
","
","
","""event"",""trial"",""time""
""fullscreenenter"",""1"",""4725""
","
","","","","","","1033.5","images/train4.png","","","learning","6","6","1","1","train","vehicles","2","0","","neutral","0"
"html-keyboard-response","98","475477","0.0-9.0-2.0-0.13","4521","2","24","Female","approach_avoid_spark_v1","""event"",""trial"",""time""
""fullscreenenter"",""1"",""4725""
","
","
","""event"",""trial"",""time""
""fullscreenenter"",""1"",""4725""
","
","","","","","","null","<div style=""font-size:60px;"">+</div>","null","","fixation","","","","","","","","","","",""
"aa-learning-trial","99","478495","0.0-9.0-2.0-1.13","4521","2","24","Female","approach_avoid_spark_v1","""event"",""trial"",""time""
""fullscreenenter"",""1"",""4725""
","
","
","""event"",""trial"",""time""
""fullscreenenter"",""1"",""4725""
","
","","","","","","1067.6999998092651","images/train7.png","","","learning","5","5","1","1","train","vehicles","2","0","","neutral","0"
"html-keyboard-response","100","479003","0.0-9.0-2.0-0.14","4521","2","24","Female","approach_avoid_spark_v1","""event"",""trial"",""time""
""fullscreenenter"",""1"",""4725""
","
","
","""event"",""trial"",""time""
""fullscreenenter"",""1"",""4725""
","
","","","","","","null","<div style=""font-size:60px;"">+</div>","null","","fixation","","","","","","","","","","",""
"aa-learning-trial","101","482009","0.0-9.0-2.0-1.14","4521","2","24","Female","approach_avoid_spark_v1","""event"",""trial"",""time""
""fullscreenenter"",""1"",""4725""
","
","
","""event"",""trial"",""time""
""fullscreenenter"",""1"",""4725""
","
","","","","","","926.7000000476837","images/train5.png","","","learning","-3","-3","1","1","train","vehicles","2","0","","neutral","0"
"html-keyboard-response","102","482518","0.0-9.0-2.0-0.15","4521","2","24","Female","approach_avoid_spark_v1","""event"",""trial"",""time""
""fullscreenenter"",""1"",""4725""
","
","
","""event"",""trial"",""time""
""fullscreenenter"",""1"",""4725""
","
","","","","","","null","<div style=""font-size:60px;"">+</div>","null","","fixation","","","","","","","","","","",""
"aa-learning-trial","103","485530","0.0-9.0-2.0-1.15","4521","2","24","Female","approach_avoid_spark_v1","""event"",""trial"",""time""
""fullscreenenter"",""1"",""4725""
","
","
","""event"",""trial"",""time""
""fullscreenenter"",""1"",""4725""
","
","","","","","","802.7999999523163","images/truck8.png","","","learning","1","1","1","1","truck","vehicles","2","0","","good","[3]"
"html-keyboard-response","104","486044","0.0-9.0-2.0-0.16","4521","2","24","Female","approach_avoid_spark_v1","""event"",""trial"",""time""
""fullscreenenter"",""1"",""4725""
","
","
","""event"",""trial"",""time""
""fullscreenenter"",""1"",""4725""
","
","","","","","","null","<div style=""font-size:60px;"">+</div>","null","","fixation","","","","","","","","","","",""
"aa-learning-trial","105","489051","0.0-9.0-2.0-1.16","4521","2","24","Female","approach_avoid_spark_v1","""event"",""trial"",""time""
""fullscreenenter"",""1"",""4725""
","
","
","""event"",""trial"",""time""
""fullscreenenter"",""1"",""4725""
","
","","","","","","851.0999999046326","images/train7.png","","","learning","5","5","1","1","train","vehicles","2","0","","neutral","0"
"html-keyboard-response","106","489563","0.0-9.0-2.0-0.17","4521","2","24","Female","approach_avoid_spark_v1","""event"",""trial"",""time""
""fullscreenenter"",""1"",""4725""
","
","
","""event"",""trial"",""time""
""fullscreenenter"",""1"",""4725""
","
","","","","","","null","<div style=""font-size:60px;"">+</div>","null","","fixation","","","","","","","","","","",""
"aa-learning-trial","107","492575","0.0-9.0-2.0-1.17","4521","2","24","Female","approach_avoid_spark_v1","""event"",""trial"",""time""
""fullscreenenter"",""1"",""4725""
","
","
","""event"",""trial"",""time""
""fullscreenenter"",""1"",""4725""
","
","","","","","","650.4000000953674","images/truck6.png","","","learning","8","8","1","1","truck","vehicles","2","0","","good","[3]"
"html-keyboard-response","108","493093","0.0-9.0-2.0-0.18","4521","2","24","Female","approach_avoid_spark_v1","""event"",""trial"",""time""
""fullscreenenter"",""1"",""4725""
","
","
","""event"",""trial"",""time""
""fullscreenenter"",""1"",""4725""
","
","","","","","","null","<div style=""font-size:60px;"">+</div>","null","","fixation","","","","","","","","","","",""
"aa-learning-trial","109","496102","0.0-9.0-2.0-1.18","4521","2","24","Female","approach_avoid_spark_v1","""event"",""trial"",""time""
""fullscreenenter"",""1"",""4725""
","
","
","""event"",""trial"",""time""
""fullscreenenter"",""1"",""4725""
","
","","","","","","1222.0999999046326","images/truck5.png","","","learning","-4","-4","1","1","truck","vehicles","2","0","","good","[3]"
"html-keyboard-response","110","496613","0.0-9.0-2.0-0.19","4521","2","24","Female","approach_avoid_spark_v1","""event"",""trial"",""time""
""fullscreenenter"",""1"",""4725""
","
","
","""event"",""trial"",""time""
""fullscreenenter"",""1"",""4725""
","
","","","","","","null","<div style=""font-size:60px;"">+</div>","null","","fixation","","","","","","","","","","",""
"aa-learning-trial","111","499616","0.0-9.0-2.0-1.19","4521","2","24","Female","approach_avoid_spark_v1","""event"",""trial"",""time""
""fullscreenenter"",""1"",""4725""
","
","
","""event"",""trial"",""time""
""fullscreenenter"",""1"",""4725""
","
","","","","","","702.7999999523163","images/plane6.png","","","learning","-5","0","0","0","plane","vehicles","2","0","","bad","[-6]"
"html-keyboard-response","112","500128","0.0-9.0-2.0-0.20","4521","2","24","Female","approach_avoid_spark_v1","""event"",""trial"",""time""
""fullscreenenter"",""1"",""4725""
","
","
","""event"",""trial"",""time""
""fullscreenenter"",""1"",""4725""
","
","","","","","","null","<div style=""font-size:60px;"">+</div>","null","","fixation","","","","","","","","","","",""
"aa-learning-trial","113","503136","0.0-9.0-2.0-1.20","4521","2","24","Female","approach_avoid_spark_v1","""event"",""trial"",""time""
""fullscreenenter"",""1"",""4725""
","
","
","""event"",""trial"",""time""
""fullscreenenter"",""1"",""4725""
","
","","","","","","633","images/truck6.png","","","learning","8","8","1","1","truck","vehicles","2","0","","good","[3]"
"html-keyboard-response","114","503642","0.0-9.0-2.0-0.21","4521","2","24","Female","approach_avoid_spark_v1","""event"",""trial"",""time""
""fullscreenenter"",""1"",""4725""
","
","
","""event"",""trial"",""time""
""fullscreenenter"",""1"",""4725""
","
","","","","","","null","<div style=""font-size:60px;"">+</div>","null","","fixation","","","","","","","","","","",""
"aa-learning-trial","115","506650","0.0-9.0-2.0-1.21","4521","2","24","Female","approach_avoid_spark_v1","""event"",""trial"",""time""
""fullscreenenter"",""1"",""4725""
","
","
","""event"",""trial"",""time""
""fullscreenenter"",""1"",""4725""
","
","","","","","","1049.6999998092651","images/train4.png","","","learning","6","6","1","1","train","vehicles","2","0","","neutral","0"
"html-keyboard-response","116","507160","0.0-9.0-2.0-0.22","4521","2","24","Female","approach_avoid_spark_v1","""event"",""trial"",""time""
""fullscreenenter"",""1"",""4725""
","
","
","""event"",""trial"",""time""
""fullscreenenter"",""1"",""4725""
","
","","","","","","null","<div style=""font-size:60px;"">+</div>","null","","fixation","","","","","","","","","","",""
"aa-learning-trial","117","510180","0.0-9.0-2.0-1.22","4521","2","24","Female","approach_avoid_spark_v1","""event"",""trial"",""time""
""fullscreenenter"",""1"",""4725""
","
","
","""event"",""trial"",""time""
""fullscreenenter"",""1"",""4725""
","
","","","","","","667.0999999046326","images/truck5.png","","","learning","-4","-4","1","1","truck","vehicles","2","0","","good","[3]"
"html-keyboard-response","118","510691","0.0-9.0-2.0-0.23","4521","2","24","Female","approach_avoid_spark_v1","""event"",""trial"",""time""
""fullscreenenter"",""1"",""4725""
","
","
","""event"",""trial"",""time""
""fullscreenenter"",""1"",""4725""
","
","","","","","","null","<div style=""font-size:60px;"">+</div>","null","","fixation","","","","","","","","","","",""
"aa-learning-trial","119","513701","0.0-9.0-2.0-1.23","4521","2","24","Female","approach_avoid_spark_v1","""event"",""trial"",""time""
""fullscreenenter"",""1"",""4725""
","
","
","""event"",""trial"",""time""
""fullscreenenter"",""1"",""4725""
","
","","","","","","719.5","images/train7.png","","","learning","5","5","1","1","train","vehicles","2","0","","neutral","0"
"html-keyboard-response","120","514218","0.0-9.0-2.0-0.24","4521","2","24","Female","approach_avoid_spark_v1","""event"",""trial"",""time""
""fullscreenenter"",""1"",""4725""
","
","
","""event"",""trial"",""time""
""fullscreenenter"",""1"",""4725""
","
","","","","","","null","<div style=""font-size:60px;"">+</div>","null","","fixation","","","","","","","","","","",""
"aa-learning-trial","121","517229","0.0-9.0-2.0-1.24","4521","2","24","Female","approach_avoid_spark_v1","""event"",""trial"",""time""
""fullscreenenter"",""1"",""4725""
","
","
","""event"",""trial"",""time""
""fullscreenenter"",""1"",""4725""
","
","","","","","","1349.7000000476837","images/truck8.png","","","learning","1","1","1","1","truck","vehicles","2","0","","good","[3]"
"html-keyboard-response","122","517737","0.0-9.0-2.0-0.25","4521","2","24","Female","approach_avoid_spark_v1","""event"",""trial"",""time""
""fullscreenenter"",""1"",""4725""
","
","
","""event"",""trial"",""time""
""fullscreenenter"",""1"",""4725""
","
","","","","","","null","<div style=""font-size:60px;"">+</div>","null","","fixation","","","","","","","","","","",""
"aa-learning-trial","123","520749","0.0-9.0-2.0-1.25","4521","2","24","Female","approach_avoid_spark_v1","""event"",""trial"",""time""
""fullscreenenter"",""1"",""4725""
","
","
","""event"",""trial"",""time""
""fullscreenenter"",""1"",""4725""
","
","","","","","","871.5","images/train3.png","","","learning","-6","-6","1","1","train","vehicles","2","0","","neutral","0"
"html-keyboard-response","124","521264","0.0-9.0-2.0-0.26","4521","2","24","Female","approach_avoid_spark_v1","""event"",""trial"",""time""
""fullscreenenter"",""1"",""4725""
","
","
","""event"",""trial"",""time""
""fullscreenenter"",""1"",""4725""
","
","","","","","","null","<div style=""font-size:60px;"">+</div>","null","","fixation","","","","","","","","","","",""
"aa-learning-trial","125","524281","0.0-9.0-2.0-1.26","4521","2","24","Female","approach_avoid_spark_v1","""event"",""trial"",""time""
""fullscreenenter"",""1"",""4725""
","
","
","""event"",""trial"",""time""
""fullscreenenter"",""1"",""4725""
","
","","","","","","993.6000001430511","images/train4.png","","","learning","6","6","1","1","train","vehicles","2","0","","neutral","0"
"html-keyboard-response","126","524796","0.0-9.0-2.0-0.27","4521","2","24","Female","approach_avoid_spark_v1","""event"",""trial"",""time""
""fullscreenenter"",""1"",""4725""
","
","
","""event"",""trial"",""time""
""fullscreenenter"",""1"",""4725""
","
","","","","","","null","<div style=""font-size:60px;"">+</div>","null","","fixation","","","","","","","","","","",""
"aa-learning-trial","127","527807","0.0-9.0-2.0-1.27","4521","2","24","Female","approach_avoid_spark_v1","""event"",""trial"",""time""
""fullscreenenter"",""1"",""4725""
","
","
","""event"",""trial"",""time""
""fullscreenenter"",""1"",""4725""
","
","","","","","","883.9000000953674","images/truck5.png","","","learning","-4","0","0","0","truck","vehicles","2","0","","good","[3]"
"html-keyboard-response","128","528325","0.0-9.0-2.0-0.28","4521","2","24","Female","approach_avoid_spark_v1","""event"",""trial"",""time""
""fullscreenenter"",""1"",""4725""
","
","
","""event"",""trial"",""time""
""fullscreenenter"",""1"",""4725""
","
","","","","","","null","<div style=""font-size:60px;"">+</div>","null","","fixation","","","","","","","","","","",""
"aa-learning-trial","129","531331","0.0-9.0-2.0-1.28","4521","2","24","Female","approach_avoid_spark_v1","""event"",""trial"",""time""
""fullscreenenter"",""1"",""4725""
","
","
","""event"",""trial"",""time""
""fullscreenenter"",""1"",""4725""
","
","","","","","","1025","images/train1.png","","","learning","-2","-2","1","1","train","vehicles","2","0","","neutral","0"
"html-keyboard-response","130","531849","0.0-9.0-2.0-0.29","4521","2","24","Female","approach_avoid_spark_v1","""event"",""trial"",""time""
""fullscreenenter"",""1"",""4725""
","
","
","""event"",""trial"",""time""
""fullscreenenter"",""1"",""4725""
","
","","","","","","null","<div style=""font-size:60px;"">+</div>","null","","fixation","","","","","","","","","","",""
"aa-learning-trial","131","534856","0.0-9.0-2.0-1.29","4521","2","24","Female","approach_avoid_spark_v1","""event"",""trial"",""time""
""fullscreenenter"",""1"",""4725""
","
","
","""event"",""trial"",""time""
""fullscreenenter"",""1"",""4725""
","
","","","","","","830.2000000476837","images/train4.png","","","learning","6","6","1","1","train","vehicles","2","0","","neutral","0"
"html-keyboard-response","132","535368","0.0-9.0-2.0-0.30","4521","2","24","Female","approach_avoid_spark_v1","""event"",""trial"",""time""
""fullscreenenter"",""1"",""4725""
","
","
","""event"",""trial"",""time""
""fullscreenenter"",""1"",""4725""
","
","","","","","","null","<div style=""font-size:60px;"">+</div>","null","","fixation","","","","","","","","","","",""
"aa-learning-trial","133","538383","0.0-9.0-2.0-1.30","4521","2","24","Female","approach_avoid_spark_v1","""event"",""trial"",""time""
""fullscreenenter"",""1"",""4725""
","
","
","""event"",""trial"",""time""
""fullscreenenter"",""1"",""4725""
","
","","","","","","664.4000000953674","images/plane3.png","","","learning","-7","0","0","0","plane","vehicles","2","0","","bad","[-6]"
"html-keyboard-response","134","538896","0.0-9.0-2.0-0.31","4521","2","24","Female","approach_avoid_spark_v1","""event"",""trial"",""time""
""fullscreenenter"",""1"",""4725""
","
","
","""event"",""trial"",""time""
""fullscreenenter"",""1"",""4725""
","
","","","","","","null","<div style=""font-size:60px;"">+</div>","null","","fixation","","","","","","","","","","",""
"aa-learning-trial","135","541915","0.0-9.0-2.0-1.31","4521","2","24","Female","approach_avoid_spark_v1","""event"",""trial"",""time""
""fullscreenenter"",""1"",""4725""
","
","
","""event"",""trial"",""time""
""fullscreenenter"",""1"",""4725""
","
","","","","","","737.5","images/plane3.png","","","learning","-7","0","0","0","plane","vehicles","2","0","","bad","[-6]"
"html-keyboard-response","136","542424","0.0-9.0-2.0-0.32","4521","2","24","Female","approach_avoid_spark_v1","""event"",""trial"",""time""
""fullscreenenter"",""1"",""4725""
","
","
","""event"",""trial"",""time""
""fullscreenenter"",""1"",""4725""
","
","","","","","","null","<div style=""font-size:60px;"">+</div>","null","","fixation","","","","","","","","","","",""
"aa-learning-trial","137","545433","0.0-9.0-2.0-1.32","4521","2","24","Female","approach_avoid_spark_v1","""event"",""trial"",""time""
""fullscreenenter"",""1"",""4725""
","
","
","""event"",""trial"",""time""
""fullscreenenter"",""1"",""4725""
","
","","","","","","1563.7000000476837","images/truck5.png","","","learning","-4","0","0","0","truck","vehicles","2","0","","good","[3]"
"html-keyboard-response","138","545937","0.0-9.0-2.0-0.33","4521","2","24","Female","approach_avoid_spark_v1","""event"",""trial"",""time""
""fullscreenenter"",""1"",""4725""
","
","
","""event"",""trial"",""time""
""fullscreenenter"",""1"",""4725""
","
","","","","","","null","<div style=""font-size:60px;"">+</div>","null","","fixation","","","","","","","","","","",""
"aa-learning-trial","139","548956","0.0-9.0-2.0-1.33","4521","2","24","Female","approach_avoid_spark_v1","""event"",""trial"",""time""
""fullscreenenter"",""1"",""4725""
","
","
","""event"",""trial"",""time""
""fullscreenenter"",""1"",""4725""
","
","","","","","","898.8000001907349","images/train5.png","","","learning","-3","0","0","0","train","vehicles","2","0","","neutral","0"
"html-keyboard-response","140","549468","0.0-9.0-2.0-0.34","4521","2","24","Female","approach_avoid_spark_v1","""event"",""trial"",""time""
""fullscreenenter"",""1"",""4725""
","
","
","""event"",""trial"",""time""
""fullscreenenter"",""1"",""4725""
","
","","","","","","null","<div style=""font-size:60px;"">+</div>","null","","fixation","","","","","","","","","","",""
"aa-learning-trial","141","552475","0.0-9.0-2.0-1.34","4521","2","24","Female","approach_avoid_spark_v1","""event"",""trial"",""time""
""fullscreenenter"",""1"",""4725""
","
","
","""event"",""trial"",""time""
""fullscreenenter"",""1"",""4725""
","
","","","","","","792.3000001907349","images/train4.png","","","learning","6","6","1","1","train","vehicles","2","0","","neutral","0"
"html-keyboard-response","142","552984","0.0-9.0-2.0-0.35","4521","2","24","Female","approach_avoid_spark_v1","""event"",""trial"",""time""
""fullscreenenter"",""1"",""4725""
","
","
","""event"",""trial"",""time""
""fullscreenenter"",""1"",""4725""
","
","","","","","","null","<div style=""font-size:60px;"">+</div>","null","","fixation","","","","","","","","","","",""
"aa-learning-trial","143","555999","0.0-9.0-2.0-1.35","4521","2","24","Female","approach_avoid_spark_v1","""event"",""trial"",""time""
""fullscreenenter"",""1"",""4725""
","
","
","""event"",""trial"",""time""
""fullscreenenter"",""1"",""4725""
","
","","","","","","1085.5","images/train7.png","","","learning","5","0","0","0","train","vehicles","2","0","","neutral","0"
"html-keyboard-response","144","556505","0.0-9.0-2.0-0.36","4521","2","24","Female","approach_avoid_spark_v1","""event"",""trial"",""time""
""fullscreenenter"",""1"",""4725""
","
","
","""event"",""trial"",""time""
""fullscreenenter"",""1"",""4725""
","
","","","","","","null","<div style=""font-size:60px;"">+</div>","null","","fixation","","","","","","","","","","",""
"aa-learning-trial","145","559513","0.0-9.0-2.0-1.36","4521","2","24","Female","approach_avoid_spark_v1","""event"",""trial"",""time""
""fullscreenenter"",""1"",""4725""
","
","
","""event"",""trial"",""time""
""fullscreenenter"",""1"",""4725""
","
","","","","","","1016.9000000953674","images/plane4.png","","","learning","-1","0","0","0","plane","vehicles","2","0","","bad","[-6]"
"html-keyboard-response","146","560018","0.0-9.0-2.0-0.37","4521","2","24","Female","approach_avoid_spark_v1","""event"",""trial"",""time""
""fullscreenenter"",""1"",""4725""
","
","
","""event"",""trial"",""time""
""fullscreenenter"",""1"",""4725""
","
","","","","","","null","<div style=""font-size:60px;"">+</div>","null","","fixation","","","","","","","","","","",""
"aa-learning-trial","147","563026","0.0-9.0-2.0-1.37","4521","2","24","Female","approach_avoid_spark_v1","""event"",""trial"",""time""
""fullscreenenter"",""1"",""4725""
","
","
","""event"",""trial"",""time""
""fullscreenenter"",""1"",""4725""
","
","","","","","","850.9000000953674","images/truck4.png","","","learning","3","3","1","1","truck","vehicles","2","0","","good","[3]"
"html-keyboard-response","148","563531","0.0-9.0-2.0-0.38","4521","2","24","Female","approach_avoid_spark_v1","""event"",""trial"",""time""
""fullscreenenter"",""1"",""4725""
","
","
","""event"",""trial"",""time""
""fullscreenenter"",""1"",""4725""
","
","","","","","","null","<div style=""font-size:60px;"">+</div>","null","","fixation","","","","","","","","","","",""
"aa-learning-trial","149","566542","0.0-9.0-2.0-1.38","4521","2","24","Female","approach_avoid_spark_v1","""event"",""trial"",""time""
""fullscreenenter"",""1"",""4725""
","
","
","""event"",""trial"",""time""
""fullscreenenter"",""1"",""4725""
","
","","","","","","986.7999999523163","images/plane4.png","","","learning","-1","-1","1","1","plane","vehicles","2","0","","bad","[-6]"
"html-keyboard-response","150","567050","0.0-9.0-2.0-0.39","4521","2","24","Female","approach_avoid_spark_v1","""event"",""trial"",""time""
""fullscreenenter"",""1"",""4725""
","
","
","""event"",""trial"",""time""
""fullscreenenter"",""1"",""4725""
","
","","","","","","null","<div style=""font-size:60px;"">+</div>","null","","fixation","","","","","","","","","","",""
"aa-learning-trial","151","570057","0.0-9.0-2.0-1.39","4521","2","24","Female","approach_avoid_spark_v1","""event"",""trial"",""time""
""fullscreenenter"",""1"",""4725""
","
","
","""event"",""trial"",""time""
""fullscreenenter"",""1"",""4725""
","
","","","","","","1199.3999998569489","images/train7.png","","","learning","5","5","1","1","train","vehicles","2","0","","neutral","0"
"html-keyboard-response","152","570562","0.0-9.0-2.0-0.40","4521","2","24","Female","approach_avoid_spark_v1","""event"",""trial"",""time""
""fullscreenenter"",""1"",""4725""
","
","
","""event"",""trial"",""time""
""fullscreenenter"",""1"",""4725""
","
","","","","","","null","<div style=""font-size:60px;"">+</div>","null","","fixation","","","","","","","","","","",""
"aa-learning-trial","153","573569","0.0-9.0-2.0-1.40","4521","2","24","Female","approach_avoid_spark_v1","""event"",""trial"",""time""
""fullscreenenter"",""1"",""4725""
","
","
","""event"",""trial"",""time""
""fullscreenenter"",""1"",""4725""
","
","","","","","","888.5","images/plane5.png","","","learning","4","0","0","0","plane","vehicles","2","0","","bad","[-6]"
"html-keyboard-response","154","574082","0.0-9.0-2.0-0.41","4521","2","24","Female","approach_avoid_spark_v1","""event"",""trial"",""time""
""fullscreenenter"",""1"",""4725""
","
","
","""event"",""trial"",""time""
""fullscreenenter"",""1"",""4725""
","
","","","","","","null","<div style=""font-size:60px;"">+</div>","null","","fixation","","","","","","","","","","",""
"aa-learning-trial","155","577090","0.0-9.0-2.0-1.41","4521","2","24","Female","approach_avoid_spark_v1","""event"",""trial"",""time""
""fullscreenenter"",""1"",""4725""
","
","
","""event"",""trial"",""time""
""fullscreenenter"",""1"",""4725""
","
","","","","","","591.4000000953674","images/plane5.png","","","learning","4","4","1","1","plane","vehicles","2","0","","bad","[-6]"
"html-keyboard-response","156","577601","0.0-9.0-2.0-0.42","4521","2","24","Female","approach_avoid_spark_v1","""event"",""trial"",""time""
""fullscreenenter"",""1"",""4725""
","
","
","""event"",""trial"",""time""
""fullscreenenter"",""1"",""4725""
","
","","","","","","null","<div style=""font-size:60px;"">+</div>","null","","fixation","","","","","","","","","","",""
"aa-learning-trial","157","580611","0.0-9.0-2.0-1.42","4521","2","24","Female","approach_avoid_spark_v1","""event"",""trial"",""time""
""fullscreenenter"",""1"",""4725""
","
","
","""event"",""trial"",""time""
""fullscreenenter"",""1"",""4725""
","
","","","","","","828.2999999523163","images/plane3.png","","","learning","-7","0","0","0","plane","vehicles","2","0","","bad","[-6]"
"html-keyboard-response","158","581124","0.0-9.0-2.0-0.43","4521","2","24","Female","approach_avoid_spark_v1","""event"",""trial"",""time""
""fullscreenenter"",""1"",""4725""
","
","
","""event"",""trial"",""time""
""fullscreenenter"",""1"",""4725""
","
","","","","","","null","<div style=""font-size:60px;"">+</div>","null","","fixation","","","","","","","","","","",""
"aa-learning-trial","159","584129","0.0-9.0-2.0-1.43","4521","2","24","Female","approach_avoid_spark_v1","""event"",""trial"",""time""
""fullscreenenter"",""1"",""4725""
","
","
","""event"",""trial"",""time""
""fullscreenenter"",""1"",""4725""
","
","","","","","","689.4000000953674","images/plane3.png","","","learning","-7","0","0","0","plane","vehicles","2","0","","bad","[-6]"
"html-keyboard-response","160","584642","0.0-9.0-2.0-0.44","4521","2","24","Female","approach_avoid_spark_v1","""event"",""trial"",""time""
""fullscreenenter"",""1"",""4725""
","
","
","""event"",""trial"",""time""
""fullscreenenter"",""1"",""4725""
","
","","","","","","null","<div style=""font-size:60px;"">+</div>","null","","fixation","","","","","","","","","","",""
"aa-learning-trial","161","587649","0.0-9.0-2.0-1.44","4521","2","24","Female","approach_avoid_spark_v1","""event"",""trial"",""time""
""fullscreenenter"",""1"",""4725""
","
","
","""event"",""trial"",""time""
""fullscreenenter"",""1"",""4725""
","
","","","","","","865.9000000953674","images/truck6.png","","","learning","8","8","1","1","truck","vehicles","2","0","","good","[3]"
"html-keyboard-response","162","588159","0.0-9.0-2.0-0.45","4521","2","24","Female","approach_avoid_spark_v1","""event"",""trial"",""time""
""fullscreenenter"",""1"",""4725""
","
","
","""event"",""trial"",""time""
""fullscreenenter"",""1"",""4725""
","
","","","","","","null","<div style=""font-size:60px;"">+</div>","null","","fixation","","","","","","","","","","",""
"aa-learning-trial","163","591177","0.0-9.0-2.0-1.45","4521","2","24","Female","approach_avoid_spark_v1","""event"",""trial"",""time""
""fullscreenenter"",""1"",""4725""
","
","
","""event"",""trial"",""time""
""fullscreenenter"",""1"",""4725""
","
","","","","","","986.6000001430511","images/train5.png","","","learning","-3","0","0","0","train","vehicles","2","0","","neutral","0"
"html-keyboard-response","164","591698","0.0-9.0-2.0-0.46","4521","2","24","Female","approach_avoid_spark_v1","""event"",""trial"",""time""
""fullscreenenter"",""1"",""4725""
","
","
","""event"",""trial"",""time""
""fullscreenenter"",""1"",""4725""
","
","","","","","","null","<div style=""font-size:60px;"">+</div>","null","","fixation","","","","","","","","","","",""
"aa-learning-trial","165","594721","0.0-9.0-2.0-1.46","4521","2","24","Female","approach_avoid_spark_v1","""event"",""trial"",""time""
""fullscreenenter"",""1"",""4725""
","
","
","""event"",""trial"",""time""
""fullscreenenter"",""1"",""4725""
","
","","","","","","878.8999998569489","images/plane8.png","","","learning","9","0","0","0","plane","vehicles","2","0","","bad","[-6]"
"html-keyboard-response","166","595243","0.0-9.0-2.0-0.47","4521","2","24","Female","approach_avoid_spark_v1","""event"",""trial"",""time""
""fullscreenenter"",""1"",""4725""
","
","
","""event"",""trial"",""time""
""fullscreenenter"",""1"",""4725""
","
","","","","","","null","<div style=""font-size:60px;"">+</div>","null","","fixation","","","","","","","","","","",""
"aa-learning-trial","167","598261","0.0-9.0-2.0-1.47","4521","2","24","Female","approach_avoid_spark_v1","""event"",""trial"",""time""
""fullscreenenter"",""1"",""4725""
","
","
","""event"",""trial"",""time""
""fullscreenenter"",""1"",""4725""
","
","","","","","","1306.7999999523163","images/truck1.png","","","learning","-8","-8","1","1","truck","vehicles","2","0","","good","[3]"
"html-keyboard-response","168","598769","0.0-9.0-2.0-0.48","4521","2","24","Female","approach_avoid_spark_v1","""event"",""trial"",""time""
""fullscreenenter"",""1"",""4725""
","
","
","""event"",""trial"",""time""
""fullscreenenter"",""1"",""4725""
","
","","","","","","null","<div style=""font-size:60px;"">+</div>","null","","fixation","","","","","","","","","","",""
"aa-learning-trial","169","601774","0.0-9.0-2.0-1.48","4521","2","24","Female","approach_avoid_spark_v1","""event"",""trial"",""time""
""fullscreenenter"",""1"",""4725""
","
","
","""event"",""trial"",""time""
""fullscreenenter"",""1"",""4725""
","
","","","","","","1890.6999998092651","images/plane5.png","","","learning","4","0","0","0","plane","vehicles","2","0","","bad","[-6]"
"html-keyboard-response","170","602285","0.0-9.0-2.0-0.49","4521","2","24","Female","approach_avoid_spark_v1","""event"",""trial"",""time""
""fullscreenenter"",""1"",""4725""
","
","
","""event"",""trial"",""time""
""fullscreenenter"",""1"",""4725""
","
","","","","","","null","<div style=""font-size:60px;"">+</div>","null","","fixation","","","","","","","","","","",""
"aa-learning-trial","171","605293","0.0-9.0-2.0-1.49","4521","2","24","Female","approach_avoid_spark_v1","""event"",""trial"",""time""
""fullscreenenter"",""1"",""4725""
","
","
","""event"",""trial"",""time""
""fullscreenenter"",""1"",""4725""
","
","","","","","","540.2000000476837","images/truck6.png","","","learning","8","8","1","1","truck","vehicles","2","0","","good","[3]"
"html-keyboard-response","172","605799","0.0-9.0-2.0-0.50","4521","2","24","Female","approach_avoid_spark_v1","""event"",""trial"",""time""
""fullscreenenter"",""1"",""4725""
","
","
","""event"",""trial"",""time""
""fullscreenenter"",""1"",""4725""
","
","","","","","","null","<div style=""font-size:60px;"">+</div>","null","","fixation","","","","","","","","","","",""
"aa-learning-trial","173","608813","0.0-9.0-2.0-1.50","4521","2","24","Female","approach_avoid_spark_v1","""event"",""trial"",""time""
""fullscreenenter"",""1"",""4725""
","
","
","""event"",""trial"",""time""
""fullscreenenter"",""1"",""4725""
","
","","","","","","613.5999999046326","images/plane5.png","","","learning","4","4","1","1","plane","vehicles","2","0","","bad","[-6]"
"html-button-response","174","610807","0.0-9.0-3.0","4521","2","24","Female","approach_avoid_spark_v1","""event"",""trial"",""time""
""fullscreenenter"",""1"",""4725""
","
","
","""event"",""trial"",""time""
""fullscreenenter"",""1"",""4725""
","
","","","","","","1992.1000001430511","<p> You have completed the round! <p> In this round, you earned 66 points! </p>","0","","break","","","","","","","","","","",""
"html-button-response","175","612694","0.0-10.0","4521","2","24","Female","approach_avoid_spark_v1","""event"",""trial"",""time""
""fullscreenenter"",""1"",""4725""
","
","
","""event"",""trial"",""time""
""fullscreenenter"",""1"",""4725""
","
","","","","","","1885.2999999523163","<p> Now it's time to play another round. </p>","0","","transition_screen","","","","","","","","","","",""
"preload","176","612821","0.0-11.0-0.0","4521","2","24","Female","approach_avoid_spark_v1","""event"",""trial"",""time""
""fullscreenenter"",""1"",""4725""
","
","
","""event"",""trial"",""time""
""fullscreenenter"",""1"",""4725""
","
","true","false","[]","[]","[]","","","","","","","","","","","","","","","",""
"learning-instructions","177","621073","0.0-11.0-1.0-0.0","4521","2","24","Female","approach_avoid_spark_v1","""event"",""trial"",""time""
""fullscreenenter"",""1"",""4725""
","
","
","""event"",""trial"",""time""
""fullscreenenter"",""1"",""4725""
","
","","","","","","4083.5","<p> Your goal in this round is to eat tasty fruit. </p></div>","","0","instructions","","","","","","","","","","",""
"learning-instructions","178","632430","0.0-11.0-1.0-0.1","4521","2","24","Female","approach_avoid_spark_v1","""event"",""trial"",""time""
""fullscreenenter"",""1"",""4725""
","
","
","""event"",""trial"",""time""
""fullscreenenter"",""1"",""4725""
","
","","","","","","1351.2000000476837","<p> Some of the fruits you will see are tasty. Others are rotten on the inside.  </p><p> On each turn, you will see a fruit.   </p><p> You need to decide whether to eat it or not.  </p>","","0","instructions","","","","","","","","","","",""
"learning-instructions","179","638871","0.0-11.0-1.0-0.2","4521","2","24","Female","approach_avoid_spark_v1","""event"",""trial"",""time""
""fullscreenenter"",""1"",""4725""
","
","
","""event"",""trial"",""time""
""fullscreenenter"",""1"",""4725""
","
","","","","","","1671.5","<p> You can eat the fruit by pressing 1 and choose not to eat it by pressing 0. </p><br><div class=""choice-instructions-grid""> <div class=""choice-option""><img src=""images/approach.png"" class=""choice-option-img"" stage=""instructions"" position=""0"" ><div class=""choice-option-text""> Press ""1."" </div></div><div class=""choice-option""><img src=""images/avoid.png"" class=""choice-option-img"" stage=""instructions"" position=""1"" ><div class=""choice-option-text""> Press ""0."" </div></div>","","0","instructions","","","","","","","","","","",""
"learning-instructions","180","648111","0.0-11.0-1.0-0.3","4521","2","24","Female","approach_avoid_spark_v1","""event"",""trial"",""time""
""fullscreenenter"",""1"",""4725""
","
","
","""event"",""trial"",""time""
""fullscreenenter"",""1"",""4725""
","
","","","","","","1639.5999999046326","<p> If you eat the fruit and it was tasty, you will win points! </p><p> But if you eat the fruit and it was rotten, you will lose points. </p>","","0","instructions","","","","","","","","","","",""
"learning-instructions","181","659849","0.0-11.0-1.0-0.4","4521","2","24","Female","approach_avoid_spark_v1","""event"",""trial"",""time""
""fullscreenenter"",""1"",""4725""
","
","
","""event"",""trial"",""time""
""fullscreenenter"",""1"",""4725""
","
","","","","","","557.7000000476837","<p> You will earn points based on how tasty or rotten the fruit was. </p><p> If it was tasty, you will WIN anywhere from 1 - 9 points, </p><p> but if it was rotten, you will LOSE anywhere from 1 - 9 points. </p>","","0","instructions","","","","","","","","","","",""
"learning-instructions","182","667642","0.0-11.0-1.0-0.5","4521","2","24","Female","approach_avoid_spark_v1","""event"",""trial"",""time""
""fullscreenenter"",""1"",""4725""
","
","
","""event"",""trial"",""time""
""fullscreenenter"",""1"",""4725""
","
","","","","","","1120.5","<p> You will see how many points you won or lost in the center of the screen. </p><p> Here is what you would see if you earned 5 points: </p><p style=""color:green;font-size:50px;font-weight:bolder"">5</p>","","0","instructions","","","","","","","","","","",""
"learning-instructions","183","670658","0.0-11.0-1.0-0.6","4521","2","24","Female","approach_avoid_spark_v1","""event"",""trial"",""time""
""fullscreenenter"",""1"",""4725""
","
","
","""event"",""trial"",""time""
""fullscreenenter"",""1"",""4725""
","
","","","","","","166.80000019073486","<p> And here is what you would see if you lost 3 points: </p><p style=""color:red;font-size:50px;font-weight:bolder"">-3</p>","","0","instructions","","","","","","","","","","",""
"learning-instructions","184","684799","0.0-11.0-1.0-0.7","4521","2","24","Female","approach_avoid_spark_v1","""event"",""trial"",""time""
""fullscreenenter"",""1"",""4725""
","
","
","""event"",""trial"",""time""
""fullscreenenter"",""1"",""4725""
","
","","","","","","697.7999999523163","<p> Some fruit is very tasty or very rotten. </p><p> These fruits will make you win or lose LOTS of points. </p><p> Other fruits are only kind of tasty or kind of rotten. </p><p> These fruits will make you win or lose small amounts of points. </p>","","0","instructions","","","","","","","","","","",""
"learning-instructions","185","696982","0.0-11.0-1.0-0.8","4521","2","24","Female","approach_avoid_spark_v1","""event"",""trial"",""time""
""fullscreenenter"",""1"",""4725""
","
","
","""event"",""trial"",""time""
""fullscreenenter"",""1"",""4725""
","
","","","","","","1751.2999999523163","<p> If you choose to not eat the fruit, you will not win or lose any points. </p><p>  However, in the center of the screen, you will see the number of points you WOULD HAVE earned if you had eaten the fruit. </p>","","0","instructions","","","","","","","","","","",""
"learning-instructions","186","707484","0.0-11.0-1.0-0.9","4521","2","24","Female","approach_avoid_spark_v1","""event"",""trial"",""time""
""fullscreenenter"",""1"",""4725""
","
","
","""event"",""trial"",""time""
""fullscreenenter"",""1"",""4725""
","
","","","","","","723.7999999523163","<p> Here is what you might see if you did not eat the fruit but the fruit was tasty: </p><p style=""color:grey; font-size:50px; display: inline-block; border-spacing: 15px; border-width:3px; border-style:solid; border-color:red"">  &nbsp; 6 &nbsp; </p><p> Remember, in this case, you would not win or lose ANY points because you did not eat the fruit.  </p>","","0","instructions","","","","","","","","","","",""
"learning-instructions","187","717353","0.0-11.0-1.0-0.10","4521","2","24","Female","approach_avoid_spark_v1","""event"",""trial"",""time""
""fullscreenenter"",""1"",""4725""
","
","
","""event"",""trial"",""time""
""fullscreenenter"",""1"",""4725""
","
","","","","","","2042.4000000953674","<p> Try to make the best choice for each fruit because </p><p> at the end of the game, you will earn bonus money based on how many points you earned. </p>","","0","instructions","","","","","","","","","","",""
"learning-instructions","188","726304","0.0-11.0-1.0-0.11","4521","2","24","Female","approach_avoid_spark_v1","""event"",""trial"",""time""
""fullscreenenter"",""1"",""4725""
","
","
","""event"",""trial"",""time""
""fullscreenenter"",""1"",""4725""
","
","","","","","","752.9000000953674","<p> You will have 3 seconds to make each choice. Try to respond before time runs out! </p><p> You will lose 5 points each time you do not make a response. </p>","","0","instructions","","","","","","","","","","",""
"html-keyboard-response","189","726929","0.0-11.0-2.0-0.0","4521","2","24","Female","approach_avoid_spark_v1","""event"",""trial"",""time""
""fullscreenenter"",""1"",""4725""
","
","
","""event"",""trial"",""time""
""fullscreenenter"",""1"",""4725""
","
","","","","","","null","<div style=""font-size:60px;"">+</div>","null","","fixation","","","","","","","","","","",""
"aa-learning-trial","190","729939","0.0-11.0-2.0-1.0","4521","2","24","Female","approach_avoid_spark_v1","""event"",""trial"",""time""
""fullscreenenter"",""1"",""4725""
","
","
","""event"",""trial"",""time""
""fullscreenenter"",""1"",""4725""
","
","","","","","","990.1999998092651","images/straw3.png","","","learning","5","5","1","1","straw","fruit","1","1","","good","[4]"
"html-keyboard-response","191","730459","0.0-11.0-2.0-0.1","4521","2","24","Female","approach_avoid_spark_v1","""event"",""trial"",""time""
""fullscreenenter"",""1"",""4725""
","
","
","""event"",""trial"",""time""
""fullscreenenter"",""1"",""4725""
","
","","","","","","null","<div style=""font-size:60px;"">+</div>","null","","fixation","","","","","","","","","","",""
"aa-learning-trial","192","733479","0.0-11.0-2.0-1.1","4521","2","24","Female","approach_avoid_spark_v1","""event"",""trial"",""time""
""fullscreenenter"",""1"",""4725""
","
","
","""event"",""trial"",""time""
""fullscreenenter"",""1"",""4725""
","
","","","","","","674.0999999046326","images/apple7.png","","","learning","-3","-3","1","1","apple","fruit","1","1","","bad","[-3]"
"html-keyboard-response","193","733989","0.0-11.0-2.0-0.2","4521","2","24","Female","approach_avoid_spark_v1","""event"",""trial"",""time""
""fullscreenenter"",""1"",""4725""
","
","
","""event"",""trial"",""time""
""fullscreenenter"",""1"",""4725""
","
","","","","","","null","<div style=""font-size:60px;"">+</div>","null","","fixation","","","","","","","","","","",""
"aa-learning-trial","194","737009","0.0-11.0-2.0-1.2","4521","2","24","Female","approach_avoid_spark_v1","""event"",""trial"",""time""
""fullscreenenter"",""1"",""4725""
","
","
","""event"",""trial"",""time""
""fullscreenenter"",""1"",""4725""
","
","","","","","","756.8999998569489","images/apple7.png","","","learning","-2","0","0","0","apple","fruit","1","1","","bad","[-3]"
"html-keyboard-response","195","737529","0.0-11.0-2.0-0.3","4521","2","24","Female","approach_avoid_spark_v1","""event"",""trial"",""time""
""fullscreenenter"",""1"",""4725""
","
","
","""event"",""trial"",""time""
""fullscreenenter"",""1"",""4725""
","
","","","","","","null","<div style=""font-size:60px;"">+</div>","null","","fixation","","","","","","","","","","",""
"aa-learning-trial","196","740549","0.0-11.0-2.0-1.3","4521","2","24","Female","approach_avoid_spark_v1","""event"",""trial"",""time""
""fullscreenenter"",""1"",""4725""
","
","
","""event"",""trial"",""time""
""fullscreenenter"",""1"",""4725""
","
","","","","","","721","images/banana8.png","","","learning","1","1","1","1","banana","fruit","1","1","","neutral","0"
"html-keyboard-response","197","741069","0.0-11.0-2.0-0.4","4521","2","24","Female","approach_avoid_spark_v1","""event"",""trial"",""time""
""fullscreenenter"",""1"",""4725""
","
","
","""event"",""trial"",""time""
""fullscreenenter"",""1"",""4725""
","
","","","","","","null","<div style=""font-size:60px;"">+</div>","null","","fixation","","","","","","","","","","",""
"aa-learning-trial","198","744089","0.0-11.0-2.0-1.4","4521","2","24","Female","approach_avoid_spark_v1","""event"",""trial"",""time""
""fullscreenenter"",""1"",""4725""
","
","
","""event"",""trial"",""time""
""fullscreenenter"",""1"",""4725""
","
","","","","","","999.4000000953674","images/apple5.png","","","learning","-3","0","0","0","apple","fruit","1","1","","bad","[-3]"
"html-keyboard-response","199","744609","0.0-11.0-2.0-0.5","4521","2","24","Female","approach_avoid_spark_v1","""event"",""trial"",""time""
""fullscreenenter"",""1"",""4725""
","
","
","""event"",""trial"",""time""
""fullscreenenter"",""1"",""4725""
","
","","","","","","null","<div style=""font-size:60px;"">+</div>","null","","fixation","","","","","","","","","","",""
"aa-learning-trial","200","747621","0.0-11.0-2.0-1.5","4521","2","24","Female","approach_avoid_spark_v1","""event"",""trial"",""time""
""fullscreenenter"",""1"",""4725""
","
","
","""event"",""trial"",""time""
""fullscreenenter"",""1"",""4725""
","
","","","","","","735.3999998569489","images/banana1.png","","","learning","-1","-1","1","1","banana","fruit","1","1","","neutral","0"
"html-keyboard-response","201","748139","0.0-11.0-2.0-0.6","4521","2","24","Female","approach_avoid_spark_v1","""event"",""trial"",""time""
""fullscreenenter"",""1"",""4725""
","
","
","""event"",""trial"",""time""
""fullscreenenter"",""1"",""4725""
","
","","","","","","null","<div style=""font-size:60px;"">+</div>","null","","fixation","","","","","","","","","","",""
"aa-learning-trial","202","751149","0.0-11.0-2.0-1.6","4521","2","24","Female","approach_avoid_spark_v1","""event"",""trial"",""time""
""fullscreenenter"",""1"",""4725""
","
","
","""event"",""trial"",""time""
""fullscreenenter"",""1"",""4725""
","
","","","","","","766.6000001430511","images/straw4.png","","","learning","4","4","1","1","straw","fruit","1","1","","good","[4]"
"html-keyboard-response","203","751662","0.0-11.0-2.0-0.7","4521","2","24","Female","approach_avoid_spark_v1","""event"",""trial"",""time""
""fullscreenenter"",""1"",""4725""
","
","
","""event"",""trial"",""time""
""fullscreenenter"",""1"",""4725""
","
","","","","","","null","<div style=""font-size:60px;"">+</div>","null","","fixation","","","","","","","","","","",""
"aa-learning-trial","204","754679","0.0-11.0-2.0-1.7","4521","2","24","Female","approach_avoid_spark_v1","""event"",""trial"",""time""
""fullscreenenter"",""1"",""4725""
","
","
","""event"",""trial"",""time""
""fullscreenenter"",""1"",""4725""
","
","","","","","","976.5","images/banana6.png","","","learning","[-1]","-1","1","1","banana","fruit","1","1","","neutral","0"
"html-keyboard-response","205","755186","0.0-11.0-2.0-0.8","4521","2","24","Female","approach_avoid_spark_v1","""event"",""trial"",""time""
""fullscreenenter"",""1"",""4725""
","
","
","""event"",""trial"",""time""
""fullscreenenter"",""1"",""4725""
","
","","","","","","null","<div style=""font-size:60px;"">+</div>","null","","fixation","","","","","","","","","","",""
"aa-learning-trial","206","758193","0.0-11.0-2.0-1.8","4521","2","24","Female","approach_avoid_spark_v1","""event"",""trial"",""time""
""fullscreenenter"",""1"",""4725""
","
","
","""event"",""trial"",""time""
""fullscreenenter"",""1"",""4725""
","
","","","","","","1337.7000000476837","images/banana1.png","","","learning","1","0","0","0","banana","fruit","1","1","","neutral","0"
"html-keyboard-response","207","758705","0.0-11.0-2.0-0.9","4521","2","24","Female","approach_avoid_spark_v1","""event"",""trial"",""time""
""fullscreenenter"",""1"",""4725""
","
","
","""event"",""trial"",""time""
""fullscreenenter"",""1"",""4725""
","
","","","","","","null","<div style=""font-size:60px;"">+</div>","null","","fixation","","","","","","","","","","",""
"aa-learning-trial","208","761720","0.0-11.0-2.0-1.9","4521","2","24","Female","approach_avoid_spark_v1","""event"",""trial"",""time""
""fullscreenenter"",""1"",""4725""
","
","
","""event"",""trial"",""time""
""fullscreenenter"",""1"",""4725""
","
","","","","","","652","images/straw3.png","","","learning","6","6","1","1","straw","fruit","1","1","","good","[4]"
"html-keyboard-response","209","762224","0.0-11.0-2.0-0.10","4521","2","24","Female","approach_avoid_spark_v1","""event"",""trial"",""time""
""fullscreenenter"",""1"",""4725""
","
","
","""event"",""trial"",""time""
""fullscreenenter"",""1"",""4725""
","
","","","","","","null","<div style=""font-size:60px;"">+</div>","null","","fixation","","","","","","","","","","",""
"aa-learning-trial","210","765238","0.0-11.0-2.0-1.10","4521","2","24","Female","approach_avoid_spark_v1","""event"",""trial"",""time""
""fullscreenenter"",""1"",""4725""
","
","
","""event"",""trial"",""time""
""fullscreenenter"",""1"",""4725""
","
","","","","","","914.7000000476837","images/banana8.png","","","learning","1","1","1","1","banana","fruit","1","1","","neutral","0"
"html-keyboard-response","211","765749","0.0-11.0-2.0-0.11","4521","2","24","Female","approach_avoid_spark_v1","""event"",""trial"",""time""
""fullscreenenter"",""1"",""4725""
","
","
","""event"",""trial"",""time""
""fullscreenenter"",""1"",""4725""
","
","","","","","","null","<div style=""font-size:60px;"">+</div>","null","","fixation","","","","","","","","","","",""
"aa-learning-trial","212","768767","0.0-11.0-2.0-1.11","4521","2","24","Female","approach_avoid_spark_v1","""event"",""trial"",""time""
""fullscreenenter"",""1"",""4725""
","
","
","""event"",""trial"",""time""
""fullscreenenter"",""1"",""4725""
","
","","","","","","509.2999999523163","images/straw4.png","","","learning","4","4","1","1","straw","fruit","1","1","","good","[4]"
"html-keyboard-response","213","769283","0.0-11.0-2.0-0.12","4521","2","24","Female","approach_avoid_spark_v1","""event"",""trial"",""time""
""fullscreenenter"",""1"",""4725""
","
","
","""event"",""trial"",""time""
""fullscreenenter"",""1"",""4725""
","
","","","","","","null","<div style=""font-size:60px;"">+</div>","null","","fixation","","","","","","","","","","",""
"aa-learning-trial","214","772287","0.0-11.0-2.0-1.12","4521","2","24","Female","approach_avoid_spark_v1","""event"",""trial"",""time""
""fullscreenenter"",""1"",""4725""
","
","
","""event"",""trial"",""time""
""fullscreenenter"",""1"",""4725""
","
","","","","","","680.2000000476837","images/apple3.png","","","learning","-1","0","0","0","apple","fruit","1","1","","bad","[-3]"
"html-keyboard-response","215","772794","0.0-11.0-2.0-0.13","4521","2","24","Female","approach_avoid_spark_v1","""event"",""trial"",""time""
""fullscreenenter"",""1"",""4725""
","
","
","""event"",""trial"",""time""
""fullscreenenter"",""1"",""4725""
","
","","","","","","null","<div style=""font-size:60px;"">+</div>","null","","fixation","","","","","","","","","","",""
"aa-learning-trial","216","775806","0.0-11.0-2.0-1.13","4521","2","24","Female","approach_avoid_spark_v1","""event"",""trial"",""time""
""fullscreenenter"",""1"",""4725""
","
","
","""event"",""trial"",""time""
""fullscreenenter"",""1"",""4725""
","
","","","","","","471.7999999523163","images/apple3.png","","","learning","-3","0","0","0","apple","fruit","1","1","","bad","[-3]"
"html-keyboard-response","217","776315","0.0-11.0-2.0-0.14","4521","2","24","Female","approach_avoid_spark_v1","""event"",""trial"",""time""
""fullscreenenter"",""1"",""4725""
","
","
","""event"",""trial"",""time""
""fullscreenenter"",""1"",""4725""
","
","","","","","","null","<div style=""font-size:60px;"">+</div>","null","","fixation","","","","","","","","","","",""
"aa-learning-trial","218","779329","0.0-11.0-2.0-1.14","4521","2","24","Female","approach_avoid_spark_v1","""event"",""trial"",""time""
""fullscreenenter"",""1"",""4725""
","
","
","""event"",""trial"",""time""
""fullscreenenter"",""1"",""4725""
","
","","","","","","563.8999998569489","images/straw7.png","","","learning","1","1","1","1","straw","fruit","1","1","","good","[4]"
"html-keyboard-response","219","779838","0.0-11.0-2.0-0.15","4521","2","24","Female","approach_avoid_spark_v1","""event"",""trial"",""time""
""fullscreenenter"",""1"",""4725""
","
","
","""event"",""trial"",""time""
""fullscreenenter"",""1"",""4725""
","
","","","","","","null","<div style=""font-size:60px;"">+</div>","null","","fixation","","","","","","","","","","",""
"aa-learning-trial","220","782848","0.0-11.0-2.0-1.15","4521","2","24","Female","approach_avoid_spark_v1","""event"",""trial"",""time""
""fullscreenenter"",""1"",""4725""
","
","
","""event"",""trial"",""time""
""fullscreenenter"",""1"",""4725""
","
","","","","","","492.7999999523163","images/straw4.png","","","learning","5","5","1","1","straw","fruit","1","1","","good","[4]"
"html-keyboard-response","221","783357","0.0-11.0-2.0-0.16","4521","2","24","Female","approach_avoid_spark_v1","""event"",""trial"",""time""
""fullscreenenter"",""1"",""4725""
","
","
","""event"",""trial"",""time""
""fullscreenenter"",""1"",""4725""
","
","","","","","","null","<div style=""font-size:60px;"">+</div>","null","","fixation","","","","","","","","","","",""
"aa-learning-trial","222","786367","0.0-11.0-2.0-1.16","4521","2","24","Female","approach_avoid_spark_v1","""event"",""trial"",""time""
""fullscreenenter"",""1"",""4725""
","
","
","""event"",""trial"",""time""
""fullscreenenter"",""1"",""4725""
","
","","","","","","537.5","images/banana3.png","","","learning","2","2","1","1","banana","fruit","1","1","","neutral","0"
"html-keyboard-response","223","786874","0.0-11.0-2.0-0.17","4521","2","24","Female","approach_avoid_spark_v1","""event"",""trial"",""time""
""fullscreenenter"",""1"",""4725""
","
","
","""event"",""trial"",""time""
""fullscreenenter"",""1"",""4725""
","
","","","","","","null","<div style=""font-size:60px;"">+</div>","null","","fixation","","","","","","","","","","",""
"aa-learning-trial","224","789887","0.0-11.0-2.0-1.17","4521","2","24","Female","approach_avoid_spark_v1","""event"",""trial"",""time""
""fullscreenenter"",""1"",""4725""
","
","
","""event"",""trial"",""time""
""fullscreenenter"",""1"",""4725""
","
","","","","","","533.0999999046326","images/apple6.png","","","learning","-3","0","0","0","apple","fruit","1","1","","bad","[-3]"
"html-keyboard-response","225","790393","0.0-11.0-2.0-0.18","4521","2","24","Female","approach_avoid_spark_v1","""event"",""trial"",""time""
""fullscreenenter"",""1"",""4725""
","
","
","""event"",""trial"",""time""
""fullscreenenter"",""1"",""4725""
","
","","","","","","null","<div style=""font-size:60px;"">+</div>","null","","fixation","","","","","","","","","","",""
"aa-learning-trial","226","793401","0.0-11.0-2.0-1.18","4521","2","24","Female","approach_avoid_spark_v1","""event"",""trial"",""time""
""fullscreenenter"",""1"",""4725""
","
","
","""event"",""trial"",""time""
""fullscreenenter"",""1"",""4725""
","
","","","","","","490.2999999523163","images/apple3.png","","","learning","-4","0","0","0","apple","fruit","1","1","","bad","[-3]"
"html-keyboard-response","227","793913","0.0-11.0-2.0-0.19","4521","2","24","Female","approach_avoid_spark_v1","""event"",""trial"",""time""
""fullscreenenter"",""1"",""4725""
","
","
","""event"",""trial"",""time""
""fullscreenenter"",""1"",""4725""
","
","","","","","","null","<div style=""font-size:60px;"">+</div>","null","","fixation","","","","","","","","","","",""
"aa-learning-trial","228","796919","0.0-11.0-2.0-1.19","4521","2","24","Female","approach_avoid_spark_v1","""event"",""trial"",""time""
""fullscreenenter"",""1"",""4725""
","
","
","""event"",""trial"",""time""
""fullscreenenter"",""1"",""4725""
","
","","","","","","671.3999998569489","images/apple4.png","","","learning","2","0","0","0","apple","fruit","1","1","","bad","[-3]"
"html-keyboard-response","229","797424","0.0-11.0-2.0-0.20","4521","2","24","Female","approach_avoid_spark_v1","""event"",""trial"",""time""
""fullscreenenter"",""1"",""4725""
","
","
","""event"",""trial"",""time""
""fullscreenenter"",""1"",""4725""
","
","","","","","","null","<div style=""font-size:60px;"">+</div>","null","","fixation","","","","","","","","","","",""
"aa-learning-trial","230","800434","0.0-11.0-2.0-1.20","4521","2","24","Female","approach_avoid_spark_v1","""event"",""trial"",""time""
""fullscreenenter"",""1"",""4725""
","
","
","""event"",""trial"",""time""
""fullscreenenter"",""1"",""4725""
","
","","","","","","945.5","images/banana8.png","","","learning","1","1","1","1","banana","fruit","1","1","","neutral","0"
"html-keyboard-response","231","800947","0.0-11.0-2.0-0.21","4521","2","24","Female","approach_avoid_spark_v1","""event"",""trial"",""time""
""fullscreenenter"",""1"",""4725""
","
","
","""event"",""trial"",""time""
""fullscreenenter"",""1"",""4725""
","
","","","","","","null","<div style=""font-size:60px;"">+</div>","null","","fixation","","","","","","","","","","",""
"aa-learning-trial","232","803959","0.0-11.0-2.0-1.21","4521","2","24","Female","approach_avoid_spark_v1","""event"",""trial"",""time""
""fullscreenenter"",""1"",""4725""
","
","
","""event"",""trial"",""time""
""fullscreenenter"",""1"",""4725""
","
","","","","","","1025.2999999523163","images/banana1.png","","","learning","-3","-3","1","1","banana","fruit","1","1","","neutral","0"
"html-keyboard-response","233","804467","0.0-11.0-2.0-0.22","4521","2","24","Female","approach_avoid_spark_v1","""event"",""trial"",""time""
""fullscreenenter"",""1"",""4725""
","
","
","""event"",""trial"",""time""
""fullscreenenter"",""1"",""4725""
","
","","","","","","null","<div style=""font-size:60px;"">+</div>","null","","fixation","","","","","","","","","","",""
"aa-learning-trial","234","807482","0.0-11.0-2.0-1.22","4521","2","24","Female","approach_avoid_spark_v1","""event"",""trial"",""time""
""fullscreenenter"",""1"",""4725""
","
","
","""event"",""trial"",""time""
""fullscreenenter"",""1"",""4725""
","
","","","","","","543.9000000953674","images/banana5.png","","","learning","-1","-1","1","1","banana","fruit","1","1","","neutral","0"
"html-keyboard-response","235","807984","0.0-11.0-2.0-0.23","4521","2","24","Female","approach_avoid_spark_v1","""event"",""trial"",""time""
""fullscreenenter"",""1"",""4725""
","
","
","""event"",""trial"",""time""
""fullscreenenter"",""1"",""4725""
","
","","","","","","null","<div style=""font-size:60px;"">+</div>","null","","fixation","","","","","","","","","","",""
"aa-learning-trial","236","810997","0.0-11.0-2.0-1.23","4521","2","24","Female","approach_avoid_spark_v1","""event"",""trial"",""time""
""fullscreenenter"",""1"",""4725""
","
","
","""event"",""trial"",""time""
