"trial_type","trial_index","time_elapsed","internal_node_id","subject_id","task_condition","age","gender","task_version","interactions","blur_events","focus_events","fullscreenenter_events","fullscreenexit_events","success","timeout","failed_images","failed_audio","failed_video","rt","stimulus","response","button_pressed","task_part","approach_reward","points","key_press","option_selected","stim_cat","task_block","block_condition","block_number","correct","cat_type","mean_cat_reward"
"pavlovia","0","4","0.0-0.0","4325","2","14","Male","approach_avoid_spark_v1","""event"",""trial"",""time""
""focus"",""1"",""3002""
""fullscreenenter"",""1"",""3074""
","
","""event"",""trial"",""time""
""focus"",""1"",""3002""
","""event"",""trial"",""time""
""fullscreenenter"",""1"",""3074""
","
","","","","","","","","","","","","","","","","","","","","",""
"fullscreen","1","4058","0.0-1.0","4325","2","14","Male","approach_avoid_spark_v1","""event"",""trial"",""time""
""focus"",""1"",""3002""
""fullscreenenter"",""1"",""3074""
","
","""event"",""trial"",""time""
""focus"",""1"",""3002""
","""event"",""trial"",""time""
""fullscreenenter"",""1"",""3074""
","
","true","","","","","","","","","","","","","","","","","","","",""
"preload","2","7192","0.0-2.0","4325","2","14","Male","approach_avoid_spark_v1","""event"",""trial"",""time""
""focus"",""1"",""3002""
""fullscreenenter"",""1"",""3074""
","
","""event"",""trial"",""time""
""focus"",""1"",""3002""
","""event"",""trial"",""time""
""fullscreenenter"",""1"",""3074""
","
","true","false","[]","[]","[]","","","","","","","","","","","","","","","",""
"audio-keyboard-response","3","9133","0.0-3.0","4325","2","14","Male","approach_avoid_spark_v1","""event"",""trial"",""time""
""focus"",""1"",""3002""
""fullscreenenter"",""1"",""3074""
","
","""event"",""trial"",""time""
""focus"",""1"",""3002""
","""event"",""trial"",""time""
""fullscreenenter"",""1"",""3074""
","
","","","","","","1938.6666666666663","audio/beep_loop.wav"," ","","","","","","","","","","","","",""
"audio-button-response","4","10361","0.0-4.0","4325","2","14","Male","approach_avoid_spark_v1","""event"",""trial"",""time""
""focus"",""1"",""3002""
""fullscreenenter"",""1"",""3074""
","
","""event"",""trial"",""time""
""focus"",""1"",""3002""
","""event"",""trial"",""time""
""fullscreenenter"",""1"",""3074""
","
","","","","","","1229","audio/shark.wav","4","","","","","","","","","","","","",""
"audio-button-response","5","13667","0.0-5.0","4325","2","14","Male","approach_avoid_spark_v1","""event"",""trial"",""time""
""focus"",""1"",""3002""
""fullscreenenter"",""1"",""3074""
","
","""event"",""trial"",""time""
""focus"",""1"",""3002""
","""event"",""trial"",""time""
""fullscreenenter"",""1"",""3074""
","
","","","","","","2301","audio/turtle.wav","1","","","","","","","","","","","","",""
"preload","6","16531","0.0-6.0","4325","2","14","Male","approach_avoid_spark_v1","""event"",""trial"",""time""
""focus"",""1"",""3002""
""fullscreenenter"",""1"",""3074""
","
","""event"",""trial"",""time""
""focus"",""1"",""3002""
","""event"",""trial"",""time""
""fullscreenenter"",""1"",""3074""
","
","true","false","[]","[]","[]","","","","","","","","","","","","","","","",""
"html-keyboard-response","7","19205","0.0-7.0","4325","2","14","Male","approach_avoid_spark_v1","""event"",""trial"",""time""
""focus"",""1"",""3002""
""fullscreenenter"",""1"",""3074""
""blur"",""8"",""21506""
""focus"",""8"",""22141""
","""event"",""trial"",""time""
""blur"",""8"",""21506""
","""event"",""trial"",""time""
""focus"",""1"",""3002""
""focus"",""8"",""22141""
","""event"",""trial"",""time""
""fullscreenenter"",""1"",""3074""
","
","","","","","","2673.5","Welcome to the experiment. Press any key to begin and to advance the instructions."," ","","","","","","","","","","","","",""
"learning-instructions","8","27625","0.0-8.0-0.0-0.0","4325","2","14","Male","approach_avoid_spark_v1","""event"",""trial"",""time""
""focus"",""1"",""3002""
""fullscreenenter"",""1"",""3074""
""blur"",""8"",""21506""
""focus"",""8"",""22141""
","""event"",""trial"",""time""
""blur"",""8"",""21506""
","""event"",""trial"",""time""
""focus"",""1"",""3002""
""focus"",""8"",""22141""
","""event"",""trial"",""time""
""fullscreenenter"",""1"",""3074""
","
","","","","","","1467.5999999642372","<p> Welcome! Today you are going to play 6 different rounds of a decision-making game. </p><p> Use the mouse to click next to continue. </p>","","0","instructions","","","","","","","","","","",""
"learning-instructions","9","31246","0.0-8.0-0.0-0.1","4325","2","14","Male","approach_avoid_spark_v1","""event"",""trial"",""time""
""focus"",""1"",""3002""
""fullscreenenter"",""1"",""3074""
""blur"",""8"",""21506""
""focus"",""8"",""22141""
","""event"",""trial"",""time""
""blur"",""8"",""21506""
","""event"",""trial"",""time""
""focus"",""1"",""3002""
""focus"",""8"",""22141""
","""event"",""trial"",""time""
""fullscreenenter"",""1"",""3074""
","
","","","","","","889.1000000238419","<p> You will start with a practice round to learn the rules. </p>","","0","instructions","","","","","","","","","","",""
"learning-instructions","10","35163","0.0-8.0-0.0-0.2","4325","2","14","Male","approach_avoid_spark_v1","""event"",""trial"",""time""
""focus"",""1"",""3002""
""fullscreenenter"",""1"",""3074""
""blur"",""8"",""21506""
""focus"",""8"",""22141""
","""event"",""trial"",""time""
""blur"",""8"",""21506""
","""event"",""trial"",""time""
""focus"",""1"",""3002""
""focus"",""8"",""22141""
","""event"",""trial"",""time""
""fullscreenenter"",""1"",""3074""
","
","","","","","","465.4000000357628","<p> Your goal in this round is to give out sports equipment to kids. </p></div>","","0","instructions","","","","","","","","","","",""
"learning-instructions","11","43205","0.0-8.0-0.0-0.3","4325","2","14","Male","approach_avoid_spark_v1","""event"",""trial"",""time""
""focus"",""1"",""3002""
""fullscreenenter"",""1"",""3074""
""blur"",""8"",""21506""
""focus"",""8"",""22141""
","""event"",""trial"",""time""
""blur"",""8"",""21506""
","""event"",""trial"",""time""
""focus"",""1"",""3002""
""focus"",""8"",""22141""
","""event"",""trial"",""time""
""fullscreenenter"",""1"",""3074""
","
","","","","","","497.69999998807907","<p> The kids only like some of the equipment.  </p><p> On each turn, you will see a piece of sports equipment.   </p><p> You need to decide whether to give it to the kids or not.  </p>","","0","instructions","","","","","","","","","","",""
"learning-instructions","12","48522","0.0-8.0-0.0-0.4","4325","2","14","Male","approach_avoid_spark_v1","""event"",""trial"",""time""
""focus"",""1"",""3002""
""fullscreenenter"",""1"",""3074""
""blur"",""8"",""21506""
""focus"",""8"",""22141""
","""event"",""trial"",""time""
""blur"",""8"",""21506""
","""event"",""trial"",""time""
""focus"",""1"",""3002""
""focus"",""8"",""22141""
","""event"",""trial"",""time""
""fullscreenenter"",""1"",""3074""
","
","","","","","","564.1999999880791","<p> You can give them the equipment by pressing 1 and choose not to give it to them by pressing 0. </p><br><div class=""choice-instructions-grid""> <div class=""choice-option""><img src=""images/approach.png"" class=""choice-option-img"" stage=""instructions"" position=""0"" ><div class=""choice-option-text""> Press ""1."" </div></div><div class=""choice-option""><img src=""images/avoid.png"" class=""choice-option-img"" stage=""instructions"" position=""1"" ><div class=""choice-option-text""> Press ""0."" </div></div>","","0","instructions","","","","","","","","","","",""
"learning-instructions","13","56496","0.0-8.0-0.0-0.5","4325","2","14","Male","approach_avoid_spark_v1","""event"",""trial"",""time""
""focus"",""1"",""3002""
""fullscreenenter"",""1"",""3074""
""blur"",""8"",""21506""
""focus"",""8"",""22141""
","""event"",""trial"",""time""
""blur"",""8"",""21506""
","""event"",""trial"",""time""
""focus"",""1"",""3002""
""focus"",""8"",""22141""
","""event"",""trial"",""time""
""fullscreenenter"",""1"",""3074""
","
","","","","","","589.3000000119209","<p> If you give them a piece of equipment they like, they will be happy! </p><p> But if you give them a piece of equipment they do not like, they will be sad. </p>","","0","instructions","","","","","","","","","","",""
"learning-instructions","14","68864","0.0-8.0-0.0-0.6","4325","2","14","Male","approach_avoid_spark_v1","""event"",""trial"",""time""
""focus"",""1"",""3002""
""fullscreenenter"",""1"",""3074""
""blur"",""8"",""21506""
""focus"",""8"",""22141""
","""event"",""trial"",""time""
""blur"",""8"",""21506""
","""event"",""trial"",""time""
""focus"",""1"",""3002""
""focus"",""8"",""22141""
","""event"",""trial"",""time""
""fullscreenenter"",""1"",""3074""
","
","","","","","","1857","<p> You will earn points based on how you make kids feel. </p><p> If you make them happy, you will WIN anywhere from 1 - 9 points, </p><p> but if you make them sad, you will LOSE anywhere from 1 - 9 points. </p>","","0","instructions","","","","","","","","","","",""
"learning-instructions","15","78939","0.0-8.0-0.0-0.7","4325","2","14","Male","approach_avoid_spark_v1","""event"",""trial"",""time""
""focus"",""1"",""3002""
""fullscreenenter"",""1"",""3074""
""blur"",""8"",""21506""
""focus"",""8"",""22141""
","""event"",""trial"",""time""
""blur"",""8"",""21506""
","""event"",""trial"",""time""
""focus"",""1"",""3002""
""focus"",""8"",""22141""
","""event"",""trial"",""time""
""fullscreenenter"",""1"",""3074""
","
","","","","","","521.5999999642372","<p> You will see how many points you won or lost in the center of the screen. </p><p> Here is what you would see if you won 6 points: </p><p style=""color:green;font-size:50px;font-weight:bolder"">6</p><p style=""color:green"">The text is GREEN because you WON points.</p>","","0","instructions","","","","","","","","","","",""
"learning-instructions","16","84935","0.0-8.0-0.0-0.8","4325","2","14","Male","approach_avoid_spark_v1","""event"",""trial"",""time""
""focus"",""1"",""3002""
""fullscreenenter"",""1"",""3074""
""blur"",""8"",""21506""
""focus"",""8"",""22141""
","""event"",""trial"",""time""
""blur"",""8"",""21506""
","""event"",""trial"",""time""
""focus"",""1"",""3002""
""focus"",""8"",""22141""
","""event"",""trial"",""time""
""fullscreenenter"",""1"",""3074""
","
","","","","","","498.30000001192093","<p> And here is what you would see if you lost 4 points: </p><p style=""color:red;font-size:50px;font-weight:bolder"">-4</p><p style=""color:red"">The text is RED because you LOST points. </p>","","0","instructions","","","","","","","","","","",""
"learning-instructions","17","100005","0.0-8.0-0.0-0.9","4325","2","14","Male","approach_avoid_spark_v1","""event"",""trial"",""time""
""focus"",""1"",""3002""
""fullscreenenter"",""1"",""3074""
""blur"",""8"",""21506""
""focus"",""8"",""22141""
","""event"",""trial"",""time""
""blur"",""8"",""21506""
","""event"",""trial"",""time""
""focus"",""1"",""3002""
""focus"",""8"",""22141""
","""event"",""trial"",""time""
""fullscreenenter"",""1"",""3074""
","
","","","","","","357.7999999523163","<p> Some of the equipment will make the kids VERY happy or sad. </p><p> These pieces of equipment will make you win or lose LOTS of points. </p><p> Other pieces of equipment will only make the kids a little happy or sad. </p><p> These pieces of equipment will make you win or lose small amounts of points. </p>","","0","instructions","","","","","","","","","","",""
"learning-instructions","18","111141","0.0-8.0-0.0-0.10","4325","2","14","Male","approach_avoid_spark_v1","""event"",""trial"",""time""
""focus"",""1"",""3002""
""fullscreenenter"",""1"",""3074""
""blur"",""8"",""21506""
""focus"",""8"",""22141""
","""event"",""trial"",""time""
""blur"",""8"",""21506""
","""event"",""trial"",""time""
""focus"",""1"",""3002""
""focus"",""8"",""22141""
","""event"",""trial"",""time""
""fullscreenenter"",""1"",""3074""
","
","","","","","","513.6999999880791","<p> If you choose not to give them the equipment, you will not win or lose any points. </p><p>  However, in the center of the screen, you will see the number of points you WOULD HAVE won or lost if you had given them the equipment. </p>","","0","instructions","","","","","","","","","","",""
"learning-instructions","19","133905","0.0-8.0-0.0-0.11","4325","2","14","Male","approach_avoid_spark_v1","""event"",""trial"",""time""
""focus"",""1"",""3002""
""fullscreenenter"",""1"",""3074""
""blur"",""8"",""21506""
""focus"",""8"",""22141""
""blur"",""20"",""146993""
""focus"",""20"",""153226""
","""event"",""trial"",""time""
""blur"",""8"",""21506""
""blur"",""20"",""146993""
","""event"",""trial"",""time""
""focus"",""1"",""3002""
""focus"",""8"",""22141""
""focus"",""20"",""153226""
","""event"",""trial"",""time""
""fullscreenenter"",""1"",""3074""
","
","","","","","","1248.1000000238419","<p> Here is what you might see if you did not give the equipment to the kids but it would have made them happy: </p><p style=""color:grey; font-size:50px; display: inline-block; border-spacing: 15px; border-width:3px; border-style:solid; border-color:red"">  &nbsp; 7 &nbsp; </p><p> Remember, in this case, you would not win or lose ANY points because you did not give them the equipment.  </p><p style=""color:grey"">The text is GREY because you earned ZERO points. </p><p style=""color:red"">However, choosing to give the kids the equipment would have made you win points. The box around the text is RED because you chose the worse option. </p>","","0","instructions","","","","","","","","","","",""
"learning-instructions","20","155586","0.0-8.0-0.0-0.12","4325","2","14","Male","approach_avoid_spark_v1","""event"",""trial"",""time""
""focus"",""1"",""3002""
""fullscreenenter"",""1"",""3074""
""blur"",""8"",""21506""
""focus"",""8"",""22141""
""blur"",""20"",""146993""
""focus"",""20"",""153226""
","""event"",""trial"",""time""
""blur"",""8"",""21506""
""blur"",""20"",""146993""
","""event"",""trial"",""time""
""focus"",""1"",""3002""
""focus"",""8"",""22141""
""focus"",""20"",""153226""
","""event"",""trial"",""time""
""fullscreenenter"",""1"",""3074""
","
","","","","","","608.5","<p> Here is what you might see if you did not give the equipment to the kids but it would have made them sad: </p><p style=""color:grey;font-size:50px; display: inline-block; border-spacing: 15px; border-width:3px; border-style:solid; border-color:green"">  &nbsp; -8 &nbsp; </p><p> Remember, in this case, you would not win or lose ANY points because you did not give them the equipment.  </p><p style=""color:grey"">The text is GREY because you earned ZERO points. </p><p  style=""color:green""> Choosing to give the kids the equipment would have made you lose points. The box around the text is GREEN because you chose the better option.</p>","","0","instructions","","","","","","","","","","",""
"learning-instructions","21","165322","0.0-8.0-0.0-0.13","4325","2","14","Male","approach_avoid_spark_v1","""event"",""trial"",""time""
""focus"",""1"",""3002""
""fullscreenenter"",""1"",""3074""
""blur"",""8"",""21506""
""focus"",""8"",""22141""
""blur"",""20"",""146993""
""focus"",""20"",""153226""
","""event"",""trial"",""time""
""blur"",""8"",""21506""
""blur"",""20"",""146993""
","""event"",""trial"",""time""
""focus"",""1"",""3002""
""focus"",""8"",""22141""
""focus"",""20"",""153226""
","""event"",""trial"",""time""
""fullscreenenter"",""1"",""3074""
","
","","","","","","525","<p> You will have 3 seconds to make each choice. Try to respond before time runs out! </p><p> You will lose 5 points each time you do not make a response. </p>","","0","instructions","","","","","","","","","","",""
"learning-instructions","22","171240","0.0-8.0-0.0-0.14","4325","2","14","Male","approach_avoid_spark_v1","""event"",""trial"",""time""
""focus"",""1"",""3002""
""fullscreenenter"",""1"",""3074""
""blur"",""8"",""21506""
""focus"",""8"",""22141""
""blur"",""20"",""146993""
""focus"",""20"",""153226""
","""event"",""trial"",""time""
""blur"",""8"",""21506""
""blur"",""20"",""146993""
","""event"",""trial"",""time""
""focus"",""1"",""3002""
""focus"",""8"",""22141""
""focus"",""20"",""153226""
","""event"",""trial"",""time""
""fullscreenenter"",""1"",""3074""
","
","","","","","","512.5","<p> This is just a practice round, but in the real game, your bonus payment will depend on your total number of points.","","0","instructions","","","","","","","","","","",""
"learning-instructions","23","177496","0.0-8.0-0.0-0.15","4325","2","14","Male","approach_avoid_spark_v1","""event"",""trial"",""time""
""focus"",""1"",""3002""
""fullscreenenter"",""1"",""3074""
""blur"",""8"",""21506""
""focus"",""8"",""22141""
""blur"",""20"",""146993""
""focus"",""20"",""153226""
","""event"",""trial"",""time""
""blur"",""8"",""21506""
""blur"",""20"",""146993""
","""event"",""trial"",""time""
""focus"",""1"",""3002""
""focus"",""8"",""22141""
""focus"",""20"",""153226""
","""event"",""trial"",""time""
""fullscreenenter"",""1"",""3074""
","
","","","","","","488.5","<p> Remember, you can give them the equipment by pressing 1 and choose not to give it to them by pressing 0. </p><br><div class=""choice-instructions-grid""> <div class=""choice-option""><img src=""images/approach.png"" class=""choice-option-img"" stage=""instructions"" position=""0"" ><div class=""choice-option-text""> Press ""1."" </div></div><div class=""choice-option""><img src=""images/avoid.png"" class=""choice-option-img"" stage=""instructions"" position=""1"" ><div class=""choice-option-text""> Press ""0."" </div></div>","","0","instructions","","","","","","","","","","",""
"html-button-response","24","178644","0.0-8.0-1.0","4325","2","14","Male","approach_avoid_spark_v1","""event"",""trial"",""time""
""focus"",""1"",""3002""
""fullscreenenter"",""1"",""3074""
""blur"",""8"",""21506""
""focus"",""8"",""22141""
""blur"",""20"",""146993""
""focus"",""20"",""153226""
","""event"",""trial"",""time""
""blur"",""8"",""21506""
""blur"",""20"",""146993""
","""event"",""trial"",""time""
""focus"",""1"",""3002""
""focus"",""8"",""22141""
""focus"",""20"",""153226""
","""event"",""trial"",""time""
""fullscreenenter"",""1"",""3074""
","
","","","","","","1041","<p> Ready to practice? </p>","0","","","","","","","","","","","","",""
"html-keyboard-response","25","179250","0.0-8.0-2.0-0.0","4325","2","14","Male","approach_avoid_spark_v1","""event"",""trial"",""time""
""focus"",""1"",""3002""
""fullscreenenter"",""1"",""3074""
""blur"",""8"",""21506""
""focus"",""8"",""22141""
""blur"",""20"",""146993""
""focus"",""20"",""153226""
","""event"",""trial"",""time""
""blur"",""8"",""21506""
""blur"",""20"",""146993""
","""event"",""trial"",""time""
""focus"",""1"",""3002""
""focus"",""8"",""22141""
""focus"",""20"",""153226""
","""event"",""trial"",""time""
""fullscreenenter"",""1"",""3074""
","
","","","","","","null","<div style=""font-size:60px;"">+</div>","null","","fixation","","","","","","","","","","",""
"aa-learning-trial","26","182259","0.0-8.0-2.0-1.0","4325","2","14","Male","approach_avoid_spark_v1","""event"",""trial"",""time""
""focus"",""1"",""3002""
""fullscreenenter"",""1"",""3074""
""blur"",""8"",""21506""
""focus"",""8"",""22141""
""blur"",""20"",""146993""
""focus"",""20"",""153226""
","""event"",""trial"",""time""
""blur"",""8"",""21506""
""blur"",""20"",""146993""
","""event"",""trial"",""time""
""focus"",""1"",""3002""
""focus"",""8"",""22141""
""focus"",""20"",""153226""
","""event"",""trial"",""time""
""fullscreenenter"",""1"",""3074""
","
","","","","","","704.5","images/racket2.png","","","learning","-8","-8","1","1","practice","practice","practice","-1","","",""
"html-keyboard-response","27","182763","0.0-8.0-2.0-0.1","4325","2","14","Male","approach_avoid_spark_v1","""event"",""trial"",""time""
""focus"",""1"",""3002""
""fullscreenenter"",""1"",""3074""
""blur"",""8"",""21506""
""focus"",""8"",""22141""
""blur"",""20"",""146993""
""focus"",""20"",""153226""
","""event"",""trial"",""time""
""blur"",""8"",""21506""
""blur"",""20"",""146993""
","""event"",""trial"",""time""
""focus"",""1"",""3002""
""focus"",""8"",""22141""
""focus"",""20"",""153226""
","""event"",""trial"",""time""
""fullscreenenter"",""1"",""3074""
","
","","","","","","null","<div style=""font-size:60px;"">+</div>","null","","fixation","","","","","","","","","","",""
"aa-learning-trial","28","185771","0.0-8.0-2.0-1.1","4325","2","14","Male","approach_avoid_spark_v1","""event"",""trial"",""time""
""focus"",""1"",""3002""
""fullscreenenter"",""1"",""3074""
""blur"",""8"",""21506""
""focus"",""8"",""22141""
""blur"",""20"",""146993""
""focus"",""20"",""153226""
","""event"",""trial"",""time""
""blur"",""8"",""21506""
""blur"",""20"",""146993""
","""event"",""trial"",""time""
""focus"",""1"",""3002""
""focus"",""8"",""22141""
""focus"",""20"",""153226""
","""event"",""trial"",""time""
""fullscreenenter"",""1"",""3074""
","
","","","","","","593.8000000119209","images/racket2.png","","","learning","2","2","1","1","practice","practice","practice","-1","","",""
"html-keyboard-response","29","186275","0.0-8.0-2.0-0.2","4325","2","14","Male","approach_avoid_spark_v1","""event"",""trial"",""time""
""focus"",""1"",""3002""
""fullscreenenter"",""1"",""3074""
""blur"",""8"",""21506""
""focus"",""8"",""22141""
""blur"",""20"",""146993""
""focus"",""20"",""153226""
","""event"",""trial"",""time""
""blur"",""8"",""21506""
""blur"",""20"",""146993""
","""event"",""trial"",""time""
""focus"",""1"",""3002""
""focus"",""8"",""22141""
""focus"",""20"",""153226""
","""event"",""trial"",""time""
""fullscreenenter"",""1"",""3074""
","
","","","","","","null","<div style=""font-size:60px;"">+</div>","null","","fixation","","","","","","","","","","",""
"aa-learning-trial","30","189283","0.0-8.0-2.0-1.2","4325","2","14","Male","approach_avoid_spark_v1","""event"",""trial"",""time""
""focus"",""1"",""3002""
""fullscreenenter"",""1"",""3074""
""blur"",""8"",""21506""
""focus"",""8"",""22141""
""blur"",""20"",""146993""
""focus"",""20"",""153226""
","""event"",""trial"",""time""
""blur"",""8"",""21506""
""blur"",""20"",""146993""
","""event"",""trial"",""time""
""focus"",""1"",""3002""
""focus"",""8"",""22141""
""focus"",""20"",""153226""
","""event"",""trial"",""time""
""fullscreenenter"",""1"",""3074""
","
","","","","","","554.5","images/racket1.png","","","learning","6","6","1","1","practice","practice","practice","-1","","",""
"html-keyboard-response","31","189786","0.0-8.0-2.0-0.3","4325","2","14","Male","approach_avoid_spark_v1","""event"",""trial"",""time""
""focus"",""1"",""3002""
""fullscreenenter"",""1"",""3074""
""blur"",""8"",""21506""
""focus"",""8"",""22141""
""blur"",""20"",""146993""
""focus"",""20"",""153226""
","""event"",""trial"",""time""
""blur"",""8"",""21506""
""blur"",""20"",""146993""
","""event"",""trial"",""time""
""focus"",""1"",""3002""
""focus"",""8"",""22141""
""focus"",""20"",""153226""
","""event"",""trial"",""time""
""fullscreenenter"",""1"",""3074""
","
","","","","","","null","<div style=""font-size:60px;"">+</div>","null","","fixation","","","","","","","","","","",""
"aa-learning-trial","32","192794","0.0-8.0-2.0-1.3","4325","2","14","Male","approach_avoid_spark_v1","""event"",""trial"",""time""
""focus"",""1"",""3002""
""fullscreenenter"",""1"",""3074""
""blur"",""8"",""21506""
""focus"",""8"",""22141""
""blur"",""20"",""146993""
""focus"",""20"",""153226""
","""event"",""trial"",""time""
""blur"",""8"",""21506""
""blur"",""20"",""146993""
","""event"",""trial"",""time""
""focus"",""1"",""3002""
""focus"",""8"",""22141""
""focus"",""20"",""153226""
","""event"",""trial"",""time""
""fullscreenenter"",""1"",""3074""
","
","","","","","","554.3000000119209","images/racket3.png","","","learning","1","1","1","1","practice","practice","practice","-1","","",""
"html-keyboard-response","33","193298","0.0-8.0-2.0-0.4","4325","2","14","Male","approach_avoid_spark_v1","""event"",""trial"",""time""
""focus"",""1"",""3002""
""fullscreenenter"",""1"",""3074""
""blur"",""8"",""21506""
""focus"",""8"",""22141""
""blur"",""20"",""146993""
""focus"",""20"",""153226""
","""event"",""trial"",""time""
""blur"",""8"",""21506""
""blur"",""20"",""146993""
","""event"",""trial"",""time""
""focus"",""1"",""3002""
""focus"",""8"",""22141""
""focus"",""20"",""153226""
","""event"",""trial"",""time""
""fullscreenenter"",""1"",""3074""
","
","","","","","","null","<div style=""font-size:60px;"">+</div>","null","","fixation","","","","","","","","","","",""
"aa-learning-trial","34","196306","0.0-8.0-2.0-1.4","4325","2","14","Male","approach_avoid_spark_v1","""event"",""trial"",""time""
""focus"",""1"",""3002""
""fullscreenenter"",""1"",""3074""
""blur"",""8"",""21506""
""focus"",""8"",""22141""
""blur"",""20"",""146993""
""focus"",""20"",""153226""
","""event"",""trial"",""time""
""blur"",""8"",""21506""
""blur"",""20"",""146993""
","""event"",""trial"",""time""
""focus"",""1"",""3002""
""focus"",""8"",""22141""
""focus"",""20"",""153226""
","""event"",""trial"",""time""
""fullscreenenter"",""1"",""3074""
","
","","","","","","647.1999999880791","images/ball2.png","","","learning","2","2","1","1","practice","practice","practice","-1","","",""
"html-keyboard-response","35","196811","0.0-8.0-2.0-0.5","4325","2","14","Male","approach_avoid_spark_v1","""event"",""trial"",""time""
""focus"",""1"",""3002""
""fullscreenenter"",""1"",""3074""
""blur"",""8"",""21506""
""focus"",""8"",""22141""
""blur"",""20"",""146993""
""focus"",""20"",""153226""
","""event"",""trial"",""time""
""blur"",""8"",""21506""
""blur"",""20"",""146993""
","""event"",""trial"",""time""
""focus"",""1"",""3002""
""focus"",""8"",""22141""
""focus"",""20"",""153226""
","""event"",""trial"",""time""
""fullscreenenter"",""1"",""3074""
","
","","","","","","null","<div style=""font-size:60px;"">+</div>","null","","fixation","","","","","","","","","","",""
"aa-learning-trial","36","199819","0.0-8.0-2.0-1.5","4325","2","14","Male","approach_avoid_spark_v1","""event"",""trial"",""time""
""focus"",""1"",""3002""
""fullscreenenter"",""1"",""3074""
""blur"",""8"",""21506""
""focus"",""8"",""22141""
""blur"",""20"",""146993""
""focus"",""20"",""153226""
","""event"",""trial"",""time""
""blur"",""8"",""21506""
""blur"",""20"",""146993""
","""event"",""trial"",""time""
""focus"",""1"",""3002""
""focus"",""8"",""22141""
""focus"",""20"",""153226""
","""event"",""trial"",""time""
""fullscreenenter"",""1"",""3074""
","
","","","","","","1211.9000000357628","images/racket2.png","","","learning","-2","0","0","0","practice","practice","practice","-1","","",""
"html-keyboard-response","37","200322","0.0-8.0-2.0-0.6","4325","2","14","Male","approach_avoid_spark_v1","""event"",""trial"",""time""
""focus"",""1"",""3002""
""fullscreenenter"",""1"",""3074""
""blur"",""8"",""21506""
""focus"",""8"",""22141""
""blur"",""20"",""146993""
""focus"",""20"",""153226""
","""event"",""trial"",""time""
""blur"",""8"",""21506""
""blur"",""20"",""146993""
","""event"",""trial"",""time""
""focus"",""1"",""3002""
""focus"",""8"",""22141""
""focus"",""20"",""153226""
","""event"",""trial"",""time""
""fullscreenenter"",""1"",""3074""
","
","","","","","","null","<div style=""font-size:60px;"">+</div>","null","","fixation","","","","","","","","","","",""
"aa-learning-trial","38","203330","0.0-8.0-2.0-1.6","4325","2","14","Male","approach_avoid_spark_v1","""event"",""trial"",""time""
""focus"",""1"",""3002""
""fullscreenenter"",""1"",""3074""
""blur"",""8"",""21506""
""focus"",""8"",""22141""
""blur"",""20"",""146993""
""focus"",""20"",""153226""
","""event"",""trial"",""time""
""blur"",""8"",""21506""
""blur"",""20"",""146993""
","""event"",""trial"",""time""
""focus"",""1"",""3002""
""focus"",""8"",""22141""
""focus"",""20"",""153226""
","""event"",""trial"",""time""
""fullscreenenter"",""1"",""3074""
","
","","","","","","733.8000000119209","images/ball3.png","","","learning","4","4","1","1","practice","practice","practice","-1","","",""
"html-keyboard-response","39","203835","0.0-8.0-2.0-0.7","4325","2","14","Male","approach_avoid_spark_v1","""event"",""trial"",""time""
""focus"",""1"",""3002""
""fullscreenenter"",""1"",""3074""
""blur"",""8"",""21506""
""focus"",""8"",""22141""
""blur"",""20"",""146993""
""focus"",""20"",""153226""
","""event"",""trial"",""time""
""blur"",""8"",""21506""
""blur"",""20"",""146993""
","""event"",""trial"",""time""
""focus"",""1"",""3002""
""focus"",""8"",""22141""
""focus"",""20"",""153226""
","""event"",""trial"",""time""
""fullscreenenter"",""1"",""3074""
","
","","","","","","null","<div style=""font-size:60px;"">+</div>","null","","fixation","","","","","","","","","","",""
"aa-learning-trial","40","206842","0.0-8.0-2.0-1.7","4325","2","14","Male","approach_avoid_spark_v1","""event"",""trial"",""time""
""focus"",""1"",""3002""
""fullscreenenter"",""1"",""3074""
""blur"",""8"",""21506""
""focus"",""8"",""22141""
""blur"",""20"",""146993""
""focus"",""20"",""153226""
","""event"",""trial"",""time""
""blur"",""8"",""21506""
""blur"",""20"",""146993""
","""event"",""trial"",""time""
""focus"",""1"",""3002""
""focus"",""8"",""22141""
""focus"",""20"",""153226""
","""event"",""trial"",""time""
""fullscreenenter"",""1"",""3074""
","
","","","","","","582.5","images/racket1.png","","","learning","-4","-4","1","1","practice","practice","practice","-1","","",""
"html-keyboard-response","41","207347","0.0-8.0-2.0-0.8","4325","2","14","Male","approach_avoid_spark_v1","""event"",""trial"",""time""
""focus"",""1"",""3002""
""fullscreenenter"",""1"",""3074""
""blur"",""8"",""21506""
""focus"",""8"",""22141""
""blur"",""20"",""146993""
""focus"",""20"",""153226""
","""event"",""trial"",""time""
""blur"",""8"",""21506""
""blur"",""20"",""146993""
","""event"",""trial"",""time""
""focus"",""1"",""3002""
""focus"",""8"",""22141""
""focus"",""20"",""153226""
","""event"",""trial"",""time""
""fullscreenenter"",""1"",""3074""
","
","","","","","","null","<div style=""font-size:60px;"">+</div>","null","","fixation","","","","","","","","","","",""
"aa-learning-trial","42","210354","0.0-8.0-2.0-1.8","4325","2","14","Male","approach_avoid_spark_v1","""event"",""trial"",""time""
""focus"",""1"",""3002""
""fullscreenenter"",""1"",""3074""
""blur"",""8"",""21506""
""focus"",""8"",""22141""
""blur"",""20"",""146993""
""focus"",""20"",""153226""
","""event"",""trial"",""time""
""blur"",""8"",""21506""
""blur"",""20"",""146993""
","""event"",""trial"",""time""
""focus"",""1"",""3002""
""focus"",""8"",""22141""
""focus"",""20"",""153226""
","""event"",""trial"",""time""
""fullscreenenter"",""1"",""3074""
","
","","","","","","1650.199999988079","images/ball4.png","","","learning","-8","-8","1","1","practice","practice","practice","-1","","",""
"html-keyboard-response","43","210859","0.0-8.0-2.0-0.9","4325","2","14","Male","approach_avoid_spark_v1","""event"",""trial"",""time""
""focus"",""1"",""3002""
""fullscreenenter"",""1"",""3074""
""blur"",""8"",""21506""
""focus"",""8"",""22141""
""blur"",""20"",""146993""
""focus"",""20"",""153226""
","""event"",""trial"",""time""
""blur"",""8"",""21506""
""blur"",""20"",""146993""
","""event"",""trial"",""time""
""focus"",""1"",""3002""
""focus"",""8"",""22141""
""focus"",""20"",""153226""
","""event"",""trial"",""time""
""fullscreenenter"",""1"",""3074""
","
","","","","","","null","<div style=""font-size:60px;"">+</div>","null","","fixation","","","","","","","","","","",""
"aa-learning-trial","44","213866","0.0-8.0-2.0-1.9","4325","2","14","Male","approach_avoid_spark_v1","""event"",""trial"",""time""
""focus"",""1"",""3002""
""fullscreenenter"",""1"",""3074""
""blur"",""8"",""21506""
""focus"",""8"",""22141""
""blur"",""20"",""146993""
""focus"",""20"",""153226""
","""event"",""trial"",""time""
""blur"",""8"",""21506""
""blur"",""20"",""146993""
","""event"",""trial"",""time""
""focus"",""1"",""3002""
""focus"",""8"",""22141""
""focus"",""20"",""153226""
","""event"",""trial"",""time""
""fullscreenenter"",""1"",""3074""
","
","","","","","","1751.3999999761581","images/ball3.png","","","learning","-7","-7","1","1","practice","practice","practice","-1","","",""
"html-keyboard-response","45","214371","0.0-8.0-2.0-0.10","4325","2","14","Male","approach_avoid_spark_v1","""event"",""trial"",""time""
""focus"",""1"",""3002""
""fullscreenenter"",""1"",""3074""
""blur"",""8"",""21506""
""focus"",""8"",""22141""
""blur"",""20"",""146993""
""focus"",""20"",""153226""
","""event"",""trial"",""time""
""blur"",""8"",""21506""
""blur"",""20"",""146993""
","""event"",""trial"",""time""
""focus"",""1"",""3002""
""focus"",""8"",""22141""
""focus"",""20"",""153226""
","""event"",""trial"",""time""
""fullscreenenter"",""1"",""3074""
","
","","","","","","null","<div style=""font-size:60px;"">+</div>","null","","fixation","","","","","","","","","","",""
"aa-learning-trial","46","217378","0.0-8.0-2.0-1.10","4325","2","14","Male","approach_avoid_spark_v1","""event"",""trial"",""time""
""focus"",""1"",""3002""
""fullscreenenter"",""1"",""3074""
""blur"",""8"",""21506""
""focus"",""8"",""22141""
""blur"",""20"",""146993""
""focus"",""20"",""153226""
","""event"",""trial"",""time""
""blur"",""8"",""21506""
""blur"",""20"",""146993""
","""event"",""trial"",""time""
""focus"",""1"",""3002""
""focus"",""8"",""22141""
""focus"",""20"",""153226""
","""event"",""trial"",""time""
""fullscreenenter"",""1"",""3074""
","
","","","","","","932.5","images/racket3.png","","","learning","1","1","1","1","practice","practice","practice","-1","","",""
"html-keyboard-response","47","217882","0.0-8.0-2.0-0.11","4325","2","14","Male","approach_avoid_spark_v1","""event"",""trial"",""time""
""focus"",""1"",""3002""
""fullscreenenter"",""1"",""3074""
""blur"",""8"",""21506""
""focus"",""8"",""22141""
""blur"",""20"",""146993""
""focus"",""20"",""153226""
","""event"",""trial"",""time""
""blur"",""8"",""21506""
""blur"",""20"",""146993""
","""event"",""trial"",""time""
""focus"",""1"",""3002""
""focus"",""8"",""22141""
""focus"",""20"",""153226""
","""event"",""trial"",""time""
""fullscreenenter"",""1"",""3074""
","
","","","","","","null","<div style=""font-size:60px;"">+</div>","null","","fixation","","","","","","","","","","",""
"aa-learning-trial","48","220890","0.0-8.0-2.0-1.11","4325","2","14","Male","approach_avoid_spark_v1","""event"",""trial"",""time""
""focus"",""1"",""3002""
""fullscreenenter"",""1"",""3074""
""blur"",""8"",""21506""
""focus"",""8"",""22141""
""blur"",""20"",""146993""
""focus"",""20"",""153226""
","""event"",""trial"",""time""
""blur"",""8"",""21506""
""blur"",""20"",""146993""
","""event"",""trial"",""time""
""focus"",""1"",""3002""
""focus"",""8"",""22141""
""focus"",""20"",""153226""
","""event"",""trial"",""time""
""fullscreenenter"",""1"",""3074""
","
","","","","","","1028.1000000238419","images/ball2.png","","","learning","-3","0","0","0","practice","practice","practice","-1","","",""
"html-button-response","49","223270","0.0-8.0-3.0","4325","2","14","Male","approach_avoid_spark_v1","""event"",""trial"",""time""
""focus"",""1"",""3002""
""fullscreenenter"",""1"",""3074""
""blur"",""8"",""21506""
""focus"",""8"",""22141""
""blur"",""20"",""146993""
""focus"",""20"",""153226""
""blur"",""50"",""226213""
""focus"",""50"",""229974""
","""event"",""trial"",""time""
""blur"",""8"",""21506""
""blur"",""20"",""146993""
""blur"",""50"",""226213""
","""event"",""trial"",""time""
""focus"",""1"",""3002""
""focus"",""8"",""22141""
""focus"",""20"",""153226""
""focus"",""50"",""229974""
","""event"",""trial"",""time""
""fullscreenenter"",""1"",""3074""
","
","","","","","","2378.599999964237","<p> You earned -11 points in the practice round! </p>","0","","break","","","","","","","","","","",""
"learning-instructions","50","230062","0.0-8.0-4.0-0.0","4325","2","14","Male","approach_avoid_spark_v1","""event"",""trial"",""time""
""focus"",""1"",""3002""
""fullscreenenter"",""1"",""3074""
""blur"",""8"",""21506""
""focus"",""8"",""22141""
""blur"",""20"",""146993""
""focus"",""20"",""153226""
""blur"",""50"",""226213""
""focus"",""50"",""229974""
","""event"",""trial"",""time""
""blur"",""8"",""21506""
""blur"",""20"",""146993""
""blur"",""50"",""226213""
","""event"",""trial"",""time""
""focus"",""1"",""3002""
""focus"",""8"",""22141""
""focus"",""20"",""153226""
""focus"",""50"",""229974""
","""event"",""trial"",""time""
""fullscreenenter"",""1"",""3074""
","
","","","","","","834.3999999761581","<p> It's almost time to start the real game. </p><p> Before you start, we're going to ask you a few questions about how the game works. </p>","","0","instructions","","","","","","","","","","",""
"preload","51","231561","0.0-8.0-5.0","4325","2","14","Male","approach_avoid_spark_v1","""event"",""trial"",""time""
""focus"",""1"",""3002""
""fullscreenenter"",""1"",""3074""
""blur"",""8"",""21506""
""focus"",""8"",""22141""
""blur"",""20"",""146993""
""focus"",""20"",""153226""
""blur"",""50"",""226213""
""focus"",""50"",""229974""
","""event"",""trial"",""time""
""blur"",""8"",""21506""
""blur"",""20"",""146993""
""blur"",""50"",""226213""
","""event"",""trial"",""time""
""focus"",""1"",""3002""
""focus"",""8"",""22141""
""focus"",""20"",""153226""
""focus"",""50"",""229974""
","""event"",""trial"",""time""
""fullscreenenter"",""1"",""3074""
","
","true","false","[]","[]","[]","","","","","","","","","","","","","","","",""
"comp-q","52","237334","0.0-8.0-6.0-0.0","4325","2","14","Male","approach_avoid_spark_v1","""event"",""trial"",""time""
""focus"",""1"",""3002""
""fullscreenenter"",""1"",""3074""
""blur"",""8"",""21506""
""focus"",""8"",""22141""
""blur"",""20"",""146993""
""focus"",""20"",""153226""
""blur"",""50"",""226213""
""focus"",""50"",""229974""
","""event"",""trial"",""time""
""blur"",""8"",""21506""
""blur"",""20"",""146993""
""blur"",""50"",""226213""
","""event"",""trial"",""time""
""focus"",""1"",""3002""
""focus"",""8"",""22141""
""focus"",""20"",""153226""
""focus"",""50"",""229974""
","""event"",""trial"",""time""
""fullscreenenter"",""1"",""3074""
","
","","","","","","776.8999999761581","<p> <b> True or False? </b> </p><p> If you see a number in GREY, that means you earned that many points. </p>","","1","comp_question","","","","","","","","","true","",""
"comp-q","53","246604","0.0-8.0-6.0-1.0","4325","2","14","Male","approach_avoid_spark_v1","""event"",""trial"",""time""
""focus"",""1"",""3002""
""fullscreenenter"",""1"",""3074""
""blur"",""8"",""21506""
""focus"",""8"",""22141""
""blur"",""20"",""146993""
""focus"",""20"",""153226""
""blur"",""50"",""226213""
""focus"",""50"",""229974""
","""event"",""trial"",""time""
""blur"",""8"",""21506""
""blur"",""20"",""146993""
""blur"",""50"",""226213""
","""event"",""trial"",""time""
""focus"",""1"",""3002""
""focus"",""8"",""22141""
""focus"",""20"",""153226""
""focus"",""50"",""229974""
","""event"",""trial"",""time""
""fullscreenenter"",""1"",""3074""
","
","","","","","","906.8999999761581","<p><b> That's right! </b> If you see a grey number, it means you earned ZERO points. <br> The grey numbers show the points you WOULD HAVE earned if you had made the other choice. </p>","","0","comp_answer","","","","","","","","","","",""
"comp-q","54","251923","0.0-8.0-7.0-0.0","4325","2","14","Male","approach_avoid_spark_v1","""event"",""trial"",""time""
""focus"",""1"",""3002""
""fullscreenenter"",""1"",""3074""
""blur"",""8"",""21506""
""focus"",""8"",""22141""
""blur"",""20"",""146993""
""focus"",""20"",""153226""
""blur"",""50"",""226213""
""focus"",""50"",""229974""
","""event"",""trial"",""time""
""blur"",""8"",""21506""
""blur"",""20"",""146993""
""blur"",""50"",""226213""
","""event"",""trial"",""time""
""focus"",""1"",""3002""
""focus"",""8"",""22141""
""focus"",""20"",""153226""
""focus"",""50"",""229974""
","""event"",""trial"",""time""
""fullscreenenter"",""1"",""3074""
","
","","","","","","626.5999999642372","<p> <b> True or False? </b> </p><p> You will have as much time as you want to make each choice. </p>","","1","comp_question","","","","","","","","","true","",""
"comp-q","55","256798","0.0-8.0-7.0-1.0","4325","2","14","Male","approach_avoid_spark_v1","""event"",""trial"",""time""
""focus"",""1"",""3002""
""fullscreenenter"",""1"",""3074""
""blur"",""8"",""21506""
""focus"",""8"",""22141""
""blur"",""20"",""146993""
""focus"",""20"",""153226""
""blur"",""50"",""226213""
""focus"",""50"",""229974""
","""event"",""trial"",""time""
""blur"",""8"",""21506""
""blur"",""20"",""146993""
""blur"",""50"",""226213""
","""event"",""trial"",""time""
""focus"",""1"",""3002""
""focus"",""8"",""22141""
""focus"",""20"",""153226""
""focus"",""50"",""229974""
","""event"",""trial"",""time""
""fullscreenenter"",""1"",""3074""
","
","","","","","","831.5","<p> <b> That's right! </b> You will only have 3 seconds to make each choice. </p>","","0","comp_answer","","","","","","","","","","",""
"comp-q","56","261922","0.0-8.0-8.0-0.0","4325","2","14","Male","approach_avoid_spark_v1","""event"",""trial"",""time""
""focus"",""1"",""3002""
""fullscreenenter"",""1"",""3074""
""blur"",""8"",""21506""
""focus"",""8"",""22141""
""blur"",""20"",""146993""
""focus"",""20"",""153226""
""blur"",""50"",""226213""
""focus"",""50"",""229974""
","""event"",""trial"",""time""
""blur"",""8"",""21506""
""blur"",""20"",""146993""
""blur"",""50"",""226213""
","""event"",""trial"",""time""
""focus"",""1"",""3002""
""focus"",""8"",""22141""
""focus"",""20"",""153226""
""focus"",""50"",""229974""
","""event"",""trial"",""time""
""fullscreenenter"",""1"",""3074""
","
","","","","","","454.9000000357628","<p> <b> True or False? </b> </p><p> You should use the '1' and '0' keys to make your choices. </p>","","0","comp_question","","","","","","","","","true","",""
"comp-q","57","267468","0.0-8.0-8.0-1.0","4325","2","14","Male","approach_avoid_spark_v1","""event"",""trial"",""time""
""focus"",""1"",""3002""
""fullscreenenter"",""1"",""3074""
""blur"",""8"",""21506""
""focus"",""8"",""22141""
""blur"",""20"",""146993""
""focus"",""20"",""153226""
""blur"",""50"",""226213""
""focus"",""50"",""229974""
","""event"",""trial"",""time""
""blur"",""8"",""21506""
""blur"",""20"",""146993""
""blur"",""50"",""226213""
","""event"",""trial"",""time""
""focus"",""1"",""3002""
""focus"",""8"",""22141""
""focus"",""20"",""153226""
""focus"",""50"",""229974""
","""event"",""trial"",""time""
""fullscreenenter"",""1"",""3074""
","
","","","","","","940.9000000357628","<p> <b> That's right! </b> You should use the '1' and '0' keys to make each choice. </p>","","0","comp_answer","","","","","","","","","","",""
"learning-instructions","58","275047","0.0-8.0-9.0-0.0","4325","2","14","Male","approach_avoid_spark_v1","""event"",""trial"",""time""
""focus"",""1"",""3002""
""fullscreenenter"",""1"",""3074""
""blur"",""8"",""21506""
""focus"",""8"",""22141""
""blur"",""20"",""146993""
""focus"",""20"",""153226""
""blur"",""50"",""226213""
""focus"",""50"",""229974""
","""event"",""trial"",""time""
""blur"",""8"",""21506""
""blur"",""20"",""146993""
""blur"",""50"",""226213""
","""event"",""trial"",""time""
""focus"",""1"",""3002""
""focus"",""8"",""22141""
""focus"",""20"",""153226""
""focus"",""50"",""229974""
","""event"",""trial"",""time""
""fullscreenenter"",""1"",""3074""
","
","","","","","","1309.5999999642372","<p> It's now time to start the real game. </p>Do your best, because the points you earn in the next rounds will influence your bonus payment. </p>","","0","instructions","","","","","","","","","","",""
"preload","59","275164","0.0-9.0-0.0","4325","2","14","Male","approach_avoid_spark_v1","""event"",""trial"",""time""
""focus"",""1"",""3002""
""fullscreenenter"",""1"",""3074""
""blur"",""8"",""21506""
""focus"",""8"",""22141""
""blur"",""20"",""146993""
""focus"",""20"",""153226""
""blur"",""50"",""226213""
""focus"",""50"",""229974""
""blur"",""60"",""279463""
""focus"",""60"",""279607""
","""event"",""trial"",""time""
""blur"",""8"",""21506""
""blur"",""20"",""146993""
""blur"",""50"",""226213""
""blur"",""60"",""279463""
","""event"",""trial"",""time""
""focus"",""1"",""3002""
""focus"",""8"",""22141""
""focus"",""20"",""153226""
""focus"",""50"",""229974""
""focus"",""60"",""279607""
","""event"",""trial"",""time""
""fullscreenenter"",""1"",""3074""
","
","true","false","[]","[]","[]","","","","","","","","","","","","","","","",""
"learning-instructions","60","281470","0.0-9.0-1.0-0.0","4325","2","14","Male","approach_avoid_spark_v1","""event"",""trial"",""time""
""focus"",""1"",""3002""
""fullscreenenter"",""1"",""3074""
""blur"",""8"",""21506""
""focus"",""8"",""22141""
""blur"",""20"",""146993""
""focus"",""20"",""153226""
""blur"",""50"",""226213""
""focus"",""50"",""229974""
""blur"",""60"",""279463""
""focus"",""60"",""279607""
","""event"",""trial"",""time""
""blur"",""8"",""21506""
""blur"",""20"",""146993""
""blur"",""50"",""226213""
""blur"",""60"",""279463""
","""event"",""trial"",""time""
""focus"",""1"",""3002""
""focus"",""8"",""22141""
""focus"",""20"",""153226""
""focus"",""50"",""229974""
""focus"",""60"",""279607""
","""event"",""trial"",""time""
""fullscreenenter"",""1"",""3074""
","
","","","","","","1053.3999999761581","<p> Your goal in this round is to take your friend for rides in different vehicles. </p></div>","","0","instructions","","","","","","","","","","",""
"learning-instructions","61","292521","0.0-9.0-1.0-0.1","4325","2","14","Male","approach_avoid_spark_v1","""event"",""trial"",""time""
""focus"",""1"",""3002""
""fullscreenenter"",""1"",""3074""
""blur"",""8"",""21506""
""focus"",""8"",""22141""
""blur"",""20"",""146993""
""focus"",""20"",""153226""
""blur"",""50"",""226213""
""focus"",""50"",""229974""
""blur"",""60"",""279463""
""focus"",""60"",""279607""
","""event"",""trial"",""time""
""blur"",""8"",""21506""
""blur"",""20"",""146993""
""blur"",""50"",""226213""
""blur"",""60"",""279463""
","""event"",""trial"",""time""
""focus"",""1"",""3002""
""focus"",""8"",""22141""
""focus"",""20"",""153226""
""focus"",""50"",""229974""
""focus"",""60"",""279607""
","""event"",""trial"",""time""
""fullscreenenter"",""1"",""3074""
","
","","","","","","874.5","<p> Your friend enjoys riding in some vehicles but not in others.  </p><p> On each turn, you will see a vehicle.   </p><p> You need to decide whether to take your friend for a ride or not.  </p>","","0","instructions","","","","","","","","","","",""
"learning-instructions","62","300413","0.0-9.0-1.0-0.2","4325","2","14","Male","approach_avoid_spark_v1","""event"",""trial"",""time""
""focus"",""1"",""3002""
""fullscreenenter"",""1"",""3074""
""blur"",""8"",""21506""
""focus"",""8"",""22141""
""blur"",""20"",""146993""
""focus"",""20"",""153226""
""blur"",""50"",""226213""
""focus"",""50"",""229974""
""blur"",""60"",""279463""
""focus"",""60"",""279607""
","""event"",""trial"",""time""
""blur"",""8"",""21506""
""blur"",""20"",""146993""
""blur"",""50"",""226213""
""blur"",""60"",""279463""
","""event"",""trial"",""time""
""focus"",""1"",""3002""
""focus"",""8"",""22141""
""focus"",""20"",""153226""
""focus"",""50"",""229974""
""focus"",""60"",""279607""
","""event"",""trial"",""time""
""fullscreenenter"",""1"",""3074""
","
","","","","","","1185.800000011921","<p> You can take your friend for a ride in the vehicle by pressing 1 and skip the ride by pressing 0. </p><br><div class=""choice-instructions-grid""> <div class=""choice-option""><img src=""images/approach.png"" class=""choice-option-img"" stage=""instructions"" position=""0"" ><div class=""choice-option-text""> Press ""1."" </div></div><div class=""choice-option""><img src=""images/avoid.png"" class=""choice-option-img"" stage=""instructions"" position=""1"" ><div class=""choice-option-text""> Press ""0."" </div></div>","","0","instructions","","","","","","","","","","",""
"learning-instructions","63","309946","0.0-9.0-1.0-0.3","4325","2","14","Male","approach_avoid_spark_v1","""event"",""trial"",""time""
""focus"",""1"",""3002""
""fullscreenenter"",""1"",""3074""
""blur"",""8"",""21506""
""focus"",""8"",""22141""
""blur"",""20"",""146993""
""focus"",""20"",""153226""
""blur"",""50"",""226213""
""focus"",""50"",""229974""
""blur"",""60"",""279463""
""focus"",""60"",""279607""
","""event"",""trial"",""time""
""blur"",""8"",""21506""
""blur"",""20"",""146993""
""blur"",""50"",""226213""
""blur"",""60"",""279463""
","""event"",""trial"",""time""
""focus"",""1"",""3002""
""focus"",""8"",""22141""
""focus"",""20"",""153226""
""focus"",""50"",""229974""
""focus"",""60"",""279607""
","""event"",""trial"",""time""
""fullscreenenter"",""1"",""3074""
","
","","","","","","519.1999999880791","<p> If you take them for a ride in a vehicle they like, they will be thrilled! </p><p> But if you take them for a ride in a vehicle they do not like, they will be upset. </p>","","0","instructions","","","","","","","","","","",""
"learning-instructions","64","322715","0.0-9.0-1.0-0.4","4325","2","14","Male","approach_avoid_spark_v1","""event"",""trial"",""time""
""focus"",""1"",""3002""
""fullscreenenter"",""1"",""3074""
""blur"",""8"",""21506""
""focus"",""8"",""22141""
""blur"",""20"",""146993""
""focus"",""20"",""153226""
""blur"",""50"",""226213""
""focus"",""50"",""229974""
""blur"",""60"",""279463""
""focus"",""60"",""279607""
""fullscreenexit"",""65"",""326581""
","""event"",""trial"",""time""
""blur"",""8"",""21506""
""blur"",""20"",""146993""
""blur"",""50"",""226213""
""blur"",""60"",""279463""
","""event"",""trial"",""time""
""focus"",""1"",""3002""
""focus"",""8"",""22141""
""focus"",""20"",""153226""
""focus"",""50"",""229974""
""focus"",""60"",""279607""
","""event"",""trial"",""time""
""fullscreenenter"",""1"",""3074""
","""event"",""trial"",""time""
""fullscreenexit"",""65"",""326581""
","","","","","","818.7000000476837","<p> You will earn points based on how you made your friend feel. </p><p> If you made him thrilled, you will WIN anywhere from 1 - 9 points, </p><p> but if you made him upset, you will LOSE anywhere from 1 - 9 points. </p>","","0","instructions","","","","","","","","","","",""
"learning-instructions","65","331490","0.0-9.0-1.0-0.5","4325","2","14","Male","approach_avoid_spark_v1","""event"",""trial"",""time""
""focus"",""1"",""3002""
""fullscreenenter"",""1"",""3074""
""blur"",""8"",""21506""
""focus"",""8"",""22141""
""blur"",""20"",""146993""
""focus"",""20"",""153226""
""blur"",""50"",""226213""
""focus"",""50"",""229974""
""blur"",""60"",""279463""
""focus"",""60"",""279607""
""fullscreenexit"",""65"",""326581""
","""event"",""trial"",""time""
""blur"",""8"",""21506""
""blur"",""20"",""146993""
""blur"",""50"",""226213""
""blur"",""60"",""279463""
","""event"",""trial"",""time""
""focus"",""1"",""3002""
""focus"",""8"",""22141""
""focus"",""20"",""153226""
""focus"",""50"",""229974""
""focus"",""60"",""279607""
","""event"",""trial"",""time""
""fullscreenenter"",""1"",""3074""
","""event"",""trial"",""time""
""fullscreenexit"",""65"",""326581""
","","","","","","1102.6000000238419","<p> You will see how many points you won or lost in the center of the screen. </p><p> Here is what you would see if you won 5 points: </p><p style=""color:green;font-size:50px;font-weight:bolder"">5</p>","","0","instructions","","","","","","","","","","",""
"learning-instructions","66","336612","0.0-9.0-1.0-0.6","4325","2","14","Male","approach_avoid_spark_v1","""event"",""trial"",""time""
""focus"",""1"",""3002""
""fullscreenenter"",""1"",""3074""
""blur"",""8"",""21506""
""focus"",""8"",""22141""
""blur"",""20"",""146993""
""focus"",""20"",""153226""
""blur"",""50"",""226213""
""focus"",""50"",""229974""
""blur"",""60"",""279463""
""focus"",""60"",""279607""
""fullscreenexit"",""65"",""326581""
","""event"",""trial"",""time""
""blur"",""8"",""21506""
""blur"",""20"",""146993""
""blur"",""50"",""226213""
""blur"",""60"",""279463""
","""event"",""trial"",""time""
""focus"",""1"",""3002""
""focus"",""8"",""22141""
""focus"",""20"",""153226""
""focus"",""50"",""229974""
""focus"",""60"",""279607""
","""event"",""trial"",""time""
""fullscreenenter"",""1"",""3074""
","""event"",""trial"",""time""
""fullscreenexit"",""65"",""326581""
","","","","","","1605.3999999761581","<p> And here is what you would see if you lost 3 points: </p><p style=""color:red;font-size:50px;font-weight:bolder"">-3</p>","","0","instructions","","","","","","","","","","",""
"learning-instructions","67","353601","0.0-9.0-1.0-0.7","4325","2","14","Male","approach_avoid_spark_v1","""event"",""trial"",""time""
""focus"",""1"",""3002""
""fullscreenenter"",""1"",""3074""
""blur"",""8"",""21506""
""focus"",""8"",""22141""
""blur"",""20"",""146993""
""focus"",""20"",""153226""
""blur"",""50"",""226213""
""focus"",""50"",""229974""
""blur"",""60"",""279463""
""focus"",""60"",""279607""
""fullscreenexit"",""65"",""326581""
","""event"",""trial"",""time""
""blur"",""8"",""21506""
""blur"",""20"",""146993""
""blur"",""50"",""226213""
""blur"",""60"",""279463""
","""event"",""trial"",""time""
""focus"",""1"",""3002""
""focus"",""8"",""22141""
""focus"",""20"",""153226""
""focus"",""50"",""229974""
""focus"",""60"",""279607""
","""event"",""trial"",""time""
""fullscreenenter"",""1"",""3074""
","""event"",""trial"",""time""
""fullscreenexit"",""65"",""326581""
","","","","","","1474.3999999761581","<p> Some vehicles will make your friend REALLY thrilled or upset. </p><p> These vehicles will make you win or lose LOTS of points. </p><p> Other vehicles will only make him feel a little thrilled or upset. </p><p> These vehicles will make you win or lose small amounts of points. </p>","","0","instructions","","","","","","","","","","",""
"learning-instructions","68","366174","0.0-9.0-1.0-0.8","4325","2","14","Male","approach_avoid_spark_v1","""event"",""trial"",""time""
""focus"",""1"",""3002""
""fullscreenenter"",""1"",""3074""
""blur"",""8"",""21506""
""focus"",""8"",""22141""
""blur"",""20"",""146993""
""focus"",""20"",""153226""
""blur"",""50"",""226213""
""focus"",""50"",""229974""
""blur"",""60"",""279463""
""focus"",""60"",""279607""
""fullscreenexit"",""65"",""326581""
","""event"",""trial"",""time""
""blur"",""8"",""21506""
""blur"",""20"",""146993""
""blur"",""50"",""226213""
""blur"",""60"",""279463""
","""event"",""trial"",""time""
""focus"",""1"",""3002""
""focus"",""8"",""22141""
""focus"",""20"",""153226""
""focus"",""50"",""229974""
""focus"",""60"",""279607""
","""event"",""trial"",""time""
""fullscreenenter"",""1"",""3074""
","""event"",""trial"",""time""
""fullscreenexit"",""65"",""326581""
","","","","","","557.6000000238419","<p> If you choose to skip the ride, you will not win or lose any points. </p><p>  However, in the center of the screen, you will see the number of points you WOULD HAVE won or lost if you had taken your friend for a ride. </p>","","0","instructions","","","","","","","","","","",""
"learning-instructions","69","378688","0.0-9.0-1.0-0.9","4325","2","14","Male","approach_avoid_spark_v1","""event"",""trial"",""time""
""focus"",""1"",""3002""
""fullscreenenter"",""1"",""3074""
""blur"",""8"",""21506""
""focus"",""8"",""22141""
""blur"",""20"",""146993""
""focus"",""20"",""153226""
""blur"",""50"",""226213""
""focus"",""50"",""229974""
""blur"",""60"",""279463""
""focus"",""60"",""279607""
""fullscreenexit"",""65"",""326581""
","""event"",""trial"",""time""
""blur"",""8"",""21506""
""blur"",""20"",""146993""
""blur"",""50"",""226213""
""blur"",""60"",""279463""
","""event"",""trial"",""time""
""focus"",""1"",""3002""
""focus"",""8"",""22141""
""focus"",""20"",""153226""
""focus"",""50"",""229974""
""focus"",""60"",""279607""
","""event"",""trial"",""time""
""fullscreenenter"",""1"",""3074""
","""event"",""trial"",""time""
""fullscreenexit"",""65"",""326581""
","","","","","","1511.5","<p> Here is what you might see if you did not take your friend for a ride but he would have enjoyed it: </p><p style=""color:grey; font-size:50px; display: inline-block; border-spacing: 15px; border-width:3px; border-style:solid; border-color:red"">  &nbsp; 6 &nbsp; </p><p> Remember, in this case, you would not win or lose ANY points because you skipped the ride.  </p>","","0","instructions","","","","","","","","","","",""
"learning-instructions","70","387073","0.0-9.0-1.0-0.10","4325","2","14","Male","approach_avoid_spark_v1","""event"",""trial"",""time""
""focus"",""1"",""3002""
""fullscreenenter"",""1"",""3074""
""blur"",""8"",""21506""
""focus"",""8"",""22141""
""blur"",""20"",""146993""
""focus"",""20"",""153226""
""blur"",""50"",""226213""
""focus"",""50"",""229974""
""blur"",""60"",""279463""
""focus"",""60"",""279607""
""fullscreenexit"",""65"",""326581""
","""event"",""trial"",""time""
""blur"",""8"",""21506""
""blur"",""20"",""146993""
""blur"",""50"",""226213""
""blur"",""60"",""279463""
","""event"",""trial"",""time""
""focus"",""1"",""3002""
""focus"",""8"",""22141""
""focus"",""20"",""153226""
""focus"",""50"",""229974""
""focus"",""60"",""279607""
","""event"",""trial"",""time""
""fullscreenenter"",""1"",""3074""
","""event"",""trial"",""time""
""fullscreenexit"",""65"",""326581""
","","","","","","565.8000000119209","<p> Try to make the best choice for each vehicle because </p><p> at the end of the game, you will earn bonus money based on how many points you earned. </p>","","0","instructions","","","","","","","","","","",""
"learning-instructions","71","396079","0.0-9.0-1.0-0.11","4325","2","14","Male","approach_avoid_spark_v1","""event"",""trial"",""time""
""focus"",""1"",""3002""
""fullscreenenter"",""1"",""3074""
""blur"",""8"",""21506""
""focus"",""8"",""22141""
""blur"",""20"",""146993""
""focus"",""20"",""153226""
""blur"",""50"",""226213""
""focus"",""50"",""229974""
""blur"",""60"",""279463""
""focus"",""60"",""279607""
""fullscreenexit"",""65"",""326581""
","""event"",""trial"",""time""
""blur"",""8"",""21506""
""blur"",""20"",""146993""
""blur"",""50"",""226213""
""blur"",""60"",""279463""
","""event"",""trial"",""time""
""focus"",""1"",""3002""
""focus"",""8"",""22141""
""focus"",""20"",""153226""
""focus"",""50"",""229974""
""focus"",""60"",""279607""
","""event"",""trial"",""time""
""fullscreenenter"",""1"",""3074""
","""event"",""trial"",""time""
""fullscreenexit"",""65"",""326581""
","","","","","","811.8000000119209","<p> You will have 3 seconds to make each choice. Try to respond before time runs out! </p><p> You will lose 5 points each time you do not make a response. </p>","","0","instructions","","","","","","","","","","",""
"html-keyboard-response","72","396691","0.0-9.0-2.0-0.0","4325","2","14","Male","approach_avoid_spark_v1","""event"",""trial"",""time""
""focus"",""1"",""3002""
""fullscreenenter"",""1"",""3074""
""blur"",""8"",""21506""
""focus"",""8"",""22141""
""blur"",""20"",""146993""
""focus"",""20"",""153226""
""blur"",""50"",""226213""
""focus"",""50"",""229974""
""blur"",""60"",""279463""
""focus"",""60"",""279607""
""fullscreenexit"",""65"",""326581""
","""event"",""trial"",""time""
""blur"",""8"",""21506""
""blur"",""20"",""146993""
""blur"",""50"",""226213""
""blur"",""60"",""279463""
","""event"",""trial"",""time""
""focus"",""1"",""3002""
""focus"",""8"",""22141""
""focus"",""20"",""153226""
""focus"",""50"",""229974""
""focus"",""60"",""279607""
","""event"",""trial"",""time""
""fullscreenenter"",""1"",""3074""
","""event"",""trial"",""time""
""fullscreenexit"",""65"",""326581""
","","","","","","null","<div style=""font-size:60px;"">+</div>","null","","fixation","","","","","","","","","","",""
"aa-learning-trial","73","399698","0.0-9.0-2.0-1.0","4325","2","14","Male","approach_avoid_spark_v1","""event"",""trial"",""time""
""focus"",""1"",""3002""
""fullscreenenter"",""1"",""3074""
""blur"",""8"",""21506""
""focus"",""8"",""22141""
""blur"",""20"",""146993""
""focus"",""20"",""153226""
""blur"",""50"",""226213""
""focus"",""50"",""229974""
""blur"",""60"",""279463""
""focus"",""60"",""279607""
""fullscreenexit"",""65"",""326581""
","""event"",""trial"",""time""
""blur"",""8"",""21506""
""blur"",""20"",""146993""
""blur"",""50"",""226213""
""blur"",""60"",""279463""
","""event"",""trial"",""time""
""focus"",""1"",""3002""
""focus"",""8"",""22141""
""focus"",""20"",""153226""
""focus"",""50"",""229974""
""focus"",""60"",""279607""
","""event"",""trial"",""time""
""fullscreenenter"",""1"",""3074""
","""event"",""trial"",""time""
""fullscreenexit"",""65"",""326581""
","","","","","","null","images/train1.png","","","learning","3","-5","","null","train","vehicles","2","0","","bad","[-6]"
"html-keyboard-response","74","400203","0.0-9.0-2.0-0.1","4325","2","14","Male","approach_avoid_spark_v1","""event"",""trial"",""time""
""focus"",""1"",""3002""
""fullscreenenter"",""1"",""3074""
""blur"",""8"",""21506""
""focus"",""8"",""22141""
""blur"",""20"",""146993""
""focus"",""20"",""153226""
""blur"",""50"",""226213""
""focus"",""50"",""229974""
""blur"",""60"",""279463""
""focus"",""60"",""279607""
""fullscreenexit"",""65"",""326581""
","""event"",""trial"",""time""
""blur"",""8"",""21506""
""blur"",""20"",""146993""
""blur"",""50"",""226213""
""blur"",""60"",""279463""
","""event"",""trial"",""time""
""focus"",""1"",""3002""
""focus"",""8"",""22141""
""focus"",""20"",""153226""
""focus"",""50"",""229974""
""focus"",""60"",""279607""
","""event"",""trial"",""time""
""fullscreenenter"",""1"",""3074""
","""event"",""trial"",""time""
""fullscreenexit"",""65"",""326581""
","","","","","","null","<div style=""font-size:60px;"">+</div>","null","","fixation","","","","","","","","","","",""
"aa-learning-trial","75","403210","0.0-9.0-2.0-1.1","4325","2","14","Male","approach_avoid_spark_v1","""event"",""trial"",""time""
""focus"",""1"",""3002""
""fullscreenenter"",""1"",""3074""
""blur"",""8"",""21506""
""focus"",""8"",""22141""
""blur"",""20"",""146993""
""focus"",""20"",""153226""
""blur"",""50"",""226213""
""focus"",""50"",""229974""
""blur"",""60"",""279463""
""focus"",""60"",""279607""
""fullscreenexit"",""65"",""326581""
","""event"",""trial"",""time""
""blur"",""8"",""21506""
""blur"",""20"",""146993""
""blur"",""50"",""226213""
""blur"",""60"",""279463""
","""event"",""trial"",""time""
""focus"",""1"",""3002""
""focus"",""8"",""22141""
""focus"",""20"",""153226""
""focus"",""50"",""229974""
""focus"",""60"",""279607""
","""event"",""trial"",""time""
""fullscreenenter"",""1"",""3074""
","""event"",""trial"",""time""
""fullscreenexit"",""65"",""326581""
","","","","","","693.1000000238419","images/boat5.png","","","learning","8","8","1","1","boat","vehicles","2","0","","neutral","0"
"html-keyboard-response","76","403715","0.0-9.0-2.0-0.2","4325","2","14","Male","approach_avoid_spark_v1","""event"",""trial"",""time""
""focus"",""1"",""3002""
""fullscreenenter"",""1"",""3074""
""blur"",""8"",""21506""
""focus"",""8"",""22141""
""blur"",""20"",""146993""
""focus"",""20"",""153226""
""blur"",""50"",""226213""
""focus"",""50"",""229974""
""blur"",""60"",""279463""
""focus"",""60"",""279607""
""fullscreenexit"",""65"",""326581""
","""event"",""trial"",""time""
""blur"",""8"",""21506""
""blur"",""20"",""146993""
""blur"",""50"",""226213""
""blur"",""60"",""279463""
","""event"",""trial"",""time""
""focus"",""1"",""3002""
""focus"",""8"",""22141""
""focus"",""20"",""153226""
""focus"",""50"",""229974""
""focus"",""60"",""279607""
","""event"",""trial"",""time""
""fullscreenenter"",""1"",""3074""
","""event"",""trial"",""time""
""fullscreenexit"",""65"",""326581""
","","","","","","null","<div style=""font-size:60px;"">+</div>","null","","fixation","","","","","","","","","","",""
"aa-learning-trial","77","406723","0.0-9.0-2.0-1.2","4325","2","14","Male","approach_avoid_spark_v1","""event"",""trial"",""time""
""focus"",""1"",""3002""
""fullscreenenter"",""1"",""3074""
""blur"",""8"",""21506""
""focus"",""8"",""22141""
""blur"",""20"",""146993""
""focus"",""20"",""153226""
""blur"",""50"",""226213""
""focus"",""50"",""229974""
""blur"",""60"",""279463""
""focus"",""60"",""279607""
""fullscreenexit"",""65"",""326581""
","""event"",""trial"",""time""
""blur"",""8"",""21506""
""blur"",""20"",""146993""
""blur"",""50"",""226213""
""blur"",""60"",""279463""
","""event"",""trial"",""time""
""focus"",""1"",""3002""
""focus"",""8"",""22141""
""focus"",""20"",""153226""
""focus"",""50"",""229974""
""focus"",""60"",""279607""
","""event"",""trial"",""time""
""fullscreenenter"",""1"",""3074""
","""event"",""trial"",""time""
""fullscreenexit"",""65"",""326581""
","","","","","","512.1000000238419","images/train3.png","","","learning","-5","-5","1","1","train","vehicles","2","0","","bad","[-6]"
"html-keyboard-response","78","407228","0.0-9.0-2.0-0.3","4325","2","14","Male","approach_avoid_spark_v1","""event"",""trial"",""time""
""focus"",""1"",""3002""
""fullscreenenter"",""1"",""3074""
""blur"",""8"",""21506""
""focus"",""8"",""22141""
""blur"",""20"",""146993""
""focus"",""20"",""153226""
""blur"",""50"",""226213""
""focus"",""50"",""229974""
""blur"",""60"",""279463""
""focus"",""60"",""279607""
""fullscreenexit"",""65"",""326581""
","""event"",""trial"",""time""
""blur"",""8"",""21506""
""blur"",""20"",""146993""
""blur"",""50"",""226213""
""blur"",""60"",""279463""
","""event"",""trial"",""time""
""focus"",""1"",""3002""
""focus"",""8"",""22141""
""focus"",""20"",""153226""
""focus"",""50"",""229974""
""focus"",""60"",""279607""
","""event"",""trial"",""time""
""fullscreenenter"",""1"",""3074""
","""event"",""trial"",""time""
""fullscreenexit"",""65"",""326581""
","","","","","","null","<div style=""font-size:60px;"">+</div>","null","","fixation","","","","","","","","","","",""
"aa-learning-trial","79","410234","0.0-9.0-2.0-1.3","4325","2","14","Male","approach_avoid_spark_v1","""event"",""trial"",""time""
""focus"",""1"",""3002""
""fullscreenenter"",""1"",""3074""
""blur"",""8"",""21506""
""focus"",""8"",""22141""
""blur"",""20"",""146993""
""focus"",""20"",""153226""
""blur"",""50"",""226213""
""focus"",""50"",""229974""
""blur"",""60"",""279463""
""focus"",""60"",""279607""
""fullscreenexit"",""65"",""326581""
","""event"",""trial"",""time""
""blur"",""8"",""21506""
""blur"",""20"",""146993""
""blur"",""50"",""226213""
""blur"",""60"",""279463""
","""event"",""trial"",""time""
""focus"",""1"",""3002""
""focus"",""8"",""22141""
""focus"",""20"",""153226""
""focus"",""50"",""229974""
""focus"",""60"",""279607""
","""event"",""trial"",""time""
""fullscreenenter"",""1"",""3074""
","""event"",""trial"",""time""
""fullscreenexit"",""65"",""326581""
","","","","","","502.7999999523163","images/boat3.png","","","learning","2","2","1","1","boat","vehicles","2","0","","neutral","0"
"html-keyboard-response","80","410739","0.0-9.0-2.0-0.4","4325","2","14","Male","approach_avoid_spark_v1","""event"",""trial"",""time""
""focus"",""1"",""3002""
""fullscreenenter"",""1"",""3074""
""blur"",""8"",""21506""
""focus"",""8"",""22141""
""blur"",""20"",""146993""
""focus"",""20"",""153226""
""blur"",""50"",""226213""
""focus"",""50"",""229974""
""blur"",""60"",""279463""
""focus"",""60"",""279607""
""fullscreenexit"",""65"",""326581""
","""event"",""trial"",""time""
""blur"",""8"",""21506""
""blur"",""20"",""146993""
""blur"",""50"",""226213""
""blur"",""60"",""279463""
","""event"",""trial"",""time""
""focus"",""1"",""3002""
""focus"",""8"",""22141""
""focus"",""20"",""153226""
""focus"",""50"",""229974""
""focus"",""60"",""279607""
","""event"",""trial"",""time""
""fullscreenenter"",""1"",""3074""
","""event"",""trial"",""time""
""fullscreenexit"",""65"",""326581""
","","","","","","null","<div style=""font-size:60px;"">+</div>","null","","fixation","","","","","","","","","","",""
"aa-learning-trial","81","413747","0.0-9.0-2.0-1.4","4325","2","14","Male","approach_avoid_spark_v1","""event"",""trial"",""time""
""focus"",""1"",""3002""
""fullscreenenter"",""1"",""3074""
""blur"",""8"",""21506""
""focus"",""8"",""22141""
""blur"",""20"",""146993""
""focus"",""20"",""153226""
""blur"",""50"",""226213""
""focus"",""50"",""229974""
""blur"",""60"",""279463""
""focus"",""60"",""279607""
""fullscreenexit"",""65"",""326581""
","""event"",""trial"",""time""
""blur"",""8"",""21506""
""blur"",""20"",""146993""
""blur"",""50"",""226213""
""blur"",""60"",""279463""
","""event"",""trial"",""time""
""focus"",""1"",""3002""
""focus"",""8"",""22141""
""focus"",""20"",""153226""
""focus"",""50"",""229974""
""focus"",""60"",""279607""
","""event"",""trial"",""time""
""fullscreenenter"",""1"",""3074""
","""event"",""trial"",""time""
""fullscreenexit"",""65"",""326581""
","","","","","","589.3999999761581","images/truck6.png","","","learning","-6","-6","1","1","truck","vehicles","2","0","","good","[5]"
"html-keyboard-response","82","414251","0.0-9.0-2.0-0.5","4325","2","14","Male","approach_avoid_spark_v1","""event"",""trial"",""time""
""focus"",""1"",""3002""
""fullscreenenter"",""1"",""3074""
""blur"",""8"",""21506""
""focus"",""8"",""22141""
""blur"",""20"",""146993""
""focus"",""20"",""153226""
""blur"",""50"",""226213""
""focus"",""50"",""229974""
""blur"",""60"",""279463""
""focus"",""60"",""279607""
""fullscreenexit"",""65"",""326581""
","""event"",""trial"",""time""
""blur"",""8"",""21506""
""blur"",""20"",""146993""
""blur"",""50"",""226213""
""blur"",""60"",""279463""
","""event"",""trial"",""time""
""focus"",""1"",""3002""
""focus"",""8"",""22141""
""focus"",""20"",""153226""
""focus"",""50"",""229974""
""focus"",""60"",""279607""
","""event"",""trial"",""time""
""fullscreenenter"",""1"",""3074""
","""event"",""trial"",""time""
""fullscreenexit"",""65"",""326581""
","","","","","","null","<div style=""font-size:60px;"">+</div>","null","","fixation","","","","","","","","","","",""
"aa-learning-trial","83","417259","0.0-9.0-2.0-1.5","4325","2","14","Male","approach_avoid_spark_v1","""event"",""trial"",""time""
""focus"",""1"",""3002""
""fullscreenenter"",""1"",""3074""
""blur"",""8"",""21506""
""focus"",""8"",""22141""
""blur"",""20"",""146993""
""focus"",""20"",""153226""
""blur"",""50"",""226213""
""focus"",""50"",""229974""
""blur"",""60"",""279463""
""focus"",""60"",""279607""
""fullscreenexit"",""65"",""326581""
","""event"",""trial"",""time""
""blur"",""8"",""21506""
""blur"",""20"",""146993""
""blur"",""50"",""226213""
""blur"",""60"",""279463""
","""event"",""trial"",""time""
""focus"",""1"",""3002""
""focus"",""8"",""22141""
""focus"",""20"",""153226""
""focus"",""50"",""229974""
""focus"",""60"",""279607""
","""event"",""trial"",""time""
""fullscreenenter"",""1"",""3074""
","""event"",""trial"",""time""
""fullscreenexit"",""65"",""326581""
","","","","","","1098.300000011921","images/train6.png","","","learning","9","9","1","1","train","vehicles","2","0","","bad","[-6]"
"html-keyboard-response","84","417763","0.0-9.0-2.0-0.6","4325","2","14","Male","approach_avoid_spark_v1","""event"",""trial"",""time""
""focus"",""1"",""3002""
""fullscreenenter"",""1"",""3074""
""blur"",""8"",""21506""
""focus"",""8"",""22141""
""blur"",""20"",""146993""
""focus"",""20"",""153226""
""blur"",""50"",""226213""
""focus"",""50"",""229974""
""blur"",""60"",""279463""
""focus"",""60"",""279607""
""fullscreenexit"",""65"",""326581""
","""event"",""trial"",""time""
""blur"",""8"",""21506""
""blur"",""20"",""146993""
""blur"",""50"",""226213""
""blur"",""60"",""279463""
","""event"",""trial"",""time""
""focus"",""1"",""3002""
""focus"",""8"",""22141""
""focus"",""20"",""153226""
""focus"",""50"",""229974""
""focus"",""60"",""279607""
","""event"",""trial"",""time""
""fullscreenenter"",""1"",""3074""
","""event"",""trial"",""time""
""fullscreenexit"",""65"",""326581""
","","","","","","null","<div style=""font-size:60px;"">+</div>","null","","fixation","","","","","","","","","","",""
"aa-learning-trial","85","420771","0.0-9.0-2.0-1.6","4325","2","14","Male","approach_avoid_spark_v1","""event"",""trial"",""time""
""focus"",""1"",""3002""
""fullscreenenter"",""1"",""3074""
""blur"",""8"",""21506""
""focus"",""8"",""22141""
""blur"",""20"",""146993""
""focus"",""20"",""153226""
""blur"",""50"",""226213""
""focus"",""50"",""229974""
""blur"",""60"",""279463""
""focus"",""60"",""279607""
""fullscreenexit"",""65"",""326581""
","""event"",""trial"",""time""
""blur"",""8"",""21506""
""blur"",""20"",""146993""
""blur"",""50"",""226213""
""blur"",""60"",""279463""
","""event"",""trial"",""time""
""focus"",""1"",""3002""
""focus"",""8"",""22141""
""focus"",""20"",""153226""
""focus"",""50"",""229974""
""focus"",""60"",""279607""
","""event"",""trial"",""time""
""fullscreenenter"",""1"",""3074""
","""event"",""trial"",""time""
""fullscreenexit"",""65"",""326581""
","","","","","","516.8000000119209","images/boat3.png","","","learning","2","2","1","1","boat","vehicles","2","0","","neutral","0"
"html-keyboard-response","86","421274","0.0-9.0-2.0-0.7","4325","2","14","Male","approach_avoid_spark_v1","""event"",""trial"",""time""
""focus"",""1"",""3002""
""fullscreenenter"",""1"",""3074""
""blur"",""8"",""21506""
""focus"",""8"",""22141""
""blur"",""20"",""146993""
""focus"",""20"",""153226""
""blur"",""50"",""226213""
""focus"",""50"",""229974""
""blur"",""60"",""279463""
""focus"",""60"",""279607""
""fullscreenexit"",""65"",""326581""
","""event"",""trial"",""time""
""blur"",""8"",""21506""
""blur"",""20"",""146993""
""blur"",""50"",""226213""
""blur"",""60"",""279463""
","""event"",""trial"",""time""
""focus"",""1"",""3002""
""focus"",""8"",""22141""
""focus"",""20"",""153226""
""focus"",""50"",""229974""
""focus"",""60"",""279607""
","""event"",""trial"",""time""
""fullscreenenter"",""1"",""3074""
","""event"",""trial"",""time""
""fullscreenexit"",""65"",""326581""
","","","","","","null","<div style=""font-size:60px;"">+</div>","null","","fixation","","","","","","","","","","",""
"aa-learning-trial","87","424284","0.0-9.0-2.0-1.7","4325","2","14","Male","approach_avoid_spark_v1","""event"",""trial"",""time""
""focus"",""1"",""3002""
""fullscreenenter"",""1"",""3074""
""blur"",""8"",""21506""
""focus"",""8"",""22141""
""blur"",""20"",""146993""
""focus"",""20"",""153226""
""blur"",""50"",""226213""
""focus"",""50"",""229974""
""blur"",""60"",""279463""
""focus"",""60"",""279607""
""fullscreenexit"",""65"",""326581""
","""event"",""trial"",""time""
""blur"",""8"",""21506""
""blur"",""20"",""146993""
""blur"",""50"",""226213""
""blur"",""60"",""279463""
","""event"",""trial"",""time""
""focus"",""1"",""3002""
""focus"",""8"",""22141""
""focus"",""20"",""153226""
""focus"",""50"",""229974""
""focus"",""60"",""279607""
","""event"",""trial"",""time""
""fullscreenenter"",""1"",""3074""
","""event"",""trial"",""time""
""fullscreenexit"",""65"",""326581""
","","","","","","1059.199999988079","images/train6.png","","","learning","9","0","0","0","train","vehicles","2","0","","bad","[-6]"
"html-keyboard-response","88","424786","0.0-9.0-2.0-0.8","4325","2","14","Male","approach_avoid_spark_v1","""event"",""trial"",""time""
""focus"",""1"",""3002""
""fullscreenenter"",""1"",""3074""
""blur"",""8"",""21506""
""focus"",""8"",""22141""
""blur"",""20"",""146993""
""focus"",""20"",""153226""
""blur"",""50"",""226213""
""focus"",""50"",""229974""
""blur"",""60"",""279463""
""focus"",""60"",""279607""
""fullscreenexit"",""65"",""326581""
","""event"",""trial"",""time""
""blur"",""8"",""21506""
""blur"",""20"",""146993""
""blur"",""50"",""226213""
""blur"",""60"",""279463""
","""event"",""trial"",""time""
""focus"",""1"",""3002""
""focus"",""8"",""22141""
""focus"",""20"",""153226""
""focus"",""50"",""229974""
""focus"",""60"",""279607""
","""event"",""trial"",""time""
""fullscreenenter"",""1"",""3074""
","""event"",""trial"",""time""
""fullscreenexit"",""65"",""326581""
","","","","","","null","<div style=""font-size:60px;"">+</div>","null","","fixation","","","","","","","","","","",""
"aa-learning-trial","89","427795","0.0-9.0-2.0-1.8","4325","2","14","Male","approach_avoid_spark_v1","""event"",""trial"",""time""
""focus"",""1"",""3002""
""fullscreenenter"",""1"",""3074""
""blur"",""8"",""21506""
""focus"",""8"",""22141""
""blur"",""20"",""146993""
""focus"",""20"",""153226""
""blur"",""50"",""226213""
""focus"",""50"",""229974""
""blur"",""60"",""279463""
""focus"",""60"",""279607""
""fullscreenexit"",""65"",""326581""
","""event"",""trial"",""time""
""blur"",""8"",""21506""
""blur"",""20"",""146993""
""blur"",""50"",""226213""
""blur"",""60"",""279463""
","""event"",""trial"",""time""
""focus"",""1"",""3002""
""focus"",""8"",""22141""
""focus"",""20"",""153226""
""focus"",""50"",""229974""
""focus"",""60"",""279607""
","""event"",""trial"",""time""
""fullscreenenter"",""1"",""3074""
","""event"",""trial"",""time""
""fullscreenexit"",""65"",""326581""
","","","","","","932.3000000119209","images/truck8.png","","","learning","-4","-4","1","1","truck","vehicles","2","0","","good","[5]"
"html-keyboard-response","90","428298","0.0-9.0-2.0-0.9","4325","2","14","Male","approach_avoid_spark_v1","""event"",""trial"",""time""
""focus"",""1"",""3002""
""fullscreenenter"",""1"",""3074""
""blur"",""8"",""21506""
""focus"",""8"",""22141""
""blur"",""20"",""146993""
""focus"",""20"",""153226""
""blur"",""50"",""226213""
""focus"",""50"",""229974""
""blur"",""60"",""279463""
""focus"",""60"",""279607""
""fullscreenexit"",""65"",""326581""
","""event"",""trial"",""time""
""blur"",""8"",""21506""
""blur"",""20"",""146993""
""blur"",""50"",""226213""
""blur"",""60"",""279463""
","""event"",""trial"",""time""
""focus"",""1"",""3002""
""focus"",""8"",""22141""
""focus"",""20"",""153226""
""focus"",""50"",""229974""
""focus"",""60"",""279607""
","""event"",""trial"",""time""
""fullscreenenter"",""1"",""3074""
","""event"",""trial"",""time""
""fullscreenexit"",""65"",""326581""
","","","","","","null","<div style=""font-size:60px;"">+</div>","null","","fixation","","","","","","","","","","",""
"aa-learning-trial","91","431306","0.0-9.0-2.0-1.9","4325","2","14","Male","approach_avoid_spark_v1","""event"",""trial"",""time""
""focus"",""1"",""3002""
""fullscreenenter"",""1"",""3074""
""blur"",""8"",""21506""
""focus"",""8"",""22141""
""blur"",""20"",""146993""
""focus"",""20"",""153226""
""blur"",""50"",""226213""
""focus"",""50"",""229974""
""blur"",""60"",""279463""
""focus"",""60"",""279607""
""fullscreenexit"",""65"",""326581""
","""event"",""trial"",""time""
""blur"",""8"",""21506""
""blur"",""20"",""146993""
""blur"",""50"",""226213""
""blur"",""60"",""279463""
","""event"",""trial"",""time""
""focus"",""1"",""3002""
""focus"",""8"",""22141""
""focus"",""20"",""153226""
""focus"",""50"",""229974""
""focus"",""60"",""279607""
","""event"",""trial"",""time""
""fullscreenenter"",""1"",""3074""
","""event"",""trial"",""time""
""fullscreenexit"",""65"",""326581""
","","","","","","845","images/truck8.png","","","learning","-4","0","0","0","truck","vehicles","2","0","","good","[5]"
"html-keyboard-response","92","431810","0.0-9.0-2.0-0.10","4325","2","14","Male","approach_avoid_spark_v1","""event"",""trial"",""time""
""focus"",""1"",""3002""
""fullscreenenter"",""1"",""3074""
""blur"",""8"",""21506""
""focus"",""8"",""22141""
""blur"",""20"",""146993""
""focus"",""20"",""153226""
""blur"",""50"",""226213""
""focus"",""50"",""229974""
""blur"",""60"",""279463""
""focus"",""60"",""279607""
""fullscreenexit"",""65"",""326581""
","""event"",""trial"",""time""
""blur"",""8"",""21506""
""blur"",""20"",""146993""
""blur"",""50"",""226213""
""blur"",""60"",""279463""
","""event"",""trial"",""time""
""focus"",""1"",""3002""
""focus"",""8"",""22141""
""focus"",""20"",""153226""
""focus"",""50"",""229974""
""focus"",""60"",""279607""
","""event"",""trial"",""time""
""fullscreenenter"",""1"",""3074""
","""event"",""trial"",""time""
""fullscreenexit"",""65"",""326581""
","","","","","","null","<div style=""font-size:60px;"">+</div>","null","","fixation","","","","","","","","","","",""
"aa-learning-trial","93","434819","0.0-9.0-2.0-1.10","4325","2","14","Male","approach_avoid_spark_v1","""event"",""trial"",""time""
""focus"",""1"",""3002""
""fullscreenenter"",""1"",""3074""
""blur"",""8"",""21506""
""focus"",""8"",""22141""
""blur"",""20"",""146993""
""focus"",""20"",""153226""
""blur"",""50"",""226213""
""focus"",""50"",""229974""
""blur"",""60"",""279463""
""focus"",""60"",""279607""
""fullscreenexit"",""65"",""326581""
","""event"",""trial"",""time""
""blur"",""8"",""21506""
""blur"",""20"",""146993""
""blur"",""50"",""226213""
""blur"",""60"",""279463""
","""event"",""trial"",""time""
""focus"",""1"",""3002""
""focus"",""8"",""22141""
""focus"",""20"",""153226""
""focus"",""50"",""229974""
""focus"",""60"",""279607""
","""event"",""trial"",""time""
""fullscreenenter"",""1"",""3074""
","""event"",""trial"",""time""
""fullscreenexit"",""65"",""326581""
","","","","","","1063.9000000357628","images/boat4.png","","","learning","-9","-9","1","1","boat","vehicles","2","0","","neutral","0"
"html-keyboard-response","94","435322","0.0-9.0-2.0-0.11","4325","2","14","Male","approach_avoid_spark_v1","""event"",""trial"",""time""
""focus"",""1"",""3002""
""fullscreenenter"",""1"",""3074""
""blur"",""8"",""21506""
""focus"",""8"",""22141""
""blur"",""20"",""146993""
""focus"",""20"",""153226""
""blur"",""50"",""226213""
""focus"",""50"",""229974""
""blur"",""60"",""279463""
""focus"",""60"",""279607""
""fullscreenexit"",""65"",""326581""
","""event"",""trial"",""time""
""blur"",""8"",""21506""
""blur"",""20"",""146993""
""blur"",""50"",""226213""
""blur"",""60"",""279463""
","""event"",""trial"",""time""
""focus"",""1"",""3002""
""focus"",""8"",""22141""
""focus"",""20"",""153226""
""focus"",""50"",""229974""
""focus"",""60"",""279607""
","""event"",""trial"",""time""
""fullscreenenter"",""1"",""3074""
","""event"",""trial"",""time""
""fullscreenexit"",""65"",""326581""
","","","","","","null","<div style=""font-size:60px;"">+</div>","null","","fixation","","","","","","","","","","",""
"aa-learning-trial","95","438331","0.0-9.0-2.0-1.11","4325","2","14","Male","approach_avoid_spark_v1","""event"",""trial"",""time""
""focus"",""1"",""3002""
""fullscreenenter"",""1"",""3074""
""blur"",""8"",""21506""
""focus"",""8"",""22141""
""blur"",""20"",""146993""
""focus"",""20"",""153226""
""blur"",""50"",""226213""
""focus"",""50"",""229974""
""blur"",""60"",""279463""
""focus"",""60"",""279607""
""fullscreenexit"",""65"",""326581""
","""event"",""trial"",""time""
""blur"",""8"",""21506""
""blur"",""20"",""146993""
""blur"",""50"",""226213""
""blur"",""60"",""279463""
","""event"",""trial"",""time""
""focus"",""1"",""3002""
""focus"",""8"",""22141""
""focus"",""20"",""153226""
""focus"",""50"",""229974""
""focus"",""60"",""279607""
","""event"",""trial"",""time""
""fullscreenenter"",""1"",""3074""
","""event"",""trial"",""time""
""fullscreenexit"",""65"",""326581""
","","","","","","726.0999999642372","images/truck6.png","","","learning","-6","0","0","0","truck","vehicles","2","0","","good","[5]"
"html-keyboard-response","96","438835","0.0-9.0-2.0-0.12","4325","2","14","Male","approach_avoid_spark_v1","""event"",""trial"",""time""
""focus"",""1"",""3002""
""fullscreenenter"",""1"",""3074""
""blur"",""8"",""21506""
""focus"",""8"",""22141""
""blur"",""20"",""146993""
""focus"",""20"",""153226""
""blur"",""50"",""226213""
""focus"",""50"",""229974""
""blur"",""60"",""279463""
""focus"",""60"",""279607""
""fullscreenexit"",""65"",""326581""
","""event"",""trial"",""time""
""blur"",""8"",""21506""
""blur"",""20"",""146993""
""blur"",""50"",""226213""
""blur"",""60"",""279463""
","""event"",""trial"",""time""
""focus"",""1"",""3002""
""focus"",""8"",""22141""
""focus"",""20"",""153226""
""focus"",""50"",""229974""
""focus"",""60"",""279607""
","""event"",""trial"",""time""
""fullscreenenter"",""1"",""3074""
","""event"",""trial"",""time""
""fullscreenexit"",""65"",""326581""
","","","","","","null","<div style=""font-size:60px;"">+</div>","null","","fixation","","","","","","","","","","",""
"aa-learning-trial","97","441843","0.0-9.0-2.0-1.12","4325","2","14","Male","approach_avoid_spark_v1","""event"",""trial"",""time""
""focus"",""1"",""3002""
""fullscreenenter"",""1"",""3074""
""blur"",""8"",""21506""
""focus"",""8"",""22141""
""blur"",""20"",""146993""
""focus"",""20"",""153226""
""blur"",""50"",""226213""
""focus"",""50"",""229974""
""blur"",""60"",""279463""
""focus"",""60"",""279607""
""fullscreenexit"",""65"",""326581""
","""event"",""trial"",""time""
""blur"",""8"",""21506""
""blur"",""20"",""146993""
""blur"",""50"",""226213""
""blur"",""60"",""279463""
","""event"",""trial"",""time""
""focus"",""1"",""3002""
""focus"",""8"",""22141""
""focus"",""20"",""153226""
""focus"",""50"",""229974""
""focus"",""60"",""279607""
","""event"",""trial"",""time""
""fullscreenenter"",""1"",""3074""
","""event"",""trial"",""time""
""fullscreenexit"",""65"",""326581""
","","","","","","1423.699999988079","images/train3.png","","","learning","-5","0","0","0","train","vehicles","2","0","","bad","[-6]"
"html-keyboard-response","98","442346","0.0-9.0-2.0-0.13","4325","2","14","Male","approach_avoid_spark_v1","""event"",""trial"",""time""
""focus"",""1"",""3002""
""fullscreenenter"",""1"",""3074""
""blur"",""8"",""21506""
""focus"",""8"",""22141""
""blur"",""20"",""146993""
""focus"",""20"",""153226""
""blur"",""50"",""226213""
""focus"",""50"",""229974""
""blur"",""60"",""279463""
""focus"",""60"",""279607""
""fullscreenexit"",""65"",""326581""
","""event"",""trial"",""time""
""blur"",""8"",""21506""
""blur"",""20"",""146993""
""blur"",""50"",""226213""
""blur"",""60"",""279463""
","""event"",""trial"",""time""
""focus"",""1"",""3002""
""focus"",""8"",""22141""
""focus"",""20"",""153226""
""focus"",""50"",""229974""
""focus"",""60"",""279607""
","""event"",""trial"",""time""
""fullscreenenter"",""1"",""3074""
","""event"",""trial"",""time""
""fullscreenexit"",""65"",""326581""
","","","","","","null","<div style=""font-size:60px;"">+</div>","null","","fixation","","","","","","","","","","",""
"aa-learning-trial","99","445355","0.0-9.0-2.0-1.13","4325","2","14","Male","approach_avoid_spark_v1","""event"",""trial"",""time""
""focus"",""1"",""3002""
""fullscreenenter"",""1"",""3074""
""blur"",""8"",""21506""
""focus"",""8"",""22141""
""blur"",""20"",""146993""
""focus"",""20"",""153226""
""blur"",""50"",""226213""
""focus"",""50"",""229974""
""blur"",""60"",""279463""
""focus"",""60"",""279607""
""fullscreenexit"",""65"",""326581""
","""event"",""trial"",""time""
""blur"",""8"",""21506""
""blur"",""20"",""146993""
""blur"",""50"",""226213""
""blur"",""60"",""279463""
","""event"",""trial"",""time""
""focus"",""1"",""3002""
""focus"",""8"",""22141""
""focus"",""20"",""153226""
""focus"",""50"",""229974""
""focus"",""60"",""279607""
","""event"",""trial"",""time""
""fullscreenenter"",""1"",""3074""
","""event"",""trial"",""time""
""fullscreenexit"",""65"",""326581""
","","","","","","1077.9000000357628","images/boat4.png","","","learning","-9","0","0","0","boat","vehicles","2","0","","neutral","0"
"html-keyboard-response","100","445858","0.0-9.0-2.0-0.14","4325","2","14","Male","approach_avoid_spark_v1","""event"",""trial"",""time""
""focus"",""1"",""3002""
""fullscreenenter"",""1"",""3074""
""blur"",""8"",""21506""
""focus"",""8"",""22141""
""blur"",""20"",""146993""
""focus"",""20"",""153226""
""blur"",""50"",""226213""
""focus"",""50"",""229974""
""blur"",""60"",""279463""
""focus"",""60"",""279607""
""fullscreenexit"",""65"",""326581""
","""event"",""trial"",""time""
""blur"",""8"",""21506""
""blur"",""20"",""146993""
""blur"",""50"",""226213""
""blur"",""60"",""279463""
","""event"",""trial"",""time""
""focus"",""1"",""3002""
""focus"",""8"",""22141""
""focus"",""20"",""153226""
""focus"",""50"",""229974""
""focus"",""60"",""279607""
","""event"",""trial"",""time""
""fullscreenenter"",""1"",""3074""
","""event"",""trial"",""time""
""fullscreenexit"",""65"",""326581""
","","","","","","null","<div style=""font-size:60px;"">+</div>","null","","fixation","","","","","","","","","","",""
"aa-learning-trial","101","448866","0.0-9.0-2.0-1.14","4325","2","14","Male","approach_avoid_spark_v1","""event"",""trial"",""time""
""focus"",""1"",""3002""
""fullscreenenter"",""1"",""3074""
""blur"",""8"",""21506""
""focus"",""8"",""22141""
""blur"",""20"",""146993""
""focus"",""20"",""153226""
""blur"",""50"",""226213""
""focus"",""50"",""229974""
""blur"",""60"",""279463""
""focus"",""60"",""279607""
""fullscreenexit"",""65"",""326581""
","""event"",""trial"",""time""
""blur"",""8"",""21506""
""blur"",""20"",""146993""
""blur"",""50"",""226213""
""blur"",""60"",""279463""
","""event"",""trial"",""time""
""focus"",""1"",""3002""
""focus"",""8"",""22141""
""focus"",""20"",""153226""
""focus"",""50"",""229974""
""focus"",""60"",""279607""
","""event"",""trial"",""time""
""fullscreenenter"",""1"",""3074""
","""event"",""trial"",""time""
""fullscreenexit"",""65"",""326581""
","","","","","","950.6000000238419","images/truck3.png","","","learning","5","5","1","1","truck","vehicles","2","0","","good","[5]"
"html-keyboard-response","102","449371","0.0-9.0-2.0-0.15","4325","2","14","Male","approach_avoid_spark_v1","""event"",""trial"",""time""
""focus"",""1"",""3002""
""fullscreenenter"",""1"",""3074""
""blur"",""8"",""21506""
""focus"",""8"",""22141""
""blur"",""20"",""146993""
""focus"",""20"",""153226""
""blur"",""50"",""226213""
""focus"",""50"",""229974""
""blur"",""60"",""279463""
""focus"",""60"",""279607""
""fullscreenexit"",""65"",""326581""
","""event"",""trial"",""time""
""blur"",""8"",""21506""
""blur"",""20"",""146993""
""blur"",""50"",""226213""
""blur"",""60"",""279463""
","""event"",""trial"",""time""
""focus"",""1"",""3002""
""focus"",""8"",""22141""
""focus"",""20"",""153226""
""focus"",""50"",""229974""
""focus"",""60"",""279607""
","""event"",""trial"",""time""
""fullscreenenter"",""1"",""3074""
","""event"",""trial"",""time""
""fullscreenexit"",""65"",""326581""
","","","","","","null","<div style=""font-size:60px;"">+</div>","null","","fixation","","","","","","","","","","",""
"aa-learning-trial","103","452379","0.0-9.0-2.0-1.15","4325","2","14","Male","approach_avoid_spark_v1","""event"",""trial"",""time""
""focus"",""1"",""3002""
""fullscreenenter"",""1"",""3074""
""blur"",""8"",""21506""
""focus"",""8"",""22141""
""blur"",""20"",""146993""
""focus"",""20"",""153226""
""blur"",""50"",""226213""
""focus"",""50"",""229974""
""blur"",""60"",""279463""
""focus"",""60"",""279607""
""fullscreenexit"",""65"",""326581""
","""event"",""trial"",""time""
""blur"",""8"",""21506""
""blur"",""20"",""146993""
""blur"",""50"",""226213""
""blur"",""60"",""279463""
","""event"",""trial"",""time""
""focus"",""1"",""3002""
""focus"",""8"",""22141""
""focus"",""20"",""153226""
""focus"",""50"",""229974""
""focus"",""60"",""279607""
","""event"",""trial"",""time""
""fullscreenenter"",""1"",""3074""
","""event"",""trial"",""time""
""fullscreenexit"",""65"",""326581""
","","","","","","714.7000000476837","images/train3.png","","","learning","-5","0","0","0","train","vehicles","2","0","","bad","[-6]"
"html-keyboard-response","104","452882","0.0-9.0-2.0-0.16","4325","2","14","Male","approach_avoid_spark_v1","""event"",""trial"",""time""
""focus"",""1"",""3002""
""fullscreenenter"",""1"",""3074""
""blur"",""8"",""21506""
""focus"",""8"",""22141""
""blur"",""20"",""146993""
""focus"",""20"",""153226""
""blur"",""50"",""226213""
""focus"",""50"",""229974""
""blur"",""60"",""279463""
""focus"",""60"",""279607""
""fullscreenexit"",""65"",""326581""
","""event"",""trial"",""time""
""blur"",""8"",""21506""
""blur"",""20"",""146993""
""blur"",""50"",""226213""
""blur"",""60"",""279463""
","""event"",""trial"",""time""
""focus"",""1"",""3002""
""focus"",""8"",""22141""
""focus"",""20"",""153226""
""focus"",""50"",""229974""
""focus"",""60"",""279607""
","""event"",""trial"",""time""
""fullscreenenter"",""1"",""3074""
","""event"",""trial"",""time""
""fullscreenexit"",""65"",""326581""
","","","","","","null","<div style=""font-size:60px;"">+</div>","null","","fixation","","","","","","","","","","",""
"aa-learning-trial","105","455891","0.0-9.0-2.0-1.16","4325","2","14","Male","approach_avoid_spark_v1","""event"",""trial"",""time""
""focus"",""1"",""3002""
""fullscreenenter"",""1"",""3074""
""blur"",""8"",""21506""
""focus"",""8"",""22141""
""blur"",""20"",""146993""
""focus"",""20"",""153226""
""blur"",""50"",""226213""
""focus"",""50"",""229974""
""blur"",""60"",""279463""
""focus"",""60"",""279607""
""fullscreenexit"",""65"",""326581""
","""event"",""trial"",""time""
""blur"",""8"",""21506""
""blur"",""20"",""146993""
""blur"",""50"",""226213""
""blur"",""60"",""279463""
","""event"",""trial"",""time""
""focus"",""1"",""3002""
""focus"",""8"",""22141""
""focus"",""20"",""153226""
""focus"",""50"",""229974""
""focus"",""60"",""279607""
","""event"",""trial"",""time""
""fullscreenenter"",""1"",""3074""
","""event"",""trial"",""time""
""fullscreenexit"",""65"",""326581""
","","","","","","1004.4000000357628","images/train4.png","","","learning","1","1","1","1","train","vehicles","2","0","","bad","[-6]"
"html-keyboard-response","106","456394","0.0-9.0-2.0-0.17","4325","2","14","Male","approach_avoid_spark_v1","""event"",""trial"",""time""
""focus"",""1"",""3002""
""fullscreenenter"",""1"",""3074""
""blur"",""8"",""21506""
""focus"",""8"",""22141""
""blur"",""20"",""146993""
""focus"",""20"",""153226""
""blur"",""50"",""226213""
""focus"",""50"",""229974""
""blur"",""60"",""279463""
""focus"",""60"",""279607""
""fullscreenexit"",""65"",""326581""
","""event"",""trial"",""time""
""blur"",""8"",""21506""
""blur"",""20"",""146993""
""blur"",""50"",""226213""
""blur"",""60"",""279463""
","""event"",""trial"",""time""
""focus"",""1"",""3002""
""focus"",""8"",""22141""
""focus"",""20"",""153226""
""focus"",""50"",""229974""
""focus"",""60"",""279607""
","""event"",""trial"",""time""
""fullscreenenter"",""1"",""3074""
","""event"",""trial"",""time""
""fullscreenexit"",""65"",""326581""
","","","","","","null","<div style=""font-size:60px;"">+</div>","null","","fixation","","","","","","","","","","",""
"aa-learning-trial","107","459403","0.0-9.0-2.0-1.17","4325","2","14","Male","approach_avoid_spark_v1","""event"",""trial"",""time""
""focus"",""1"",""3002""
""fullscreenenter"",""1"",""3074""
""blur"",""8"",""21506""
""focus"",""8"",""22141""
""blur"",""20"",""146993""
""focus"",""20"",""153226""
""blur"",""50"",""226213""
""focus"",""50"",""229974""
""blur"",""60"",""279463""
""focus"",""60"",""279607""
""fullscreenexit"",""65"",""326581""
","""event"",""trial"",""time""
""blur"",""8"",""21506""
""blur"",""20"",""146993""
""blur"",""50"",""226213""
""blur"",""60"",""279463""
","""event"",""trial"",""time""
""focus"",""1"",""3002""
""focus"",""8"",""22141""
""focus"",""20"",""153226""
""focus"",""50"",""229974""
""focus"",""60"",""279607""
","""event"",""trial"",""time""
""fullscreenenter"",""1"",""3074""
","""event"",""trial"",""time""
""fullscreenexit"",""65"",""326581""
","","","","","","751.5","images/boat4.png","","","learning","-9","0","0","0","boat","vehicles","2","0","","neutral","0"
"html-keyboard-response","108","459906","0.0-9.0-2.0-0.18","4325","2","14","Male","approach_avoid_spark_v1","""event"",""trial"",""time""
""focus"",""1"",""3002""
""fullscreenenter"",""1"",""3074""
""blur"",""8"",""21506""
""focus"",""8"",""22141""
""blur"",""20"",""146993""
""focus"",""20"",""153226""
""blur"",""50"",""226213""
""focus"",""50"",""229974""
""blur"",""60"",""279463""
""focus"",""60"",""279607""
""fullscreenexit"",""65"",""326581""
","""event"",""trial"",""time""
""blur"",""8"",""21506""
""blur"",""20"",""146993""
""blur"",""50"",""226213""
""blur"",""60"",""279463""
","""event"",""trial"",""time""
""focus"",""1"",""3002""
""focus"",""8"",""22141""
""focus"",""20"",""153226""
""focus"",""50"",""229974""
""focus"",""60"",""279607""
","""event"",""trial"",""time""
""fullscreenenter"",""1"",""3074""
","""event"",""trial"",""time""
""fullscreenexit"",""65"",""326581""
","","","","","","null","<div style=""font-size:60px;"">+</div>","null","","fixation","","","","","","","","","","",""
"aa-learning-trial","109","462914","0.0-9.0-2.0-1.18","4325","2","14","Male","approach_avoid_spark_v1","""event"",""trial"",""time""
""focus"",""1"",""3002""
""fullscreenenter"",""1"",""3074""
""blur"",""8"",""21506""
""focus"",""8"",""22141""
""blur"",""20"",""146993""
""focus"",""20"",""153226""
""blur"",""50"",""226213""
""focus"",""50"",""229974""
""blur"",""60"",""279463""
""focus"",""60"",""279607""
""fullscreenexit"",""65"",""326581""
","""event"",""trial"",""time""
""blur"",""8"",""21506""
""blur"",""20"",""146993""
""blur"",""50"",""226213""
""blur"",""60"",""279463""
","""event"",""trial"",""time""
""focus"",""1"",""3002""
""focus"",""8"",""22141""
""focus"",""20"",""153226""
""focus"",""50"",""229974""
""focus"",""60"",""279607""
","""event"",""trial"",""time""
""fullscreenenter"",""1"",""3074""
","""event"",""trial"",""time""
""fullscreenexit"",""65"",""326581""
","","","","","","1898.2999999523163","images/truck6.png","","","learning","-6","0","0","0","truck","vehicles","2","0","","good","[5]"
"html-keyboard-response","110","463418","0.0-9.0-2.0-0.19","4325","2","14","Male","approach_avoid_spark_v1","""event"",""trial"",""time""
""focus"",""1"",""3002""
""fullscreenenter"",""1"",""3074""
""blur"",""8"",""21506""
""focus"",""8"",""22141""
""blur"",""20"",""146993""
""focus"",""20"",""153226""
""blur"",""50"",""226213""
""focus"",""50"",""229974""
""blur"",""60"",""279463""
""focus"",""60"",""279607""
""fullscreenexit"",""65"",""326581""
","""event"",""trial"",""time""
""blur"",""8"",""21506""
""blur"",""20"",""146993""
""blur"",""50"",""226213""
""blur"",""60"",""279463""
