"trial_type","trial_index","time_elapsed","internal_node_id","subject_id","task_condition","age","gender","task_version","interactions","blur_events","focus_events","fullscreenenter_events","fullscreenexit_events","success","timeout","failed_images","failed_audio","failed_video","rt","stimulus","response","button_pressed","task_part","approach_reward","points","key_press","option_selected","stim_cat","task_block","block_condition","block_number","correct","cat_type","mean_cat_reward"
"pavlovia","0","3","0.0-0.0","3851","1","15","Female","approach_avoid_spark_v1","""event"",""trial"",""time""
""fullscreenenter"",""1"",""2141""
","
","
","""event"",""trial"",""time""
""fullscreenenter"",""1"",""2141""
","
","","","","","","","","","","","","","","","","","","","","",""
"fullscreen","1","3139","0.0-1.0","3851","1","15","Female","approach_avoid_spark_v1","""event"",""trial"",""time""
""fullscreenenter"",""1"",""2141""
","
","
","""event"",""trial"",""time""
""fullscreenenter"",""1"",""2141""
","
","true","","","","","","","","","","","","","","","","","","","",""
"preload","2","7388","0.0-2.0","3851","1","15","Female","approach_avoid_spark_v1","""event"",""trial"",""time""
""fullscreenenter"",""1"",""2141""
","
","
","""event"",""trial"",""time""
""fullscreenenter"",""1"",""2141""
","
","true","false","[]","[]","[]","","","","","","","","","","","","","","","",""
"audio-keyboard-response","3","14422","0.0-3.0","3851","1","15","Female","approach_avoid_spark_v1","""event"",""trial"",""time""
""fullscreenenter"",""1"",""2141""
","
","
","""event"",""trial"",""time""
""fullscreenenter"",""1"",""2141""
","
","","","","","","7034.666666666666","audio/beep_loop.wav"," ","","","","","","","","","","","","",""
"audio-button-response","4","16115","0.0-4.0","3851","1","15","Female","approach_avoid_spark_v1","""event"",""trial"",""time""
""fullscreenenter"",""1"",""2141""
","
","
","""event"",""trial"",""time""
""fullscreenenter"",""1"",""2141""
","
","","","","","","1691","audio/shark.wav","4","","","","","","","","","","","","",""
"audio-button-response","5","18507","0.0-5.0","3851","1","15","Female","approach_avoid_spark_v1","""event"",""trial"",""time""
""fullscreenenter"",""1"",""2141""
","
","
","""event"",""trial"",""time""
""fullscreenenter"",""1"",""2141""
","
","","","","","","1387","audio/turtle.wav","1","","","","","","","","","","","","",""
"preload","6","21532","0.0-6.0","3851","1","15","Female","approach_avoid_spark_v1","""event"",""trial"",""time""
""fullscreenenter"",""1"",""2141""
","
","
","""event"",""trial"",""time""
""fullscreenenter"",""1"",""2141""
","
","true","false","[]","[]","[]","","","","","","","","","","","","","","","",""
"html-keyboard-response","7","24036","0.0-7.0","3851","1","15","Female","approach_avoid_spark_v1","""event"",""trial"",""time""
""fullscreenenter"",""1"",""2141""
","
","
","""event"",""trial"",""time""
""fullscreenenter"",""1"",""2141""
","
","","","","","","2503.7999999970198","Welcome to the experiment. Press any key to begin and to advance the instructions."," ","","","","","","","","","","","","",""
"learning-instructions","8","33511","0.0-8.0-0.0-0.0","3851","1","15","Female","approach_avoid_spark_v1","""event"",""trial"",""time""
""fullscreenenter"",""1"",""2141""
","
","
","""event"",""trial"",""time""
""fullscreenenter"",""1"",""2141""
","
","","","","","","2519.5999999940395","<p> Welcome! Today you are going to play 6 different rounds of a decision-making game. </p><p> Use the mouse to click next to continue. </p>","","0","instructions","","","","","","","","","","",""
"learning-instructions","9","36775","0.0-8.0-0.0-0.1","3851","1","15","Female","approach_avoid_spark_v1","""event"",""trial"",""time""
""fullscreenenter"",""1"",""2141""
","
","
","""event"",""trial"",""time""
""fullscreenenter"",""1"",""2141""
","
","","","","","","535.2999999970198","<p> You will start with a practice round to learn the rules. </p>","","0","instructions","","","","","","","","","","",""
"learning-instructions","10","40820","0.0-8.0-0.0-0.2","3851","1","15","Female","approach_avoid_spark_v1","""event"",""trial"",""time""
""fullscreenenter"",""1"",""2141""
","
","
","""event"",""trial"",""time""
""fullscreenenter"",""1"",""2141""
","
","","","","","","601.8999999985099","<p> Your goal in this round is to give out sports equipment to kids. </p></div>","","0","instructions","","","","","","","","","","",""
"learning-instructions","11","48966","0.0-8.0-0.0-0.3","3851","1","15","Female","approach_avoid_spark_v1","""event"",""trial"",""time""
""fullscreenenter"",""1"",""2141""
","
","
","""event"",""trial"",""time""
""fullscreenenter"",""1"",""2141""
","
","","","","","","593.6000000014901","<p> The kids only like some of the equipment.  </p><p> On each turn, you will see a piece of sports equipment.   </p><p> You need to decide whether to give it to the kids or not.  </p>","","0","instructions","","","","","","","","","","",""
"learning-instructions","12","54435","0.0-8.0-0.0-0.4","3851","1","15","Female","approach_avoid_spark_v1","""event"",""trial"",""time""
""fullscreenenter"",""1"",""2141""
","
","
","""event"",""trial"",""time""
""fullscreenenter"",""1"",""2141""
","
","","","","","","717.8999999985099","<p> You can give them the equipment by pressing 1 and choose not to give it to them by pressing 0. </p><br><div class=""choice-instructions-grid""> <div class=""choice-option""><img src=""images/approach.png"" class=""choice-option-img"" stage=""instructions"" position=""0"" ><div class=""choice-option-text""> Press ""1."" </div></div><div class=""choice-option""><img src=""images/avoid.png"" class=""choice-option-img"" stage=""instructions"" position=""1"" ><div class=""choice-option-text""> Press ""0."" </div></div>","","0","instructions","","","","","","","","","","",""
"learning-instructions","13","62357","0.0-8.0-0.0-0.5","3851","1","15","Female","approach_avoid_spark_v1","""event"",""trial"",""time""
""fullscreenenter"",""1"",""2141""
","
","
","""event"",""trial"",""time""
""fullscreenenter"",""1"",""2141""
","
","","","","","","534.1000000014901","<p> If you give them a piece of equipment they like, they will be happy! </p><p> But if you give them a piece of equipment they do not like, they will be sad. </p>","","0","instructions","","","","","","","","","","",""
"learning-instructions","14","74356","0.0-8.0-0.0-0.6","3851","1","15","Female","approach_avoid_spark_v1","""event"",""trial"",""time""
""fullscreenenter"",""1"",""2141""
","
","
","""event"",""trial"",""time""
""fullscreenenter"",""1"",""2141""
","
","","","","","","1488.3999999985099","<p> You will earn points based on how you make kids feel. </p><p> If you make them happy, you will WIN anywhere from 1 - 9 points, </p><p> but if you make them sad, you will LOSE anywhere from 1 - 9 points. </p>","","0","instructions","","","","","","","","","","",""
"learning-instructions","15","84337","0.0-8.0-0.0-0.7","3851","1","15","Female","approach_avoid_spark_v1","""event"",""trial"",""time""
""fullscreenenter"",""1"",""2141""
","
","
","""event"",""trial"",""time""
""fullscreenenter"",""1"",""2141""
","
","","","","","","423.70000000298023","<p> You will see how many points you won or lost in the center of the screen. </p><p> Here is what you would see if you won 6 points: </p><p style=""color:green;font-size:50px;font-weight:bolder"">6</p><p style=""color:green"">The text is GREEN because you WON points.</p>","","0","instructions","","","","","","","","","","",""
"learning-instructions","16","90515","0.0-8.0-0.0-0.8","3851","1","15","Female","approach_avoid_spark_v1","""event"",""trial"",""time""
""fullscreenenter"",""1"",""2141""
","
","
","""event"",""trial"",""time""
""fullscreenenter"",""1"",""2141""
","
","","","","","","677.5","<p> And here is what you would see if you lost 4 points: </p><p style=""color:red;font-size:50px;font-weight:bolder"">-4</p><p style=""color:red"">The text is RED because you LOST points. </p>","","0","instructions","","","","","","","","","","",""
"learning-instructions","17","106849","0.0-8.0-0.0-0.9","3851","1","15","Female","approach_avoid_spark_v1","""event"",""trial"",""time""
""fullscreenenter"",""1"",""2141""
","
","
","""event"",""trial"",""time""
""fullscreenenter"",""1"",""2141""
","
","","","","","","1618.8999999985099","<p> Some of the equipment will make the kids VERY happy or sad. </p><p> These pieces of equipment will make you win or lose LOTS of points. </p><p> Other pieces of equipment will only make the kids a little happy or sad. </p><p> These pieces of equipment will make you win or lose small amounts of points. </p>","","0","instructions","","","","","","","","","","",""
"learning-instructions","18","118115","0.0-8.0-0.0-0.10","3851","1","15","Female","approach_avoid_spark_v1","""event"",""trial"",""time""
""fullscreenenter"",""1"",""2141""
","
","
","""event"",""trial"",""time""
""fullscreenenter"",""1"",""2141""
","
","","","","","","640.7000000029802","<p> If you choose not to give them the equipment, you will not win or lose any points. </p><p>  However, in the center of the screen, you will see the number of points you WOULD HAVE won or lost if you had given them the equipment. </p>","","0","instructions","","","","","","","","","","",""
"learning-instructions","19","140248","0.0-8.0-0.0-0.11","3851","1","15","Female","approach_avoid_spark_v1","""event"",""trial"",""time""
""fullscreenenter"",""1"",""2141""
","
","
","""event"",""trial"",""time""
""fullscreenenter"",""1"",""2141""
","
","","","","","","604.1000000014901","<p> Here is what you might see if you did not give the equipment to the kids but it would have made them happy: </p><p style=""color:grey; font-size:50px; display: inline-block; border-spacing: 15px; border-width:3px; border-style:solid; border-color:red"">  &nbsp; 7 &nbsp; </p><p> Remember, in this case, you would not win or lose ANY points because you did not give them the equipment.  </p><p style=""color:grey"">The text is GREY because you earned ZERO points. </p><p style=""color:red"">However, choosing to give the kids the equipment would have made you win points. The box around the text is RED because you chose the worse option. </p>","","0","instructions","","","","","","","","","","",""
"learning-instructions","20","162067","0.0-8.0-0.0-0.12","3851","1","15","Female","approach_avoid_spark_v1","""event"",""trial"",""time""
""fullscreenenter"",""1"",""2141""
","
","
","""event"",""trial"",""time""
""fullscreenenter"",""1"",""2141""
","
","","","","","","749","<p> Here is what you might see if you did not give the equipment to the kids but it would have made them sad: </p><p style=""color:grey;font-size:50px; display: inline-block; border-spacing: 15px; border-width:3px; border-style:solid; border-color:green"">  &nbsp; -8 &nbsp; </p><p> Remember, in this case, you would not win or lose ANY points because you did not give them the equipment.  </p><p style=""color:grey"">The text is GREY because you earned ZERO points. </p><p  style=""color:green""> Choosing to give the kids the equipment would have made you lose points. The box around the text is GREEN because you chose the better option.</p>","","0","instructions","","","","","","","","","","",""
"learning-instructions","21","171283","0.0-8.0-0.0-0.13","3851","1","15","Female","approach_avoid_spark_v1","""event"",""trial"",""time""
""fullscreenenter"",""1"",""2141""
","
","
","""event"",""trial"",""time""
""fullscreenenter"",""1"",""2141""
","
","","","","","","419.19999999552965","<p> You will have 3 seconds to make each choice. Try to respond before time runs out! </p><p> You will lose 5 points each time you do not make a response. </p>","","0","instructions","","","","","","","","","","",""
"learning-instructions","22","177548","0.0-8.0-0.0-0.14","3851","1","15","Female","approach_avoid_spark_v1","""event"",""trial"",""time""
""fullscreenenter"",""1"",""2141""
","
","
","""event"",""trial"",""time""
""fullscreenenter"",""1"",""2141""
","
","","","","","","854.3999999985099","<p> This is just a practice round, but in the real game, your bonus payment will depend on your total number of points.","","0","instructions","","","","","","","","","","",""
"learning-instructions","23","183679","0.0-8.0-0.0-0.15","3851","1","15","Female","approach_avoid_spark_v1","""event"",""trial"",""time""
""fullscreenenter"",""1"",""2141""
","
","
","""event"",""trial"",""time""
""fullscreenenter"",""1"",""2141""
","
","","","","","","365.8999999985099","<p> Remember, you can give them the equipment by pressing 1 and choose not to give it to them by pressing 0. </p><br><div class=""choice-instructions-grid""> <div class=""choice-option""><img src=""images/approach.png"" class=""choice-option-img"" stage=""instructions"" position=""0"" ><div class=""choice-option-text""> Press ""1."" </div></div><div class=""choice-option""><img src=""images/avoid.png"" class=""choice-option-img"" stage=""instructions"" position=""1"" ><div class=""choice-option-text""> Press ""0."" </div></div>","","0","instructions","","","","","","","","","","",""
"html-button-response","24","185239","0.0-8.0-1.0","3851","1","15","Female","approach_avoid_spark_v1","""event"",""trial"",""time""
""fullscreenenter"",""1"",""2141""
","
","
","""event"",""trial"",""time""
""fullscreenenter"",""1"",""2141""
","
","","","","","","1454.7999999970198","<p> Ready to practice? </p>","0","","","","","","","","","","","","",""
"html-keyboard-response","25","185854","0.0-8.0-2.0-0.0","3851","1","15","Female","approach_avoid_spark_v1","""event"",""trial"",""time""
""fullscreenenter"",""1"",""2141""
","
","
","""event"",""trial"",""time""
""fullscreenenter"",""1"",""2141""
","
","","","","","","null","<div style=""font-size:60px;"">+</div>","null","","fixation","","","","","","","","","","",""
"aa-learning-trial","26","188864","0.0-8.0-2.0-1.0","3851","1","15","Female","approach_avoid_spark_v1","""event"",""trial"",""time""
""fullscreenenter"",""1"",""2141""
","
","
","""event"",""trial"",""time""
""fullscreenenter"",""1"",""2141""
","
","","","","","","892.8999999985099","images/racket2.png","","","learning","-7","-7","1","1","practice","practice","practice","-1","","",""
"html-keyboard-response","27","189365","0.0-8.0-2.0-0.1","3851","1","15","Female","approach_avoid_spark_v1","""event"",""trial"",""time""
""fullscreenenter"",""1"",""2141""
","
","
","""event"",""trial"",""time""
""fullscreenenter"",""1"",""2141""
","
","","","","","","null","<div style=""font-size:60px;"">+</div>","null","","fixation","","","","","","","","","","",""
"aa-learning-trial","28","192373","0.0-8.0-2.0-1.1","3851","1","15","Female","approach_avoid_spark_v1","""event"",""trial"",""time""
""fullscreenenter"",""1"",""2141""
","
","
","""event"",""trial"",""time""
""fullscreenenter"",""1"",""2141""
","
","","","","","","383.8999999985099","images/racket4.png","","","learning","9","9","1","1","practice","practice","practice","-1","","",""
"html-keyboard-response","29","192880","0.0-8.0-2.0-0.2","3851","1","15","Female","approach_avoid_spark_v1","""event"",""trial"",""time""
""fullscreenenter"",""1"",""2141""
","
","
","""event"",""trial"",""time""
""fullscreenenter"",""1"",""2141""
","
","","","","","","null","<div style=""font-size:60px;"">+</div>","null","","fixation","","","","","","","","","","",""
"aa-learning-trial","30","195888","0.0-8.0-2.0-1.2","3851","1","15","Female","approach_avoid_spark_v1","""event"",""trial"",""time""
""fullscreenenter"",""1"",""2141""
","
","
","""event"",""trial"",""time""
""fullscreenenter"",""1"",""2141""
","
","","","","","","579.5","images/racket3.png","","","learning","-7","-7","1","1","practice","practice","practice","-1","","",""
"html-keyboard-response","31","196399","0.0-8.0-2.0-0.3","3851","1","15","Female","approach_avoid_spark_v1","""event"",""trial"",""time""
""fullscreenenter"",""1"",""2141""
","
","
","""event"",""trial"",""time""
""fullscreenenter"",""1"",""2141""
","
","","","","","","null","<div style=""font-size:60px;"">+</div>","null","","fixation","","","","","","","","","","",""
"aa-learning-trial","32","199407","0.0-8.0-2.0-1.3","3851","1","15","Female","approach_avoid_spark_v1","""event"",""trial"",""time""
""fullscreenenter"",""1"",""2141""
","
","
","""event"",""trial"",""time""
""fullscreenenter"",""1"",""2141""
","
","","","","","","453.3999999985099","images/racket2.png","","","learning","-8","-8","1","1","practice","practice","practice","-1","","",""
"html-keyboard-response","33","199908","0.0-8.0-2.0-0.4","3851","1","15","Female","approach_avoid_spark_v1","""event"",""trial"",""time""
""fullscreenenter"",""1"",""2141""
","
","
","""event"",""trial"",""time""
""fullscreenenter"",""1"",""2141""
","
","","","","","","null","<div style=""font-size:60px;"">+</div>","null","","fixation","","","","","","","","","","",""
"aa-learning-trial","34","202922","0.0-8.0-2.0-1.4","3851","1","15","Female","approach_avoid_spark_v1","""event"",""trial"",""time""
""fullscreenenter"",""1"",""2141""
","
","
","""event"",""trial"",""time""
""fullscreenenter"",""1"",""2141""
","
","","","","","","686.3000000044703","images/ball2.png","","","learning","-9","-9","1","1","practice","practice","practice","-1","","",""
"html-keyboard-response","35","203429","0.0-8.0-2.0-0.5","3851","1","15","Female","approach_avoid_spark_v1","""event"",""trial"",""time""
""fullscreenenter"",""1"",""2141""
","
","
","""event"",""trial"",""time""
""fullscreenenter"",""1"",""2141""
","
","","","","","","null","<div style=""font-size:60px;"">+</div>","null","","fixation","","","","","","","","","","",""
"aa-learning-trial","36","206439","0.0-8.0-2.0-1.5","3851","1","15","Female","approach_avoid_spark_v1","""event"",""trial"",""time""
""fullscreenenter"",""1"",""2141""
","
","
","""event"",""trial"",""time""
""fullscreenenter"",""1"",""2141""
","
","","","","","","602.9000000059605","images/ball3.png","","","learning","-1","0","0","0","practice","practice","practice","-1","","",""
"html-keyboard-response","37","206943","0.0-8.0-2.0-0.6","3851","1","15","Female","approach_avoid_spark_v1","""event"",""trial"",""time""
""fullscreenenter"",""1"",""2141""
","
","
","""event"",""trial"",""time""
""fullscreenenter"",""1"",""2141""
","
","","","","","","null","<div style=""font-size:60px;"">+</div>","null","","fixation","","","","","","","","","","",""
"aa-learning-trial","38","209950","0.0-8.0-2.0-1.6","3851","1","15","Female","approach_avoid_spark_v1","""event"",""trial"",""time""
""fullscreenenter"",""1"",""2141""
","
","
","""event"",""trial"",""time""
""fullscreenenter"",""1"",""2141""
","
","","","","","","1049.3000000044703","images/ball2.png","","","learning","2","2","1","1","practice","practice","practice","-1","","",""
"html-keyboard-response","39","210452","0.0-8.0-2.0-0.7","3851","1","15","Female","approach_avoid_spark_v1","""event"",""trial"",""time""
""fullscreenenter"",""1"",""2141""
","
","
","""event"",""trial"",""time""
""fullscreenenter"",""1"",""2141""
","
","","","","","","null","<div style=""font-size:60px;"">+</div>","null","","fixation","","","","","","","","","","",""
"aa-learning-trial","40","213461","0.0-8.0-2.0-1.7","3851","1","15","Female","approach_avoid_spark_v1","""event"",""trial"",""time""
""fullscreenenter"",""1"",""2141""
","
","
","""event"",""trial"",""time""
""fullscreenenter"",""1"",""2141""
","
","","","","","","1240.2999999970198","images/ball1.png","","","learning","6","6","1","1","practice","practice","practice","-1","","",""
"html-keyboard-response","41","213965","0.0-8.0-2.0-0.8","3851","1","15","Female","approach_avoid_spark_v1","""event"",""trial"",""time""
""fullscreenenter"",""1"",""2141""
","
","
","""event"",""trial"",""time""
""fullscreenenter"",""1"",""2141""
","
","","","","","","null","<div style=""font-size:60px;"">+</div>","null","","fixation","","","","","","","","","","",""
"aa-learning-trial","42","216973","0.0-8.0-2.0-1.8","3851","1","15","Female","approach_avoid_spark_v1","""event"",""trial"",""time""
""fullscreenenter"",""1"",""2141""
","
","
","""event"",""trial"",""time""
""fullscreenenter"",""1"",""2141""
","
","","","","","","964.8999999985099","images/racket4.png","","","learning","-9","-9","1","1","practice","practice","practice","-1","","",""
"html-keyboard-response","43","217477","0.0-8.0-2.0-0.9","3851","1","15","Female","approach_avoid_spark_v1","""event"",""trial"",""time""
""fullscreenenter"",""1"",""2141""
","
","
","""event"",""trial"",""time""
""fullscreenenter"",""1"",""2141""
","
","","","","","","null","<div style=""font-size:60px;"">+</div>","null","","fixation","","","","","","","","","","",""
"aa-learning-trial","44","220484","0.0-8.0-2.0-1.9","3851","1","15","Female","approach_avoid_spark_v1","""event"",""trial"",""time""
""fullscreenenter"",""1"",""2141""
","
","
","""event"",""trial"",""time""
""fullscreenenter"",""1"",""2141""
","
","","","","","","817","images/ball2.png","","","learning","9","9","1","1","practice","practice","practice","-1","","",""
"html-keyboard-response","45","220989","0.0-8.0-2.0-0.10","3851","1","15","Female","approach_avoid_spark_v1","""event"",""trial"",""time""
""fullscreenenter"",""1"",""2141""
","
","
","""event"",""trial"",""time""
""fullscreenenter"",""1"",""2141""
","
","","","","","","null","<div style=""font-size:60px;"">+</div>","null","","fixation","","","","","","","","","","",""
"aa-learning-trial","46","223997","0.0-8.0-2.0-1.10","3851","1","15","Female","approach_avoid_spark_v1","""event"",""trial"",""time""
""fullscreenenter"",""1"",""2141""
","
","
","""event"",""trial"",""time""
""fullscreenenter"",""1"",""2141""
","
","","","","","","636.8999999985099","images/ball4.png","","","learning","-4","-4","1","1","practice","practice","practice","-1","","",""
"html-keyboard-response","47","224501","0.0-8.0-2.0-0.11","3851","1","15","Female","approach_avoid_spark_v1","""event"",""trial"",""time""
""fullscreenenter"",""1"",""2141""
","
","
","""event"",""trial"",""time""
""fullscreenenter"",""1"",""2141""
","
","","","","","","null","<div style=""font-size:60px;"">+</div>","null","","fixation","","","","","","","","","","",""
"aa-learning-trial","48","227509","0.0-8.0-2.0-1.11","3851","1","15","Female","approach_avoid_spark_v1","""event"",""trial"",""time""
""fullscreenenter"",""1"",""2141""
","
","
","""event"",""trial"",""time""
""fullscreenenter"",""1"",""2141""
","
","","","","","","520.6000000014901","images/racket2.png","","","learning","-1","0","0","0","practice","practice","practice","-1","","",""
"html-button-response","49","229940","0.0-8.0-3.0","3851","1","15","Female","approach_avoid_spark_v1","""event"",""trial"",""time""
""fullscreenenter"",""1"",""2141""
","
","
","""event"",""trial"",""time""
""fullscreenenter"",""1"",""2141""
","
","","","","","","2429.89999999851","<p> You earned -18 points in the practice round! </p>","0","","break","","","","","","","","","","",""
"learning-instructions","50","236965","0.0-8.0-4.0-0.0","3851","1","15","Female","approach_avoid_spark_v1","""event"",""trial"",""time""
""fullscreenenter"",""1"",""2141""
","
","
","""event"",""trial"",""time""
""fullscreenenter"",""1"",""2141""
","
","","","","","","1015","<p> It's almost time to start the real game. </p><p> Before you start, we're going to ask you a few questions about how the game works. </p>","","0","instructions","","","","","","","","","","",""
"preload","51","238093","0.0-8.0-5.0","3851","1","15","Female","approach_avoid_spark_v1","""event"",""trial"",""time""
""fullscreenenter"",""1"",""2141""
","
","
","""event"",""trial"",""time""
""fullscreenenter"",""1"",""2141""
","
","true","false","[]","[]","[]","","","","","","","","","","","","","","","",""
"comp-q","52","244162","0.0-8.0-6.0-0.0","3851","1","15","Female","approach_avoid_spark_v1","""event"",""trial"",""time""
""fullscreenenter"",""1"",""2141""
","
","
","""event"",""trial"",""time""
""fullscreenenter"",""1"",""2141""
","
","","","","","","1070.5","<p> <b> True or False? </b> </p><p> If you see a number in GREY, that means you earned that many points. </p>","","1","comp_question","","","","","","","","","true","",""
"comp-q","53","253666","0.0-8.0-6.0-1.0","3851","1","15","Female","approach_avoid_spark_v1","""event"",""trial"",""time""
""fullscreenenter"",""1"",""2141""
","
","
","""event"",""trial"",""time""
""fullscreenenter"",""1"",""2141""
","
","","","","","","1141.2999999970198","<p><b> That's right! </b> If you see a grey number, it means you earned ZERO points. <br> The grey numbers show the points you WOULD HAVE earned if you had made the other choice. </p>","","0","comp_answer","","","","","","","","","","",""
"comp-q","54","258946","0.0-8.0-7.0-0.0","3851","1","15","Female","approach_avoid_spark_v1","""event"",""trial"",""time""
""fullscreenenter"",""1"",""2141""
","
","
","""event"",""trial"",""time""
""fullscreenenter"",""1"",""2141""
","
","","","","","","581.1000000014901","<p> <b> True or False? </b> </p><p> You will have as much time as you want to make each choice. </p>","","1","comp_question","","","","","","","","","true","",""
"comp-q","55","263809","0.0-8.0-7.0-1.0","3851","1","15","Female","approach_avoid_spark_v1","""event"",""trial"",""time""
""fullscreenenter"",""1"",""2141""
","
","
","""event"",""trial"",""time""
""fullscreenenter"",""1"",""2141""
","
","","","","","","820.1000000014901","<p> <b> That's right! </b> You will only have 3 seconds to make each choice. </p>","","0","comp_answer","","","","","","","","","","",""
"comp-q","56","269209","0.0-8.0-8.0-0.0","3851","1","15","Female","approach_avoid_spark_v1","""event"",""trial"",""time""
""fullscreenenter"",""1"",""2141""
","
","
","""event"",""trial"",""time""
""fullscreenenter"",""1"",""2141""
","
","","","","","","738.2000000029802","<p> <b> True or False? </b> </p><p> You should use the '1' and '0' keys to make your choices. </p>","","0","comp_question","","","","","","","","","true","",""
"comp-q","57","275107","0.0-8.0-8.0-1.0","3851","1","15","Female","approach_avoid_spark_v1","""event"",""trial"",""time""
""fullscreenenter"",""1"",""2141""
","
","
","""event"",""trial"",""time""
""fullscreenenter"",""1"",""2141""
","
","","","","","","1286.2999999970198","<p> <b> That's right! </b> You should use the '1' and '0' keys to make each choice. </p>","","0","comp_answer","","","","","","","","","","",""
"learning-instructions","58","282956","0.0-8.0-9.0-0.0","3851","1","15","Female","approach_avoid_spark_v1","""event"",""trial"",""time""
""fullscreenenter"",""1"",""2141""
","
","
","""event"",""trial"",""time""
""fullscreenenter"",""1"",""2141""
","
","","","","","","1578.8000000044703","<p> It's now time to start the real game. </p>Do your best, because the points you earn in the next rounds will influence your bonus payment. </p>","","0","instructions","","","","","","","","","","",""
"preload","59","283077","0.0-9.0-0.0","3851","1","15","Female","approach_avoid_spark_v1","""event"",""trial"",""time""
""fullscreenenter"",""1"",""2141""
","
","
","""event"",""trial"",""time""
""fullscreenenter"",""1"",""2141""
","
","true","false","[]","[]","[]","","","","","","","","","","","","","","","",""
"learning-instructions","60","287091","0.0-9.0-1.0-0.0","3851","1","15","Female","approach_avoid_spark_v1","""event"",""trial"",""time""
""fullscreenenter"",""1"",""2141""
","
","
","""event"",""trial"",""time""
""fullscreenenter"",""1"",""2141""
","
","","","","","","956.3999999985099","<p> Your goal in this round is to eat tasty fruit. </p></div>","","0","instructions","","","","","","","","","","",""
"learning-instructions","61","296871","0.0-9.0-1.0-0.1","3851","1","15","Female","approach_avoid_spark_v1","""event"",""trial"",""time""
""fullscreenenter"",""1"",""2141""
","
","
","""event"",""trial"",""time""
""fullscreenenter"",""1"",""2141""
","
","","","","","","427.5","<p> Some of the fruits you will see are tasty. Others are rotten on the inside.  </p><p> On each turn, you will see a fruit.   </p><p> You need to decide whether to eat it or not.  </p>","","0","instructions","","","","","","","","","","",""
"learning-instructions","62","301900","0.0-9.0-1.0-0.2","3851","1","15","Female","approach_avoid_spark_v1","""event"",""trial"",""time""
""fullscreenenter"",""1"",""2141""
","
","
","""event"",""trial"",""time""
""fullscreenenter"",""1"",""2141""
","
","","","","","","363.3999999985099","<p> You can eat the fruit by pressing 1 and choose not to eat it by pressing 0. </p><br><div class=""choice-instructions-grid""> <div class=""choice-option""><img src=""images/approach.png"" class=""choice-option-img"" stage=""instructions"" position=""0"" ><div class=""choice-option-text""> Press ""1."" </div></div><div class=""choice-option""><img src=""images/avoid.png"" class=""choice-option-img"" stage=""instructions"" position=""1"" ><div class=""choice-option-text""> Press ""0."" </div></div>","","0","instructions","","","","","","","","","","",""
"learning-instructions","63","309361","0.0-9.0-1.0-0.3","3851","1","15","Female","approach_avoid_spark_v1","""event"",""trial"",""time""
""fullscreenenter"",""1"",""2141""
","
","
","""event"",""trial"",""time""
""fullscreenenter"",""1"",""2141""
","
","","","","","","396.19999999552965","<p> If you eat the fruit and it was tasty, you will win points! </p><p> But if you eat the fruit and it was rotten, you will lose points. </p>","","0","instructions","","","","","","","","","","",""
"learning-instructions","64","320742","0.0-9.0-1.0-0.4","3851","1","15","Female","approach_avoid_spark_v1","""event"",""trial"",""time""
""fullscreenenter"",""1"",""2141""
","
","
","""event"",""trial"",""time""
""fullscreenenter"",""1"",""2141""
","
","","","","","","497","<p> You will earn points based on how tasty or rotten the fruit was. </p><p> If it was tasty, you will WIN anywhere from 1 - 9 points, </p><p> but if it was rotten, you will LOSE anywhere from 1 - 9 points. </p>","","0","instructions","","","","","","","","","","",""
"learning-instructions","65","328461","0.0-9.0-1.0-0.5","3851","1","15","Female","approach_avoid_spark_v1","""event"",""trial"",""time""
""fullscreenenter"",""1"",""2141""
","
","
","""event"",""trial"",""time""
""fullscreenenter"",""1"",""2141""
","
","","","","","","460.8999999985099","<p> You will see how many points you won or lost in the center of the screen. </p><p> Here is what you would see if you earned 5 points: </p><p style=""color:green;font-size:50px;font-weight:bolder"">5</p>","","0","instructions","","","","","","","","","","",""
"learning-instructions","66","332156","0.0-9.0-1.0-0.6","3851","1","15","Female","approach_avoid_spark_v1","""event"",""trial"",""time""
""fullscreenenter"",""1"",""2141""
","
","
","""event"",""trial"",""time""
""fullscreenenter"",""1"",""2141""
","
","","","","","","455.09999999403954","<p> And here is what you would see if you lost 3 points: </p><p style=""color:red;font-size:50px;font-weight:bolder"">-3</p>","","0","instructions","","","","","","","","","","",""
"learning-instructions","67","346909","0.0-9.0-1.0-0.7","3851","1","15","Female","approach_avoid_spark_v1","""event"",""trial"",""time""
""fullscreenenter"",""1"",""2141""
","
","
","""event"",""trial"",""time""
""fullscreenenter"",""1"",""2141""
","
","","","","","","499.5","<p> Some fruit is very tasty or very rotten. </p><p> These fruits will make you win or lose LOTS of points. </p><p> Other fruits are only kind of tasty or kind of rotten. </p><p> These fruits will make you win or lose small amounts of points. </p>","","0","instructions","","","","","","","","","","",""
"learning-instructions","68","357373","0.0-9.0-1.0-0.8","3851","1","15","Female","approach_avoid_spark_v1","""event"",""trial"",""time""
""fullscreenenter"",""1"",""2141""
","
","
","""event"",""trial"",""time""
""fullscreenenter"",""1"",""2141""
","
","","","","","","451.70000000298023","<p> If you choose to not eat the fruit, you will not win or lose any points. </p><p>  However, in the center of the screen, you will see the number of points you WOULD HAVE earned if you had eaten the fruit. </p>","","0","instructions","","","","","","","","","","",""
"learning-instructions","69","367066","0.0-9.0-1.0-0.9","3851","1","15","Female","approach_avoid_spark_v1","""event"",""trial"",""time""
""fullscreenenter"",""1"",""2141""
","
","
","""event"",""trial"",""time""
""fullscreenenter"",""1"",""2141""
","
","","","","","","197.89999999850988","<p> Here is what you might see if you did not eat the fruit but the fruit was tasty: </p><p style=""color:grey; font-size:50px; display: inline-block; border-spacing: 15px; border-width:3px; border-style:solid; border-color:red"">  &nbsp; 6 &nbsp; </p><p> Remember, in this case, you would not win or lose ANY points because you did not eat the fruit.  </p>","","0","instructions","","","","","","","","","","",""
"learning-instructions","70","375312","0.0-9.0-1.0-0.10","3851","1","15","Female","approach_avoid_spark_v1","""event"",""trial"",""time""
""fullscreenenter"",""1"",""2141""
","
","
","""event"",""trial"",""time""
""fullscreenenter"",""1"",""2141""
","
","","","","","","678.7999999970198","<p> Try to make the best choice for each fruit because </p><p> at the end of the game, you will earn bonus money based on how many points you earned. </p>","","0","instructions","","","","","","","","","","",""
"learning-instructions","71","383860","0.0-9.0-1.0-0.11","3851","1","15","Female","approach_avoid_spark_v1","""event"",""trial"",""time""
""fullscreenenter"",""1"",""2141""
","
","
","""event"",""trial"",""time""
""fullscreenenter"",""1"",""2141""
","
","","","","","","357.8999999985099","<p> You will have 3 seconds to make each choice. Try to respond before time runs out! </p><p> You will lose 5 points each time you do not make a response. </p>","","0","instructions","","","","","","","","","","",""
"html-keyboard-response","72","384467","0.0-9.0-2.0-0.0","3851","1","15","Female","approach_avoid_spark_v1","""event"",""trial"",""time""
""fullscreenenter"",""1"",""2141""
","
","
","""event"",""trial"",""time""
""fullscreenenter"",""1"",""2141""
","
","","","","","","null","<div style=""font-size:60px;"">+</div>","null","","fixation","","","","","","","","","","",""
"aa-learning-trial","73","387474","0.0-9.0-2.0-1.0","3851","1","15","Female","approach_avoid_spark_v1","""event"",""trial"",""time""
""fullscreenenter"",""1"",""2141""
","
","
","""event"",""trial"",""time""
""fullscreenenter"",""1"",""2141""
","
","","","","","","672.8999999985099","images/orange4.png","","","learning","-6","0","0","0","orange","fruit","1","0","","bad","[-5]"
"html-keyboard-response","74","387978","0.0-9.0-2.0-0.1","3851","1","15","Female","approach_avoid_spark_v1","""event"",""trial"",""time""
""fullscreenenter"",""1"",""2141""
","
","
","""event"",""trial"",""time""
""fullscreenenter"",""1"",""2141""
","
","","","","","","null","<div style=""font-size:60px;"">+</div>","null","","fixation","","","","","","","","","","",""
"aa-learning-trial","75","390987","0.0-9.0-2.0-1.1","3851","1","15","Female","approach_avoid_spark_v1","""event"",""trial"",""time""
""fullscreenenter"",""1"",""2141""
","
","
","""event"",""trial"",""time""
""fullscreenenter"",""1"",""2141""
","
","","","","","","436.3999999985099","images/banana1.png","","","learning","-1","0","0","0","banana","fruit","1","0","","neutral","0"
"html-keyboard-response","76","391490","0.0-9.0-2.0-0.2","3851","1","15","Female","approach_avoid_spark_v1","""event"",""trial"",""time""
""fullscreenenter"",""1"",""2141""
","
","
","""event"",""trial"",""time""
""fullscreenenter"",""1"",""2141""
","
","","","","","","null","<div style=""font-size:60px;"">+</div>","null","","fixation","","","","","","","","","","",""
"aa-learning-trial","77","394499","0.0-9.0-2.0-1.2","3851","1","15","Female","approach_avoid_spark_v1","""event"",""trial"",""time""
""fullscreenenter"",""1"",""2141""
","
","
","""event"",""trial"",""time""
""fullscreenenter"",""1"",""2141""
","
","","","","","","462.1000000014901","images/apple4.png","","","learning","3","0","0","0","apple","fruit","1","0","","good","[3]"
"html-keyboard-response","78","395003","0.0-9.0-2.0-0.3","3851","1","15","Female","approach_avoid_spark_v1","""event"",""trial"",""time""
""fullscreenenter"",""1"",""2141""
","
","
","""event"",""trial"",""time""
""fullscreenenter"",""1"",""2141""
","
","","","","","","null","<div style=""font-size:60px;"">+</div>","null","","fixation","","","","","","","","","","",""
"aa-learning-trial","79","398015","0.0-9.0-2.0-1.3","3851","1","15","Female","approach_avoid_spark_v1","""event"",""trial"",""time""
""fullscreenenter"",""1"",""2141""
","
","
","""event"",""trial"",""time""
""fullscreenenter"",""1"",""2141""
","
","","","","","","503","images/orange3.png","","","learning","-4","-4","1","1","orange","fruit","1","0","","bad","[-5]"
"html-keyboard-response","80","398522","0.0-9.0-2.0-0.4","3851","1","15","Female","approach_avoid_spark_v1","""event"",""trial"",""time""
""fullscreenenter"",""1"",""2141""
","
","
","""event"",""trial"",""time""
""fullscreenenter"",""1"",""2141""
","
","","","","","","null","<div style=""font-size:60px;"">+</div>","null","","fixation","","","","","","","","","","",""
"aa-learning-trial","81","401532","0.0-9.0-2.0-1.4","3851","1","15","Female","approach_avoid_spark_v1","""event"",""trial"",""time""
""fullscreenenter"",""1"",""2141""
","
","
","""event"",""trial"",""time""
""fullscreenenter"",""1"",""2141""
","
","","","","","","503","images/apple2.png","","","learning","5","5","1","1","apple","fruit","1","0","","good","[3]"
"html-keyboard-response","82","402034","0.0-9.0-2.0-0.5","3851","1","15","Female","approach_avoid_spark_v1","""event"",""trial"",""time""
""fullscreenenter"",""1"",""2141""
","
","
","""event"",""trial"",""time""
""fullscreenenter"",""1"",""2141""
","
","","","","","","null","<div style=""font-size:60px;"">+</div>","null","","fixation","","","","","","","","","","",""
"aa-learning-trial","83","405045","0.0-9.0-2.0-1.5","3851","1","15","Female","approach_avoid_spark_v1","""event"",""trial"",""time""
""fullscreenenter"",""1"",""2141""
","
","
","""event"",""trial"",""time""
""fullscreenenter"",""1"",""2141""
","
","","","","","","515.5","images/banana3.png","","","learning","-2","0","0","0","banana","fruit","1","0","","neutral","0"
"html-keyboard-response","84","405549","0.0-9.0-2.0-0.6","3851","1","15","Female","approach_avoid_spark_v1","""event"",""trial"",""time""
""fullscreenenter"",""1"",""2141""
","
","
","""event"",""trial"",""time""
""fullscreenenter"",""1"",""2141""
","
","","","","","","null","<div style=""font-size:60px;"">+</div>","null","","fixation","","","","","","","","","","",""
"aa-learning-trial","85","408555","0.0-9.0-2.0-1.6","3851","1","15","Female","approach_avoid_spark_v1","""event"",""trial"",""time""
""fullscreenenter"",""1"",""2141""
","
","
","""event"",""trial"",""time""
""fullscreenenter"",""1"",""2141""
","
","","","","","","522.5","images/apple2.png","","","learning","1","1","1","1","apple","fruit","1","0","","good","[3]"
"html-keyboard-response","86","409058","0.0-9.0-2.0-0.7","3851","1","15","Female","approach_avoid_spark_v1","""event"",""trial"",""time""
""fullscreenenter"",""1"",""2141""
","
","
","""event"",""trial"",""time""
""fullscreenenter"",""1"",""2141""
","
","","","","","","null","<div style=""font-size:60px;"">+</div>","null","","fixation","","","","","","","","","","",""
"aa-learning-trial","87","412067","0.0-9.0-2.0-1.7","3851","1","15","Female","approach_avoid_spark_v1","""event"",""trial"",""time""
""fullscreenenter"",""1"",""2141""
","
","
","""event"",""trial"",""time""
""fullscreenenter"",""1"",""2141""
","
","","","","","","602.1000000014901","images/apple4.png","","","learning","3","0","0","0","apple","fruit","1","0","","good","[3]"
"html-keyboard-response","88","412571","0.0-9.0-2.0-0.8","3851","1","15","Female","approach_avoid_spark_v1","""event"",""trial"",""time""
""fullscreenenter"",""1"",""2141""
","
","
","""event"",""trial"",""time""
""fullscreenenter"",""1"",""2141""
","
","","","","","","null","<div style=""font-size:60px;"">+</div>","null","","fixation","","","","","","","","","","",""
"aa-learning-trial","89","415579","0.0-9.0-2.0-1.8","3851","1","15","Female","approach_avoid_spark_v1","""event"",""trial"",""time""
""fullscreenenter"",""1"",""2141""
","
","
","""event"",""trial"",""time""
""fullscreenenter"",""1"",""2141""
","
","","","","","","606","images/banana1.png","","","learning","-2","-2","1","1","banana","fruit","1","0","","neutral","0"
"html-keyboard-response","90","416082","0.0-9.0-2.0-0.9","3851","1","15","Female","approach_avoid_spark_v1","""event"",""trial"",""time""
""fullscreenenter"",""1"",""2141""
","
","
","""event"",""trial"",""time""
""fullscreenenter"",""1"",""2141""
","
","","","","","","null","<div style=""font-size:60px;"">+</div>","null","","fixation","","","","","","","","","","",""
"aa-learning-trial","91","419091","0.0-9.0-2.0-1.9","3851","1","15","Female","approach_avoid_spark_v1","""event"",""trial"",""time""
""fullscreenenter"",""1"",""2141""
","
","
","""event"",""trial"",""time""
""fullscreenenter"",""1"",""2141""
","
","","","","","","349","images/banana5.png","","","learning","-4","0","0","0","banana","fruit","1","0","","neutral","0"
"html-keyboard-response","92","419595","0.0-9.0-2.0-0.10","3851","1","15","Female","approach_avoid_spark_v1","""event"",""trial"",""time""
""fullscreenenter"",""1"",""2141""
","
","
","""event"",""trial"",""time""
""fullscreenenter"",""1"",""2141""
","
","","","","","","null","<div style=""font-size:60px;"">+</div>","null","","fixation","","","","","","","","","","",""
"aa-learning-trial","93","422603","0.0-9.0-2.0-1.10","3851","1","15","Female","approach_avoid_spark_v1","""event"",""trial"",""time""
""fullscreenenter"",""1"",""2141""
","
","
","""event"",""trial"",""time""
""fullscreenenter"",""1"",""2141""
","
","","","","","","587.3000000044703","images/orange3.png","","","learning","-5","-5","1","1","orange","fruit","1","0","","bad","[-5]"
"html-keyboard-response","94","423106","0.0-9.0-2.0-0.11","3851","1","15","Female","approach_avoid_spark_v1","""event"",""trial"",""time""
""fullscreenenter"",""1"",""2141""
","
","
","""event"",""trial"",""time""
""fullscreenenter"",""1"",""2141""
","
","","","","","","null","<div style=""font-size:60px;"">+</div>","null","","fixation","","","","","","","","","","",""
"aa-learning-trial","95","426115","0.0-9.0-2.0-1.11","3851","1","15","Female","approach_avoid_spark_v1","""event"",""trial"",""time""
""fullscreenenter"",""1"",""2141""
","
","
","""event"",""trial"",""time""
""fullscreenenter"",""1"",""2141""
","
","","","","","","495.29999999701977","images/banana3.png","","","learning","-3","0","0","0","banana","fruit","1","0","","neutral","0"
"html-keyboard-response","96","426619","0.0-9.0-2.0-0.12","3851","1","15","Female","approach_avoid_spark_v1","""event"",""trial"",""time""
""fullscreenenter"",""1"",""2141""
","
","
","""event"",""trial"",""time""
""fullscreenenter"",""1"",""2141""
","
","","","","","","null","<div style=""font-size:60px;"">+</div>","null","","fixation","","","","","","","","","","",""
"aa-learning-trial","97","429627","0.0-9.0-2.0-1.12","3851","1","15","Female","approach_avoid_spark_v1","""event"",""trial"",""time""
""fullscreenenter"",""1"",""2141""
","
","
","""event"",""trial"",""time""
""fullscreenenter"",""1"",""2141""
","
","","","","","","792.5","images/orange4.png","","","learning","-5","0","0","0","orange","fruit","1","0","","bad","[-5]"
"html-keyboard-response","98","430130","0.0-9.0-2.0-0.13","3851","1","15","Female","approach_avoid_spark_v1","""event"",""trial"",""time""
""fullscreenenter"",""1"",""2141""
","
","
","""event"",""trial"",""time""
""fullscreenenter"",""1"",""2141""
","
","","","","","","null","<div style=""font-size:60px;"">+</div>","null","","fixation","","","","","","","","","","",""
"aa-learning-trial","99","433139","0.0-9.0-2.0-1.13","3851","1","15","Female","approach_avoid_spark_v1","""event"",""trial"",""time""
""fullscreenenter"",""1"",""2141""
","
","
","""event"",""trial"",""time""
""fullscreenenter"",""1"",""2141""
","
","","","","","","796.7000000029802","images/orange1.png","","","learning","-5","-5","1","1","orange","fruit","1","0","","bad","[-5]"
"html-keyboard-response","100","433643","0.0-9.0-2.0-0.14","3851","1","15","Female","approach_avoid_spark_v1","""event"",""trial"",""time""
""fullscreenenter"",""1"",""2141""
","
","
","""event"",""trial"",""time""
""fullscreenenter"",""1"",""2141""
","
","","","","","","null","<div style=""font-size:60px;"">+</div>","null","","fixation","","","","","","","","","","",""
"aa-learning-trial","101","436650","0.0-9.0-2.0-1.14","3851","1","15","Female","approach_avoid_spark_v1","""event"",""trial"",""time""
""fullscreenenter"",""1"",""2141""
","
","
","""event"",""trial"",""time""
""fullscreenenter"",""1"",""2141""
","
","","","","","","1049","images/apple6.png","","","learning","1","0","0","0","apple","fruit","1","0","","good","[3]"
"html-keyboard-response","102","437155","0.0-9.0-2.0-0.15","3851","1","15","Female","approach_avoid_spark_v1","""event"",""trial"",""time""
""fullscreenenter"",""1"",""2141""
","
","
","""event"",""trial"",""time""
""fullscreenenter"",""1"",""2141""
","
","","","","","","null","<div style=""font-size:60px;"">+</div>","null","","fixation","","","","","","","","","","",""
"aa-learning-trial","103","440163","0.0-9.0-2.0-1.15","3851","1","15","Female","approach_avoid_spark_v1","""event"",""trial"",""time""
""fullscreenenter"",""1"",""2141""
","
","
","""event"",""trial"",""time""
""fullscreenenter"",""1"",""2141""
","
","","","","","","955","images/apple2.png","","","learning","4","4","1","1","apple","fruit","1","0","","good","[3]"
"html-keyboard-response","104","440666","0.0-9.0-2.0-0.16","3851","1","15","Female","approach_avoid_spark_v1","""event"",""trial"",""time""
""fullscreenenter"",""1"",""2141""
","
","
","""event"",""trial"",""time""
""fullscreenenter"",""1"",""2141""
","
","","","","","","null","<div style=""font-size:60px;"">+</div>","null","","fixation","","","","","","","","","","",""
"aa-learning-trial","105","443676","0.0-9.0-2.0-1.16","3851","1","15","Female","approach_avoid_spark_v1","""event"",""trial"",""time""
""fullscreenenter"",""1"",""2141""
","
","
","""event"",""trial"",""time""
""fullscreenenter"",""1"",""2141""
","
","","","","","","545.4000000059605","images/orange2.png","","","learning","-9","0","0","0","orange","fruit","1","0","","bad","[-5]"
"html-keyboard-response","106","444179","0.0-9.0-2.0-0.17","3851","1","15","Female","approach_avoid_spark_v1","""event"",""trial"",""time""
""fullscreenenter"",""1"",""2141""
","
","
","""event"",""trial"",""time""
""fullscreenenter"",""1"",""2141""
","
","","","","","","null","<div style=""font-size:60px;"">+</div>","null","","fixation","","","","","","","","","","",""
"aa-learning-trial","107","447187","0.0-9.0-2.0-1.17","3851","1","15","Female","approach_avoid_spark_v1","""event"",""trial"",""time""
""fullscreenenter"",""1"",""2141""
","
","
","""event"",""trial"",""time""
""fullscreenenter"",""1"",""2141""
","
","","","","","","661.2000000029802","images/orange1.png","","","learning","-4","0","0","0","orange","fruit","1","0","","bad","[-5]"
"html-keyboard-response","108","447691","0.0-9.0-2.0-0.18","3851","1","15","Female","approach_avoid_spark_v1","""event"",""trial"",""time""
""fullscreenenter"",""1"",""2141""
","
","
","""event"",""trial"",""time""
""fullscreenenter"",""1"",""2141""
","
","","","","","","null","<div style=""font-size:60px;"">+</div>","null","","fixation","","","","","","","","","","",""
"aa-learning-trial","109","450698","0.0-9.0-2.0-1.18","3851","1","15","Female","approach_avoid_spark_v1","""event"",""trial"",""time""
""fullscreenenter"",""1"",""2141""
","
","
","""event"",""trial"",""time""
""fullscreenenter"",""1"",""2141""
","
","","","","","","718.8999999985099","images/banana5.png","","","learning","1","0","0","0","banana","fruit","1","0","","neutral","0"
"html-keyboard-response","110","451202","0.0-9.0-2.0-0.19","3851","1","15","Female","approach_avoid_spark_v1","""event"",""trial"",""time""
""fullscreenenter"",""1"",""2141""
","
","
","""event"",""trial"",""time""
""fullscreenenter"",""1"",""2141""
","
","","","","","","null","<div style=""font-size:60px;"">+</div>","null","","fixation","","","","","","","","","","",""
"aa-learning-trial","111","454211","0.0-9.0-2.0-1.19","3851","1","15","Female","approach_avoid_spark_v1","""event"",""trial"",""time""
""fullscreenenter"",""1"",""2141""
","
","
","""event"",""trial"",""time""
""fullscreenenter"",""1"",""2141""
","
","","","","","","685.1000000014901","images/apple4.png","","","learning","2","0","0","0","apple","fruit","1","0","","good","[3]"
"html-keyboard-response","112","454714","0.0-9.0-2.0-0.20","3851","1","15","Female","approach_avoid_spark_v1","""event"",""trial"",""time""
""fullscreenenter"",""1"",""2141""
","
","
","""event"",""trial"",""time""
""fullscreenenter"",""1"",""2141""
","
","","","","","","null","<div style=""font-size:60px;"">+</div>","null","","fixation","","","","","","","","","","",""
"aa-learning-trial","113","457722","0.0-9.0-2.0-1.20","3851","1","15","Female","approach_avoid_spark_v1","""event"",""trial"",""time""
""fullscreenenter"",""1"",""2141""
","
","
","""event"",""trial"",""time""
""fullscreenenter"",""1"",""2141""
","
","","","","","","891.3999999985099","images/orange4.png","","","learning","-6","0","0","0","orange","fruit","1","0","","bad","[-5]"
"html-keyboard-response","114","458226","0.0-9.0-2.0-0.21","3851","1","15","Female","approach_avoid_spark_v1","""event"",""trial"",""time""
""fullscreenenter"",""1"",""2141""
","
","
","""event"",""trial"",""time""
""fullscreenenter"",""1"",""2141""
","
","","","","","","null","<div style=""font-size:60px;"">+</div>","null","","fixation","","","","","","","","","","",""
"aa-learning-trial","115","461234","0.0-9.0-2.0-1.21","3851","1","15","Female","approach_avoid_spark_v1","""event"",""trial"",""time""
""fullscreenenter"",""1"",""2141""
","
","
","""event"",""trial"",""time""
""fullscreenenter"",""1"",""2141""
","
","","","","","","947.2000000029802","images/banana1.png","","","learning","2","2","1","1","banana","fruit","1","0","","neutral","0"
"html-keyboard-response","116","461738","0.0-9.0-2.0-0.22","3851","1","15","Female","approach_avoid_spark_v1","""event"",""trial"",""time""
""fullscreenenter"",""1"",""2141""
","
","
","""event"",""trial"",""time""
""fullscreenenter"",""1"",""2141""
","
","","","","","","null","<div style=""font-size:60px;"">+</div>","null","","fixation","","","","","","","","","","",""
"aa-learning-trial","117","464747","0.0-9.0-2.0-1.22","3851","1","15","Female","approach_avoid_spark_v1","""event"",""trial"",""time""
""fullscreenenter"",""1"",""2141""
","
","
","""event"",""trial"",""time""
""fullscreenenter"",""1"",""2141""
","
","","","","","","483","images/banana4.png","","","learning","1","1","1","1","banana","fruit","1","0","","neutral","0"
"html-keyboard-response","118","465250","0.0-9.0-2.0-0.23","3851","1","15","Female","approach_avoid_spark_v1","""event"",""trial"",""time""
""fullscreenenter"",""1"",""2141""
","
","
","""event"",""trial"",""time""
""fullscreenenter"",""1"",""2141""
","
","","","","","","null","<div style=""font-size:60px;"">+</div>","null","","fixation","","","","","","","","","","",""
"aa-learning-trial","119","468258","0.0-9.0-2.0-1.23","3851","1","15","Female","approach_avoid_spark_v1","""event"",""trial"",""time""
""fullscreenenter"",""1"",""2141""
","
","
","""event"",""trial"",""time""
""fullscreenenter"",""1"",""2141""
","
","","","","","","652.6999999955297","images/orange7.png","","","learning","-2","0","0","0","orange","fruit","1","0","","bad","[-5]"
"html-keyboard-response","120","468762","0.0-9.0-2.0-0.24","3851","1","15","Female","approach_avoid_spark_v1","""event"",""trial"",""time""
""fullscreenenter"",""1"",""2141""
","
","
","""event"",""trial"",""time""
""fullscreenenter"",""1"",""2141""
","
","","","","","","null","<div style=""font-size:60px;"">+</div>","null","","fixation","","","","","","","","","","",""
"aa-learning-trial","121","471769","0.0-9.0-2.0-1.24","3851","1","15","Female","approach_avoid_spark_v1","""event"",""trial"",""time""
""fullscreenenter"",""1"",""2141""
","
","
","""event"",""trial"",""time""
""fullscreenenter"",""1"",""2141""
","
","","","","","","997.2000000029802","images/banana6.png","","","learning","[-1]","0","0","0","banana","fruit","1","0","","neutral","0"
"html-keyboard-response","122","472273","0.0-9.0-2.0-0.25","3851","1","15","Female","approach_avoid_spark_v1","""event"",""trial"",""time""
""fullscreenenter"",""1"",""2141""
","
","
","""event"",""trial"",""time""
""fullscreenenter"",""1"",""2141""
","
","","","","","","null","<div style=""font-size:60px;"">+</div>","null","","fixation","","","","","","","","","","",""
"aa-learning-trial","123","475282","0.0-9.0-2.0-1.25","3851","1","15","Female","approach_avoid_spark_v1","""event"",""trial"",""time""
""fullscreenenter"",""1"",""2141""
","
","
","""event"",""trial"",""time""
""fullscreenenter"",""1"",""2141""
","
","","","","","","808.6000000014901","images/apple2.png","","","learning","5","5","1","1","apple","fruit","1","0","","good","[3]"
"html-keyboard-response","124","475786","0.0-9.0-2.0-0.26","3851","1","15","Female","approach_avoid_spark_v1","""event"",""trial"",""time""
""fullscreenenter"",""1"",""2141""
","
","
","""event"",""trial"",""time""
""fullscreenenter"",""1"",""2141""
","
","","","","","","null","<div style=""font-size:60px;"">+</div>","null","","fixation","","","","","","","","","","",""
"aa-learning-trial","125","478794","0.0-9.0-2.0-1.26","3851","1","15","Female","approach_avoid_spark_v1","""event"",""trial"",""time""
""fullscreenenter"",""1"",""2141""
","
","
","""event"",""trial"",""time""
""fullscreenenter"",""1"",""2141""
","
","","","","","","636.2999999970198","images/banana1.png","","","learning","1","0","0","0","banana","fruit","1","0","","neutral","0"
"html-keyboard-response","126","479298","0.0-9.0-2.0-0.27","3851","1","15","Female","approach_avoid_spark_v1","""event"",""trial"",""time""
""fullscreenenter"",""1"",""2141""
","
","
","""event"",""trial"",""time""
""fullscreenenter"",""1"",""2141""
","
","","","","","","null","<div style=""font-size:60px;"">+</div>","null","","fixation","","","","","","","","","","",""
"aa-learning-trial","127","482306","0.0-9.0-2.0-1.27","3851","1","15","Female","approach_avoid_spark_v1","""event"",""trial"",""time""
""fullscreenenter"",""1"",""2141""
","
","
","""event"",""trial"",""time""
""fullscreenenter"",""1"",""2141""
","
","","","","","","698.2000000029802","images/apple4.png","","","learning","4","0","0","0","apple","fruit","1","0","","good","[3]"
"html-keyboard-response","128","482810","0.0-9.0-2.0-0.28","3851","1","15","Female","approach_avoid_spark_v1","""event"",""trial"",""time""
""fullscreenenter"",""1"",""2141""
","
","
","""event"",""trial"",""time""
""fullscreenenter"",""1"",""2141""
","
","","","","","","null","<div style=""font-size:60px;"">+</div>","null","","fixation","","","","","","","","","","",""
"aa-learning-trial","129","485818","0.0-9.0-2.0-1.28","3851","1","15","Female","approach_avoid_spark_v1","""event"",""trial"",""time""
""fullscreenenter"",""1"",""2141""
","
","
","""event"",""trial"",""time""
""fullscreenenter"",""1"",""2141""
","
","","","","","","868.1000000014901","images/banana1.png","","","learning","1","1","1","1","banana","fruit","1","0","","neutral","0"
"html-keyboard-response","130","486322","0.0-9.0-2.0-0.29","3851","1","15","Female","approach_avoid_spark_v1","""event"",""trial"",""time""
""fullscreenenter"",""1"",""2141""
","
","
","""event"",""trial"",""time""
""fullscreenenter"",""1"",""2141""
","
","","","","","","null","<div style=""font-size:60px;"">+</div>","null","","fixation","","","","","","","","","","",""
"aa-learning-trial","131","489330","0.0-9.0-2.0-1.29","3851","1","15","Female","approach_avoid_spark_v1","""event"",""trial"",""time""
""fullscreenenter"",""1"",""2141""
","
","
","""event"",""trial"",""time""
""fullscreenenter"",""1"",""2141""
","
","","","","","","681","images/orange4.png","","","learning","-5","0","0","0","orange","fruit","1","0","","bad","[-5]"
"html-keyboard-response","132","489834","0.0-9.0-2.0-0.30","3851","1","15","Female","approach_avoid_spark_v1","""event"",""trial"",""time""
""fullscreenenter"",""1"",""2141""
","
","
","""event"",""trial"",""time""
""fullscreenenter"",""1"",""2141""
","
","","","","","","null","<div style=""font-size:60px;"">+</div>","null","","fixation","","","","","","","","","","",""
"aa-learning-trial","133","492842","0.0-9.0-2.0-1.30","3851","1","15","Female","approach_avoid_spark_v1","""event"",""trial"",""time""
""fullscreenenter"",""1"",""2141""
","
","
","""event"",""trial"",""time""
""fullscreenenter"",""1"",""2141""
","
","","","","","","1101.8999999985099","images/orange3.png","","","learning","-4","0","0","0","orange","fruit","1","0","","bad","[-5]"
"html-keyboard-response","134","493346","0.0-9.0-2.0-0.31","3851","1","15","Female","approach_avoid_spark_v1","""event"",""trial"",""time""
""fullscreenenter"",""1"",""2141""
","
","
","""event"",""trial"",""time""
""fullscreenenter"",""1"",""2141""
","
","","","","","","null","<div style=""font-size:60px;"">+</div>","null","","fixation","","","","","","","","","","",""
"aa-learning-trial","135","496354","0.0-9.0-2.0-1.31","3851","1","15","Female","approach_avoid_spark_v1","""event"",""trial"",""time""
""fullscreenenter"",""1"",""2141""
","
","
","""event"",""trial"",""time""
""fullscreenenter"",""1"",""2141""
","
","","","","","","640.5","images/orange3.png","","","learning","-6","0","0","0","orange","fruit","1","0","","bad","[-5]"
"html-keyboard-response","136","496858","0.0-9.0-2.0-0.32","3851","1","15","Female","approach_avoid_spark_v1","""event"",""trial"",""time""
""fullscreenenter"",""1"",""2141""
","
","
","""event"",""trial"",""time""
""fullscreenenter"",""1"",""2141""
","
","","","","","","null","<div style=""font-size:60px;"">+</div>","null","","fixation","","","","","","","","","","",""
"aa-learning-trial","137","499866","0.0-9.0-2.0-1.32","3851","1","15","Female","approach_avoid_spark_v1","""event"",""trial"",""time""
""fullscreenenter"",""1"",""2141""
","
","
","""event"",""trial"",""time""
""fullscreenenter"",""1"",""2141""
","
","","","","","","586.5","images/orange3.png","","","learning","-4","0","0","0","orange","fruit","1","0","","bad","[-5]"
"html-keyboard-response","138","500370","0.0-9.0-2.0-0.33","3851","1","15","Female","approach_avoid_spark_v1","""event"",""trial"",""time""
""fullscreenenter"",""1"",""2141""
","
","
","""event"",""trial"",""time""
""fullscreenenter"",""1"",""2141""
","
","","","","","","null","<div style=""font-size:60px;"">+</div>","null","","fixation","","","","","","","","","","",""
"aa-learning-trial","139","503381","0.0-9.0-2.0-1.33","3851","1","15","Female","approach_avoid_spark_v1","""event"",""trial"",""time""
""fullscreenenter"",""1"",""2141""
","
","
","""event"",""trial"",""time""
""fullscreenenter"",""1"",""2141""
","
","","","","","","867.3999999985099","images/banana3.png","","","learning","1","1","1","1","banana","fruit","1","0","","neutral","0"
"html-keyboard-response","140","503890","0.0-9.0-2.0-0.34","3851","1","15","Female","approach_avoid_spark_v1","""event"",""trial"",""time""
""fullscreenenter"",""1"",""2141""
","
","
","""event"",""trial"",""time""
""fullscreenenter"",""1"",""2141""
","
","","","","","","null","<div style=""font-size:60px;"">+</div>","null","","fixation","","","","","","","","","","",""
"aa-learning-trial","141","506898","0.0-9.0-2.0-1.34","3851","1","15","Female","approach_avoid_spark_v1","""event"",""trial"",""time""
""fullscreenenter"",""1"",""2141""
","
","
","""event"",""trial"",""time""
""fullscreenenter"",""1"",""2141""
","
","","","","","","554.5","images/banana1.png","","","learning","[-1]","-1","1","1","banana","fruit","1","0","","neutral","0"
"html-keyboard-response","142","507401","0.0-9.0-2.0-0.35","3851","1","15","Female","approach_avoid_spark_v1","""event"",""trial"",""time""
""fullscreenenter"",""1"",""2141""
","
","
","""event"",""trial"",""time""
""fullscreenenter"",""1"",""2141""
","
","","","","","","null","<div style=""font-size:60px;"">+</div>","null","","fixation","","","","","","","","","","",""
"aa-learning-trial","143","510410","0.0-9.0-2.0-1.35","3851","1","15","Female","approach_avoid_spark_v1","""event"",""trial"",""time""
""fullscreenenter"",""1"",""2141""
","
","
","""event"",""trial"",""time""
""fullscreenenter"",""1"",""2141""
","
","","","","","","721.8999999985099","images/banana5.png","","","learning","1","0","0","0","banana","fruit","1","0","","neutral","0"
"html-keyboard-response","144","510914","0.0-9.0-2.0-0.36","3851","1","15","Female","approach_avoid_spark_v1","""event"",""trial"",""time""
""fullscreenenter"",""1"",""2141""
","
","
","""event"",""trial"",""time""
""fullscreenenter"",""1"",""2141""
","
","","","","","","null","<div style=""font-size:60px;"">+</div>","null","","fixation","","","","","","","","","","",""
"aa-learning-trial","145","513922","0.0-9.0-2.0-1.36","3851","1","15","Female","approach_avoid_spark_v1","""event"",""trial"",""time""
""fullscreenenter"",""1"",""2141""
","
","
","""event"",""trial"",""time""
""fullscreenenter"",""1"",""2141""
","
","","","","","","574.9000000059605","images/orange4.png","","","learning","-4","0","0","0","orange","fruit","1","0","","bad","[-5]"
"html-keyboard-response","146","514426","0.0-9.0-2.0-0.37","3851","1","15","Female","approach_avoid_spark_v1","""event"",""trial"",""time""
""fullscreenenter"",""1"",""2141""
","
","
","""event"",""trial"",""time""
""fullscreenenter"",""1"",""2141""
","
","","","","","","null","<div style=""font-size:60px;"">+</div>","null","","fixation","","","","","","","","","","",""
"aa-learning-trial","147","517434","0.0-9.0-2.0-1.37","3851","1","15","Female","approach_avoid_spark_v1","""event"",""trial"",""time""
""fullscreenenter"",""1"",""2141""
","
","
","""event"",""trial"",""time""
""fullscreenenter"",""1"",""2141""
","
","","","","","","612.3999999985099","images/apple6.png","","","learning","4","0","0","0","apple","fruit","1","0","","good","[3]"
"html-keyboard-response","148","517938","0.0-9.0-2.0-0.38","3851","1","15","Female","approach_avoid_spark_v1","""event"",""trial"",""time""
""fullscreenenter"",""1"",""2141""
","
","
","""event"",""trial"",""time""
""fullscreenenter"",""1"",""2141""
","
","","","","","","null","<div style=""font-size:60px;"">+</div>","null","","fixation","","","","","","","","","","",""
"aa-learning-trial","149","520946","0.0-9.0-2.0-1.38","3851","1","15","Female","approach_avoid_spark_v1","""event"",""trial"",""time""
""fullscreenenter"",""1"",""2141""
","
","
","""event"",""trial"",""time""
""fullscreenenter"",""1"",""2141""
","
","","","","","","462","images/apple6.png","","","learning","3","3","1","1","apple","fruit","1","0","","good","[3]"
"html-keyboard-response","150","521450","0.0-9.0-2.0-0.39","3851","1","15","Female","approach_avoid_spark_v1","""event"",""trial"",""time""
""fullscreenenter"",""1"",""2141""
","
","
","""event"",""trial"",""time""
""fullscreenenter"",""1"",""2141""
","
","","","","","","null","<div style=""font-size:60px;"">+</div>","null","","fixation","","","","","","","","","","",""
"aa-learning-trial","151","524458","0.0-9.0-2.0-1.39","3851","1","15","Female","approach_avoid_spark_v1","""event"",""trial"",""time""
""fullscreenenter"",""1"",""2141""
","
","
","""event"",""trial"",""time""
""fullscreenenter"",""1"",""2141""
","
","","","","","","736.5999999940395","images/apple8.png","","","learning","4","0","0","0","apple","fruit","1","0","","good","[3]"
"html-keyboard-response","152","524962","0.0-9.0-2.0-0.40","3851","1","15","Female","approach_avoid_spark_v1","""event"",""trial"",""time""
""fullscreenenter"",""1"",""2141""
","
","
","""event"",""trial"",""time""
""fullscreenenter"",""1"",""2141""
","
","","","","","","null","<div style=""font-size:60px;"">+</div>","null","","fixation","","","","","","","","","","",""
"aa-learning-trial","153","527970","0.0-9.0-2.0-1.40","3851","1","15","Female","approach_avoid_spark_v1","""event"",""trial"",""time""
""fullscreenenter"",""1"",""2141""
","
","
","""event"",""trial"",""time""
""fullscreenenter"",""1"",""2141""
","
","","","","","","833.8000000044703","images/banana3.png","","","learning","-2","0","0","0","banana","fruit","1","0","","neutral","0"
"html-keyboard-response","154","528473","0.0-9.0-2.0-0.41","3851","1","15","Female","approach_avoid_spark_v1","""event"",""trial"",""time""
""fullscreenenter"",""1"",""2141""
","
","
","""event"",""trial"",""time""
""fullscreenenter"",""1"",""2141""
","
","","","","","","null","<div style=""font-size:60px;"">+</div>","null","","fixation","","","","","","","","","","",""
"aa-learning-trial","155","531481","0.0-9.0-2.0-1.41","3851","1","15","Female","approach_avoid_spark_v1","""event"",""trial"",""time""
""fullscreenenter"",""1"",""2141""
","
","
","""event"",""trial"",""time""
""fullscreenenter"",""1"",""2141""
","
","","","","","","512.0999999940395","images/apple2.png","","","learning","1","1","1","1","apple","fruit","1","0","","good","[3]"
"html-keyboard-response","156","531985","0.0-9.0-2.0-0.42","3851","1","15","Female","approach_avoid_spark_v1","""event"",""trial"",""time""
""fullscreenenter"",""1"",""2141""
","
","
","""event"",""trial"",""time""
""fullscreenenter"",""1"",""2141""
","
","","","","","","null","<div style=""font-size:60px;"">+</div>","null","","fixation","","","","","","","","","","",""
"aa-learning-trial","157","534994","0.0-9.0-2.0-1.42","3851","1","15","Female","approach_avoid_spark_v1","""event"",""trial"",""time""
""fullscreenenter"",""1"",""2141""
","
","
","""event"",""trial"",""time""
""fullscreenenter"",""1"",""2141""
","
","","","","","","415.6000000014901","images/apple2.png","","","learning","3","3","1","1","apple","fruit","1","0","","good","[3]"
"html-keyboard-response","158","535498","0.0-9.0-2.0-0.43","3851","1","15","Female","approach_avoid_spark_v1","""event"",""trial"",""time""
""fullscreenenter"",""1"",""2141""
","
","
","""event"",""trial"",""time""
""fullscreenenter"",""1"",""2141""
","
","","","","","","null","<div style=""font-size:60px;"">+</div>","null","","fixation","","","","","","","","","","",""
"aa-learning-trial","159","538505","0.0-9.0-2.0-1.43","3851","1","15","Female","approach_avoid_spark_v1","""event"",""trial"",""time""
""fullscreenenter"",""1"",""2141""
","
","
","""event"",""trial"",""time""
""fullscreenenter"",""1"",""2141""
","
","","","","","","729.1000000014901","images/apple4.png","","","learning","4","0","0","0","apple","fruit","1","0","","good","[3]"
"html-keyboard-response","160","539009","0.0-9.0-2.0-0.44","3851","1","15","Female","approach_avoid_spark_v1","""event"",""trial"",""time""
""fullscreenenter"",""1"",""2141""
","
","
","""event"",""trial"",""time""
""fullscreenenter"",""1"",""2141""
","
","","","","","","null","<div style=""font-size:60px;"">+</div>","null","","fixation","","","","","","","","","","",""
"aa-learning-trial","161","542017","0.0-9.0-2.0-1.44","3851","1","15","Female","approach_avoid_spark_v1","""event"",""trial"",""time""
""fullscreenenter"",""1"",""2141""
","
","
","""event"",""trial"",""time""
""fullscreenenter"",""1"",""2141""
","
","","","","","","763.7000000029802","images/banana3.png","","","learning","-2","0","0","0","banana","fruit","1","0","","neutral","0"
"html-keyboard-response","162","542522","0.0-9.0-2.0-0.45","3851","1","15","Female","approach_avoid_spark_v1","""event"",""trial"",""time""
""fullscreenenter"",""1"",""2141""
","
","
","""event"",""trial"",""time""
""fullscreenenter"",""1"",""2141""
","
","","","","","","null","<div style=""font-size:60px;"">+</div>","null","","fixation","","","","","","","","","","",""
"aa-learning-trial","163","545530","0.0-9.0-2.0-1.45","3851","1","15","Female","approach_avoid_spark_v1","""event"",""trial"",""time""
""fullscreenenter"",""1"",""2141""
","
","
","""event"",""trial"",""time""
""fullscreenenter"",""1"",""2141""
","
","","","","","","726.5","images/apple5.png","","","learning","3","3","1","1","apple","fruit","1","0","","good","[3]"
"html-keyboard-response","164","546033","0.0-9.0-2.0-0.46","3851","1","15","Female","approach_avoid_spark_v1","""event"",""trial"",""time""
""fullscreenenter"",""1"",""2141""
","
","
","""event"",""trial"",""time""
""fullscreenenter"",""1"",""2141""
","
","","","","","","null","<div style=""font-size:60px;"">+</div>","null","","fixation","","","","","","","","","","",""
"aa-learning-trial","165","549041","0.0-9.0-2.0-1.46","3851","1","15","Female","approach_avoid_spark_v1","""event"",""trial"",""time""
""fullscreenenter"",""1"",""2141""
","
","
","""event"",""trial"",""time""
""fullscreenenter"",""1"",""2141""
","
","","","","","","598.5","images/orange4.png","","","learning","-1","0","0","0","orange","fruit","1","0","","bad","[-5]"
"html-keyboard-response","166","549545","0.0-9.0-2.0-0.47","3851","1","15","Female","approach_avoid_spark_v1","""event"",""trial"",""time""
""fullscreenenter"",""1"",""2141""
","
","
","""event"",""trial"",""time""
""fullscreenenter"",""1"",""2141""
","
","","","","","","null","<div style=""font-size:60px;"">+</div>","null","","fixation","","","","","","","","","","",""
"aa-learning-trial","167","552553","0.0-9.0-2.0-1.47","3851","1","15","Female","approach_avoid_spark_v1","""event"",""trial"",""time""
""fullscreenenter"",""1"",""2141""
","
","
","""event"",""trial"",""time""
""fullscreenenter"",""1"",""2141""
","
","","","","","","626.2999999970198","images/orange1.png","","","learning","-6","0","0","0","orange","fruit","1","0","","bad","[-5]"
"html-keyboard-response","168","553057","0.0-9.0-2.0-0.48","3851","1","15","Female","approach_avoid_spark_v1","""event"",""trial"",""time""
""fullscreenenter"",""1"",""2141""
","
","
","""event"",""trial"",""time""
""fullscreenenter"",""1"",""2141""
","
","","","","","","null","<div style=""font-size:60px;"">+</div>","null","","fixation","","","","","","","","","","",""
"aa-learning-trial","169","556065","0.0-9.0-2.0-1.48","3851","1","15","Female","approach_avoid_spark_v1","""event"",""trial"",""time""
""fullscreenenter"",""1"",""2141""
","
","
","""event"",""trial"",""time""
""fullscreenenter"",""1"",""2141""
","
","","","","","","730.3999999985099","images/apple4.png","","","learning","2","2","1","1","apple","fruit","1","0","","good","[3]"
"html-keyboard-response","170","556569","0.0-9.0-2.0-0.49","3851","1","15","Female","approach_avoid_spark_v1","""event"",""trial"",""time""
""fullscreenenter"",""1"",""2141""
","
","
","""event"",""trial"",""time""
""fullscreenenter"",""1"",""2141""
","
","","","","","","null","<div style=""font-size:60px;"">+</div>","null","","fixation","","","","","","","","","","",""
"aa-learning-trial","171","559577","0.0-9.0-2.0-1.49","3851","1","15","Female","approach_avoid_spark_v1","""event"",""trial"",""time""
""fullscreenenter"",""1"",""2141""
","
","
","""event"",""trial"",""time""
""fullscreenenter"",""1"",""2141""
","
","","","","","","521.7000000029802","images/banana3.png","","","learning","-4","0","0","0","banana","fruit","1","0","","neutral","0"
"html-keyboard-response","172","560081","0.0-9.0-2.0-0.50","3851","1","15","Female","approach_avoid_spark_v1","""event"",""trial"",""time""
""fullscreenenter"",""1"",""2141""
","
","
","""event"",""trial"",""time""
""fullscreenenter"",""1"",""2141""
","
","","","","","","null","<div style=""font-size:60px;"">+</div>","null","","fixation","","","","","","","","","","",""
"aa-learning-trial","173","563089","0.0-9.0-2.0-1.50","3851","1","15","Female","approach_avoid_spark_v1","""event"",""trial"",""time""
""fullscreenenter"",""1"",""2141""
","
","
","""event"",""trial"",""time""
""fullscreenenter"",""1"",""2141""
","
","","","","","","629.8999999985099","images/orange3.png","","","learning","-4","0","0","0","orange","fruit","1","0","","bad","[-5]"
"html-button-response","174","565988","0.0-9.0-3.0","3851","1","15","Female","approach_avoid_spark_v1","""event"",""trial"",""time""
""fullscreenenter"",""1"",""2141""
","
","
","""event"",""trial"",""time""
""fullscreenenter"",""1"",""2141""
","
","","","","","","2897.2999999970198","<p> You have completed the round! <p> In this round, you earned 15 points! </p>","0","","break","","","","","","","","","","",""
"html-button-response","175","567295","0.0-10.0","3851","1","15","Female","approach_avoid_spark_v1","""event"",""trial"",""time""
""fullscreenenter"",""1"",""2141""
","
","
","""event"",""trial"",""time""
""fullscreenenter"",""1"",""2141""
","
","","","","","","1306","<p> Now it's time to play another round. </p>","0","","transition_screen","","","","","","","","","","",""
"preload","176","567417","0.0-11.0-0.0","3851","1","15","Female","approach_avoid_spark_v1","""event"",""trial"",""time""
""fullscreenenter"",""1"",""2141""
","
","
","""event"",""trial"",""time""
""fullscreenenter"",""1"",""2141""
","
","true","false","[]","[]","[]","","","","","","","","","","","","","","","",""
"learning-instructions","177","575556","0.0-11.0-1.0-0.0","3851","1","15","Female","approach_avoid_spark_v1","""event"",""trial"",""time""
""fullscreenenter"",""1"",""2141""
","
","
","""event"",""trial"",""time""
""fullscreenenter"",""1"",""2141""
","
","","","","","","3813.9000000059605","<p> Your goal in this round is to take care of lots of farm animals. </p></div>","","0","instructions","","","","","","","","","","",""
"learning-instructions","178","586191","0.0-11.0-1.0-0.1","3851","1","15","Female","approach_avoid_spark_v1","""event"",""trial"",""time""
""fullscreenenter"",""1"",""2141""
","
","
","""event"",""trial"",""time""
""fullscreenenter"",""1"",""2141""
","
","","","","","","1045.9000000059605","<p> Some farm animals are hungry, while other farm animals are already full.  </p><p> On each turn, you will see a farm animal.   </p><p> You need to decide whether to feed it or not.  </p>","","0","instructions","","","","","","","","","","",""
"learning-instructions","179","592216","0.0-11.0-1.0-0.2","3851","1","15","Female","approach_avoid_spark_v1","""event"",""trial"",""time""
""fullscreenenter"",""1"",""2141""
","
","
","""event"",""trial"",""time""
""fullscreenenter"",""1"",""2141""
","
","","","","","","420.70000000298023","<p> You can feed the farm animal by pressing 1 and leave the farm animal alone by pressing 0. </p><br><div class=""choice-instructions-grid""> <div class=""choice-option""><img src=""images/approach.png"" class=""choice-option-img"" stage=""instructions"" position=""0"" ><div class=""choice-option-text""> Press ""1."" </div></div><div class=""choice-option""><img src=""images/avoid.png"" class=""choice-option-img"" stage=""instructions"" position=""1"" ><div class=""choice-option-text""> Press ""0."" </div></div>","","0","instructions","","","","","","","","","","",""
"learning-instructions","180","601846","0.0-11.0-1.0-0.3","3851","1","15","Female","approach_avoid_spark_v1","""event"",""trial"",""time""
""fullscreenenter"",""1"",""2141""
","
","
","""event"",""trial"",""time""
""fullscreenenter"",""1"",""2141""
","
","","","","","","360.5","<p> If you feed a hungry farm animal, you will make it feel satisfied! </p><p> But if you feed the farm animal and it was already full, you will make it feel sick. </p>","","0","instructions","","","","","","","","","","",""
"learning-instructions","181","614697","0.0-11.0-1.0-0.4","3851","1","15","Female","approach_avoid_spark_v1","""event"",""trial"",""time""
""fullscreenenter"",""1"",""2141""
","
","
","""event"",""trial"",""time""
""fullscreenenter"",""1"",""2141""
","
","","","","","","832.2000000029802","<p> You will earn points based on how you made the farm animal feel. </p><p> If you made it satisfied, you will WIN anywhere from 1 - 9 points, </p><p> but if you made it sick, you will LOSE anywhere from 1 - 9 points. </p>","","0","instructions","","","","","","","","","","",""
"learning-instructions","182","621693","0.0-11.0-1.0-0.5","3851","1","15","Female","approach_avoid_spark_v1","""event"",""trial"",""time""
""fullscreenenter"",""1"",""2141""
","
","
","""event"",""trial"",""time""
""fullscreenenter"",""1"",""2141""
","
","","","","","","346.3999999985099","<p> You will see how many points you won or lost in the center of the screen. </p><p> Here is what you would see if you won 5 points: </p><p style=""color:green;font-size:50px;font-weight:bolder"">5</p>","","0","instructions","","","","","","","","","","",""
"learning-instructions","183","625290","0.0-11.0-1.0-0.6","3851","1","15","Female","approach_avoid_spark_v1","""event"",""trial"",""time""
""fullscreenenter"",""1"",""2141""
","
","
","""event"",""trial"",""time""
""fullscreenenter"",""1"",""2141""
","
","","","","","","759.8000000044703","<p> And here is what you would see if you lost 3 points: </p><p style=""color:red;font-size:50px;font-weight:bolder"">-3</p>","","0","instructions","","","","","","","","","","",""
"learning-instructions","184","642040","0.0-11.0-1.0-0.7","3851","1","15","Female","approach_avoid_spark_v1","""event"",""trial"",""time""
""fullscreenenter"",""1"",""2141""
","
","
","""event"",""trial"",""time""
""fullscreenenter"",""1"",""2141""
","
","","","","","","1419.3999999985099","<p> Some farm animals will become very satisfied or very sick. </p><p> These farm animals will make you win or lose LOTS of points. </p><p> Other farm animals have less strong feelings. </p><p> These farm animals will make you win or lose small amounts of points. </p>","","0","instructions","","","","","","","","","","",""
"learning-instructions","185","654224","0.0-11.0-1.0-0.8","3851","1","15","Female","approach_avoid_spark_v1","""event"",""trial"",""time""
""fullscreenenter"",""1"",""2141""
","
","
","""event"",""trial"",""time""
""fullscreenenter"",""1"",""2141""
","
","","","","","","381.90000000596046","<p> If you choose to leave the farm animal alone, you will not win or lose any points. </p><p>  However, in the center of the screen, you will see the number of points you WOULD HAVE won or lost if you had fed the farm animal. </p>","","0","instructions","","","","","","","","","","",""
"learning-instructions","186","665873","0.0-11.0-1.0-0.9","3851","1","15","Female","approach_avoid_spark_v1","""event"",""trial"",""time""
""fullscreenenter"",""1"",""2141""
","
","
","""event"",""trial"",""time""
""fullscreenenter"",""1"",""2141""
","
","","","","","","602.5","<p> Here is what you might see if you did not feed the farm animal but the animal was hungry: </p><p style=""color:grey; font-size:50px; display: inline-block; border-spacing: 15px; border-width:3px; border-style:solid; border-color:red"">  &nbsp; 6 &nbsp; </p><p> Remember, in this case, you would not win or lose ANY points because you did not feed the farm animal.  </p>","","0","instructions","","","","","","","","","","",""
"learning-instructions","187","673640","0.0-11.0-1.0-0.10","3851","1","15","Female","approach_avoid_spark_v1","""event"",""trial"",""time""
""fullscreenenter"",""1"",""2141""
","
","
","""event"",""trial"",""time""
""fullscreenenter"",""1"",""2141""
","
","","","","","","252","<p> Try to make the best choice for each farm animal because </p><p> at the end of the game, you will earn bonus money based on how many points you earned. </p>","","0","instructions","","","","","","","","","","",""
"learning-instructions","188","682063","0.0-11.0-1.0-0.11","3851","1","15","Female","approach_avoid_spark_v1","""event"",""trial"",""time""
""fullscreenenter"",""1"",""2141""
","
","
","""event"",""trial"",""time""
""fullscreenenter"",""1"",""2141""
","
","","","","","","233.19999999552965","<p> You will have 3 seconds to make each choice. Try to respond before time runs out! </p><p> You will lose 5 points each time you do not make a response. </p>","","0","instructions","","","","","","","","","","",""
"html-keyboard-response","189","682673","0.0-11.0-2.0-0.0","3851","1","15","Female","approach_avoid_spark_v1","""event"",""trial"",""time""
""fullscreenenter"",""1"",""2141""
","
","
","""event"",""trial"",""time""
""fullscreenenter"",""1"",""2141""
","
","","","","","","null","<div style=""font-size:60px;"">+</div>","null","","fixation","","","","","","","","","","",""
"aa-learning-trial","190","685680","0.0-11.0-2.0-1.0","3851","1","15","Female","approach_avoid_spark_v1","""event"",""trial"",""time""
""fullscreenenter"",""1"",""2141""
","
","
","""event"",""trial"",""time""
""fullscreenenter"",""1"",""2141""
","
","","","","","","978.2999999970198","images/horse3.png","","","learning","-6","0","0","0","horse","animals","2","1","","neutral","0"
"html-keyboard-response","191","686188","0.0-11.0-2.0-0.1","3851","1","15","Female","approach_avoid_spark_v1","""event"",""trial"",""time""
""fullscreenenter"",""1"",""2141""
","
","
","""event"",""trial"",""time""
""fullscreenenter"",""1"",""2141""
","
","","","","","","null","<div style=""font-size:60px;"">+</div>","null","","fixation","","","","","","","","","","",""
"aa-learning-trial","192","689195","0.0-11.0-2.0-1.1","3851","1","15","Female","approach_avoid_spark_v1","""event"",""trial"",""time""
""fullscreenenter"",""1"",""2141""
","
","
","""event"",""trial"",""time""
""fullscreenenter"",""1"",""2141""
","
","","","","","","465.5","images/horse7.png","","","learning","7","0","0","0","horse","animals","2","1","","neutral","0"
"html-keyboard-response","193","689704","0.0-11.0-2.0-0.2","3851","1","15","Female","approach_avoid_spark_v1","""event"",""trial"",""time""
""fullscreenenter"",""1"",""2141""
","
","
","""event"",""trial"",""time""
""fullscreenenter"",""1"",""2141""
","
","","","","","","null","<div style=""font-size:60px;"">+</div>","null","","fixation","","","","","","","","","","",""
"aa-learning-trial","194","692712","0.0-11.0-2.0-1.2","3851","1","15","Female","approach_avoid_spark_v1","""event"",""trial"",""time""
""fullscreenenter"",""1"",""2141""
","
","
","""event"",""trial"",""time""
""fullscreenenter"",""1"",""2141""
","
","","","","","","633.6999999955297","images/goat8.png","","","learning","-3","0","0","0","goat","animals","2","1","","good","[4]"
"html-keyboard-response","195","693216","0.0-11.0-2.0-0.3","3851","1","15","Female","approach_avoid_spark_v1","""event"",""trial"",""time""
""fullscreenenter"",""1"",""2141""
","
","
","""event"",""trial"",""time""
""fullscreenenter"",""1"",""2141""
","
","","","","","","null","<div style=""font-size:60px;"">+</div>","null","","fixation","","","","","","","","","","",""
"aa-learning-trial","196","696228","0.0-11.0-2.0-1.3","3851","1","15","Female","approach_avoid_spark_v1","""event"",""trial"",""time""
""fullscreenenter"",""1"",""2141""
","
","
","""event"",""trial"",""time""
""fullscreenenter"",""1"",""2141""
","
","","","","","","506.3999999985099","images/sheep2.png","","","learning","-4","0","0","0","sheep","animals","2","1","","bad","[-5]"
"html-keyboard-response","197","696735","0.0-11.0-2.0-0.4","3851","1","15","Female","approach_avoid_spark_v1","""event"",""trial"",""time""
""fullscreenenter"",""1"",""2141""
","
","
","""event"",""trial"",""time""
""fullscreenenter"",""1"",""2141""
","
","","","","","","null","<div style=""font-size:60px;"">+</div>","null","","fixation","","","","","","","","","","",""
"aa-learning-trial","198","699746","0.0-11.0-2.0-1.4","3851","1","15","Female","approach_avoid_spark_v1","""event"",""trial"",""time""
""fullscreenenter"",""1"",""2141""
","
","
","""event"",""trial"",""time""
""fullscreenenter"",""1"",""2141""
","
","","","","","","742.3999999985099","images/goat5.png","","","learning","5","0","0","0","goat","animals","2","1","","good","[4]"
"html-keyboard-response","199","700248","0.0-11.0-2.0-0.5","3851","1","15","Female","approach_avoid_spark_v1","""event"",""trial"",""time""
""fullscreenenter"",""1"",""2141""
","
","
","""event"",""trial"",""time""
""fullscreenenter"",""1"",""2141""
","
","","","","","","null","<div style=""font-size:60px;"">+</div>","null","","fixation","","","","","","","","","","",""
"aa-learning-trial","200","703260","0.0-11.0-2.0-1.5","3851","1","15","Female","approach_avoid_spark_v1","""event"",""trial"",""time""
""fullscreenenter"",""1"",""2141""
","
","
","""event"",""trial"",""time""
""fullscreenenter"",""1"",""2141""
","
","","","","","","562.2000000029802","images/goat6.png","","","learning","-8","0","0","0","goat","animals","2","1","","good","[4]"
"html-keyboard-response","201","703768","0.0-11.0-2.0-0.6","3851","1","15","Female","approach_avoid_spark_v1","""event"",""trial"",""time""
""fullscreenenter"",""1"",""2141""
","
","
","""event"",""trial"",""time""
""fullscreenenter"",""1"",""2141""
","
","","","","","","null","<div style=""font-size:60px;"">+</div>","null","","fixation","","","","","","","","","","",""
"aa-learning-trial","202","706776","0.0-11.0-2.0-1.6","3851","1","15","Female","approach_avoid_spark_v1","""event"",""trial"",""time""
""fullscreenenter"",""1"",""2141""
","
","
","""event"",""trial"",""time""
""fullscreenenter"",""1"",""2141""
","
","","","","","","602.3999999985099","images/goat8.png","","","learning","-3","0","0","0","goat","animals","2","1","","good","[4]"
"html-keyboard-response","203","707282","0.0-11.0-2.0-0.7","3851","1","15","Female","approach_avoid_spark_v1","""event"",""trial"",""time""
""fullscreenenter"",""1"",""2141""
","
","
","""event"",""trial"",""time""
""fullscreenenter"",""1"",""2141""
","
","","","","","","null","<div style=""font-size:60px;"">+</div>","null","","fixation","","","","","","","","","","",""
"aa-learning-trial","204","710287","0.0-11.0-2.0-1.7","3851","1","15","Female","approach_avoid_spark_v1","""event"",""trial"",""time""
""fullscreenenter"",""1"",""2141""
","
","
","""event"",""trial"",""time""
""fullscreenenter"",""1"",""2141""
","
","","","","","","483.3999999985099","images/horse7.png","","","learning","7","7","1","1","horse","animals","2","1","","neutral","0"
"html-keyboard-response","205","710792","0.0-11.0-2.0-0.8","3851","1","15","Female","approach_avoid_spark_v1","""event"",""trial"",""time""
""fullscreenenter"",""1"",""2141""
","
","
","""event"",""trial"",""time""
""fullscreenenter"",""1"",""2141""
","
","","","","","","null","<div style=""font-size:60px;"">+</div>","null","","fixation","","","","","","","","","","",""
"aa-learning-trial","206","713800","0.0-11.0-2.0-1.8","3851","1","15","Female","approach_avoid_spark_v1","""event"",""trial"",""time""
""fullscreenenter"",""1"",""2141""
","
","
","""event"",""trial"",""time""
""fullscreenenter"",""1"",""2141""
","
","","","","","","591.3999999985099","images/goat5.png","","","learning","5","5","1","1","goat","animals","2","1","","good","[4]"
"html-keyboard-response","207","714304","0.0-11.0-2.0-0.9","3851","1","15","Female","approach_avoid_spark_v1","""event"",""trial"",""time""
""fullscreenenter"",""1"",""2141""
","
","
","""event"",""trial"",""time""
""fullscreenenter"",""1"",""2141""
","
","","","","","","null","<div style=""font-size:60px;"">+</div>","null","","fixation","","","","","","","","","","",""
"aa-learning-trial","208","717311","0.0-11.0-2.0-1.9","3851","1","15","Female","approach_avoid_spark_v1","""event"",""trial"",""time""
""fullscreenenter"",""1"",""2141""
","
","
","""event"",""trial"",""time""
""fullscreenenter"",""1"",""2141""
","
","","","","","","462.79999999701977","images/horse2.png","","","learning","-5","0","0","0","horse","animals","2","1","","neutral","0"
"html-keyboard-response","209","717815","0.0-11.0-2.0-0.10","3851","1","15","Female","approach_avoid_spark_v1","""event"",""trial"",""time""
""fullscreenenter"",""1"",""2141""
","
","
","""event"",""trial"",""time""
""fullscreenenter"",""1"",""2141""
","
","","","","","","null","<div style=""font-size:60px;"">+</div>","null","","fixation","","","","","","","","","","",""
"aa-learning-trial","210","720823","0.0-11.0-2.0-1.10","3851","1","15","Female","approach_avoid_spark_v1","""event"",""trial"",""time""
""fullscreenenter"",""1"",""2141""
","
","
","""event"",""trial"",""time""
""fullscreenenter"",""1"",""2141""
","
","","","","","","636.5","images/sheep7.png","","","learning","6","6","1","1","sheep","animals","2","1","","bad","[-5]"
"html-keyboard-response","211","721327","0.0-11.0-2.0-0.11","3851","1","15","Female","approach_avoid_spark_v1","""event"",""trial"",""time""
""fullscreenenter"",""1"",""2141""
","
","
","""event"",""trial"",""time""
""fullscreenenter"",""1"",""2141""
","
","","","","","","null","<div style=""font-size:60px;"">+</div>","null","","fixation","","","","","","","","","","",""
"aa-learning-trial","212","724336","0.0-11.0-2.0-1.11","3851","1","15","Female","approach_avoid_spark_v1","""event"",""trial"",""time""
""fullscreenenter"",""1"",""2141""
","
","
","""event"",""trial"",""time""
""fullscreenenter"",""1"",""2141""
","
","","","","","","671.5","images/sheep6.png","","","learning","2","2","1","1","sheep","animals","2","1","","bad","[-5]"
"html-keyboard-response","213","724840","0.0-11.0-2.0-0.12","3851","1","15","Female","approach_avoid_spark_v1","""event"",""trial"",""time""
""fullscreenenter"",""1"",""2141""
","
","
","""event"",""trial"",""time""
""fullscreenenter"",""1"",""2141""
","
","","","","","","null","<div style=""font-size:60px;"">+</div>","null","","fixation","","","","","","","","","","",""
"aa-learning-trial","214","727848","0.0-11.0-2.0-1.12","3851","1","15","Female","approach_avoid_spark_v1","""event"",""trial"",""time""
""fullscreenenter"",""1"",""2141""
","
","
","""event"",""trial"",""time""
""fullscreenenter"",""1"",""2141""
","
","","","","","","540.3999999985099","images/sheep6.png","","","learning","2","2","1","1","sheep","animals","2","1","","bad","[-5]"
"html-keyboard-response","215","728352","0.0-11.0-2.0-0.13","3851","1","15","Female","approach_avoid_spark_v1","""event"",""trial"",""time""
""fullscreenenter"",""1"",""2141""
","
","
","""event"",""trial"",""time""
""fullscreenenter"",""1"",""2141""
","
","","","","","","null","<div style=""font-size:60px;"">+</div>","null","","fixation","","","","","","","","","","",""
"aa-learning-trial","216","731359","0.0-11.0-2.0-1.13","3851","1","15","Female","approach_avoid_spark_v1","""event"",""trial"",""time""
""fullscreenenter"",""1"",""2141""
","
","
","""event"",""trial"",""time""
""fullscreenenter"",""1"",""2141""
","
","","","","","","437.69999999552965","images/horse2.png","","","learning","-5","0","0","0","horse","animals","2","1","","neutral","0"
"html-keyboard-response","217","731863","0.0-11.0-2.0-0.14","3851","1","15","Female","approach_avoid_spark_v1","""event"",""trial"",""time""
""fullscreenenter"",""1"",""2141""
","
","
","""event"",""trial"",""time""
""fullscreenenter"",""1"",""2141""
","
","","","","","","null","<div style=""font-size:60px;"">+</div>","null","","fixation","","","","","","","","","","",""
"aa-learning-trial","218","734872","0.0-11.0-2.0-1.14","3851","1","15","Female","approach_avoid_spark_v1","""event"",""trial"",""time""
""fullscreenenter"",""1"",""2141""
","
","
","""event"",""trial"",""time""
""fullscreenenter"",""1"",""2141""
","
","","","","","","559","images/sheep7.png","","","learning","6","6","1","1","sheep","animals","2","1","","bad","[-5]"
"html-keyboard-response","219","735375","0.0-11.0-2.0-0.15","3851","1","15","Female","approach_avoid_spark_v1","""event"",""trial"",""time""
""fullscreenenter"",""1"",""2141""
","
","
","""event"",""trial"",""time""
""fullscreenenter"",""1"",""2141""
","
","","","","","","null","<div style=""font-size:60px;"">+</div>","null","","fixation","","","","","","","","","","",""
"aa-learning-trial","220","738384","0.0-11.0-2.0-1.15","3851","1","15","Female","approach_avoid_spark_v1","""event"",""trial"",""time""
""fullscreenenter"",""1"",""2141""
","
","
","""event"",""trial"",""time""
""fullscreenenter"",""1"",""2141""
","
","","","","","","508.90000000596046","images/horse6.png","","","learning","-2","0","0","0","horse","animals","2","1","","neutral","0"
"html-keyboard-response","221","738887","0.0-11.0-2.0-0.16","3851","1","15","Female","approach_avoid_spark_v1","""event"",""trial"",""time""
""fullscreenenter"",""1"",""2141""
","
","
","""event"",""trial"",""time""
""fullscreenenter"",""1"",""2141""
","
","","","","","","null","<div style=""font-size:60px;"">+</div>","null","","fixation","","","","","","","","","","",""
"aa-learning-trial","222","741895","0.0-11.0-2.0-1.16","3851","1","15","Female","approach_avoid_spark_v1","""event"",""trial"",""time""
""fullscreenenter"",""1"",""2141""
","
","
","""event"",""trial"",""time""
""fullscreenenter"",""1"",""2141""
","
","","","","","","477.8999999985099","images/goat6.png","","","learning","-8","0","0","0","goat","animals","2","1","","good","[4]"
"html-keyboard-response","223","742399","0.0-11.0-2.0-0.17","3851","1","15","Female","approach_avoid_spark_v1","""event"",""trial"",""time""
""fullscreenenter"",""1"",""2141""
","
","
","""event"",""trial"",""time""
""fullscreenenter"",""1"",""2141""
","
","","","","","","null","<div style=""font-size:60px;"">+</div>","null","","fixation","","","","","","","","","","",""
"aa-learning-trial","224","745407","0.0-11.0-2.0-1.17","3851","1","15","Female","approach_avoid_spark_v1","""event"",""trial"",""time""
""fullscreenenter"",""1"",""2141""
","
","
","""event"",""trial"",""time""
""fullscreenenter"",""1"",""2141""
","
","","","","","","501.59999999403954","images/goat8.png","","","learning","-3","0","0","0","goat","animals","2","1","","good","[4]"
"html-keyboard-response","225","745911","0.0-11.0-2.0-0.18","3851","1","15","Female","approach_avoid_spark_v1","""event"",""trial"",""time""
""fullscreenenter"",""1"",""2141""
","
","
","""event"",""trial"",""time""
""fullscreenenter"",""1"",""2141""
","
","","","","","","null","<div style=""font-size:60px;"">+</div>","null","","fixation","","","","","","","","","","",""
"aa-learning-trial","226","748919","0.0-11.0-2.0-1.18","3851","1","15","Female","approach_avoid_spark_v1","""event"",""trial"",""time""
""fullscreenenter"",""1"",""2141""
","
","
","""event"",""trial"",""time""
""fullscreenenter"",""1"",""2141""
","
","","","","","","669.2000000029802","images/sheep5.png","","","learning","-9","-9","1","1","sheep","animals","2","1","","bad","[-5]"
"html-keyboard-response","227","749423","0.0-11.0-2.0-0.19","3851","1","15","Female","approach_avoid_spark_v1","""event"",""trial"",""time""
""fullscreenenter"",""1"",""2141""
","
","
","""event"",""trial"",""time""
""fullscreenenter"",""1"",""2141""
","
","","","","","","null","<div style=""font-size:60px;"">+</div>","null","","fixation","","","","","","","","","","",""
"aa-learning-trial","228","752431","0.0-11.0-2.0-1.19","3851","1","15","Female","approach_avoid_spark_v1","""event"",""trial"",""time""
""fullscreenenter"",""1"",""2141""
","
","
","""event"",""trial"",""time""
""fullscreenenter"",""1"",""2141""
","
","","","","","","558.6000000014901","images/sheep4.png","","","learning","3","3","1","1","sheep","animals","2","1","","bad","[-5]"
"html-keyboard-response","229","752935","0.0-11.0-2.0-0.20","3851","1","15","Female","approach_avoid_spark_v1","""event"",""trial"",""time""
""fullscreenenter"",""1"",""2141""
","
","
","""event"",""trial"",""time""
""fullscreenenter"",""1"",""2141""
","
","","","","","","null","<div style=""font-size:60px;"">+</div>","null","","fixation","","","","","","","","","","",""
"aa-learning-trial","230","755943","0.0-11.0-2.0-1.20","3851","1","15","Female","approach_avoid_spark_v1","""event"",""trial"",""time""
""fullscreenenter"",""1"",""2141""
","
","
","""event"",""trial"",""time""
""fullscreenenter"",""1"",""2141""
","
","","","","","","538.7000000029802","images/sheep7.png","","","learning","6","6","1","1","sheep","animals","2","1","","bad","[-5]"
"html-keyboard-response","231","756447","0.0-11.0-2.0-0.21","3851","1","15","Female","approach_avoid_spark_v1","""event"",""trial"",""time""
""fullscreenenter"",""1"",""2141""
","
","
","""event"",""trial"",""time""
""fullscreenenter"",""1"",""2141""
","
","","","","","","null","<div style=""font-size:60px;"">+</div>","null","","fixation","","","","","","","","","","",""
"aa-learning-trial","232","759455","0.0-11.0-2.0-1.21","3851","1","15","Female","approach_avoid_spark_v1","""event"",""trial"",""time""
""fullscreenenter"",""1"",""2141""
","
","
","""event"",""trial"",""time""
""fullscreenenter"",""1"",""2141""
","
","","","","","","550.6000000014901","images/sheep7.png","","","learning","6","6","1","1","sheep","animals","2","1","","bad","[-5]"
"html-keyboard-response","233","759959","0.0-11.0-2.0-0.22","3851","1","15","Female","approach_avoid_spark_v1","""event"",""trial"",""time""
""fullscreenenter"",""1"",""2141""
","
","
","""event"",""trial"",""time""
""fullscreenenter"",""1"",""2141""
","
","","","","","","null","<div style=""font-size:60px;"">+</div>","null","","fixation","","","","","","","","","","",""
"aa-learning-trial","234","762967","0.0-11.0-2.0-1.22","3851","1","15","Female","approach_avoid_spark_v1","""event"",""trial"",""time""
""fullscreenenter"",""1"",""2141""
","
","
","""event"",""trial"",""time""
""fullscreenenter"",""1"",""2141""
","
","","","","","","505.30000000447035","images/horse5.png","","","learning","4","0","0","0","horse","animals","2","1","","neutral","0"
"html-keyboard-response","235","763471","0.0-11.0-2.0-0.23","3851","1","15","Female","approach_avoid_spark_v1","""event"",""trial"",""time""
""fullscreenenter"",""1"",""2141""
","
","
","""event"",""trial"",""time""
""fullscreenenter"",""1"",""2141""
","
","","","","","","null","<div style=""font-size:60px;"">+</div>","null","","fixation","","","","","","","","","","",""
"aa-learning-trial","236","766479","0.0-11.0-2.0-1.23","3851","1","15","Female","approach_avoid_spark_v1","""event"",""trial"",""time""
""fullscreenenter"",""1"",""2141""
","
","
","""event"",""trial"",""time""
""fullscreenenter"",""1"",""2141""
","
","","","","","","564.6000000014901","images/horse7.png","","","learning","7","7","1","1","horse","animals","2","1","","neutral","0"
