"trial_type","trial_index","time_elapsed","internal_node_id","subject_id","task_condition","age","gender","task_version","interactions","blur_events","focus_events","fullscreenenter_events","fullscreenexit_events","success","timeout","failed_images","failed_audio","failed_video","rt","stimulus","response","button_pressed","task_part","approach_reward","points","key_press","option_selected","stim_cat","task_block","block_condition","block_number","correct","cat_type","mean_cat_reward"
"pavlovia","0","6","0.0-0.0","5193","1","16","Female","approach_avoid_spark_v1","""event"",""trial"",""time""
""fullscreenenter"",""1"",""3671""
","
","
","""event"",""trial"",""time""
""fullscreenenter"",""1"",""3671""
","
","","","","","","","","","","","","","","","","","","","","",""
"fullscreen","1","4663","0.0-1.0","5193","1","16","Female","approach_avoid_spark_v1","""event"",""trial"",""time""
""fullscreenenter"",""1"",""3671""
","
","
","""event"",""trial"",""time""
""fullscreenenter"",""1"",""3671""
","
","true","","","","","","","","","","","","","","","","","","","",""
"preload","2","33904","0.0-2.0","5193","1","16","Female","approach_avoid_spark_v1","""event"",""trial"",""time""
""fullscreenenter"",""1"",""3671""
","
","
","""event"",""trial"",""time""
""fullscreenenter"",""1"",""3671""
","
","true","false","[]","[]","[]","","","","","","","","","","","","","","","",""
"audio-keyboard-response","3","38461","0.0-3.0","5193","1","16","Female","approach_avoid_spark_v1","""event"",""trial"",""time""
""fullscreenenter"",""1"",""3671""
","
","
","""event"",""trial"",""time""
""fullscreenenter"",""1"",""3671""
","
","","","","","","4545.306122448981","audio/beep_loop.wav"," ","","","","","","","","","","","","",""
"audio-button-response","4","64266","0.0-4.0","5193","1","16","Female","approach_avoid_spark_v1","""event"",""trial"",""time""
""fullscreenenter"",""1"",""3671""
","
","
","""event"",""trial"",""time""
""fullscreenenter"",""1"",""3671""
","
","","","","","","25803","audio/shark.wav","4","","","","","","","","","","","","",""
"audio-button-response","5","66541","0.0-5.0","5193","1","16","Female","approach_avoid_spark_v1","""event"",""trial"",""time""
""fullscreenenter"",""1"",""3671""
","
","
","""event"",""trial"",""time""
""fullscreenenter"",""1"",""3671""
","
","","","","","","1271","audio/turtle.wav","1","","","","","","","","","","","","",""
"preload","6","77103","0.0-6.0","5193","1","16","Female","approach_avoid_spark_v1","""event"",""trial"",""time""
""fullscreenenter"",""1"",""3671""
","
","
","""event"",""trial"",""time""
""fullscreenenter"",""1"",""3671""
","
","true","false","[]","[]","[]","","","","","","","","","","","","","","","",""
"html-keyboard-response","7","83966","0.0-7.0","5193","1","16","Female","approach_avoid_spark_v1","""event"",""trial"",""time""
""fullscreenenter"",""1"",""3671""
","
","
","""event"",""trial"",""time""
""fullscreenenter"",""1"",""3671""
","
","","","","","","6860.699999988079","Welcome to the experiment. Press any key to begin and to advance the instructions."," ","","","","","","","","","","","","",""
"learning-instructions","8","92180","0.0-8.0-0.0-0.0","5193","1","16","Female","approach_avoid_spark_v1","""event"",""trial"",""time""
""fullscreenenter"",""1"",""3671""
","
","
","""event"",""trial"",""time""
""fullscreenenter"",""1"",""3671""
","
","","","","","","1257.9000000059605","<p> Welcome! Today you are going to play 6 different rounds of a decision-making game. </p><p> Use the mouse to click next to continue. </p>","","0","instructions","","","","","","","","","","",""
"learning-instructions","9","95740","0.0-8.0-0.0-0.1","5193","1","16","Female","approach_avoid_spark_v1","""event"",""trial"",""time""
""fullscreenenter"",""1"",""3671""
","
","
","""event"",""trial"",""time""
""fullscreenenter"",""1"",""3671""
","
","","","","","","836.8999999761581","<p> You will start with a practice round to learn the rules. </p>","","0","instructions","","","","","","","","","","",""
"learning-instructions","10","99670","0.0-8.0-0.0-0.2","5193","1","16","Female","approach_avoid_spark_v1","""event"",""trial"",""time""
""fullscreenenter"",""1"",""3671""
","
","
","""event"",""trial"",""time""
""fullscreenenter"",""1"",""3671""
","
","","","","","","488.2000000178814","<p> Your goal in this round is to give out sports equipment to kids. </p></div>","","0","instructions","","","","","","","","","","",""
"learning-instructions","11","107957","0.0-8.0-0.0-0.3","5193","1","16","Female","approach_avoid_spark_v1","""event"",""trial"",""time""
""fullscreenenter"",""1"",""3671""
","
","
","""event"",""trial"",""time""
""fullscreenenter"",""1"",""3671""
","
","","","","","","729.4000000059605","<p> The kids only like some of the equipment.  </p><p> On each turn, you will see a piece of sports equipment.   </p><p> You need to decide whether to give it to the kids or not.  </p>","","0","instructions","","","","","","","","","","",""
"learning-instructions","12","113381","0.0-8.0-0.0-0.4","5193","1","16","Female","approach_avoid_spark_v1","""event"",""trial"",""time""
""fullscreenenter"",""1"",""3671""
","
","
","""event"",""trial"",""time""
""fullscreenenter"",""1"",""3671""
","
","","","","","","677.7999999821186","<p> You can give them the equipment by pressing 1 and choose not to give it to them by pressing 0. </p><br><div class=""choice-instructions-grid""> <div class=""choice-option""><img src=""images/approach.png"" class=""choice-option-img"" stage=""instructions"" position=""0"" ><div class=""choice-option-text""> Press ""1."" </div></div><div class=""choice-option""><img src=""images/avoid.png"" class=""choice-option-img"" stage=""instructions"" position=""1"" ><div class=""choice-option-text""> Press ""0."" </div></div>","","0","instructions","","","","","","","","","","",""
"learning-instructions","13","121699","0.0-8.0-0.0-0.5","5193","1","16","Female","approach_avoid_spark_v1","""event"",""trial"",""time""
""fullscreenenter"",""1"",""3671""
","
","
","""event"",""trial"",""time""
""fullscreenenter"",""1"",""3671""
","
","","","","","","939.4000000059605","<p> If you give them a piece of equipment they like, they will be happy! </p><p> But if you give them a piece of equipment they do not like, they will be sad. </p>","","0","instructions","","","","","","","","","","",""
"learning-instructions","14","132814","0.0-8.0-0.0-0.6","5193","1","16","Female","approach_avoid_spark_v1","""event"",""trial"",""time""
""fullscreenenter"",""1"",""3671""
","
","
","""event"",""trial"",""time""
""fullscreenenter"",""1"",""3671""
","
","","","","","","612.2999999821186","<p> You will earn points based on how you make kids feel. </p><p> If you make them happy, you will WIN anywhere from 1 - 9 points, </p><p> but if you make them sad, you will LOSE anywhere from 1 - 9 points. </p>","","0","instructions","","","","","","","","","","",""
"learning-instructions","15","142878","0.0-8.0-0.0-0.7","5193","1","16","Female","approach_avoid_spark_v1","""event"",""trial"",""time""
""fullscreenenter"",""1"",""3671""
","
","
","""event"",""trial"",""time""
""fullscreenenter"",""1"",""3671""
","
","","","","","","510.90000000596046","<p> You will see how many points you won or lost in the center of the screen. </p><p> Here is what you would see if you won 6 points: </p><p style=""color:green;font-size:50px;font-weight:bolder"">6</p><p style=""color:green"">The text is GREEN because you WON points.</p>","","0","instructions","","","","","","","","","","",""
"learning-instructions","16","148851","0.0-8.0-0.0-0.8","5193","1","16","Female","approach_avoid_spark_v1","""event"",""trial"",""time""
""fullscreenenter"",""1"",""3671""
","
","
","""event"",""trial"",""time""
""fullscreenenter"",""1"",""3671""
","
","","","","","","469.90000000596046","<p> And here is what you would see if you lost 4 points: </p><p style=""color:red;font-size:50px;font-weight:bolder"">-4</p><p style=""color:red"">The text is RED because you LOST points. </p>","","0","instructions","","","","","","","","","","",""
"learning-instructions","17","164331","0.0-8.0-0.0-0.9","5193","1","16","Female","approach_avoid_spark_v1","""event"",""trial"",""time""
""fullscreenenter"",""1"",""3671""
","
","
","""event"",""trial"",""time""
""fullscreenenter"",""1"",""3671""
","
","","","","","","775.8000000119209","<p> Some of the equipment will make the kids VERY happy or sad. </p><p> These pieces of equipment will make you win or lose LOTS of points. </p><p> Other pieces of equipment will only make the kids a little happy or sad. </p><p> These pieces of equipment will make you win or lose small amounts of points. </p>","","0","instructions","","","","","","","","","","",""
"learning-instructions","18","178523","0.0-8.0-0.0-0.10","5193","1","16","Female","approach_avoid_spark_v1","""event"",""trial"",""time""
""fullscreenenter"",""1"",""3671""
","
","
","""event"",""trial"",""time""
""fullscreenenter"",""1"",""3671""
","
","","","","","","3571.5999999940395","<p> If you choose not to give them the equipment, you will not win or lose any points. </p><p>  However, in the center of the screen, you will see the number of points you WOULD HAVE won or lost if you had given them the equipment. </p>","","0","instructions","","","","","","","","","","",""
"learning-instructions","19","201993","0.0-8.0-0.0-0.11","5193","1","16","Female","approach_avoid_spark_v1","""event"",""trial"",""time""
""fullscreenenter"",""1"",""3671""
","
","
","""event"",""trial"",""time""
""fullscreenenter"",""1"",""3671""
","
","","","","","","1946.699999988079","<p> Here is what you might see if you did not give the equipment to the kids but it would have made them happy: </p><p style=""color:grey; font-size:50px; display: inline-block; border-spacing: 15px; border-width:3px; border-style:solid; border-color:red"">  &nbsp; 7 &nbsp; </p><p> Remember, in this case, you would not win or lose ANY points because you did not give them the equipment.  </p><p style=""color:grey"">The text is GREY because you earned ZERO points. </p><p style=""color:red"">However, choosing to give the kids the equipment would have made you win points. The box around the text is RED because you chose the worse option. </p>","","0","instructions","","","","","","","","","","",""
"learning-instructions","20","224071","0.0-8.0-0.0-0.12","5193","1","16","Female","approach_avoid_spark_v1","""event"",""trial"",""time""
""fullscreenenter"",""1"",""3671""
","
","
","""event"",""trial"",""time""
""fullscreenenter"",""1"",""3671""
","
","","","","","","1007","<p> Here is what you might see if you did not give the equipment to the kids but it would have made them sad: </p><p style=""color:grey;font-size:50px; display: inline-block; border-spacing: 15px; border-width:3px; border-style:solid; border-color:green"">  &nbsp; -8 &nbsp; </p><p> Remember, in this case, you would not win or lose ANY points because you did not give them the equipment.  </p><p style=""color:grey"">The text is GREY because you earned ZERO points. </p><p  style=""color:green""> Choosing to give the kids the equipment would have made you lose points. The box around the text is GREEN because you chose the better option.</p>","","0","instructions","","","","","","","","","","",""
"learning-instructions","21","234488","0.0-8.0-0.0-0.13","5193","1","16","Female","approach_avoid_spark_v1","""event"",""trial"",""time""
""fullscreenenter"",""1"",""3671""
","
","
","""event"",""trial"",""time""
""fullscreenenter"",""1"",""3671""
","
","","","","","","823.3000000119209","<p> You will have 3 seconds to make each choice. Try to respond before time runs out! </p><p> You will lose 5 points each time you do not make a response. </p>","","0","instructions","","","","","","","","","","",""
"learning-instructions","22","240716","0.0-8.0-0.0-0.14","5193","1","16","Female","approach_avoid_spark_v1","""event"",""trial"",""time""
""fullscreenenter"",""1"",""3671""
","
","
","""event"",""trial"",""time""
""fullscreenenter"",""1"",""3671""
","
","","","","","","823.1000000238419","<p> This is just a practice round, but in the real game, your bonus payment will depend on your total number of points.","","0","instructions","","","","","","","","","","",""
"learning-instructions","23","247055","0.0-8.0-0.0-0.15","5193","1","16","Female","approach_avoid_spark_v1","""event"",""trial"",""time""
""fullscreenenter"",""1"",""3671""
","
","
","""event"",""trial"",""time""
""fullscreenenter"",""1"",""3671""
","
","","","","","","583.0999999940395","<p> Remember, you can give them the equipment by pressing 1 and choose not to give it to them by pressing 0. </p><br><div class=""choice-instructions-grid""> <div class=""choice-option""><img src=""images/approach.png"" class=""choice-option-img"" stage=""instructions"" position=""0"" ><div class=""choice-option-text""> Press ""1."" </div></div><div class=""choice-option""><img src=""images/avoid.png"" class=""choice-option-img"" stage=""instructions"" position=""1"" ><div class=""choice-option-text""> Press ""0."" </div></div>","","0","instructions","","","","","","","","","","",""
"html-button-response","24","248809","0.0-8.0-1.0","5193","1","16","Female","approach_avoid_spark_v1","""event"",""trial"",""time""
""fullscreenenter"",""1"",""3671""
","
","
","""event"",""trial"",""time""
""fullscreenenter"",""1"",""3671""
","
","","","","","","1651.2000000178814","<p> Ready to practice? </p>","0","","","","","","","","","","","","",""
"html-keyboard-response","25","249410","0.0-8.0-2.0-0.0","5193","1","16","Female","approach_avoid_spark_v1","""event"",""trial"",""time""
""fullscreenenter"",""1"",""3671""
","
","
","""event"",""trial"",""time""
""fullscreenenter"",""1"",""3671""
","
","","","","","","null","<div style=""font-size:60px;"">+</div>","null","","fixation","","","","","","","","","","",""
"aa-learning-trial","26","252424","0.0-8.0-2.0-1.0","5193","1","16","Female","approach_avoid_spark_v1","""event"",""trial"",""time""
""fullscreenenter"",""1"",""3671""
","
","
","""event"",""trial"",""time""
""fullscreenenter"",""1"",""3671""
","
","","","","","","1786","images/ball3.png","","","learning","-9","-9","1","1","practice","practice","practice","-1","","",""
"html-keyboard-response","27","252925","0.0-8.0-2.0-0.1","5193","1","16","Female","approach_avoid_spark_v1","""event"",""trial"",""time""
""fullscreenenter"",""1"",""3671""
","
","
","""event"",""trial"",""time""
""fullscreenenter"",""1"",""3671""
","
","","","","","","null","<div style=""font-size:60px;"">+</div>","null","","fixation","","","","","","","","","","",""
"aa-learning-trial","28","255928","0.0-8.0-2.0-1.1","5193","1","16","Female","approach_avoid_spark_v1","""event"",""trial"",""time""
""fullscreenenter"",""1"",""3671""
","
","
","""event"",""trial"",""time""
""fullscreenenter"",""1"",""3671""
","
","","","","","","1590","images/ball1.png","","","learning","-1","0","0","0","practice","practice","practice","-1","","",""
"html-keyboard-response","29","256431","0.0-8.0-2.0-0.2","5193","1","16","Female","approach_avoid_spark_v1","""event"",""trial"",""time""
""fullscreenenter"",""1"",""3671""
","
","
","""event"",""trial"",""time""
""fullscreenenter"",""1"",""3671""
","
","","","","","","null","<div style=""font-size:60px;"">+</div>","null","","fixation","","","","","","","","","","",""
"aa-learning-trial","30","259434","0.0-8.0-2.0-1.2","5193","1","16","Female","approach_avoid_spark_v1","""event"",""trial"",""time""
""fullscreenenter"",""1"",""3671""
","
","
","""event"",""trial"",""time""
""fullscreenenter"",""1"",""3671""
","
","","","","","","1802.5","images/racket3.png","","","learning","4","0","0","0","practice","practice","practice","-1","","",""
"html-keyboard-response","31","259938","0.0-8.0-2.0-0.3","5193","1","16","Female","approach_avoid_spark_v1","""event"",""trial"",""time""
""fullscreenenter"",""1"",""3671""
","
","
","""event"",""trial"",""time""
""fullscreenenter"",""1"",""3671""
","
","","","","","","null","<div style=""font-size:60px;"">+</div>","null","","fixation","","","","","","","","","","",""
"aa-learning-trial","32","262941","0.0-8.0-2.0-1.3","5193","1","16","Female","approach_avoid_spark_v1","""event"",""trial"",""time""
""fullscreenenter"",""1"",""3671""
","
","
","""event"",""trial"",""time""
""fullscreenenter"",""1"",""3671""
","
","","","","","","1413.300000011921","images/ball1.png","","","learning","3","3","1","1","practice","practice","practice","-1","","",""
"html-keyboard-response","33","263442","0.0-8.0-2.0-0.4","5193","1","16","Female","approach_avoid_spark_v1","""event"",""trial"",""time""
""fullscreenenter"",""1"",""3671""
","
","
","""event"",""trial"",""time""
""fullscreenenter"",""1"",""3671""
","
","","","","","","null","<div style=""font-size:60px;"">+</div>","null","","fixation","","","","","","","","","","",""
"aa-learning-trial","34","266447","0.0-8.0-2.0-1.4","5193","1","16","Female","approach_avoid_spark_v1","""event"",""trial"",""time""
""fullscreenenter"",""1"",""3671""
","
","
","""event"",""trial"",""time""
""fullscreenenter"",""1"",""3671""
","
","","","","","","1248.300000011921","images/racket1.png","","","learning","5","5","1","1","practice","practice","practice","-1","","",""
"html-keyboard-response","35","266950","0.0-8.0-2.0-0.5","5193","1","16","Female","approach_avoid_spark_v1","""event"",""trial"",""time""
""fullscreenenter"",""1"",""3671""
","
","
","""event"",""trial"",""time""
""fullscreenenter"",""1"",""3671""
","
","","","","","","null","<div style=""font-size:60px;"">+</div>","null","","fixation","","","","","","","","","","",""
"aa-learning-trial","36","269953","0.0-8.0-2.0-1.5","5193","1","16","Female","approach_avoid_spark_v1","""event"",""trial"",""time""
""fullscreenenter"",""1"",""3671""
","
","
","""event"",""trial"",""time""
""fullscreenenter"",""1"",""3671""
","
","","","","","","2822.300000011921","images/racket3.png","","","learning","-5","0","0","0","practice","practice","practice","-1","","",""
"html-keyboard-response","37","270455","0.0-8.0-2.0-0.6","5193","1","16","Female","approach_avoid_spark_v1","""event"",""trial"",""time""
""fullscreenenter"",""1"",""3671""
","
","
","""event"",""trial"",""time""
""fullscreenenter"",""1"",""3671""
","
","","","","","","null","<div style=""font-size:60px;"">+</div>","null","","fixation","","","","","","","","","","",""
"aa-learning-trial","38","273458","0.0-8.0-2.0-1.6","5193","1","16","Female","approach_avoid_spark_v1","""event"",""trial"",""time""
""fullscreenenter"",""1"",""3671""
","
","
","""event"",""trial"",""time""
""fullscreenenter"",""1"",""3671""
","
","","","","","","1963.699999988079","images/racket2.png","","","learning","1","1","1","1","practice","practice","practice","-1","","",""
"html-keyboard-response","39","273960","0.0-8.0-2.0-0.7","5193","1","16","Female","approach_avoid_spark_v1","""event"",""trial"",""time""
""fullscreenenter"",""1"",""3671""
","
","
","""event"",""trial"",""time""
""fullscreenenter"",""1"",""3671""
","
","","","","","","null","<div style=""font-size:60px;"">+</div>","null","","fixation","","","","","","","","","","",""
"aa-learning-trial","40","276966","0.0-8.0-2.0-1.7","5193","1","16","Female","approach_avoid_spark_v1","""event"",""trial"",""time""
""fullscreenenter"",""1"",""3671""
","
","
","""event"",""trial"",""time""
""fullscreenenter"",""1"",""3671""
","
","","","","","","679.3999999761581","images/racket2.png","","","learning","5","5","1","1","practice","practice","practice","-1","","",""
"html-keyboard-response","41","277471","0.0-8.0-2.0-0.8","5193","1","16","Female","approach_avoid_spark_v1","""event"",""trial"",""time""
""fullscreenenter"",""1"",""3671""
","
","
","""event"",""trial"",""time""
""fullscreenenter"",""1"",""3671""
","
","","","","","","null","<div style=""font-size:60px;"">+</div>","null","","fixation","","","","","","","","","","",""
"aa-learning-trial","42","280478","0.0-8.0-2.0-1.8","5193","1","16","Female","approach_avoid_spark_v1","""event"",""trial"",""time""
""fullscreenenter"",""1"",""3671""
","
","
","""event"",""trial"",""time""
""fullscreenenter"",""1"",""3671""
","
","","","","","","1149","images/racket4.png","","","learning","2","2","1","1","practice","practice","practice","-1","","",""
"html-keyboard-response","43","280984","0.0-8.0-2.0-0.9","5193","1","16","Female","approach_avoid_spark_v1","""event"",""trial"",""time""
""fullscreenenter"",""1"",""3671""
","
","
","""event"",""trial"",""time""
""fullscreenenter"",""1"",""3671""
","
","","","","","","null","<div style=""font-size:60px;"">+</div>","null","","fixation","","","","","","","","","","",""
"aa-learning-trial","44","283990","0.0-8.0-2.0-1.9","5193","1","16","Female","approach_avoid_spark_v1","""event"",""trial"",""time""
""fullscreenenter"",""1"",""3671""
","
","
","""event"",""trial"",""time""
""fullscreenenter"",""1"",""3671""
","
","","","","","","769.5999999940395","images/ball1.png","","","learning","7","7","1","1","practice","practice","practice","-1","","",""
"html-keyboard-response","45","284495","0.0-8.0-2.0-0.10","5193","1","16","Female","approach_avoid_spark_v1","""event"",""trial"",""time""
""fullscreenenter"",""1"",""3671""
","
","
","""event"",""trial"",""time""
""fullscreenenter"",""1"",""3671""
","
","","","","","","null","<div style=""font-size:60px;"">+</div>","null","","fixation","","","","","","","","","","",""
"aa-learning-trial","46","287498","0.0-8.0-2.0-1.10","5193","1","16","Female","approach_avoid_spark_v1","""event"",""trial"",""time""
""fullscreenenter"",""1"",""3671""
","
","
","""event"",""trial"",""time""
""fullscreenenter"",""1"",""3671""
","
","","","","","","542.4000000059605","images/ball1.png","","","learning","-1","-1","1","1","practice","practice","practice","-1","","",""
"html-keyboard-response","47","288001","0.0-8.0-2.0-0.11","5193","1","16","Female","approach_avoid_spark_v1","""event"",""trial"",""time""
""fullscreenenter"",""1"",""3671""
","
","
","""event"",""trial"",""time""
""fullscreenenter"",""1"",""3671""
","
","","","","","","null","<div style=""font-size:60px;"">+</div>","null","","fixation","","","","","","","","","","",""
"aa-learning-trial","48","291008","0.0-8.0-2.0-1.11","5193","1","16","Female","approach_avoid_spark_v1","""event"",""trial"",""time""
""fullscreenenter"",""1"",""3671""
","
","
","""event"",""trial"",""time""
""fullscreenenter"",""1"",""3671""
","
","","","","","","701.7999999821186","images/racket1.png","","","learning","6","0","0","0","practice","practice","practice","-1","","",""
"html-button-response","49","303359","0.0-8.0-3.0","5193","1","16","Female","approach_avoid_spark_v1","""event"",""trial"",""time""
""fullscreenenter"",""1"",""3671""
","
","
","""event"",""trial"",""time""
""fullscreenenter"",""1"",""3671""
","
","","","","","","12340.90000000596","<p> You earned 13 points in the practice round! </p>","0","","break","","","","","","","","","","",""
"learning-instructions","50","310630","0.0-8.0-4.0-0.0","5193","1","16","Female","approach_avoid_spark_v1","""event"",""trial"",""time""
""fullscreenenter"",""1"",""3671""
","
","
","""event"",""trial"",""time""
""fullscreenenter"",""1"",""3671""
","
","","","","","","1212.7999999821186","<p> It's almost time to start the real game. </p><p> Before you start, we're going to ask you a few questions about how the game works. </p>","","0","instructions","","","","","","","","","","",""
"preload","51","312948","0.0-8.0-5.0","5193","1","16","Female","approach_avoid_spark_v1","""event"",""trial"",""time""
""fullscreenenter"",""1"",""3671""
","
","
","""event"",""trial"",""time""
""fullscreenenter"",""1"",""3671""
","
","true","false","[]","[]","[]","","","","","","","","","","","","","","","",""
"comp-q","52","318844","0.0-8.0-6.0-0.0","5193","1","16","Female","approach_avoid_spark_v1","""event"",""trial"",""time""
""fullscreenenter"",""1"",""3671""
","
","
","""event"",""trial"",""time""
""fullscreenenter"",""1"",""3671""
","
","","","","","","902.2000000178814","<p> <b> True or False? </b> </p><p> If you see a number in GREY, that means you earned that many points. </p>","","1","comp_question","","","","","","","","","true","",""
"comp-q","53","328671","0.0-8.0-6.0-1.0","5193","1","16","Female","approach_avoid_spark_v1","""event"",""trial"",""time""
""fullscreenenter"",""1"",""3671""
","
","
","""event"",""trial"",""time""
""fullscreenenter"",""1"",""3671""
","
","","","","","","1472.5999999940395","<p><b> That's right! </b> If you see a grey number, it means you earned ZERO points. <br> The grey numbers show the points you WOULD HAVE earned if you had made the other choice. </p>","","0","comp_answer","","","","","","","","","","",""
"comp-q","54","333946","0.0-8.0-7.0-0.0","5193","1","16","Female","approach_avoid_spark_v1","""event"",""trial"",""time""
""fullscreenenter"",""1"",""3671""
","
","
","""event"",""trial"",""time""
""fullscreenenter"",""1"",""3671""
","
","","","","","","576.5999999940395","<p> <b> True or False? </b> </p><p> You will have as much time as you want to make each choice. </p>","","1","comp_question","","","","","","","","","true","",""
"comp-q","55","339437","0.0-8.0-7.0-1.0","5193","1","16","Female","approach_avoid_spark_v1","""event"",""trial"",""time""
""fullscreenenter"",""1"",""3671""
","
","
","""event"",""trial"",""time""
""fullscreenenter"",""1"",""3671""
","
","","","","","","1452.4000000059605","<p> <b> That's right! </b> You will only have 3 seconds to make each choice. </p>","","0","comp_answer","","","","","","","","","","",""
"comp-q","56","344545","0.0-8.0-8.0-0.0","5193","1","16","Female","approach_avoid_spark_v1","""event"",""trial"",""time""
""fullscreenenter"",""1"",""3671""
","
","
","""event"",""trial"",""time""
""fullscreenenter"",""1"",""3671""
","
","","","","","","452.80000001192093","<p> <b> True or False? </b> </p><p> You should use the '1' and '0' keys to make your choices. </p>","","0","comp_question","","","","","","","","","true","",""
"comp-q","57","350204","0.0-8.0-8.0-1.0","5193","1","16","Female","approach_avoid_spark_v1","""event"",""trial"",""time""
""fullscreenenter"",""1"",""3671""
","
","
","""event"",""trial"",""time""
""fullscreenenter"",""1"",""3671""
","
","","","","","","1055.5","<p> <b> That's right! </b> You should use the '1' and '0' keys to make each choice. </p>","","0","comp_answer","","","","","","","","","","",""
"learning-instructions","58","358028","0.0-8.0-9.0-0.0","5193","1","16","Female","approach_avoid_spark_v1","""event"",""trial"",""time""
""fullscreenenter"",""1"",""3671""
","
","
","""event"",""trial"",""time""
""fullscreenenter"",""1"",""3671""
","
","","","","","","1559.5999999940395","<p> It's now time to start the real game. </p>Do your best, because the points you earn in the next rounds will influence your bonus payment. </p>","","0","instructions","","","","","","","","","","",""
"preload","59","358149","0.0-9.0-0.0","5193","1","16","Female","approach_avoid_spark_v1","""event"",""trial"",""time""
""fullscreenenter"",""1"",""3671""
","
","
","""event"",""trial"",""time""
""fullscreenenter"",""1"",""3671""
","
","true","false","[]","[]","[]","","","","","","","","","","","","","","","",""
"learning-instructions","60","363793","0.0-9.0-1.0-0.0","5193","1","16","Female","approach_avoid_spark_v1","""event"",""trial"",""time""
""fullscreenenter"",""1"",""3671""
","
","
","""event"",""trial"",""time""
""fullscreenenter"",""1"",""3671""
","
","","","","","","1002.6000000238419","<p> Your goal in this round is to take care of lots of farm animals. </p></div>","","0","instructions","","","","","","","","","","",""
"learning-instructions","61","375872","0.0-9.0-1.0-0.1","5193","1","16","Female","approach_avoid_spark_v1","""event"",""trial"",""time""
""fullscreenenter"",""1"",""3671""
","
","
","""event"",""trial"",""time""
""fullscreenenter"",""1"",""3671""
","
","","","","","","1715.800000011921","<p> Some farm animals are hungry, while other farm animals are already full.  </p><p> On each turn, you will see a farm animal.   </p><p> You need to decide whether to feed it or not.  </p>","","0","instructions","","","","","","","","","","",""
"learning-instructions","62","383680","0.0-9.0-1.0-0.2","5193","1","16","Female","approach_avoid_spark_v1","""event"",""trial"",""time""
""fullscreenenter"",""1"",""3671""
","
","
","""event"",""trial"",""time""
""fullscreenenter"",""1"",""3671""
","
","","","","","","1662.5999999940395","<p> You can feed the farm animal by pressing 1 and leave the farm animal alone by pressing 0. </p><br><div class=""choice-instructions-grid""> <div class=""choice-option""><img src=""images/approach.png"" class=""choice-option-img"" stage=""instructions"" position=""0"" ><div class=""choice-option-text""> Press ""1."" </div></div><div class=""choice-option""><img src=""images/avoid.png"" class=""choice-option-img"" stage=""instructions"" position=""1"" ><div class=""choice-option-text""> Press ""0."" </div></div>","","0","instructions","","","","","","","","","","",""
"learning-instructions","63","398834","0.0-9.0-1.0-0.3","5193","1","16","Female","approach_avoid_spark_v1","""event"",""trial"",""time""
""fullscreenenter"",""1"",""3671""
","
","
","""event"",""trial"",""time""
""fullscreenenter"",""1"",""3671""
","
","","","","","","969.3000000119209","<p> If you feed a hungry farm animal, you will make it feel satisfied! </p><p> But if you feed the farm animal and it was already full, you will make it feel sick. </p>","","0","instructions","","","","","","","","","","",""
"learning-instructions","64","413467","0.0-9.0-1.0-0.4","5193","1","16","Female","approach_avoid_spark_v1","""event"",""trial"",""time""
""fullscreenenter"",""1"",""3671""
","
","
","""event"",""trial"",""time""
""fullscreenenter"",""1"",""3671""
","
","","","","","","1123.7999999821186","<p> You will earn points based on how you made the farm animal feel. </p><p> If you made it satisfied, you will WIN anywhere from 1 - 9 points, </p><p> but if you made it sick, you will LOSE anywhere from 1 - 9 points. </p>","","0","instructions","","","","","","","","","","",""
"learning-instructions","65","421955","0.0-9.0-1.0-0.5","5193","1","16","Female","approach_avoid_spark_v1","""event"",""trial"",""time""
""fullscreenenter"",""1"",""3671""
","
","
","""event"",""trial"",""time""
""fullscreenenter"",""1"",""3671""
","
","","","","","","666.4000000059605","<p> You will see how many points you won or lost in the center of the screen. </p><p> Here is what you would see if you won 5 points: </p><p style=""color:green;font-size:50px;font-weight:bolder"">5</p>","","0","instructions","","","","","","","","","","",""
"learning-instructions","66","425973","0.0-9.0-1.0-0.6","5193","1","16","Female","approach_avoid_spark_v1","""event"",""trial"",""time""
""fullscreenenter"",""1"",""3671""
","
","
","""event"",""trial"",""time""
""fullscreenenter"",""1"",""3671""
","
","","","","","","429.39999997615814","<p> And here is what you would see if you lost 3 points: </p><p style=""color:red;font-size:50px;font-weight:bolder"">-3</p>","","0","instructions","","","","","","","","","","",""
"learning-instructions","67","442623","0.0-9.0-1.0-0.7","5193","1","16","Female","approach_avoid_spark_v1","""event"",""trial"",""time""
""fullscreenenter"",""1"",""3671""
","
","
","""event"",""trial"",""time""
""fullscreenenter"",""1"",""3671""
","
","","","","","","679.8999999761581","<p> Some farm animals will become very satisfied or very sick. </p><p> These farm animals will make you win or lose LOTS of points. </p><p> Other farm animals have less strong feelings. </p><p> These farm animals will make you win or lose small amounts of points. </p>","","0","instructions","","","","","","","","","","",""
"learning-instructions","68","456657","0.0-9.0-1.0-0.8","5193","1","16","Female","approach_avoid_spark_v1","""event"",""trial"",""time""
""fullscreenenter"",""1"",""3671""
","
","
","""event"",""trial"",""time""
""fullscreenenter"",""1"",""3671""
","
","","","","","","1634.699999988079","<p> If you choose to leave the farm animal alone, you will not win or lose any points. </p><p>  However, in the center of the screen, you will see the number of points you WOULD HAVE won or lost if you had fed the farm animal. </p>","","0","instructions","","","","","","","","","","",""
"learning-instructions","69","468750","0.0-9.0-1.0-0.9","5193","1","16","Female","approach_avoid_spark_v1","""event"",""trial"",""time""
""fullscreenenter"",""1"",""3671""
","
","
","""event"",""trial"",""time""
""fullscreenenter"",""1"",""3671""
","
","","","","","","421.90000000596046","<p> Here is what you might see if you did not feed the farm animal but the animal was hungry: </p><p style=""color:grey; font-size:50px; display: inline-block; border-spacing: 15px; border-width:3px; border-style:solid; border-color:red"">  &nbsp; 6 &nbsp; </p><p> Remember, in this case, you would not win or lose ANY points because you did not feed the farm animal.  </p>","","0","instructions","","","","","","","","","","",""
"learning-instructions","70","478049","0.0-9.0-1.0-0.10","5193","1","16","Female","approach_avoid_spark_v1","""event"",""trial"",""time""
""fullscreenenter"",""1"",""3671""
","
","
","""event"",""trial"",""time""
""fullscreenenter"",""1"",""3671""
","
","","","","","","1019.1999999880791","<p> Try to make the best choice for each farm animal because </p><p> at the end of the game, you will earn bonus money based on how many points you earned. </p>","","0","instructions","","","","","","","","","","",""
"learning-instructions","71","488777","0.0-9.0-1.0-0.11","5193","1","16","Female","approach_avoid_spark_v1","""event"",""trial"",""time""
""fullscreenenter"",""1"",""3671""
","
","
","""event"",""trial"",""time""
""fullscreenenter"",""1"",""3671""
","
","","","","","","2545.699999988079","<p> You will have 3 seconds to make each choice. Try to respond before time runs out! </p><p> You will lose 5 points each time you do not make a response. </p>","","0","instructions","","","","","","","","","","",""
"html-keyboard-response","72","489380","0.0-9.0-2.0-0.0","5193","1","16","Female","approach_avoid_spark_v1","""event"",""trial"",""time""
""fullscreenenter"",""1"",""3671""
","
","
","""event"",""trial"",""time""
""fullscreenenter"",""1"",""3671""
","
","","","","","","null","<div style=""font-size:60px;"">+</div>","null","","fixation","","","","","","","","","","",""
"aa-learning-trial","73","492383","0.0-9.0-2.0-1.0","5193","1","16","Female","approach_avoid_spark_v1","""event"",""trial"",""time""
""fullscreenenter"",""1"",""3671""
","
","
","""event"",""trial"",""time""
""fullscreenenter"",""1"",""3671""
","
","","","","","","1604.0999999940395","images/goat4.png","","","learning","-1","-1","1","1","goat","animals","1","0","","neutral","0"
"html-keyboard-response","74","492887","0.0-9.0-2.0-0.1","5193","1","16","Female","approach_avoid_spark_v1","""event"",""trial"",""time""
""fullscreenenter"",""1"",""3671""
","
","
","""event"",""trial"",""time""
""fullscreenenter"",""1"",""3671""
","
","","","","","","null","<div style=""font-size:60px;"">+</div>","null","","fixation","","","","","","","","","","",""
"aa-learning-trial","75","495890","0.0-9.0-2.0-1.1","5193","1","16","Female","approach_avoid_spark_v1","""event"",""trial"",""time""
""fullscreenenter"",""1"",""3671""
","
","
","""event"",""trial"",""time""
""fullscreenenter"",""1"",""3671""
","
","","","","","","847.9000000059605","images/goat3.png","","","learning","-2","-2","1","1","goat","animals","1","0","","neutral","0"
"html-keyboard-response","76","496392","0.0-9.0-2.0-0.2","5193","1","16","Female","approach_avoid_spark_v1","""event"",""trial"",""time""
""fullscreenenter"",""1"",""3671""
","
","
","""event"",""trial"",""time""
""fullscreenenter"",""1"",""3671""
","
","","","","","","null","<div style=""font-size:60px;"">+</div>","null","","fixation","","","","","","","","","","",""
"aa-learning-trial","77","499397","0.0-9.0-2.0-1.2","5193","1","16","Female","approach_avoid_spark_v1","""event"",""trial"",""time""
""fullscreenenter"",""1"",""3671""
","
","
","""event"",""trial"",""time""
""fullscreenenter"",""1"",""3671""
","
","","","","","","928.8000000119209","images/horse7.png","","","learning","5","5","1","1","horse","animals","1","0","","good","[3]"
"html-keyboard-response","78","499898","0.0-9.0-2.0-0.3","5193","1","16","Female","approach_avoid_spark_v1","""event"",""trial"",""time""
""fullscreenenter"",""1"",""3671""
","
","
","""event"",""trial"",""time""
""fullscreenenter"",""1"",""3671""
","
","","","","","","null","<div style=""font-size:60px;"">+</div>","null","","fixation","","","","","","","","","","",""
"aa-learning-trial","79","502901","0.0-9.0-2.0-1.3","5193","1","16","Female","approach_avoid_spark_v1","""event"",""trial"",""time""
""fullscreenenter"",""1"",""3671""
","
","
","""event"",""trial"",""time""
""fullscreenenter"",""1"",""3671""
","
","","","","","","801.9000000059605","images/goat4.png","","","learning","-1","-1","1","1","goat","animals","1","0","","neutral","0"
"html-keyboard-response","80","503402","0.0-9.0-2.0-0.4","5193","1","16","Female","approach_avoid_spark_v1","""event"",""trial"",""time""
""fullscreenenter"",""1"",""3671""
","
","
","""event"",""trial"",""time""
""fullscreenenter"",""1"",""3671""
","
","","","","","","null","<div style=""font-size:60px;"">+</div>","null","","fixation","","","","","","","","","","",""
"aa-learning-trial","81","506405","0.0-9.0-2.0-1.4","5193","1","16","Female","approach_avoid_spark_v1","""event"",""trial"",""time""
""fullscreenenter"",""1"",""3671""
","
","
","""event"",""trial"",""time""
""fullscreenenter"",""1"",""3671""
","
","","","","","","936.8000000119209","images/goat8.png","","","learning","[1]","0","0","0","goat","animals","1","0","","neutral","0"
"html-keyboard-response","82","506907","0.0-9.0-2.0-0.5","5193","1","16","Female","approach_avoid_spark_v1","""event"",""trial"",""time""
""fullscreenenter"",""1"",""3671""
","
","
","""event"",""trial"",""time""
""fullscreenenter"",""1"",""3671""
","
","","","","","","null","<div style=""font-size:60px;"">+</div>","null","","fixation","","","","","","","","","","",""
"aa-learning-trial","83","509909","0.0-9.0-2.0-1.5","5193","1","16","Female","approach_avoid_spark_v1","""event"",""trial"",""time""
""fullscreenenter"",""1"",""3671""
","
","
","""event"",""trial"",""time""
""fullscreenenter"",""1"",""3671""
","
","","","","","","1020.4000000059605","images/goat8.png","","","learning","-2","0","0","0","goat","animals","1","0","","neutral","0"
"html-keyboard-response","84","510410","0.0-9.0-2.0-0.6","5193","1","16","Female","approach_avoid_spark_v1","""event"",""trial"",""time""
""fullscreenenter"",""1"",""3671""
","
","
","""event"",""trial"",""time""
""fullscreenenter"",""1"",""3671""
","
","","","","","","null","<div style=""font-size:60px;"">+</div>","null","","fixation","","","","","","","","","","",""
"aa-learning-trial","85","513413","0.0-9.0-2.0-1.6","5193","1","16","Female","approach_avoid_spark_v1","""event"",""trial"",""time""
""fullscreenenter"",""1"",""3671""
","
","
","""event"",""trial"",""time""
""fullscreenenter"",""1"",""3671""
","
","","","","","","972.7000000178814","images/horse2.png","","","learning","3","3","1","1","horse","animals","1","0","","good","[3]"
"html-keyboard-response","86","513914","0.0-9.0-2.0-0.7","5193","1","16","Female","approach_avoid_spark_v1","""event"",""trial"",""time""
""fullscreenenter"",""1"",""3671""
","
","
","""event"",""trial"",""time""
""fullscreenenter"",""1"",""3671""
","
","","","","","","null","<div style=""font-size:60px;"">+</div>","null","","fixation","","","","","","","","","","",""
"aa-learning-trial","87","516918","0.0-9.0-2.0-1.7","5193","1","16","Female","approach_avoid_spark_v1","""event"",""trial"",""time""
""fullscreenenter"",""1"",""3671""
","
","
","""event"",""trial"",""time""
""fullscreenenter"",""1"",""3671""
","
","","","","","","721.8000000119209","images/cow3.png","","","learning","-8","-8","1","1","cow","animals","1","0","","bad","[-6]"
"html-keyboard-response","88","517423","0.0-9.0-2.0-0.8","5193","1","16","Female","approach_avoid_spark_v1","""event"",""trial"",""time""
""fullscreenenter"",""1"",""3671""
","
","
","""event"",""trial"",""time""
""fullscreenenter"",""1"",""3671""
","
","","","","","","null","<div style=""font-size:60px;"">+</div>","null","","fixation","","","","","","","","","","",""
"aa-learning-trial","89","520429","0.0-9.0-2.0-1.8","5193","1","16","Female","approach_avoid_spark_v1","""event"",""trial"",""time""
""fullscreenenter"",""1"",""3671""
","
","
","""event"",""trial"",""time""
""fullscreenenter"",""1"",""3671""
","
","","","","","","988.9000000059605","images/cow1.png","","","learning","-5","0","0","0","cow","animals","1","0","","bad","[-6]"
"html-keyboard-response","90","520934","0.0-9.0-2.0-0.9","5193","1","16","Female","approach_avoid_spark_v1","""event"",""trial"",""time""
""fullscreenenter"",""1"",""3671""
","
","
","""event"",""trial"",""time""
""fullscreenenter"",""1"",""3671""
","
","","","","","","null","<div style=""font-size:60px;"">+</div>","null","","fixation","","","","","","","","","","",""
"aa-learning-trial","91","523937","0.0-9.0-2.0-1.9","5193","1","16","Female","approach_avoid_spark_v1","""event"",""trial"",""time""
""fullscreenenter"",""1"",""3671""
","
","
","""event"",""trial"",""time""
""fullscreenenter"",""1"",""3671""
","
","","","","","","684.6999999880791","images/horse7.png","","","learning","2","2","1","1","horse","animals","1","0","","good","[3]"
"html-keyboard-response","92","524441","0.0-9.0-2.0-0.10","5193","1","16","Female","approach_avoid_spark_v1","""event"",""trial"",""time""
""fullscreenenter"",""1"",""3671""
","
","
","""event"",""trial"",""time""
""fullscreenenter"",""1"",""3671""
","
","","","","","","null","<div style=""font-size:60px;"">+</div>","null","","fixation","","","","","","","","","","",""
"aa-learning-trial","93","527445","0.0-9.0-2.0-1.10","5193","1","16","Female","approach_avoid_spark_v1","""event"",""trial"",""time""
""fullscreenenter"",""1"",""3671""
","
","
","""event"",""trial"",""time""
""fullscreenenter"",""1"",""3671""
","
","","","","","","948.2999999821186","images/cow1.png","","","learning","-7","0","0","0","cow","animals","1","0","","bad","[-6]"
"html-keyboard-response","94","527949","0.0-9.0-2.0-0.11","5193","1","16","Female","approach_avoid_spark_v1","""event"",""trial"",""time""
""fullscreenenter"",""1"",""3671""
","
","
","""event"",""trial"",""time""
""fullscreenenter"",""1"",""3671""
","
","","","","","","null","<div style=""font-size:60px;"">+</div>","null","","fixation","","","","","","","","","","",""
"aa-learning-trial","95","530955","0.0-9.0-2.0-1.11","5193","1","16","Female","approach_avoid_spark_v1","""event"",""trial"",""time""
""fullscreenenter"",""1"",""3671""
","
","
","""event"",""trial"",""time""
""fullscreenenter"",""1"",""3671""
","
","","","","","","635.1000000238419","images/horse2.png","","","learning","3","3","1","1","horse","animals","1","0","","good","[3]"
"html-keyboard-response","96","531460","0.0-9.0-2.0-0.12","5193","1","16","Female","approach_avoid_spark_v1","""event"",""trial"",""time""
""fullscreenenter"",""1"",""3671""
","
","
","""event"",""trial"",""time""
""fullscreenenter"",""1"",""3671""
","
","","","","","","null","<div style=""font-size:60px;"">+</div>","null","","fixation","","","","","","","","","","",""
"aa-learning-trial","97","534467","0.0-9.0-2.0-1.12","5193","1","16","Female","approach_avoid_spark_v1","""event"",""trial"",""time""
""fullscreenenter"",""1"",""3671""
","
","
","""event"",""trial"",""time""
""fullscreenenter"",""1"",""3671""
","
","","","","","","830.2999999821186","images/cow3.png","","","learning","-7","0","0","0","cow","animals","1","0","","bad","[-6]"
"html-keyboard-response","98","534971","0.0-9.0-2.0-0.13","5193","1","16","Female","approach_avoid_spark_v1","""event"",""trial"",""time""
""fullscreenenter"",""1"",""3671""
","
","
","""event"",""trial"",""time""
""fullscreenenter"",""1"",""3671""
","
","","","","","","null","<div style=""font-size:60px;"">+</div>","null","","fixation","","","","","","","","","","",""
"aa-learning-trial","99","537974","0.0-9.0-2.0-1.13","5193","1","16","Female","approach_avoid_spark_v1","""event"",""trial"",""time""
""fullscreenenter"",""1"",""3671""
","
","
","""event"",""trial"",""time""
""fullscreenenter"",""1"",""3671""
","
","","","","","","715.0999999940395","images/horse8.png","","","learning","3","3","1","1","horse","animals","1","0","","good","[3]"
"html-keyboard-response","100","538478","0.0-9.0-2.0-0.14","5193","1","16","Female","approach_avoid_spark_v1","""event"",""trial"",""time""
""fullscreenenter"",""1"",""3671""
","
","
","""event"",""trial"",""time""
""fullscreenenter"",""1"",""3671""
","
","","","","","","null","<div style=""font-size:60px;"">+</div>","null","","fixation","","","","","","","","","","",""
"aa-learning-trial","101","541480","0.0-9.0-2.0-1.14","5193","1","16","Female","approach_avoid_spark_v1","""event"",""trial"",""time""
""fullscreenenter"",""1"",""3671""
","
","
","""event"",""trial"",""time""
""fullscreenenter"",""1"",""3671""
","
","","","","","","838.1999999880791","images/cow5.png","","","learning","-5","0","0","0","cow","animals","1","0","","bad","[-6]"
"html-keyboard-response","102","541986","0.0-9.0-2.0-0.15","5193","1","16","Female","approach_avoid_spark_v1","""event"",""trial"",""time""
""fullscreenenter"",""1"",""3671""
","
","
","""event"",""trial"",""time""
""fullscreenenter"",""1"",""3671""
","
","","","","","","null","<div style=""font-size:60px;"">+</div>","null","","fixation","","","","","","","","","","",""
"aa-learning-trial","103","544992","0.0-9.0-2.0-1.15","5193","1","16","Female","approach_avoid_spark_v1","""event"",""trial"",""time""
""fullscreenenter"",""1"",""3671""
","
","
","""event"",""trial"",""time""
""fullscreenenter"",""1"",""3671""
","
","","","","","","850","images/goat3.png","","","learning","-1","0","0","0","goat","animals","1","0","","neutral","0"
"html-keyboard-response","104","545496","0.0-9.0-2.0-0.16","5193","1","16","Female","approach_avoid_spark_v1","""event"",""trial"",""time""
""fullscreenenter"",""1"",""3671""
","
","
","""event"",""trial"",""time""
""fullscreenenter"",""1"",""3671""
","
","","","","","","null","<div style=""font-size:60px;"">+</div>","null","","fixation","","","","","","","","","","",""
"aa-learning-trial","105","548499","0.0-9.0-2.0-1.16","5193","1","16","Female","approach_avoid_spark_v1","""event"",""trial"",""time""
""fullscreenenter"",""1"",""3671""
","
","
","""event"",""trial"",""time""
""fullscreenenter"",""1"",""3671""
","
","","","","","","645.9000000059605","images/horse1.png","","","learning","4","4","1","1","horse","animals","1","0","","good","[3]"
"html-keyboard-response","106","549003","0.0-9.0-2.0-0.17","5193","1","16","Female","approach_avoid_spark_v1","""event"",""trial"",""time""
""fullscreenenter"",""1"",""3671""
","
","
","""event"",""trial"",""time""
""fullscreenenter"",""1"",""3671""
","
","","","","","","null","<div style=""font-size:60px;"">+</div>","null","","fixation","","","","","","","","","","",""
"aa-learning-trial","107","552008","0.0-9.0-2.0-1.17","5193","1","16","Female","approach_avoid_spark_v1","""event"",""trial"",""time""
""fullscreenenter"",""1"",""3671""
","
","
","""event"",""trial"",""time""
""fullscreenenter"",""1"",""3671""
","
","","","","","","687.1999999880791","images/cow1.png","","","learning","-5","0","0","0","cow","animals","1","0","","bad","[-6]"
"html-keyboard-response","108","552511","0.0-9.0-2.0-0.18","5193","1","16","Female","approach_avoid_spark_v1","""event"",""trial"",""time""
""fullscreenenter"",""1"",""3671""
","
","
","""event"",""trial"",""time""
""fullscreenenter"",""1"",""3671""
","
","","","","","","null","<div style=""font-size:60px;"">+</div>","null","","fixation","","","","","","","","","","",""
"aa-learning-trial","109","555516","0.0-9.0-2.0-1.18","5193","1","16","Female","approach_avoid_spark_v1","""event"",""trial"",""time""
""fullscreenenter"",""1"",""3671""
","
","
","""event"",""trial"",""time""
""fullscreenenter"",""1"",""3671""
","
","","","","","","629.4000000059605","images/cow1.png","","","learning","-8","0","0","0","cow","animals","1","0","","bad","[-6]"
"html-keyboard-response","110","556021","0.0-9.0-2.0-0.19","5193","1","16","Female","approach_avoid_spark_v1","""event"",""trial"",""time""
""fullscreenenter"",""1"",""3671""
","
","
","""event"",""trial"",""time""
""fullscreenenter"",""1"",""3671""
","
","","","","","","null","<div style=""font-size:60px;"">+</div>","null","","fixation","","","","","","","","","","",""
"aa-learning-trial","111","559024","0.0-9.0-2.0-1.19","5193","1","16","Female","approach_avoid_spark_v1","""event"",""trial"",""time""
""fullscreenenter"",""1"",""3671""
","
","
","""event"",""trial"",""time""
""fullscreenenter"",""1"",""3671""
","
","","","","","","855.5","images/goat3.png","","","learning","[-1]","0","0","0","goat","animals","1","0","","neutral","0"
"html-keyboard-response","112","559527","0.0-9.0-2.0-0.20","5193","1","16","Female","approach_avoid_spark_v1","""event"",""trial"",""time""
""fullscreenenter"",""1"",""3671""
","
","
","""event"",""trial"",""time""
""fullscreenenter"",""1"",""3671""
","
","","","","","","null","<div style=""font-size:60px;"">+</div>","null","","fixation","","","","","","","","","","",""
"aa-learning-trial","113","562530","0.0-9.0-2.0-1.20","5193","1","16","Female","approach_avoid_spark_v1","""event"",""trial"",""time""
""fullscreenenter"",""1"",""3671""
","
","
","""event"",""trial"",""time""
""fullscreenenter"",""1"",""3671""
","
","","","","","","602.6999999880791","images/horse8.png","","","learning","2","2","1","1","horse","animals","1","0","","good","[3]"
"html-keyboard-response","114","563035","0.0-9.0-2.0-0.21","5193","1","16","Female","approach_avoid_spark_v1","""event"",""trial"",""time""
""fullscreenenter"",""1"",""3671""
","
","
","""event"",""trial"",""time""
""fullscreenenter"",""1"",""3671""
","
","","","","","","null","<div style=""font-size:60px;"">+</div>","null","","fixation","","","","","","","","","","",""
"aa-learning-trial","115","566041","0.0-9.0-2.0-1.21","5193","1","16","Female","approach_avoid_spark_v1","""event"",""trial"",""time""
""fullscreenenter"",""1"",""3671""
","
","
","""event"",""trial"",""time""
""fullscreenenter"",""1"",""3671""
","
","","","","","","635.3000000119209","images/goat4.png","","","learning","-1","0","0","0","goat","animals","1","0","","neutral","0"
"html-keyboard-response","116","566546","0.0-9.0-2.0-0.22","5193","1","16","Female","approach_avoid_spark_v1","""event"",""trial"",""time""
""fullscreenenter"",""1"",""3671""
","
","
","""event"",""trial"",""time""
""fullscreenenter"",""1"",""3671""
","
","","","","","","null","<div style=""font-size:60px;"">+</div>","null","","fixation","","","","","","","","","","",""
"aa-learning-trial","117","569553","0.0-9.0-2.0-1.22","5193","1","16","Female","approach_avoid_spark_v1","""event"",""trial"",""time""
""fullscreenenter"",""1"",""3671""
","
","
","""event"",""trial"",""time""
""fullscreenenter"",""1"",""3671""
","
","","","","","","691.1999999880791","images/horse7.png","","","learning","2","2","1","1","horse","animals","1","0","","good","[3]"
"html-keyboard-response","118","570054","0.0-9.0-2.0-0.23","5193","1","16","Female","approach_avoid_spark_v1","""event"",""trial"",""time""
""fullscreenenter"",""1"",""3671""
","
","
","""event"",""trial"",""time""
""fullscreenenter"",""1"",""3671""
","
","","","","","","null","<div style=""font-size:60px;"">+</div>","null","","fixation","","","","","","","","","","",""
"aa-learning-trial","119","573060","0.0-9.0-2.0-1.23","5193","1","16","Female","approach_avoid_spark_v1","""event"",""trial"",""time""
""fullscreenenter"",""1"",""3671""
","
","
","""event"",""trial"",""time""
""fullscreenenter"",""1"",""3671""
","
","","","","","","613","images/cow3.png","","","learning","-4","0","0","0","cow","animals","1","0","","bad","[-6]"
"html-keyboard-response","120","573564","0.0-9.0-2.0-0.24","5193","1","16","Female","approach_avoid_spark_v1","""event"",""trial"",""time""
""fullscreenenter"",""1"",""3671""
","
","
","""event"",""trial"",""time""
""fullscreenenter"",""1"",""3671""
","
","","","","","","null","<div style=""font-size:60px;"">+</div>","null","","fixation","","","","","","","","","","",""
"aa-learning-trial","121","576571","0.0-9.0-2.0-1.24","5193","1","16","Female","approach_avoid_spark_v1","""event"",""trial"",""time""
""fullscreenenter"",""1"",""3671""
","
","
","""event"",""trial"",""time""
""fullscreenenter"",""1"",""3671""
","
","","","","","","655.2000000178814","images/goat2.png","","","learning","3","0","0","0","goat","animals","1","0","","neutral","0"
"html-keyboard-response","122","577077","0.0-9.0-2.0-0.25","5193","1","16","Female","approach_avoid_spark_v1","""event"",""trial"",""time""
""fullscreenenter"",""1"",""3671""
","
","
","""event"",""trial"",""time""
""fullscreenenter"",""1"",""3671""
","
","","","","","","null","<div style=""font-size:60px;"">+</div>","null","","fixation","","","","","","","","","","",""
"aa-learning-trial","123","580079","0.0-9.0-2.0-1.25","5193","1","16","Female","approach_avoid_spark_v1","""event"",""trial"",""time""
""fullscreenenter"",""1"",""3671""
","
","
","""event"",""trial"",""time""
""fullscreenenter"",""1"",""3671""
","
","","","","","","635.6999999880791","images/horse8.png","","","learning","4","4","1","1","horse","animals","1","0","","good","[3]"
"html-keyboard-response","124","580583","0.0-9.0-2.0-0.26","5193","1","16","Female","approach_avoid_spark_v1","""event"",""trial"",""time""
""fullscreenenter"",""1"",""3671""
","
","
","""event"",""trial"",""time""
""fullscreenenter"",""1"",""3671""
","
","","","","","","null","<div style=""font-size:60px;"">+</div>","null","","fixation","","","","","","","","","","",""
"aa-learning-trial","125","583590","0.0-9.0-2.0-1.26","5193","1","16","Female","approach_avoid_spark_v1","""event"",""trial"",""time""
""fullscreenenter"",""1"",""3671""
","
","
","""event"",""trial"",""time""
""fullscreenenter"",""1"",""3671""
","
","","","","","","536.4000000059605","images/cow5.png","","","learning","-9","0","0","0","cow","animals","1","0","","bad","[-6]"
"html-keyboard-response","126","584094","0.0-9.0-2.0-0.27","5193","1","16","Female","approach_avoid_spark_v1","""event"",""trial"",""time""
""fullscreenenter"",""1"",""3671""
","
","
","""event"",""trial"",""time""
""fullscreenenter"",""1"",""3671""
","
","","","","","","null","<div style=""font-size:60px;"">+</div>","null","","fixation","","","","","","","","","","",""
"aa-learning-trial","127","587099","0.0-9.0-2.0-1.27","5193","1","16","Female","approach_avoid_spark_v1","""event"",""trial"",""time""
""fullscreenenter"",""1"",""3671""
","
","
","""event"",""trial"",""time""
""fullscreenenter"",""1"",""3671""
","
","","","","","","656.0999999940395","images/cow3.png","","","learning","-8","0","0","0","cow","animals","1","0","","bad","[-6]"
"html-keyboard-response","128","587601","0.0-9.0-2.0-0.28","5193","1","16","Female","approach_avoid_spark_v1","""event"",""trial"",""time""
""fullscreenenter"",""1"",""3671""
","
","
","""event"",""trial"",""time""
""fullscreenenter"",""1"",""3671""
","
","","","","","","null","<div style=""font-size:60px;"">+</div>","null","","fixation","","","","","","","","","","",""
"aa-learning-trial","129","590608","0.0-9.0-2.0-1.28","5193","1","16","Female","approach_avoid_spark_v1","""event"",""trial"",""time""
""fullscreenenter"",""1"",""3671""
","
","
","""event"",""trial"",""time""
""fullscreenenter"",""1"",""3671""
","
","","","","","","627.4000000059605","images/horse2.png","","","learning","2","2","1","1","horse","animals","1","0","","good","[3]"
"html-keyboard-response","130","591113","0.0-9.0-2.0-0.29","5193","1","16","Female","approach_avoid_spark_v1","""event"",""trial"",""time""
""fullscreenenter"",""1"",""3671""
","
","
","""event"",""trial"",""time""
""fullscreenenter"",""1"",""3671""
","
","","","","","","null","<div style=""font-size:60px;"">+</div>","null","","fixation","","","","","","","","","","",""
"aa-learning-trial","131","594117","0.0-9.0-2.0-1.29","5193","1","16","Female","approach_avoid_spark_v1","""event"",""trial"",""time""
""fullscreenenter"",""1"",""3671""
","
","
","""event"",""trial"",""time""
""fullscreenenter"",""1"",""3671""
","
","","","","","","536","images/cow2.png","","","learning","-6","0","0","0","cow","animals","1","0","","bad","[-6]"
"html-keyboard-response","132","594619","0.0-9.0-2.0-0.30","5193","1","16","Female","approach_avoid_spark_v1","""event"",""trial"",""time""
""fullscreenenter"",""1"",""3671""
","
","
","""event"",""trial"",""time""
""fullscreenenter"",""1"",""3671""
","
","","","","","","null","<div style=""font-size:60px;"">+</div>","null","","fixation","","","","","","","","","","",""
"aa-learning-trial","133","597621","0.0-9.0-2.0-1.30","5193","1","16","Female","approach_avoid_spark_v1","""event"",""trial"",""time""
""fullscreenenter"",""1"",""3671""
","
","
","""event"",""trial"",""time""
""fullscreenenter"",""1"",""3671""
","
","","","","","","1021.2000000178814","images/goat8.png","","","learning","-2","0","0","0","goat","animals","1","0","","neutral","0"
"html-keyboard-response","134","598125","0.0-9.0-2.0-0.31","5193","1","16","Female","approach_avoid_spark_v1","""event"",""trial"",""time""
""fullscreenenter"",""1"",""3671""
","
","
","""event"",""trial"",""time""
""fullscreenenter"",""1"",""3671""
","
","","","","","","null","<div style=""font-size:60px;"">+</div>","null","","fixation","","","","","","","","","","",""
"aa-learning-trial","135","601129","0.0-9.0-2.0-1.31","5193","1","16","Female","approach_avoid_spark_v1","""event"",""trial"",""time""
""fullscreenenter"",""1"",""3671""
","
","
","""event"",""trial"",""time""
""fullscreenenter"",""1"",""3671""
","
","","","","","","572.9000000059605","images/cow1.png","","","learning","-4","0","0","0","cow","animals","1","0","","bad","[-6]"
"html-keyboard-response","136","601632","0.0-9.0-2.0-0.32","5193","1","16","Female","approach_avoid_spark_v1","""event"",""trial"",""time""
""fullscreenenter"",""1"",""3671""
","
","
","""event"",""trial"",""time""
""fullscreenenter"",""1"",""3671""
","
","","","","","","null","<div style=""font-size:60px;"">+</div>","null","","fixation","","","","","","","","","","",""
"aa-learning-trial","137","604639","0.0-9.0-2.0-1.32","5193","1","16","Female","approach_avoid_spark_v1","""event"",""trial"",""time""
""fullscreenenter"",""1"",""3671""
","
","
","""event"",""trial"",""time""
""fullscreenenter"",""1"",""3671""
","
","","","","","","775","images/goat8.png","","","learning","-2","0","0","0","goat","animals","1","0","","neutral","0"
"html-keyboard-response","138","605144","0.0-9.0-2.0-0.33","5193","1","16","Female","approach_avoid_spark_v1","""event"",""trial"",""time""
""fullscreenenter"",""1"",""3671""
","
","
","""event"",""trial"",""time""
""fullscreenenter"",""1"",""3671""
","
","","","","","","null","<div style=""font-size:60px;"">+</div>","null","","fixation","","","","","","","","","","",""
"aa-learning-trial","139","608147","0.0-9.0-2.0-1.33","5193","1","16","Female","approach_avoid_spark_v1","""event"",""trial"",""time""
""fullscreenenter"",""1"",""3671""
","
","
","""event"",""trial"",""time""
""fullscreenenter"",""1"",""3671""
","
","","","","","","871.5","images/goat4.png","","","learning","-1","0","0","0","goat","animals","1","0","","neutral","0"
"html-keyboard-response","140","608651","0.0-9.0-2.0-0.34","5193","1","16","Female","approach_avoid_spark_v1","""event"",""trial"",""time""
""fullscreenenter"",""1"",""3671""
","
","
","""event"",""trial"",""time""
""fullscreenenter"",""1"",""3671""
","
","","","","","","null","<div style=""font-size:60px;"">+</div>","null","","fixation","","","","","","","","","","",""
"aa-learning-trial","141","611658","0.0-9.0-2.0-1.34","5193","1","16","Female","approach_avoid_spark_v1","""event"",""trial"",""time""
""fullscreenenter"",""1"",""3671""
","
","
","""event"",""trial"",""time""
""fullscreenenter"",""1"",""3671""
","
","","","","","","573","images/horse2.png","","","learning","1","1","1","1","horse","animals","1","0","","good","[3]"
"html-keyboard-response","142","612159","0.0-9.0-2.0-0.35","5193","1","16","Female","approach_avoid_spark_v1","""event"",""trial"",""time""
""fullscreenenter"",""1"",""3671""
","
","
","""event"",""trial"",""time""
""fullscreenenter"",""1"",""3671""
","
","","","","","","null","<div style=""font-size:60px;"">+</div>","null","","fixation","","","","","","","","","","",""
"aa-learning-trial","143","615161","0.0-9.0-2.0-1.35","5193","1","16","Female","approach_avoid_spark_v1","""event"",""trial"",""time""
""fullscreenenter"",""1"",""3671""
","
","
","""event"",""trial"",""time""
""fullscreenenter"",""1"",""3671""
","
","","","","","","544.1999999880791","images/horse2.png","","","learning","1","1","1","1","horse","animals","1","0","","good","[3]"
"html-keyboard-response","144","615663","0.0-9.0-2.0-0.36","5193","1","16","Female","approach_avoid_spark_v1","""event"",""trial"",""time""
""fullscreenenter"",""1"",""3671""
","
","
","""event"",""trial"",""time""
""fullscreenenter"",""1"",""3671""
","
","","","","","","null","<div style=""font-size:60px;"">+</div>","null","","fixation","","","","","","","","","","",""
"aa-learning-trial","145","618666","0.0-9.0-2.0-1.36","5193","1","16","Female","approach_avoid_spark_v1","""event"",""trial"",""time""
""fullscreenenter"",""1"",""3671""
","
","
","""event"",""trial"",""time""
""fullscreenenter"",""1"",""3671""
","
","","","","","","648.8000000119209","images/cow1.png","","","learning","-6","0","0","0","cow","animals","1","0","","bad","[-6]"
"html-keyboard-response","146","619169","0.0-9.0-2.0-0.37","5193","1","16","Female","approach_avoid_spark_v1","""event"",""trial"",""time""
""fullscreenenter"",""1"",""3671""
","
","
","""event"",""trial"",""time""
""fullscreenenter"",""1"",""3671""
","
","","","","","","null","<div style=""font-size:60px;"">+</div>","null","","fixation","","","","","","","","","","",""
"aa-learning-trial","147","622172","0.0-9.0-2.0-1.37","5193","1","16","Female","approach_avoid_spark_v1","""event"",""trial"",""time""
""fullscreenenter"",""1"",""3671""
","
","
","""event"",""trial"",""time""
""fullscreenenter"",""1"",""3671""
","
","","","","","","648.4000000059605","images/horse6.png","","","learning","5","5","1","1","horse","animals","1","0","","good","[3]"
"html-keyboard-response","148","622676","0.0-9.0-2.0-0.38","5193","1","16","Female","approach_avoid_spark_v1","""event"",""trial"",""time""
""fullscreenenter"",""1"",""3671""
","
","
","""event"",""trial"",""time""
""fullscreenenter"",""1"",""3671""
","
","","","","","","null","<div style=""font-size:60px;"">+</div>","null","","fixation","","","","","","","","","","",""
"aa-learning-trial","149","625681","0.0-9.0-2.0-1.38","5193","1","16","Female","approach_avoid_spark_v1","""event"",""trial"",""time""
""fullscreenenter"",""1"",""3671""
","
","
","""event"",""trial"",""time""
""fullscreenenter"",""1"",""3671""
","
","","","","","","589.2999999821186","images/horse7.png","","","learning","1","1","1","1","horse","animals","1","0","","good","[3]"
"html-keyboard-response","150","626185","0.0-9.0-2.0-0.39","5193","1","16","Female","approach_avoid_spark_v1","""event"",""trial"",""time""
""fullscreenenter"",""1"",""3671""
","
","
","""event"",""trial"",""time""
""fullscreenenter"",""1"",""3671""
","
","","","","","","null","<div style=""font-size:60px;"">+</div>","null","","fixation","","","","","","","","","","",""
"aa-learning-trial","151","629189","0.0-9.0-2.0-1.39","5193","1","16","Female","approach_avoid_spark_v1","""event"",""trial"",""time""
""fullscreenenter"",""1"",""3671""
","
","
","""event"",""trial"",""time""
""fullscreenenter"",""1"",""3671""
","
","","","","","","436.69999998807907","images/horse7.png","","","learning","1","1","1","1","horse","animals","1","0","","good","[3]"
"html-keyboard-response","152","629690","0.0-9.0-2.0-0.40","5193","1","16","Female","approach_avoid_spark_v1","""event"",""trial"",""time""
""fullscreenenter"",""1"",""3671""
","
","
","""event"",""trial"",""time""
""fullscreenenter"",""1"",""3671""
","
","","","","","","null","<div style=""font-size:60px;"">+</div>","null","","fixation","","","","","","","","","","",""
"aa-learning-trial","153","632696","0.0-9.0-2.0-1.40","5193","1","16","Female","approach_avoid_spark_v1","""event"",""trial"",""time""
""fullscreenenter"",""1"",""3671""
","
","
","""event"",""trial"",""time""
""fullscreenenter"",""1"",""3671""
","
","","","","","","728.9000000059605","images/cow6.png","","","learning","-8","0","0","0","cow","animals","1","0","","bad","[-6]"
"html-keyboard-response","154","633201","0.0-9.0-2.0-0.41","5193","1","16","Female","approach_avoid_spark_v1","""event"",""trial"",""time""
""fullscreenenter"",""1"",""3671""
","
","
","""event"",""trial"",""time""
""fullscreenenter"",""1"",""3671""
","
","","","","","","null","<div style=""font-size:60px;"">+</div>","null","","fixation","","","","","","","","","","",""
"aa-learning-trial","155","636205","0.0-9.0-2.0-1.41","5193","1","16","Female","approach_avoid_spark_v1","""event"",""trial"",""time""
""fullscreenenter"",""1"",""3671""
","
","
","""event"",""trial"",""time""
""fullscreenenter"",""1"",""3671""
","
","","","","","","689.0999999940395","images/goat4.png","","","learning","1","0","0","0","goat","animals","1","0","","neutral","0"
"html-keyboard-response","156","636707","0.0-9.0-2.0-0.42","5193","1","16","Female","approach_avoid_spark_v1","""event"",""trial"",""time""
""fullscreenenter"",""1"",""3671""
","
","
","""event"",""trial"",""time""
""fullscreenenter"",""1"",""3671""
","
","","","","","","null","<div style=""font-size:60px;"">+</div>","null","","fixation","","","","","","","","","","",""
"aa-learning-trial","157","639714","0.0-9.0-2.0-1.42","5193","1","16","Female","approach_avoid_spark_v1","""event"",""trial"",""time""
""fullscreenenter"",""1"",""3671""
","
","
","""event"",""trial"",""time""
""fullscreenenter"",""1"",""3671""
","
","","","","","","869.4000000059605","images/cow5.png","","","learning","-6","0","0","0","cow","animals","1","0","","bad","[-6]"
"html-keyboard-response","158","640220","0.0-9.0-2.0-0.43","5193","1","16","Female","approach_avoid_spark_v1","""event"",""trial"",""time""
""fullscreenenter"",""1"",""3671""
","
","
","""event"",""trial"",""time""
""fullscreenenter"",""1"",""3671""
","
","","","","","","null","<div style=""font-size:60px;"">+</div>","null","","fixation","","","","","","","","","","",""
"aa-learning-trial","159","643226","0.0-9.0-2.0-1.43","5193","1","16","Female","approach_avoid_spark_v1","""event"",""trial"",""time""
""fullscreenenter"",""1"",""3671""
","
","
","""event"",""trial"",""time""
""fullscreenenter"",""1"",""3671""
","
","","","","","","634.5","images/goat4.png","","","learning","-1","0","0","0","goat","animals","1","0","","neutral","0"
"html-keyboard-response","160","643731","0.0-9.0-2.0-0.44","5193","1","16","Female","approach_avoid_spark_v1","""event"",""trial"",""time""
""fullscreenenter"",""1"",""3671""
","
","
","""event"",""trial"",""time""
""fullscreenenter"",""1"",""3671""
","
","","","","","","null","<div style=""font-size:60px;"">+</div>","null","","fixation","","","","","","","","","","",""
"aa-learning-trial","161","646734","0.0-9.0-2.0-1.44","5193","1","16","Female","approach_avoid_spark_v1","""event"",""trial"",""time""
""fullscreenenter"",""1"",""3671""
","
","
","""event"",""trial"",""time""
""fullscreenenter"",""1"",""3671""
","
","","","","","","628.1999999880791","images/cow3.png","","","learning","-8","0","0","0","cow","animals","1","0","","bad","[-6]"
"html-keyboard-response","162","647238","0.0-9.0-2.0-0.45","5193","1","16","Female","approach_avoid_spark_v1","""event"",""trial"",""time""
""fullscreenenter"",""1"",""3671""
","
","
","""event"",""trial"",""time""
""fullscreenenter"",""1"",""3671""
","
","","","","","","null","<div style=""font-size:60px;"">+</div>","null","","fixation","","","","","","","","","","",""
"aa-learning-trial","163","650241","0.0-9.0-2.0-1.45","5193","1","16","Female","approach_avoid_spark_v1","""event"",""trial"",""time""
""fullscreenenter"",""1"",""3671""
","
","
","""event"",""trial"",""time""
""fullscreenenter"",""1"",""3671""
","
","","","","","","593","images/horse2.png","","","learning","2","2","1","1","horse","animals","1","0","","good","[3]"
"html-keyboard-response","164","650744","0.0-9.0-2.0-0.46","5193","1","16","Female","approach_avoid_spark_v1","""event"",""trial"",""time""
""fullscreenenter"",""1"",""3671""
","
","
","""event"",""trial"",""time""
""fullscreenenter"",""1"",""3671""
","
","","","","","","null","<div style=""font-size:60px;"">+</div>","null","","fixation","","","","","","","","","","",""
"aa-learning-trial","165","653751","0.0-9.0-2.0-1.46","5193","1","16","Female","approach_avoid_spark_v1","""event"",""trial"",""time""
""fullscreenenter"",""1"",""3671""
","
","
","""event"",""trial"",""time""
""fullscreenenter"",""1"",""3671""
","
","","","","","","1689.1000000238419","images/goat8.png","","","learning","[1]","0","0","0","goat","animals","1","0","","neutral","0"
"html-keyboard-response","166","654256","0.0-9.0-2.0-0.47","5193","1","16","Female","approach_avoid_spark_v1","""event"",""trial"",""time""
""fullscreenenter"",""1"",""3671""
","
","
","""event"",""trial"",""time""
""fullscreenenter"",""1"",""3671""
","
","","","","","","null","<div style=""font-size:60px;"">+</div>","null","","fixation","","","","","","","","","","",""
"aa-learning-trial","167","657263","0.0-9.0-2.0-1.47","5193","1","16","Female","approach_avoid_spark_v1","""event"",""trial"",""time""
""fullscreenenter"",""1"",""3671""
","
","
","""event"",""trial"",""time""
""fullscreenenter"",""1"",""3671""
","
","","","","","","681.6000000238419","images/cow3.png","","","learning","-7","0","0","0","cow","animals","1","0","","bad","[-6]"
"html-keyboard-response","168","657769","0.0-9.0-2.0-0.48","5193","1","16","Female","approach_avoid_spark_v1","""event"",""trial"",""time""
""fullscreenenter"",""1"",""3671""
","
","
","""event"",""trial"",""time""
""fullscreenenter"",""1"",""3671""
","
","","","","","","null","<div style=""font-size:60px;"">+</div>","null","","fixation","","","","","","","","","","",""
"aa-learning-trial","169","660776","0.0-9.0-2.0-1.48","5193","1","16","Female","approach_avoid_spark_v1","""event"",""trial"",""time""
""fullscreenenter"",""1"",""3671""
","
","
","""event"",""trial"",""time""
""fullscreenenter"",""1"",""3671""
","
","","","","","","943","images/goat8.png","","","learning","2","2","1","1","goat","animals","1","0","","neutral","0"
"html-keyboard-response","170","661280","0.0-9.0-2.0-0.49","5193","1","16","Female","approach_avoid_spark_v1","""event"",""trial"",""time""
""fullscreenenter"",""1"",""3671""
","
","
","""event"",""trial"",""time""
""fullscreenenter"",""1"",""3671""
","
","","","","","","null","<div style=""font-size:60px;"">+</div>","null","","fixation","","","","","","","","","","",""
"aa-learning-trial","171","664283","0.0-9.0-2.0-1.49","5193","1","16","Female","approach_avoid_spark_v1","""event"",""trial"",""time""
""fullscreenenter"",""1"",""3671""
","
","
","""event"",""trial"",""time""
""fullscreenenter"",""1"",""3671""
","
","","","","","","794.6000000238419","images/horse7.png","","","learning","1","1","1","1","horse","animals","1","0","","good","[3]"
"html-keyboard-response","172","664787","0.0-9.0-2.0-0.50","5193","1","16","Female","approach_avoid_spark_v1","""event"",""trial"",""time""
""fullscreenenter"",""1"",""3671""
","
","
","""event"",""trial"",""time""
""fullscreenenter"",""1"",""3671""
","
","","","","","","null","<div style=""font-size:60px;"">+</div>","null","","fixation","","","","","","","","","","",""
"aa-learning-trial","173","667794","0.0-9.0-2.0-1.50","5193","1","16","Female","approach_avoid_spark_v1","""event"",""trial"",""time""
""fullscreenenter"",""1"",""3671""
","
","
","""event"",""trial"",""time""
""fullscreenenter"",""1"",""3671""
","
","","","","","","728.4000000059605","images/goat6.png","","","learning","-1","0","0","0","goat","animals","1","0","","neutral","0"
"html-button-response","174","669807","0.0-9.0-3.0","5193","1","16","Female","approach_avoid_spark_v1","""event"",""trial"",""time""
""fullscreenenter"",""1"",""3671""
","
","
","""event"",""trial"",""time""
""fullscreenenter"",""1"",""3671""
","
","","","","","","2012.0999999940395","<p> You have completed the round! <p> In this round, you earned 32 points! </p>","0","","break","","","","","","","","","","",""
"html-button-response","175","670815","0.0-10.0","5193","1","16","Female","approach_avoid_spark_v1","""event"",""trial"",""time""
""fullscreenenter"",""1"",""3671""
","
","
","""event"",""trial"",""time""
""fullscreenenter"",""1"",""3671""
","
","","","","","","1006.9000000059605","<p> Now it's time to play another round. </p>","0","","transition_screen","","","","","","","","","","",""
"preload","176","670940","0.0-11.0-0.0","5193","1","16","Female","approach_avoid_spark_v1","""event"",""trial"",""time""
""fullscreenenter"",""1"",""3671""
","
","
","""event"",""trial"",""time""
""fullscreenenter"",""1"",""3671""
","
","true","false","[]","[]","[]","","","","","","","","","","","","","","","",""
"learning-instructions","177","676395","0.0-11.0-1.0-0.0","5193","1","16","Female","approach_avoid_spark_v1","""event"",""trial"",""time""
""fullscreenenter"",""1"",""3671""
","
","
","""event"",""trial"",""time""
""fullscreenenter"",""1"",""3671""
","
","","","","","","1013.2000000178814","<p> Your goal in this round is to take care of lots of animals. </p></div>","","0","instructions","","","","","","","","","","",""
"learning-instructions","178","689058","0.0-11.0-1.0-0.1","5193","1","16","Female","approach_avoid_spark_v1","""event"",""trial"",""time""
""fullscreenenter"",""1"",""3671""
","
","
","""event"",""trial"",""time""
""fullscreenenter"",""1"",""3671""
","
","","","","","","975.3000000119209","<p> Some animals want to be pet, while other animals want to be left alone.  </p><p> On each turn, you will see an animal.   </p><p> You need to decide whether to pet it or not.  </p>","","0","instructions","","","","","","","","","","",""
"learning-instructions","179","695615","0.0-11.0-1.0-0.2","5193","1","16","Female","approach_avoid_spark_v1","""event"",""trial"",""time""
""fullscreenenter"",""1"",""3671""
","
","
","""event"",""trial"",""time""
""fullscreenenter"",""1"",""3671""
","
","","","","","","798.4000000059605","<p> You can pet the animal by pressing 1 and leave the animal alone by pressing 0. </p><br><div class=""choice-instructions-grid""> <div class=""choice-option""><img src=""images/approach.png"" class=""choice-option-img"" stage=""instructions"" position=""0"" ><div class=""choice-option-text""> Press ""1."" </div></div><div class=""choice-option""><img src=""images/avoid.png"" class=""choice-option-img"" stage=""instructions"" position=""1"" ><div class=""choice-option-text""> Press ""0."" </div></div>","","0","instructions","","","","","","","","","","",""
"learning-instructions","180","705795","0.0-11.0-1.0-0.3","5193","1","16","Female","approach_avoid_spark_v1","""event"",""trial"",""time""
""fullscreenenter"",""1"",""3671""
","
","
","""event"",""trial"",""time""
""fullscreenenter"",""1"",""3671""
","
","","","","","","894.8000000119209","<p> If you pet an animal that wants to be pet, you will make it feel happy! </p><p> But if you pet an animal that wants to be left alone, you will make it feel angry. </p>","","0","instructions","","","","","","","","","","",""
"learning-instructions","181","719633","0.0-11.0-1.0-0.4","5193","1","16","Female","approach_avoid_spark_v1","""event"",""trial"",""time""
""fullscreenenter"",""1"",""3671""
","
","
","""event"",""trial"",""time""
""fullscreenenter"",""1"",""3671""
","
","","","","","","1044","<p> You will earn points based on how you made the animal feel. </p><p> If you made it feel happy, you will WIN anywhere from 1 - 9 points, </p><p> but if you made it feel angry, you will LOSE anywhere from 1 - 9 points. </p>","","0","instructions","","","","","","","","","","",""
"learning-instructions","182","726824","0.0-11.0-1.0-0.5","5193","1","16","Female","approach_avoid_spark_v1","""event"",""trial"",""time""
""fullscreenenter"",""1"",""3671""
","
","
","""event"",""trial"",""time""
""fullscreenenter"",""1"",""3671""
","
","","","","","","543.5","<p> You will see how many points you won or lost in the center of the screen. </p><p> Here is what you would see if you won 5 points: </p><p style=""color:green;font-size:50px;font-weight:bolder"">5</p>","","0","instructions","","","","","","","","","","",""
"learning-instructions","183","730363","0.0-11.0-1.0-0.6","5193","1","16","Female","approach_avoid_spark_v1","""event"",""trial"",""time""
""fullscreenenter"",""1"",""3671""
","
","
","""event"",""trial"",""time""
""fullscreenenter"",""1"",""3671""
","
","","","","","","710.2000000178814","<p> And here is what you would see if you lost 3 points: </p><p style=""color:red;font-size:50px;font-weight:bolder"">-3</p>","","0","instructions","","","","","","","","","","",""
"learning-instructions","184","744987","0.0-11.0-1.0-0.7","5193","1","16","Female","approach_avoid_spark_v1","""event"",""trial"",""time""
""fullscreenenter"",""1"",""3671""
","
","
","""event"",""trial"",""time""
""fullscreenenter"",""1"",""3671""
","
","","","","","","408.39999997615814","<p> Some animals will become very happy or very angry. </p><p> These animals will make you win or lose LOTS of points. </p><p> Other animals have less strong feelings. </p><p> These animals will make you win or lose small amounts of points. </p>","","0","instructions","","","","","","","","","","",""
"learning-instructions","185","756997","0.0-11.0-1.0-0.8","5193","1","16","Female","approach_avoid_spark_v1","""event"",""trial"",""time""
""fullscreenenter"",""1"",""3671""
","
","
","""event"",""trial"",""time""
""fullscreenenter"",""1"",""3671""
","
","","","","","","675.1000000238419","<p> If you choose to leave the animal alone, you will not win or lose any points. </p><p>  However, in the center of the screen, you will see the number of points you WOULD HAVE won or lost if you had pet the animal. </p>","","0","instructions","","","","","","","","","","",""
"learning-instructions","186","769388","0.0-11.0-1.0-0.9","5193","1","16","Female","approach_avoid_spark_v1","""event"",""trial"",""time""
""fullscreenenter"",""1"",""3671""
","
","
","""event"",""trial"",""time""
""fullscreenenter"",""1"",""3671""
","
","","","","","","642.9000000059605","<p> Here is what you might see if you did not pet the animal but the animal wanted to be pet: </p><p style=""color:grey; font-size:50px; display: inline-block; border-spacing: 15px; border-width:3px; border-style:solid; border-color:red"">  &nbsp; 6 &nbsp; </p><p> Remember, in this case, you would not win or lose ANY points because you did not pet the animal.  </p>","","0","instructions","","","","","","","","","","",""
"learning-instructions","187","777053","0.0-11.0-1.0-0.10","5193","1","16","Female","approach_avoid_spark_v1","""event"",""trial"",""time""
""fullscreenenter"",""1"",""3671""
","
","
","""event"",""trial"",""time""
""fullscreenenter"",""1"",""3671""
","
","","","","","","429.89999997615814","<p> Try to make the best choice for each animal because </p><p> at the end of the game, you will earn bonus money based on how many points you earned. </p>","","0","instructions","","","","","","","","","","",""
"learning-instructions","188","786745","0.0-11.0-1.0-0.11","5193","1","16","Female","approach_avoid_spark_v1","""event"",""trial"",""time""
""fullscreenenter"",""1"",""3671""
","
","
","""event"",""trial"",""time""
""fullscreenenter"",""1"",""3671""
","
","","","","","","1512.5999999940395","<p> You will have 3 seconds to make each choice. Try to respond before time runs out! </p><p> You will lose 5 points each time you do not make a response. </p>","","0","instructions","","","","","","","","","","",""
"html-keyboard-response","189","787354","0.0-11.0-2.0-0.0","5193","1","16","Female","approach_avoid_spark_v1","""event"",""trial"",""time""
""fullscreenenter"",""1"",""3671""
","
","
","""event"",""trial"",""time""
""fullscreenenter"",""1"",""3671""
","
","","","","","","null","<div style=""font-size:60px;"">+</div>","null","","fixation","","","","","","","","","","",""
"aa-learning-trial","190","790360","0.0-11.0-2.0-1.0","5193","1","16","Female","approach_avoid_spark_v1","""event"",""trial"",""time""
""fullscreenenter"",""1"",""3671""
","
","
","""event"",""trial"",""time""
""fullscreenenter"",""1"",""3671""
","
","","","","","","1086.7999999821186","images/rodent2.png","","","learning","4","4","1","1","rodent","pets","2","1","","good","[4]"
"html-keyboard-response","191","790861","0.0-11.0-2.0-0.1","5193","1","16","Female","approach_avoid_spark_v1","""event"",""trial"",""time""
""fullscreenenter"",""1"",""3671""
","
","
","""event"",""trial"",""time""
""fullscreenenter"",""1"",""3671""
","
","","","","","","null","<div style=""font-size:60px;"">+</div>","null","","fixation","","","","","","","","","","",""
"aa-learning-trial","192","793868","0.0-11.0-2.0-1.1","5193","1","16","Female","approach_avoid_spark_v1","""event"",""trial"",""time""
""fullscreenenter"",""1"",""3671""
","
","
","""event"",""trial"",""time""
""fullscreenenter"",""1"",""3671""
","
","","","","","","525.0999999940395","images/dog3.png","","","learning","-9","-9","1","1","dog","pets","2","1","","neutral","0"
"html-keyboard-response","193","794370","0.0-11.0-2.0-0.2","5193","1","16","Female","approach_avoid_spark_v1","""event"",""trial"",""time""
""fullscreenenter"",""1"",""3671""
","
","
","""event"",""trial"",""time""
""fullscreenenter"",""1"",""3671""
","
","","","","","","null","<div style=""font-size:60px;"">+</div>","null","","fixation","","","","","","","","","","",""
"aa-learning-trial","194","797373","0.0-11.0-2.0-1.2","5193","1","16","Female","approach_avoid_spark_v1","""event"",""trial"",""time""
""fullscreenenter"",""1"",""3671""
","
","
","""event"",""trial"",""time""
""fullscreenenter"",""1"",""3671""
","
","","","","","","621.1999999880791","images/cat3.png","","","learning","8","8","1","1","cat","pets","2","1","","bad","[-3]"
"html-keyboard-response","195","797875","0.0-11.0-2.0-0.3","5193","1","16","Female","approach_avoid_spark_v1","""event"",""trial"",""time""
""fullscreenenter"",""1"",""3671""
","
","
","""event"",""trial"",""time""
""fullscreenenter"",""1"",""3671""
","
","","","","","","null","<div style=""font-size:60px;"">+</div>","null","","fixation","","","","","","","","","","",""
"aa-learning-trial","196","800878","0.0-11.0-2.0-1.3","5193","1","16","Female","approach_avoid_spark_v1","""event"",""trial"",""time""
""fullscreenenter"",""1"",""3671""
","
","
","""event"",""trial"",""time""
""fullscreenenter"",""1"",""3671""
","
","","","","","","664.0999999940395","images/rodent7.png","","","learning","-6","-6","1","1","rodent","pets","2","1","","good","[4]"
"html-keyboard-response","197","801379","0.0-11.0-2.0-0.4","5193","1","16","Female","approach_avoid_spark_v1","""event"",""trial"",""time""
""fullscreenenter"",""1"",""3671""
","
","
","""event"",""trial"",""time""
""fullscreenenter"",""1"",""3671""
","
","","","","","","null","<div style=""font-size:60px;"">+</div>","null","","fixation","","","","","","","","","","",""
"aa-learning-trial","198","804386","0.0-11.0-2.0-1.4","5193","1","16","Female","approach_avoid_spark_v1","""event"",""trial"",""time""
""fullscreenenter"",""1"",""3671""
","
","
","""event"",""trial"",""time""
""fullscreenenter"",""1"",""3671""
","
","","","","","","615.9000000059605","images/dog6.png","","","learning","-1","0","0","0","dog","pets","2","1","","neutral","0"
"html-keyboard-response","199","804889","0.0-11.0-2.0-0.5","5193","1","16","Female","approach_avoid_spark_v1","""event"",""trial"",""time""
""fullscreenenter"",""1"",""3671""
","
","
","""event"",""trial"",""time""
""fullscreenenter"",""1"",""3671""
","
","","","","","","null","<div style=""font-size:60px;"">+</div>","null","","fixation","","","","","","","","","","",""
"aa-learning-trial","200","807892","0.0-11.0-2.0-1.5","5193","1","16","Female","approach_avoid_spark_v1","""event"",""trial"",""time""
""fullscreenenter"",""1"",""3671""
","
","
","""event"",""trial"",""time""
""fullscreenenter"",""1"",""3671""
","
","","","","","","710","images/dog6.png","","","learning","-1","0","0","0","dog","pets","2","1","","neutral","0"
"html-keyboard-response","201","808393","0.0-11.0-2.0-0.6","5193","1","16","Female","approach_avoid_spark_v1","""event"",""trial"",""time""
""fullscreenenter"",""1"",""3671""
","
","
","""event"",""trial"",""time""
""fullscreenenter"",""1"",""3671""
","
","","","","","","null","<div style=""font-size:60px;"">+</div>","null","","fixation","","","","","","","","","","",""
"aa-learning-trial","202","811396","0.0-11.0-2.0-1.6","5193","1","16","Female","approach_avoid_spark_v1","""event"",""trial"",""time""
""fullscreenenter"",""1"",""3671""
","
","
","""event"",""trial"",""time""
""fullscreenenter"",""1"",""3671""
","
","","","","","","749","images/dog8.png","","","learning","5","0","0","0","dog","pets","2","1","","neutral","0"
"html-keyboard-response","203","811900","0.0-11.0-2.0-0.7","5193","1","16","Female","approach_avoid_spark_v1","""event"",""trial"",""time""
""fullscreenenter"",""1"",""3671""
","
","
","""event"",""trial"",""time""
""fullscreenenter"",""1"",""3671""
","
","","","","","","null","<div style=""font-size:60px;"">+</div>","null","","fixation","","","","","","","","","","",""
"aa-learning-trial","204","814906","0.0-11.0-2.0-1.7","5193","1","16","Female","approach_avoid_spark_v1","""event"",""trial"",""time""
""fullscreenenter"",""1"",""3671""
","
","
","""event"",""trial"",""time""
""fullscreenenter"",""1"",""3671""
","
","","","","","","1428.0999999940395","images/rodent2.png","","","learning","4","4","1","1","rodent","pets","2","1","","good","[4]"
"html-keyboard-response","205","815408","0.0-11.0-2.0-0.8","5193","1","16","Female","approach_avoid_spark_v1","""event"",""trial"",""time""
""fullscreenenter"",""1"",""3671""
","
","
","""event"",""trial"",""time""
""fullscreenenter"",""1"",""3671""
","
","","","","","","null","<div style=""font-size:60px;"">+</div>","null","","fixation","","","","","","","","","","",""
"aa-learning-trial","206","818414","0.0-11.0-2.0-1.8","5193","1","16","Female","approach_avoid_spark_v1","""event"",""trial"",""time""
""fullscreenenter"",""1"",""3671""
","
","
","""event"",""trial"",""time""
""fullscreenenter"",""1"",""3671""
","
","","","","","","770.3000000119209","images/dog3.png","","","learning","-9","0","0","0","dog","pets","2","1","","neutral","0"
"html-keyboard-response","207","818920","0.0-11.0-2.0-0.9","5193","1","16","Female","approach_avoid_spark_v1","""event"",""trial"",""time""
""fullscreenenter"",""1"",""3671""
","
","
","""event"",""trial"",""time""
""fullscreenenter"",""1"",""3671""
","
","","","","","","null","<div style=""font-size:60px;"">+</div>","null","","fixation","","","","","","","","","","",""
"aa-learning-trial","208","821927","0.0-11.0-2.0-1.9","5193","1","16","Female","approach_avoid_spark_v1","""event"",""trial"",""time""
""fullscreenenter"",""1"",""3671""
","
","
","""event"",""trial"",""time""
""fullscreenenter"",""1"",""3671""
","
","","","","","","613.5","images/cat5.png","","","learning","1","1","1","1","cat","pets","2","1","","bad","[-3]"
"html-keyboard-response","209","822428","0.0-11.0-2.0-0.10","5193","1","16","Female","approach_avoid_spark_v1","""event"",""trial"",""time""
""fullscreenenter"",""1"",""3671""
","
","
","""event"",""trial"",""time""
""fullscreenenter"",""1"",""3671""
","
","","","","","","null","<div style=""font-size:60px;"">+</div>","null","","fixation","","","","","","","","","","",""
"aa-learning-trial","210","825433","0.0-11.0-2.0-1.10","5193","1","16","Female","approach_avoid_spark_v1","""event"",""trial"",""time""
""fullscreenenter"",""1"",""3671""
","
","
","""event"",""trial"",""time""
""fullscreenenter"",""1"",""3671""
","
","","","","","","723.5","images/cat8.png","","","learning","-8","-8","1","1","cat","pets","2","1","","bad","[-3]"
"html-keyboard-response","211","825938","0.0-11.0-2.0-0.11","5193","1","16","Female","approach_avoid_spark_v1","""event"",""trial"",""time""
""fullscreenenter"",""1"",""3671""
","
","
","""event"",""trial"",""time""
""fullscreenenter"",""1"",""3671""
","
","","","","","","null","<div style=""font-size:60px;"">+</div>","null","","fixation","","","","","","","","","","",""
"aa-learning-trial","212","828945","0.0-11.0-2.0-1.11","5193","1","16","Female","approach_avoid_spark_v1","""event"",""trial"",""time""
""fullscreenenter"",""1"",""3671""
","
","
","""event"",""trial"",""time""
""fullscreenenter"",""1"",""3671""
","
","","","","","","788.5","images/cat5.png","","","learning","1","1","1","1","cat","pets","2","1","","bad","[-3]"
"html-keyboard-response","213","829450","0.0-11.0-2.0-0.12","5193","1","16","Female","approach_avoid_spark_v1","""event"",""trial"",""time""
""fullscreenenter"",""1"",""3671""
","
","
","""event"",""trial"",""time""
""fullscreenenter"",""1"",""3671""
","
","","","","","","null","<div style=""font-size:60px;"">+</div>","null","","fixation","","","","","","","","","","",""
"aa-learning-trial","214","832454","0.0-11.0-2.0-1.12","5193","1","16","Female","approach_avoid_spark_v1","""event"",""trial"",""time""
""fullscreenenter"",""1"",""3671""
","
","
","""event"",""trial"",""time""
""fullscreenenter"",""1"",""3671""
","
","","","","","","1044.9000000059605","images/rodent7.png","","","learning","-6","0","0","0","rodent","pets","2","1","","good","[4]"
"html-keyboard-response","215","832958","0.0-11.0-2.0-0.13","5193","1","16","Female","approach_avoid_spark_v1","""event"",""trial"",""time""
""fullscreenenter"",""1"",""3671""
","
","
","""event"",""trial"",""time""
""fullscreenenter"",""1"",""3671""
","
","","","","","","null","<div style=""font-size:60px;"">+</div>","null","","fixation","","","","","","","","","","",""
"aa-learning-trial","216","835964","0.0-11.0-2.0-1.13","5193","1","16","Female","approach_avoid_spark_v1","""event"",""trial"",""time""
""fullscreenenter"",""1"",""3671""
","
","
","""event"",""trial"",""time""
""fullscreenenter"",""1"",""3671""
","
","","","","","","756.7000000178814","images/rodent5.png","","","learning","-2","0","0","0","rodent","pets","2","1","","good","[4]"
"html-keyboard-response","217","836469","0.0-11.0-2.0-0.14","5193","1","16","Female","approach_avoid_spark_v1","""event"",""trial"",""time""
""fullscreenenter"",""1"",""3671""
","
","
","""event"",""trial"",""time""
""fullscreenenter"",""1"",""3671""
","
","","","","","","null","<div style=""font-size:60px;"">+</div>","null","","fixation","","","","","","","","","","",""
"aa-learning-trial","218","839476","0.0-11.0-2.0-1.14","5193","1","16","Female","approach_avoid_spark_v1","""event"",""trial"",""time""
""fullscreenenter"",""1"",""3671""
","
","
","""event"",""trial"",""time""
""fullscreenenter"",""1"",""3671""
","
","","","","","","1151.0999999940395","images/cat3.png","","","learning","8","8","1","1","cat","pets","2","1","","bad","[-3]"
"html-keyboard-response","219","839977","0.0-11.0-2.0-0.15","5193","1","16","Female","approach_avoid_spark_v1","""event"",""trial"",""time""
""fullscreenenter"",""1"",""3671""
","
","
","""event"",""trial"",""time""
""fullscreenenter"",""1"",""3671""
","
","","","","","","null","<div style=""font-size:60px;"">+</div>","null","","fixation","","","","","","","","","","",""
"aa-learning-trial","220","842982","0.0-11.0-2.0-1.15","5193","1","16","Female","approach_avoid_spark_v1","""event"",""trial"",""time""
""fullscreenenter"",""1"",""3671""
","
","
","""event"",""trial"",""time""
""fullscreenenter"",""1"",""3671""
","
","","","","","","655.4000000059605","images/cat3.png","","","learning","8","8","1","1","cat","pets","2","1","","bad","[-3]"
"html-keyboard-response","221","843487","0.0-11.0-2.0-0.16","5193","1","16","Female","approach_avoid_spark_v1","""event"",""trial"",""time""
""fullscreenenter"",""1"",""3671""
","
","
","""event"",""trial"",""time""
""fullscreenenter"",""1"",""3671""
","
","","","","","","null","<div style=""font-size:60px;"">+</div>","null","","fixation","","","","","","","","","","",""
"aa-learning-trial","222","846489","0.0-11.0-2.0-1.16","5193","1","16","Female","approach_avoid_spark_v1","""event"",""trial"",""time""
""fullscreenenter"",""1"",""3671""
","
","
","""event"",""trial"",""time""
""fullscreenenter"",""1"",""3671""
","
","","","","","","716","images/rodent5.png","","","learning","-2","0","0","0","rodent","pets","2","1","","good","[4]"
"html-keyboard-response","223","846993","0.0-11.0-2.0-0.17","5193","1","16","Female","approach_avoid_spark_v1","""event"",""trial"",""time""
""fullscreenenter"",""1"",""3671""
","
","
","""event"",""trial"",""time""
""fullscreenenter"",""1"",""3671""
","
","","","","","","null","<div style=""font-size:60px;"">+</div>","null","","fixation","","","","","","","","","","",""
"aa-learning-trial","224","849995","0.0-11.0-2.0-1.17","5193","1","16","Female","approach_avoid_spark_v1","""event"",""trial"",""time""
""fullscreenenter"",""1"",""3671""
","
","
","""event"",""trial"",""time""
""fullscreenenter"",""1"",""3671""
","
","","","","","","1144.4000000059605","images/dog6.png","","","learning","-1","-1","1","1","dog","pets","2","1","","neutral","0"
"html-keyboard-response","225","850500","0.0-11.0-2.0-0.18","5193","1","16","Female","approach_avoid_spark_v1","""event"",""trial"",""time""
""fullscreenenter"",""1"",""3671""
","
","
","""event"",""trial"",""time""
""fullscreenenter"",""1"",""3671""
","
","","","","","","null","<div style=""font-size:60px;"">+</div>","null","","fixation","","","","","","","","","","",""
"aa-learning-trial","226","853507","0.0-11.0-2.0-1.18","5193","1","16","Female","approach_avoid_spark_v1","""event"",""trial"",""time""
""fullscreenenter"",""1"",""3671""
","
","
","""event"",""trial"",""time""
""fullscreenenter"",""1"",""3671""
","
","","","","","","926.1999999880791","images/dog3.png","","","learning","-9","0","0","0","dog","pets","2","1","","neutral","0"
"html-keyboard-response","227","854012","0.0-11.0-2.0-0.19","5193","1","16","Female","approach_avoid_spark_v1","""event"",""trial"",""time""
""fullscreenenter"",""1"",""3671""
","
","
","""event"",""trial"",""time""
""fullscreenenter"",""1"",""3671""
","
","","","","","","null","<div style=""font-size:60px;"">+</div>","null","","fixation","","","","","","","","","","",""
"aa-learning-trial","228","857019","0.0-11.0-2.0-1.19","5193","1","16","Female","approach_avoid_spark_v1","""event"",""trial"",""time""
""fullscreenenter"",""1"",""3671""
","
","
","""event"",""trial"",""time""
""fullscreenenter"",""1"",""3671""
","
","","","","","","1052.199999988079","images/rodent2.png","","","learning","4","4","1","1","rodent","pets","2","1","","good","[4]"
"html-keyboard-response","229","857520","0.0-11.0-2.0-0.20","5193","1","16","Female","approach_avoid_spark_v1","""event"",""trial"",""time""
""fullscreenenter"",""1"",""3671""
","
","
","""event"",""trial"",""time""
""fullscreenenter"",""1"",""3671""
","
","","","","","","null","<div style=""font-size:60px;"">+</div>","null","","fixation","","","","","","","","","","",""
"aa-learning-trial","230","860523","0.0-11.0-2.0-1.20","5193","1","16","Female","approach_avoid_spark_v1","""event"",""trial"",""time""
""fullscreenenter"",""1"",""3671""
","
","
","""event"",""trial"",""time""
""fullscreenenter"",""1"",""3671""
","
","","","","","","713.5","images/cat5.png","","","learning","1","1","1","1","cat","pets","2","1","","bad","[-3]"
"html-keyboard-response","231","861025","0.0-11.0-2.0-0.21","5193","1","16","Female","approach_avoid_spark_v1","""event"",""trial"",""time""
""fullscreenenter"",""1"",""3671""
","
","
","""event"",""trial"",""time""
""fullscreenenter"",""1"",""3671""
","
","","","","","","null","<div style=""font-size:60px;"">+</div>","null","","fixation","","","","","","","","","","",""
"aa-learning-trial","232","864027","0.0-11.0-2.0-1.21","5193","1","16","Female","approach_avoid_spark_v1","""event"",""trial"",""time""
""fullscreenenter"",""1"",""3671""
","
","
","""event"",""trial"",""time""
""fullscreenenter"",""1"",""3671""
","
","","","","","","932.9000000059605","images/rodent1.png","","","learning","9","9","1","1","rodent","pets","2","1","","good","[4]"
"html-keyboard-response","233","864531","0.0-11.0-2.0-0.22","5193","1","16","Female","approach_avoid_spark_v1","""event"",""trial"",""time""
""fullscreenenter"",""1"",""3671""
","
","
","""event"",""trial"",""time""
""fullscreenenter"",""1"",""3671""
","
","","","","","","null","<div style=""font-size:60px;"">+</div>","null","","fixation","","","","","","","","","","",""
"aa-learning-trial","234","867537","0.0-11.0-2.0-1.22","5193","1","16","Female","approach_avoid_spark_v1","""event"",""trial"",""time""
""fullscreenenter"",""1"",""3671""
","
","
","""event"",""trial"",""time""
""fullscreenenter"",""1"",""3671""
","
","","","","","","617.2000000178814","images/dog3.png","","","learning","-9","0","0","0","dog","pets","2","1","","neutral","0"
"html-keyboard-response","235","868043","0.0-11.0-2.0-0.23","5193","1","16","Female","approach_avoid_spark_v1","""event"",""trial"",""time""
""fullscreenenter"",""1"",""3671""
","
","
","""event"",""trial"",""time""
""fullscreenenter"",""1"",""3671""
","
","","","","","","null","<div style=""font-size:60px;"">+</div>","null","","fixation","","","","","","","","","","",""
"aa-learning-trial","236","871050","0.0-11.0-2.0-1.23","5193","1","16","Female","approach_avoid_spark_v1","""event"",""trial"",""time""
""fullscreenenter"",""1"",""3671""
","
","
","""event"",""trial"",""time""
""fullscreenenter"",""1"",""3671""
","
","","","","","","629.9000000059605","images/cat5.png","","","learning","1","1","1","1","cat","pets","2","1","","bad","[-3]"
