"trial_type","trial_index","time_elapsed","internal_node_id","subject_id","task_condition","age","gender","task_version","interactions","blur_events","focus_events","fullscreenenter_events","fullscreenexit_events","success","timeout","failed_images","failed_audio","failed_video","rt","stimulus","response","button_pressed","task_part","approach_reward","points","key_press","option_selected","stim_cat","task_block","block_condition","block_number","correct","cat_type","mean_cat_reward"
"pavlovia","0","6","0.0-0.0","6460","1","11","Male","approach_avoid_spark_v1","""event"",""trial"",""time""
""fullscreenenter"",""1"",""5230""
","
","
","""event"",""trial"",""time""
""fullscreenenter"",""1"",""5230""
","
","","","","","","","","","","","","","","","","","","","","",""
"fullscreen","1","6175","0.0-1.0","6460","1","11","Male","approach_avoid_spark_v1","""event"",""trial"",""time""
""fullscreenenter"",""1"",""5230""
","
","
","""event"",""trial"",""time""
""fullscreenenter"",""1"",""5230""
","
","true","","","","","","","","","","","","","","","","","","","",""
"preload","2","17102","0.0-2.0","6460","1","11","Male","approach_avoid_spark_v1","""event"",""trial"",""time""
""fullscreenenter"",""1"",""5230""
","
","
","""event"",""trial"",""time""
""fullscreenenter"",""1"",""5230""
","
","true","false","[]","[]","[]","","","","","","","","","","","","","","","",""
"audio-keyboard-response","3","22105","0.0-3.0","6460","1","11","Male","approach_avoid_spark_v1","""event"",""trial"",""time""
""fullscreenenter"",""1"",""5230""
","
","
","""event"",""trial"",""time""
""fullscreenenter"",""1"",""5230""
","
","","","","","","5000","audio/beep_loop.wav"," ","","","","","","","","","","","","",""
"audio-button-response","4","26596","0.0-4.0","6460","1","11","Male","approach_avoid_spark_v1","""event"",""trial"",""time""
""fullscreenenter"",""1"",""5230""
","
","
","""event"",""trial"",""time""
""fullscreenenter"",""1"",""5230""
","
","","","","","","4491","audio/shark.wav","4","","","","","","","","","","","","",""
"audio-button-response","5","29147","0.0-5.0","6460","1","11","Male","approach_avoid_spark_v1","""event"",""trial"",""time""
""fullscreenenter"",""1"",""5230""
","
","
","""event"",""trial"",""time""
""fullscreenenter"",""1"",""5230""
","
","","","","","","1541","audio/turtle.wav","1","","","","","","","","","","","","",""
"preload","6","33915","0.0-6.0","6460","1","11","Male","approach_avoid_spark_v1","""event"",""trial"",""time""
""fullscreenenter"",""1"",""5230""
","
","
","""event"",""trial"",""time""
""fullscreenenter"",""1"",""5230""
","
","true","false","[]","[]","[]","","","","","","","","","","","","","","","",""
"html-keyboard-response","7","40999","0.0-7.0","6460","1","11","Male","approach_avoid_spark_v1","""event"",""trial"",""time""
""fullscreenenter"",""1"",""5230""
","
","
","""event"",""trial"",""time""
""fullscreenenter"",""1"",""5230""
","
","","","","","","7082.800000190735","Welcome to the experiment. Press any key to begin and to advance the instructions.","h","","","","","","","","","","","","",""
"learning-instructions","8","50498","0.0-8.0-0.0-0.0","6460","1","11","Male","approach_avoid_spark_v1","""event"",""trial"",""time""
""fullscreenenter"",""1"",""5230""
","
","
","""event"",""trial"",""time""
""fullscreenenter"",""1"",""5230""
","
","","","","","","2545.4000000953674","<p> Welcome! Today you are going to play 6 different rounds of a decision-making game. </p><p> Use the mouse to click next to continue. </p>","","0","instructions","","","","","","","","","","",""
"learning-instructions","9","55713","0.0-8.0-0.0-0.1","6460","1","11","Male","approach_avoid_spark_v1","""event"",""trial"",""time""
""fullscreenenter"",""1"",""5230""
","
","
","""event"",""trial"",""time""
""fullscreenenter"",""1"",""5230""
","
","","","","","","2480.9000000953674","<p> You will start with a practice round to learn the rules. </p>","","0","instructions","","","","","","","","","","",""
"learning-instructions","10","61992","0.0-8.0-0.0-0.2","6460","1","11","Male","approach_avoid_spark_v1","""event"",""trial"",""time""
""fullscreenenter"",""1"",""5230""
","
","
","""event"",""trial"",""time""
""fullscreenenter"",""1"",""5230""
","
","","","","","","2819.5","<p> Your goal in this round is to give out sports equipment to kids. </p></div>","","0","instructions","","","","","","","","","","",""
"learning-instructions","11","70666","0.0-8.0-0.0-0.3","6460","1","11","Male","approach_avoid_spark_v1","""event"",""trial"",""time""
""fullscreenenter"",""1"",""5230""
","
","
","""event"",""trial"",""time""
""fullscreenenter"",""1"",""5230""
","
","","","","","","1114.1999998092651","<p> The kids only like some of the equipment.  </p><p> On each turn, you will see a piece of sports equipment.   </p><p> You need to decide whether to give it to the kids or not.  </p>","","0","instructions","","","","","","","","","","",""
"learning-instructions","12","82507","0.0-8.0-0.0-0.4","6460","1","11","Male","approach_avoid_spark_v1","""event"",""trial"",""time""
""fullscreenenter"",""1"",""5230""
","
","
","""event"",""trial"",""time""
""fullscreenenter"",""1"",""5230""
","
","","","","","","7074.599999904633","<p> You can give them the equipment by pressing 1 and choose not to give it to them by pressing 0. </p><br><div class=""choice-instructions-grid""> <div class=""choice-option""><img src=""images/approach.png"" class=""choice-option-img"" stage=""instructions"" position=""0"" ><div class=""choice-option-text""> Press ""1."" </div></div><div class=""choice-option""><img src=""images/avoid.png"" class=""choice-option-img"" stage=""instructions"" position=""1"" ><div class=""choice-option-text""> Press ""0."" </div></div>","","0","instructions","","","","","","","","","","",""
"learning-instructions","13","91011","0.0-8.0-0.0-0.5","6460","1","11","Male","approach_avoid_spark_v1","""event"",""trial"",""time""
""fullscreenenter"",""1"",""5230""
","
","
","""event"",""trial"",""time""
""fullscreenenter"",""1"",""5230""
","
","","","","","","1119.2999997138977","<p> If you give them a piece of equipment they like, they will be happy! </p><p> But if you give them a piece of equipment they do not like, they will be sad. </p>","","0","instructions","","","","","","","","","","",""
"learning-instructions","14","102762","0.0-8.0-0.0-0.6","6460","1","11","Male","approach_avoid_spark_v1","""event"",""trial"",""time""
""fullscreenenter"",""1"",""5230""
","
","
","""event"",""trial"",""time""
""fullscreenenter"",""1"",""5230""
","
","","","","","","1229.5999999046326","<p> You will earn points based on how you make kids feel. </p><p> If you make them happy, you will WIN anywhere from 1 - 9 points, </p><p> but if you make them sad, you will LOSE anywhere from 1 - 9 points. </p>","","0","instructions","","","","","","","","","","",""
"learning-instructions","15","113724","0.0-8.0-0.0-0.7","6460","1","11","Male","approach_avoid_spark_v1","""event"",""trial"",""time""
""fullscreenenter"",""1"",""5230""
","
","
","""event"",""trial"",""time""
""fullscreenenter"",""1"",""5230""
","
","","","","","","1392.0999999046326","<p> You will see how many points you won or lost in the center of the screen. </p><p> Here is what you would see if you won 6 points: </p><p style=""color:green;font-size:50px;font-weight:bolder"">6</p><p style=""color:green"">The text is GREEN because you WON points.</p>","","0","instructions","","","","","","","","","","",""
"learning-instructions","16","121392","0.0-8.0-0.0-0.8","6460","1","11","Male","approach_avoid_spark_v1","""event"",""trial"",""time""
""fullscreenenter"",""1"",""5230""
","
","
","""event"",""trial"",""time""
""fullscreenenter"",""1"",""5230""
","
","","","","","","2160.199999809265","<p> And here is what you would see if you lost 4 points: </p><p style=""color:red;font-size:50px;font-weight:bolder"">-4</p><p style=""color:red"">The text is RED because you LOST points. </p>","","0","instructions","","","","","","","","","","",""
"learning-instructions","17","138194","0.0-8.0-0.0-0.9","6460","1","11","Male","approach_avoid_spark_v1","""event"",""trial"",""time""
""fullscreenenter"",""1"",""5230""
","
","
","""event"",""trial"",""time""
""fullscreenenter"",""1"",""5230""
","
","","","","","","2091.9000000953674","<p> Some of the equipment will make the kids VERY happy or sad. </p><p> These pieces of equipment will make you win or lose LOTS of points. </p><p> Other pieces of equipment will only make the kids a little happy or sad. </p><p> These pieces of equipment will make you win or lose small amounts of points. </p>","","0","instructions","","","","","","","","","","",""
"learning-instructions","18","150425","0.0-8.0-0.0-0.10","6460","1","11","Male","approach_avoid_spark_v1","""event"",""trial"",""time""
""fullscreenenter"",""1"",""5230""
","
","
","""event"",""trial"",""time""
""fullscreenenter"",""1"",""5230""
","
","","","","","","1603.6000003814697","<p> If you choose not to give them the equipment, you will not win or lose any points. </p><p>  However, in the center of the screen, you will see the number of points you WOULD HAVE won or lost if you had given them the equipment. </p>","","0","instructions","","","","","","","","","","",""
"learning-instructions","19","173733","0.0-8.0-0.0-0.11","6460","1","11","Male","approach_avoid_spark_v1","""event"",""trial"",""time""
""fullscreenenter"",""1"",""5230""
","
","
","""event"",""trial"",""time""
""fullscreenenter"",""1"",""5230""
","
","","","","","","1780.5","<p> Here is what you might see if you did not give the equipment to the kids but it would have made them happy: </p><p style=""color:grey; font-size:50px; display: inline-block; border-spacing: 15px; border-width:3px; border-style:solid; border-color:red"">  &nbsp; 7 &nbsp; </p><p> Remember, in this case, you would not win or lose ANY points because you did not give them the equipment.  </p><p style=""color:grey"">The text is GREY because you earned ZERO points. </p><p style=""color:red"">However, choosing to give the kids the equipment would have made you win points. The box around the text is RED because you chose the worse option. </p>","","0","instructions","","","","","","","","","","",""
"learning-instructions","20","196261","0.0-8.0-0.0-0.12","6460","1","11","Male","approach_avoid_spark_v1","""event"",""trial"",""time""
""fullscreenenter"",""1"",""5230""
","
","
","""event"",""trial"",""time""
""fullscreenenter"",""1"",""5230""
","
","","","","","","1448.5999999046326","<p> Here is what you might see if you did not give the equipment to the kids but it would have made them sad: </p><p style=""color:grey;font-size:50px; display: inline-block; border-spacing: 15px; border-width:3px; border-style:solid; border-color:green"">  &nbsp; -8 &nbsp; </p><p> Remember, in this case, you would not win or lose ANY points because you did not give them the equipment.  </p><p style=""color:grey"">The text is GREY because you earned ZERO points. </p><p  style=""color:green""> Choosing to give the kids the equipment would have made you lose points. The box around the text is GREEN because you chose the better option.</p>","","0","instructions","","","","","","","","","","",""
"learning-instructions","21","206749","0.0-8.0-0.0-0.13","6460","1","11","Male","approach_avoid_spark_v1","""event"",""trial"",""time""
""fullscreenenter"",""1"",""5230""
","
","
","""event"",""trial"",""time""
""fullscreenenter"",""1"",""5230""
","
","","","","","","1107","<p> You will have 3 seconds to make each choice. Try to respond before time runs out! </p><p> You will lose 5 points each time you do not make a response. </p>","","0","instructions","","","","","","","","","","",""
"learning-instructions","22","213126","0.0-8.0-0.0-0.14","6460","1","11","Male","approach_avoid_spark_v1","""event"",""trial"",""time""
""fullscreenenter"",""1"",""5230""
","
","
","""event"",""trial"",""time""
""fullscreenenter"",""1"",""5230""
","
","","","","","","954.0999999046326","<p> This is just a practice round, but in the real game, your bonus payment will depend on your total number of points.","","0","instructions","","","","","","","","","","",""
"learning-instructions","23","220943","0.0-8.0-0.0-0.15","6460","1","11","Male","approach_avoid_spark_v1","""event"",""trial"",""time""
""fullscreenenter"",""1"",""5230""
","
","
","""event"",""trial"",""time""
""fullscreenenter"",""1"",""5230""
","
","","","","","","2060.4000000953674","<p> Remember, you can give them the equipment by pressing 1 and choose not to give it to them by pressing 0. </p><br><div class=""choice-instructions-grid""> <div class=""choice-option""><img src=""images/approach.png"" class=""choice-option-img"" stage=""instructions"" position=""0"" ><div class=""choice-option-text""> Press ""1."" </div></div><div class=""choice-option""><img src=""images/avoid.png"" class=""choice-option-img"" stage=""instructions"" position=""1"" ><div class=""choice-option-text""> Press ""0."" </div></div>","","0","instructions","","","","","","","","","","",""
"html-button-response","24","223331","0.0-8.0-1.0","6460","1","11","Male","approach_avoid_spark_v1","""event"",""trial"",""time""
""fullscreenenter"",""1"",""5230""
","
","
","""event"",""trial"",""time""
""fullscreenenter"",""1"",""5230""
","
","","","","","","2272.800000190735","<p> Ready to practice? </p>","0","","","","","","","","","","","","",""
"html-keyboard-response","25","223961","0.0-8.0-2.0-0.0","6460","1","11","Male","approach_avoid_spark_v1","""event"",""trial"",""time""
""fullscreenenter"",""1"",""5230""
","
","
","""event"",""trial"",""time""
""fullscreenenter"",""1"",""5230""
","
","","","","","","null","<div style=""font-size:60px;"">+</div>","null","","fixation","","","","","","","","","","",""
"aa-learning-trial","26","226980","0.0-8.0-2.0-1.0","6460","1","11","Male","approach_avoid_spark_v1","""event"",""trial"",""time""
""fullscreenenter"",""1"",""5230""
","
","
","""event"",""trial"",""time""
""fullscreenenter"",""1"",""5230""
","
","","","","","","1588","images/racket3.png","","","learning","7","7","1","1","practice","practice","practice","-1","","",""
"html-keyboard-response","27","227483","0.0-8.0-2.0-0.1","6460","1","11","Male","approach_avoid_spark_v1","""event"",""trial"",""time""
""fullscreenenter"",""1"",""5230""
","
","
","""event"",""trial"",""time""
""fullscreenenter"",""1"",""5230""
","
","","","","","","null","<div style=""font-size:60px;"">+</div>","null","","fixation","","","","","","","","","","",""
"aa-learning-trial","28","230490","0.0-8.0-2.0-1.1","6460","1","11","Male","approach_avoid_spark_v1","""event"",""trial"",""time""
""fullscreenenter"",""1"",""5230""
","
","
","""event"",""trial"",""time""
""fullscreenenter"",""1"",""5230""
","
","","","","","","889.5999999046326","images/ball3.png","","","learning","1","1","1","1","practice","practice","practice","-1","","",""
"html-keyboard-response","29","230994","0.0-8.0-2.0-0.2","6460","1","11","Male","approach_avoid_spark_v1","""event"",""trial"",""time""
""fullscreenenter"",""1"",""5230""
","
","
","""event"",""trial"",""time""
""fullscreenenter"",""1"",""5230""
","
","","","","","","null","<div style=""font-size:60px;"">+</div>","null","","fixation","","","","","","","","","","",""
"aa-learning-trial","30","234004","0.0-8.0-2.0-1.2","6460","1","11","Male","approach_avoid_spark_v1","""event"",""trial"",""time""
""fullscreenenter"",""1"",""5230""
","
","
","""event"",""trial"",""time""
""fullscreenenter"",""1"",""5230""
","
","","","","","","1469.5999999046326","images/racket1.png","","","learning","-5","0","0","0","practice","practice","practice","-1","","",""
"html-keyboard-response","31","234508","0.0-8.0-2.0-0.3","6460","1","11","Male","approach_avoid_spark_v1","""event"",""trial"",""time""
""fullscreenenter"",""1"",""5230""
","
","
","""event"",""trial"",""time""
""fullscreenenter"",""1"",""5230""
","
","","","","","","null","<div style=""font-size:60px;"">+</div>","null","","fixation","","","","","","","","","","",""
"aa-learning-trial","32","237524","0.0-8.0-2.0-1.3","6460","1","11","Male","approach_avoid_spark_v1","""event"",""trial"",""time""
""fullscreenenter"",""1"",""5230""
","
","
","""event"",""trial"",""time""
""fullscreenenter"",""1"",""5230""
","
","","","","","","1204.9000000953674","images/racket1.png","","","learning","-2","0","0","0","practice","practice","practice","-1","","",""
"html-keyboard-response","33","238028","0.0-8.0-2.0-0.4","6460","1","11","Male","approach_avoid_spark_v1","""event"",""trial"",""time""
""fullscreenenter"",""1"",""5230""
","
","
","""event"",""trial"",""time""
""fullscreenenter"",""1"",""5230""
","
","","","","","","null","<div style=""font-size:60px;"">+</div>","null","","fixation","","","","","","","","","","",""
"aa-learning-trial","34","241037","0.0-8.0-2.0-1.4","6460","1","11","Male","approach_avoid_spark_v1","""event"",""trial"",""time""
""fullscreenenter"",""1"",""5230""
","
","
","""event"",""trial"",""time""
""fullscreenenter"",""1"",""5230""
","
","","","","","","1208.2000002861023","images/racket3.png","","","learning","8","0","0","0","practice","practice","practice","-1","","",""
"html-keyboard-response","35","241541","0.0-8.0-2.0-0.5","6460","1","11","Male","approach_avoid_spark_v1","""event"",""trial"",""time""
""fullscreenenter"",""1"",""5230""
","
","
","""event"",""trial"",""time""
""fullscreenenter"",""1"",""5230""
","
","","","","","","null","<div style=""font-size:60px;"">+</div>","null","","fixation","","","","","","","","","","",""
"aa-learning-trial","36","244543","0.0-8.0-2.0-1.5","6460","1","11","Male","approach_avoid_spark_v1","""event"",""trial"",""time""
""fullscreenenter"",""1"",""5230""
","
","
","""event"",""trial"",""time""
""fullscreenenter"",""1"",""5230""
","
","","","","","","950.5999999046326","images/ball2.png","","","learning","8","8","1","1","practice","practice","practice","-1","","",""
"html-keyboard-response","37","245055","0.0-8.0-2.0-0.6","6460","1","11","Male","approach_avoid_spark_v1","""event"",""trial"",""time""
""fullscreenenter"",""1"",""5230""
","
","
","""event"",""trial"",""time""
""fullscreenenter"",""1"",""5230""
","
","","","","","","null","<div style=""font-size:60px;"">+</div>","null","","fixation","","","","","","","","","","",""
"aa-learning-trial","38","248062","0.0-8.0-2.0-1.6","6460","1","11","Male","approach_avoid_spark_v1","""event"",""trial"",""time""
""fullscreenenter"",""1"",""5230""
","
","
","""event"",""trial"",""time""
""fullscreenenter"",""1"",""5230""
","
","","","","","","819.2999997138977","images/racket1.png","","","learning","1","0","0","0","practice","practice","practice","-1","","",""
"html-keyboard-response","39","248566","0.0-8.0-2.0-0.7","6460","1","11","Male","approach_avoid_spark_v1","""event"",""trial"",""time""
""fullscreenenter"",""1"",""5230""
","
","
","""event"",""trial"",""time""
""fullscreenenter"",""1"",""5230""
","
","","","","","","null","<div style=""font-size:60px;"">+</div>","null","","fixation","","","","","","","","","","",""
"aa-learning-trial","40","251569","0.0-8.0-2.0-1.7","6460","1","11","Male","approach_avoid_spark_v1","""event"",""trial"",""time""
""fullscreenenter"",""1"",""5230""
","
","
","""event"",""trial"",""time""
""fullscreenenter"",""1"",""5230""
","
","","","","","","1224.5","images/ball4.png","","","learning","-9","-9","1","1","practice","practice","practice","-1","","",""
"html-keyboard-response","41","252079","0.0-8.0-2.0-0.8","6460","1","11","Male","approach_avoid_spark_v1","""event"",""trial"",""time""
""fullscreenenter"",""1"",""5230""
","
","
","""event"",""trial"",""time""
""fullscreenenter"",""1"",""5230""
","
","","","","","","null","<div style=""font-size:60px;"">+</div>","null","","fixation","","","","","","","","","","",""
"aa-learning-trial","42","255083","0.0-8.0-2.0-1.8","6460","1","11","Male","approach_avoid_spark_v1","""event"",""trial"",""time""
""fullscreenenter"",""1"",""5230""
","
","
","""event"",""trial"",""time""
""fullscreenenter"",""1"",""5230""
","
","","","","","","1265.3999996185303","images/racket2.png","","","learning","-7","0","0","0","practice","practice","practice","-1","","",""
"html-keyboard-response","43","255585","0.0-8.0-2.0-0.9","6460","1","11","Male","approach_avoid_spark_v1","""event"",""trial"",""time""
""fullscreenenter"",""1"",""5230""
","
","
","""event"",""trial"",""time""
""fullscreenenter"",""1"",""5230""
","
","","","","","","null","<div style=""font-size:60px;"">+</div>","null","","fixation","","","","","","","","","","",""
"aa-learning-trial","44","258588","0.0-8.0-2.0-1.9","6460","1","11","Male","approach_avoid_spark_v1","""event"",""trial"",""time""
""fullscreenenter"",""1"",""5230""
","
","
","""event"",""trial"",""time""
""fullscreenenter"",""1"",""5230""
","
","","","","","","760.7000002861023","images/racket4.png","","","learning","1","0","0","0","practice","practice","practice","-1","","",""
"html-keyboard-response","45","259090","0.0-8.0-2.0-0.10","6460","1","11","Male","approach_avoid_spark_v1","""event"",""trial"",""time""
""fullscreenenter"",""1"",""5230""
","
","
","""event"",""trial"",""time""
""fullscreenenter"",""1"",""5230""
","
","","","","","","null","<div style=""font-size:60px;"">+</div>","null","","fixation","","","","","","","","","","",""
"aa-learning-trial","46","262094","0.0-8.0-2.0-1.10","6460","1","11","Male","approach_avoid_spark_v1","""event"",""trial"",""time""
""fullscreenenter"",""1"",""5230""
","
","
","""event"",""trial"",""time""
""fullscreenenter"",""1"",""5230""
","
","","","","","","540.7999997138977","images/ball3.png","","","learning","-9","-9","1","1","practice","practice","practice","-1","","",""
"html-keyboard-response","47","262596","0.0-8.0-2.0-0.11","6460","1","11","Male","approach_avoid_spark_v1","""event"",""trial"",""time""
""fullscreenenter"",""1"",""5230""
","
","
","""event"",""trial"",""time""
""fullscreenenter"",""1"",""5230""
","
","","","","","","null","<div style=""font-size:60px;"">+</div>","null","","fixation","","","","","","","","","","",""
"aa-learning-trial","48","265599","0.0-8.0-2.0-1.11","6460","1","11","Male","approach_avoid_spark_v1","""event"",""trial"",""time""
""fullscreenenter"",""1"",""5230""
","
","
","""event"",""trial"",""time""
""fullscreenenter"",""1"",""5230""
","
","","","","","","null","images/racket1.png","","","learning","-5","-5","","null","practice","practice","practice","-1","","",""
"html-button-response","49","268345","0.0-8.0-3.0","6460","1","11","Male","approach_avoid_spark_v1","""event"",""trial"",""time""
""fullscreenenter"",""1"",""5230""
","
","
","""event"",""trial"",""time""
""fullscreenenter"",""1"",""5230""
","
","","","","","","2745.0999999046326","<p> You earned -7 points in the practice round! </p>","0","","break","","","","","","","","","","",""
"learning-instructions","50","276934","0.0-8.0-4.0-0.0","6460","1","11","Male","approach_avoid_spark_v1","""event"",""trial"",""time""
""fullscreenenter"",""1"",""5230""
","
","
","""event"",""trial"",""time""
""fullscreenenter"",""1"",""5230""
","
","","","","","","2300.2999997138977","<p> It's almost time to start the real game. </p><p> Before you start, we're going to ask you a few questions about how the game works. </p>","","0","instructions","","","","","","","","","","",""
"preload","51","280049","0.0-8.0-5.0","6460","1","11","Male","approach_avoid_spark_v1","""event"",""trial"",""time""
""fullscreenenter"",""1"",""5230""
","
","
","""event"",""trial"",""time""
""fullscreenenter"",""1"",""5230""
","
","true","false","[]","[]","[]","","","","","","","","","","","","","","","",""
"comp-q","52","286105","0.0-8.0-6.0-0.0","6460","1","11","Male","approach_avoid_spark_v1","""event"",""trial"",""time""
""fullscreenenter"",""1"",""5230""
","
","
","""event"",""trial"",""time""
""fullscreenenter"",""1"",""5230""
","
","","","","","","1060.5999999046326","<p> <b> True or False? </b> </p><p> If you see a number in GREY, that means you earned that many points. </p>","","1","comp_question","","","","","","","","","true","",""
"comp-q","53","296119","0.0-8.0-6.0-1.0","6460","1","11","Male","approach_avoid_spark_v1","""event"",""trial"",""time""
""fullscreenenter"",""1"",""5230""
","
","
","""event"",""trial"",""time""
""fullscreenenter"",""1"",""5230""
","
","","","","","","1644.5","<p><b> That's right! </b> If you see a grey number, it means you earned ZERO points. <br> The grey numbers show the points you WOULD HAVE earned if you had made the other choice. </p>","","0","comp_answer","","","","","","","","","","",""
"comp-q","54","302453","0.0-8.0-7.0-0.0","6460","1","11","Male","approach_avoid_spark_v1","""event"",""trial"",""time""
""fullscreenenter"",""1"",""5230""
","
","
","""event"",""trial"",""time""
""fullscreenenter"",""1"",""5230""
","
","","","","","","1629.8000001907349","<p> <b> True or False? </b> </p><p> You will have as much time as you want to make each choice. </p>","","1","comp_question","","","","","","","","","true","",""
"comp-q","55","308662","0.0-8.0-7.0-1.0","6460","1","11","Male","approach_avoid_spark_v1","""event"",""trial"",""time""
""fullscreenenter"",""1"",""5230""
","
","
","""event"",""trial"",""time""
""fullscreenenter"",""1"",""5230""
","
","","","","","","2158.199999809265","<p> <b> That's right! </b> You will only have 3 seconds to make each choice. </p>","","0","comp_answer","","","","","","","","","","",""
"comp-q","56","314055","0.0-8.0-8.0-0.0","6460","1","11","Male","approach_avoid_spark_v1","""event"",""trial"",""time""
""fullscreenenter"",""1"",""5230""
","
","
","""event"",""trial"",""time""
""fullscreenenter"",""1"",""5230""
","
","","","","","","741.3000001907349","<p> <b> True or False? </b> </p><p> You should use the '1' and '0' keys to make your choices. </p>","","0","comp_question","","","","","","","","","true","",""
"comp-q","57","319809","0.0-8.0-8.0-1.0","6460","1","11","Male","approach_avoid_spark_v1","""event"",""trial"",""time""
""fullscreenenter"",""1"",""5230""
","
","
","""event"",""trial"",""time""
""fullscreenenter"",""1"",""5230""
","
","","","","","","1146.0999999046326","<p> <b> That's right! </b> You should use the '1' and '0' keys to make each choice. </p>","","0","comp_answer","","","","","","","","","","",""
"learning-instructions","58","329845","0.0-8.0-9.0-0.0","6460","1","11","Male","approach_avoid_spark_v1","""event"",""trial"",""time""
""fullscreenenter"",""1"",""5230""
","
","
","""event"",""trial"",""time""
""fullscreenenter"",""1"",""5230""
","
","","","","","","3751.5","<p> It's now time to start the real game. </p>Do your best, because the points you earn in the next rounds will influence your bonus payment. </p>","","0","instructions","","","","","","","","","","",""
"preload","59","329975","0.0-9.0-0.0","6460","1","11","Male","approach_avoid_spark_v1","""event"",""trial"",""time""
""fullscreenenter"",""1"",""5230""
","
","
","""event"",""trial"",""time""
""fullscreenenter"",""1"",""5230""
","
","true","false","[]","[]","[]","","","","","","","","","","","","","","","",""
"learning-instructions","60","339421","0.0-9.0-1.0-0.0","6460","1","11","Male","approach_avoid_spark_v1","""event"",""trial"",""time""
""fullscreenenter"",""1"",""5230""
","
","
","""event"",""trial"",""time""
""fullscreenenter"",""1"",""5230""
","
","","","","","","5257.699999809265","<p> Your goal in this round is to take care of lots of animals. </p></div>","","0","instructions","","","","","","","","","","",""
"learning-instructions","61","350829","0.0-9.0-1.0-0.1","6460","1","11","Male","approach_avoid_spark_v1","""event"",""trial"",""time""
""fullscreenenter"",""1"",""5230""
","
","
","""event"",""trial"",""time""
""fullscreenenter"",""1"",""5230""
","
","","","","","","1575.0999999046326","<p> Some animals want to be pet, while other animals want to be left alone.  </p><p> On each turn, you will see an animal.   </p><p> You need to decide whether to pet it or not.  </p>","","0","instructions","","","","","","","","","","",""
"learning-instructions","62","357847","0.0-9.0-1.0-0.2","6460","1","11","Male","approach_avoid_spark_v1","""event"",""trial"",""time""
""fullscreenenter"",""1"",""5230""
","
","
","""event"",""trial"",""time""
""fullscreenenter"",""1"",""5230""
","
","","","","","","1591","<p> You can pet the animal by pressing 1 and leave the animal alone by pressing 0. </p><br><div class=""choice-instructions-grid""> <div class=""choice-option""><img src=""images/approach.png"" class=""choice-option-img"" stage=""instructions"" position=""0"" ><div class=""choice-option-text""> Press ""1."" </div></div><div class=""choice-option""><img src=""images/avoid.png"" class=""choice-option-img"" stage=""instructions"" position=""1"" ><div class=""choice-option-text""> Press ""0."" </div></div>","","0","instructions","","","","","","","","","","",""
"learning-instructions","63","367817","0.0-9.0-1.0-0.3","6460","1","11","Male","approach_avoid_spark_v1","""event"",""trial"",""time""
""fullscreenenter"",""1"",""5230""
","
","
","""event"",""trial"",""time""
""fullscreenenter"",""1"",""5230""
","
","","","","","","823.4000000953674","<p> If you pet an animal that wants to be pet, you will make it feel happy! </p><p> But if you pet an animal that wants to be left alone, you will make it feel angry. </p>","","0","instructions","","","","","","","","","","",""
"learning-instructions","64","381637","0.0-9.0-1.0-0.4","6460","1","11","Male","approach_avoid_spark_v1","""event"",""trial"",""time""
""fullscreenenter"",""1"",""5230""
","
","
","""event"",""trial"",""time""
""fullscreenenter"",""1"",""5230""
","
","","","","","","1124.2999997138977","<p> You will earn points based on how you made the animal feel. </p><p> If you made it feel happy, you will WIN anywhere from 1 - 9 points, </p><p> but if you made it feel angry, you will LOSE anywhere from 1 - 9 points. </p>","","0","instructions","","","","","","","","","","",""
"learning-instructions","65","390325","0.0-9.0-1.0-0.5","6460","1","11","Male","approach_avoid_spark_v1","""event"",""trial"",""time""
""fullscreenenter"",""1"",""5230""
","
","
","""event"",""trial"",""time""
""fullscreenenter"",""1"",""5230""
","
","","","","","","761.5","<p> You will see how many points you won or lost in the center of the screen. </p><p> Here is what you would see if you won 5 points: </p><p style=""color:green;font-size:50px;font-weight:bolder"">5</p>","","0","instructions","","","","","","","","","","",""
"learning-instructions","66","395104","0.0-9.0-1.0-0.6","6460","1","11","Male","approach_avoid_spark_v1","""event"",""trial"",""time""
""fullscreenenter"",""1"",""5230""
","
","
","""event"",""trial"",""time""
""fullscreenenter"",""1"",""5230""
","
","","","","","","1049.5","<p> And here is what you would see if you lost 3 points: </p><p style=""color:red;font-size:50px;font-weight:bolder"">-3</p>","","0","instructions","","","","","","","","","","",""
"learning-instructions","67","410722","0.0-9.0-1.0-0.7","6460","1","11","Male","approach_avoid_spark_v1","""event"",""trial"",""time""
""fullscreenenter"",""1"",""5230""
","
","
","""event"",""trial"",""time""
""fullscreenenter"",""1"",""5230""
","
","","","","","","1409.5","<p> Some animals will become very happy or very angry. </p><p> These animals will make you win or lose LOTS of points. </p><p> Other animals have less strong feelings. </p><p> These animals will make you win or lose small amounts of points. </p>","","0","instructions","","","","","","","","","","",""
"learning-instructions","68","426472","0.0-9.0-1.0-0.8","6460","1","11","Male","approach_avoid_spark_v1","""event"",""trial"",""time""
""fullscreenenter"",""1"",""5230""
","
","
","""event"",""trial"",""time""
""fullscreenenter"",""1"",""5230""
","
","","","","","","3059","<p> If you choose to leave the animal alone, you will not win or lose any points. </p><p>  However, in the center of the screen, you will see the number of points you WOULD HAVE won or lost if you had pet the animal. </p>","","0","instructions","","","","","","","","","","",""
"learning-instructions","69","441402","0.0-9.0-1.0-0.9","6460","1","11","Male","approach_avoid_spark_v1","""event"",""trial"",""time""
""fullscreenenter"",""1"",""5230""
","
","
","""event"",""trial"",""time""
""fullscreenenter"",""1"",""5230""
","
","","","","","","2199.8999996185303","<p> Here is what you might see if you did not pet the animal but the animal wanted to be pet: </p><p style=""color:grey; font-size:50px; display: inline-block; border-spacing: 15px; border-width:3px; border-style:solid; border-color:red"">  &nbsp; 6 &nbsp; </p><p> Remember, in this case, you would not win or lose ANY points because you did not pet the animal.  </p>","","0","instructions","","","","","","","","","","",""
"learning-instructions","70","451119","0.0-9.0-1.0-0.10","6460","1","11","Male","approach_avoid_spark_v1","""event"",""trial"",""time""
""fullscreenenter"",""1"",""5230""
","
","
","""event"",""trial"",""time""
""fullscreenenter"",""1"",""5230""
","
","","","","","","1926.1999998092651","<p> Try to make the best choice for each animal because </p><p> at the end of the game, you will earn bonus money based on how many points you earned. </p>","","0","instructions","","","","","","","","","","",""
"learning-instructions","71","461242","0.0-9.0-1.0-0.11","6460","1","11","Male","approach_avoid_spark_v1","""event"",""trial"",""time""
""fullscreenenter"",""1"",""5230""
","
","
","""event"",""trial"",""time""
""fullscreenenter"",""1"",""5230""
","
","","","","","","1929.4000000953674","<p> You will have 3 seconds to make each choice. Try to respond before time runs out! </p><p> You will lose 5 points each time you do not make a response. </p>","","0","instructions","","","","","","","","","","",""
"html-keyboard-response","72","461856","0.0-9.0-2.0-0.0","6460","1","11","Male","approach_avoid_spark_v1","""event"",""trial"",""time""
""fullscreenenter"",""1"",""5230""
","
","
","""event"",""trial"",""time""
""fullscreenenter"",""1"",""5230""
","
","","","","","","null","<div style=""font-size:60px;"">+</div>","null","","fixation","","","","","","","","","","",""
"aa-learning-trial","73","464860","0.0-9.0-2.0-1.0","6460","1","11","Male","approach_avoid_spark_v1","""event"",""trial"",""time""
""fullscreenenter"",""1"",""5230""
","
","
","""event"",""trial"",""time""
""fullscreenenter"",""1"",""5230""
","
","","","","","","1135.5","images/dog7.png","","","learning","-3","-3","1","1","dog","pets","1","0","","bad","[-4]"
"html-keyboard-response","74","465365","0.0-9.0-2.0-0.1","6460","1","11","Male","approach_avoid_spark_v1","""event"",""trial"",""time""
""fullscreenenter"",""1"",""5230""
","
","
","""event"",""trial"",""time""
""fullscreenenter"",""1"",""5230""
","
","","","","","","null","<div style=""font-size:60px;"">+</div>","null","","fixation","","","","","","","","","","",""
"aa-learning-trial","75","468374","0.0-9.0-2.0-1.1","6460","1","11","Male","approach_avoid_spark_v1","""event"",""trial"",""time""
""fullscreenenter"",""1"",""5230""
","
","
","""event"",""trial"",""time""
""fullscreenenter"",""1"",""5230""
","
","","","","","","1351.1999998092651","images/cat3.png","","","learning","-1","-1","1","1","cat","pets","1","0","","neutral","0"
"html-keyboard-response","76","468876","0.0-9.0-2.0-0.2","6460","1","11","Male","approach_avoid_spark_v1","""event"",""trial"",""time""
""fullscreenenter"",""1"",""5230""
","
","
","""event"",""trial"",""time""
""fullscreenenter"",""1"",""5230""
","
","","","","","","null","<div style=""font-size:60px;"">+</div>","null","","fixation","","","","","","","","","","",""
"aa-learning-trial","77","471883","0.0-9.0-2.0-1.2","6460","1","11","Male","approach_avoid_spark_v1","""event"",""trial"",""time""
""fullscreenenter"",""1"",""5230""
","
","
","""event"",""trial"",""time""
""fullscreenenter"",""1"",""5230""
","
","","","","","","1754.8000001907349","images/rodent5.png","","","learning","7","0","0","0","rodent","pets","1","0","","good","[6]"
"html-keyboard-response","78","472400","0.0-9.0-2.0-0.3","6460","1","11","Male","approach_avoid_spark_v1","""event"",""trial"",""time""
""fullscreenenter"",""1"",""5230""
","
","
","""event"",""trial"",""time""
""fullscreenenter"",""1"",""5230""
","
","","","","","","null","<div style=""font-size:60px;"">+</div>","null","","fixation","","","","","","","","","","",""
"aa-learning-trial","79","475420","0.0-9.0-2.0-1.3","6460","1","11","Male","approach_avoid_spark_v1","""event"",""trial"",""time""
""fullscreenenter"",""1"",""5230""
","
","
","""event"",""trial"",""time""
""fullscreenenter"",""1"",""5230""
","
","","","","","","1049.8000001907349","images/dog5.png","","","learning","-2","-2","1","1","dog","pets","1","0","","bad","[-4]"
"html-keyboard-response","80","475923","0.0-9.0-2.0-0.4","6460","1","11","Male","approach_avoid_spark_v1","""event"",""trial"",""time""
""fullscreenenter"",""1"",""5230""
","
","
","""event"",""trial"",""time""
""fullscreenenter"",""1"",""5230""
","
","","","","","","null","<div style=""font-size:60px;"">+</div>","null","","fixation","","","","","","","","","","",""
"aa-learning-trial","81","478930","0.0-9.0-2.0-1.4","6460","1","11","Male","approach_avoid_spark_v1","""event"",""trial"",""time""
""fullscreenenter"",""1"",""5230""
","
","
","""event"",""trial"",""time""
""fullscreenenter"",""1"",""5230""
","
","","","","","","1316.4000000953674","images/cat3.png","","","learning","-3","-3","1","1","cat","pets","1","0","","neutral","0"
"html-keyboard-response","82","479448","0.0-9.0-2.0-0.5","6460","1","11","Male","approach_avoid_spark_v1","""event"",""trial"",""time""
""fullscreenenter"",""1"",""5230""
","
","
","""event"",""trial"",""time""
""fullscreenenter"",""1"",""5230""
","
","","","","","","null","<div style=""font-size:60px;"">+</div>","null","","fixation","","","","","","","","","","",""
"aa-learning-trial","83","482451","0.0-9.0-2.0-1.5","6460","1","11","Male","approach_avoid_spark_v1","""event"",""trial"",""time""
""fullscreenenter"",""1"",""5230""
","
","
","""event"",""trial"",""time""
""fullscreenenter"",""1"",""5230""
","
","","","","","","729.2999997138977","images/dog6.png","","","learning","-6","-6","1","1","dog","pets","1","0","","bad","[-4]"
"html-keyboard-response","84","482956","0.0-9.0-2.0-0.6","6460","1","11","Male","approach_avoid_spark_v1","""event"",""trial"",""time""
""fullscreenenter"",""1"",""5230""
","
","
","""event"",""trial"",""time""
""fullscreenenter"",""1"",""5230""
","
","","","","","","null","<div style=""font-size:60px;"">+</div>","null","","fixation","","","","","","","","","","",""
"aa-learning-trial","85","485961","0.0-9.0-2.0-1.6","6460","1","11","Male","approach_avoid_spark_v1","""event"",""trial"",""time""
""fullscreenenter"",""1"",""5230""
","
","
","""event"",""trial"",""time""
""fullscreenenter"",""1"",""5230""
","
","","","","","","1211.8000001907349","images/rodent1.png","","","learning","7","7","1","1","rodent","pets","1","0","","good","[6]"
"html-keyboard-response","86","486468","0.0-9.0-2.0-0.7","6460","1","11","Male","approach_avoid_spark_v1","""event"",""trial"",""time""
""fullscreenenter"",""1"",""5230""
","
","
","""event"",""trial"",""time""
""fullscreenenter"",""1"",""5230""
","
","","","","","","null","<div style=""font-size:60px;"">+</div>","null","","fixation","","","","","","","","","","",""
"aa-learning-trial","87","489471","0.0-9.0-2.0-1.7","6460","1","11","Male","approach_avoid_spark_v1","""event"",""trial"",""time""
""fullscreenenter"",""1"",""5230""
","
","
","""event"",""trial"",""time""
""fullscreenenter"",""1"",""5230""
","
","","","","","","847.4000000953674","images/rodent6.png","","","learning","5","5","1","1","rodent","pets","1","0","","good","[6]"
"html-keyboard-response","88","489973","0.0-9.0-2.0-0.8","6460","1","11","Male","approach_avoid_spark_v1","""event"",""trial"",""time""
""fullscreenenter"",""1"",""5230""
","
","
","""event"",""trial"",""time""
""fullscreenenter"",""1"",""5230""
","
","","","","","","null","<div style=""font-size:60px;"">+</div>","null","","fixation","","","","","","","","","","",""
"aa-learning-trial","89","492977","0.0-9.0-2.0-1.8","6460","1","11","Male","approach_avoid_spark_v1","""event"",""trial"",""time""
""fullscreenenter"",""1"",""5230""
","
","
","""event"",""trial"",""time""
""fullscreenenter"",""1"",""5230""
","
","","","","","","806.6999998092651","images/dog5.png","","","learning","-2","-2","1","1","dog","pets","1","0","","bad","[-4]"
"html-keyboard-response","90","493479","0.0-9.0-2.0-0.9","6460","1","11","Male","approach_avoid_spark_v1","""event"",""trial"",""time""
""fullscreenenter"",""1"",""5230""
","
","
","""event"",""trial"",""time""
""fullscreenenter"",""1"",""5230""
","
","","","","","","null","<div style=""font-size:60px;"">+</div>","null","","fixation","","","","","","","","","","",""
"aa-learning-trial","91","496482","0.0-9.0-2.0-1.9","6460","1","11","Male","approach_avoid_spark_v1","""event"",""trial"",""time""
""fullscreenenter"",""1"",""5230""
","
","
","""event"",""trial"",""time""
""fullscreenenter"",""1"",""5230""
","
","","","","","","864","images/cat4.png","","","learning","-1","0","0","0","cat","pets","1","0","","neutral","0"
"html-keyboard-response","92","496984","0.0-9.0-2.0-0.10","6460","1","11","Male","approach_avoid_spark_v1","""event"",""trial"",""time""
""fullscreenenter"",""1"",""5230""
","
","
","""event"",""trial"",""time""
""fullscreenenter"",""1"",""5230""
","
","","","","","","null","<div style=""font-size:60px;"">+</div>","null","","fixation","","","","","","","","","","",""
"aa-learning-trial","93","499987","0.0-9.0-2.0-1.10","6460","1","11","Male","approach_avoid_spark_v1","""event"",""trial"",""time""
""fullscreenenter"",""1"",""5230""
","
","
","""event"",""trial"",""time""
""fullscreenenter"",""1"",""5230""
","
","","","","","","939","images/rodent6.png","","","learning","8","8","1","1","rodent","pets","1","0","","good","[6]"
"html-keyboard-response","94","500489","0.0-9.0-2.0-0.11","6460","1","11","Male","approach_avoid_spark_v1","""event"",""trial"",""time""
""fullscreenenter"",""1"",""5230""
","
","
","""event"",""trial"",""time""
""fullscreenenter"",""1"",""5230""
","
","","","","","","null","<div style=""font-size:60px;"">+</div>","null","","fixation","","","","","","","","","","",""
"aa-learning-trial","95","503492","0.0-9.0-2.0-1.11","6460","1","11","Male","approach_avoid_spark_v1","""event"",""trial"",""time""
""fullscreenenter"",""1"",""5230""
","
","
","""event"",""trial"",""time""
""fullscreenenter"",""1"",""5230""
","
","","","","","","716.3000001907349","images/dog6.png","","","learning","-4","0","0","0","dog","pets","1","0","","bad","[-4]"
"html-keyboard-response","96","504009","0.0-9.0-2.0-0.12","6460","1","11","Male","approach_avoid_spark_v1","""event"",""trial"",""time""
""fullscreenenter"",""1"",""5230""
","
","
","""event"",""trial"",""time""
""fullscreenenter"",""1"",""5230""
","
","","","","","","null","<div style=""font-size:60px;"">+</div>","null","","fixation","","","","","","","","","","",""
"aa-learning-trial","97","507012","0.0-9.0-2.0-1.12","6460","1","11","Male","approach_avoid_spark_v1","""event"",""trial"",""time""
""fullscreenenter"",""1"",""5230""
","
","
","""event"",""trial"",""time""
""fullscreenenter"",""1"",""5230""
","
","","","","","","1104.5999999046326","images/rodent1.png","","","learning","4","4","1","1","rodent","pets","1","0","","good","[6]"
"html-keyboard-response","98","507515","0.0-9.0-2.0-0.13","6460","1","11","Male","approach_avoid_spark_v1","""event"",""trial"",""time""
""fullscreenenter"",""1"",""5230""
","
","
","""event"",""trial"",""time""
""fullscreenenter"",""1"",""5230""
","
","","","","","","null","<div style=""font-size:60px;"">+</div>","null","","fixation","","","","","","","","","","",""
"aa-learning-trial","99","510519","0.0-9.0-2.0-1.13","6460","1","11","Male","approach_avoid_spark_v1","""event"",""trial"",""time""
""fullscreenenter"",""1"",""5230""
","
","
","""event"",""trial"",""time""
""fullscreenenter"",""1"",""5230""
","
","","","","","","1156.0999999046326","images/cat1.png","","","learning","-2","-2","1","1","cat","pets","1","0","","neutral","0"
"html-keyboard-response","100","511021","0.0-9.0-2.0-0.14","6460","1","11","Male","approach_avoid_spark_v1","""event"",""trial"",""time""
""fullscreenenter"",""1"",""5230""
","
","
","""event"",""trial"",""time""
""fullscreenenter"",""1"",""5230""
","
","","","","","","null","<div style=""font-size:60px;"">+</div>","null","","fixation","","","","","","","","","","",""
"aa-learning-trial","101","514025","0.0-9.0-2.0-1.14","6460","1","11","Male","approach_avoid_spark_v1","""event"",""trial"",""time""
""fullscreenenter"",""1"",""5230""
","
","
","""event"",""trial"",""time""
""fullscreenenter"",""1"",""5230""
","
","","","","","","853.1999998092651","images/cat1.png","","","learning","3","0","0","0","cat","pets","1","0","","neutral","0"
"html-keyboard-response","102","514527","0.0-9.0-2.0-0.15","6460","1","11","Male","approach_avoid_spark_v1","""event"",""trial"",""time""
""fullscreenenter"",""1"",""5230""
","
","
","""event"",""trial"",""time""
""fullscreenenter"",""1"",""5230""
","
","","","","","","null","<div style=""font-size:60px;"">+</div>","null","","fixation","","","","","","","","","","",""
"aa-learning-trial","103","517530","0.0-9.0-2.0-1.15","6460","1","11","Male","approach_avoid_spark_v1","""event"",""trial"",""time""
""fullscreenenter"",""1"",""5230""
","
","
","""event"",""trial"",""time""
""fullscreenenter"",""1"",""5230""
","
","","","","","","733","images/cat4.png","","","learning","[-1]","0","0","0","cat","pets","1","0","","neutral","0"
"html-keyboard-response","104","518031","0.0-9.0-2.0-0.16","6460","1","11","Male","approach_avoid_spark_v1","""event"",""trial"",""time""
""fullscreenenter"",""1"",""5230""
","
","
","""event"",""trial"",""time""
""fullscreenenter"",""1"",""5230""
","
","","","","","","null","<div style=""font-size:60px;"">+</div>","null","","fixation","","","","","","","","","","",""
"aa-learning-trial","105","521036","0.0-9.0-2.0-1.16","6460","1","11","Male","approach_avoid_spark_v1","""event"",""trial"",""time""
""fullscreenenter"",""1"",""5230""
","
","
","""event"",""trial"",""time""
""fullscreenenter"",""1"",""5230""
","
","","","","","","675.3000001907349","images/rodent5.png","","","learning","5","0","0","0","rodent","pets","1","0","","good","[6]"
"html-keyboard-response","106","521537","0.0-9.0-2.0-0.17","6460","1","11","Male","approach_avoid_spark_v1","""event"",""trial"",""time""
""fullscreenenter"",""1"",""5230""
","
","
","""event"",""trial"",""time""
""fullscreenenter"",""1"",""5230""
","
","","","","","","null","<div style=""font-size:60px;"">+</div>","null","","fixation","","","","","","","","","","",""
"aa-learning-trial","107","524540","0.0-9.0-2.0-1.17","6460","1","11","Male","approach_avoid_spark_v1","""event"",""trial"",""time""
""fullscreenenter"",""1"",""5230""
","
","
","""event"",""trial"",""time""
""fullscreenenter"",""1"",""5230""
","
","","","","","","793.5","images/rodent1.png","","","learning","7","7","1","1","rodent","pets","1","0","","good","[6]"
"html-keyboard-response","108","525042","0.0-9.0-2.0-0.18","6460","1","11","Male","approach_avoid_spark_v1","""event"",""trial"",""time""
""fullscreenenter"",""1"",""5230""
","
","
","""event"",""trial"",""time""
""fullscreenenter"",""1"",""5230""
","
","","","","","","null","<div style=""font-size:60px;"">+</div>","null","","fixation","","","","","","","","","","",""
"aa-learning-trial","109","528044","0.0-9.0-2.0-1.18","6460","1","11","Male","approach_avoid_spark_v1","""event"",""trial"",""time""
""fullscreenenter"",""1"",""5230""
","
","
","""event"",""trial"",""time""
""fullscreenenter"",""1"",""5230""
","
","","","","","","635","images/dog5.png","","","learning","-3","0","0","0","dog","pets","1","0","","bad","[-4]"
"html-keyboard-response","110","528546","0.0-9.0-2.0-0.19","6460","1","11","Male","approach_avoid_spark_v1","""event"",""trial"",""time""
""fullscreenenter"",""1"",""5230""
","
","
","""event"",""trial"",""time""
""fullscreenenter"",""1"",""5230""
","
","","","","","","null","<div style=""font-size:60px;"">+</div>","null","","fixation","","","","","","","","","","",""
"aa-learning-trial","111","531549","0.0-9.0-2.0-1.19","6460","1","11","Male","approach_avoid_spark_v1","""event"",""trial"",""time""
""fullscreenenter"",""1"",""5230""
","
","
","""event"",""trial"",""time""
""fullscreenenter"",""1"",""5230""
","
","","","","","","916.5999999046326","images/cat4.png","","","learning","[1]","0","0","0","cat","pets","1","0","","neutral","0"
"html-keyboard-response","112","532050","0.0-9.0-2.0-0.20","6460","1","11","Male","approach_avoid_spark_v1","""event"",""trial"",""time""
""fullscreenenter"",""1"",""5230""
","
","
","""event"",""trial"",""time""
""fullscreenenter"",""1"",""5230""
","
","","","","","","null","<div style=""font-size:60px;"">+</div>","null","","fixation","","","","","","","","","","",""
"aa-learning-trial","113","535053","0.0-9.0-2.0-1.20","6460","1","11","Male","approach_avoid_spark_v1","""event"",""trial"",""time""
""fullscreenenter"",""1"",""5230""
","
","
","""event"",""trial"",""time""
""fullscreenenter"",""1"",""5230""
","
","","","","","","694","images/dog6.png","","","learning","-3","-3","1","1","dog","pets","1","0","","bad","[-4]"
"html-keyboard-response","114","535555","0.0-9.0-2.0-0.21","6460","1","11","Male","approach_avoid_spark_v1","""event"",""trial"",""time""
""fullscreenenter"",""1"",""5230""
","
","
","""event"",""trial"",""time""
""fullscreenenter"",""1"",""5230""
","
","","","","","","null","<div style=""font-size:60px;"">+</div>","null","","fixation","","","","","","","","","","",""
"aa-learning-trial","115","538558","0.0-9.0-2.0-1.21","6460","1","11","Male","approach_avoid_spark_v1","""event"",""trial"",""time""
""fullscreenenter"",""1"",""5230""
","
","
","""event"",""trial"",""time""
""fullscreenenter"",""1"",""5230""
","
","","","","","","784.3000001907349","images/cat3.png","","","learning","1","1","1","1","cat","pets","1","0","","neutral","0"
"html-keyboard-response","116","539059","0.0-9.0-2.0-0.22","6460","1","11","Male","approach_avoid_spark_v1","""event"",""trial"",""time""
""fullscreenenter"",""1"",""5230""
","
","
","""event"",""trial"",""time""
""fullscreenenter"",""1"",""5230""
","
","","","","","","null","<div style=""font-size:60px;"">+</div>","null","","fixation","","","","","","","","","","",""
"aa-learning-trial","117","542064","0.0-9.0-2.0-1.22","6460","1","11","Male","approach_avoid_spark_v1","""event"",""trial"",""time""
""fullscreenenter"",""1"",""5230""
","
","
","""event"",""trial"",""time""
""fullscreenenter"",""1"",""5230""
","
","","","","","","708.8999996185303","images/cat6.png","","","learning","2","2","1","1","cat","pets","1","0","","neutral","0"
"html-keyboard-response","118","542566","0.0-9.0-2.0-0.23","6460","1","11","Male","approach_avoid_spark_v1","""event"",""trial"",""time""
""fullscreenenter"",""1"",""5230""
","
","
","""event"",""trial"",""time""
""fullscreenenter"",""1"",""5230""
","
","","","","","","null","<div style=""font-size:60px;"">+</div>","null","","fixation","","","","","","","","","","",""
"aa-learning-trial","119","545571","0.0-9.0-2.0-1.23","6460","1","11","Male","approach_avoid_spark_v1","""event"",""trial"",""time""
""fullscreenenter"",""1"",""5230""
","
","
","""event"",""trial"",""time""
""fullscreenenter"",""1"",""5230""
","
","","","","","","486.40000009536743","images/rodent5.png","","","learning","8","0","0","0","rodent","pets","1","0","","good","[6]"
"html-keyboard-response","120","546072","0.0-9.0-2.0-0.24","6460","1","11","Male","approach_avoid_spark_v1","""event"",""trial"",""time""
""fullscreenenter"",""1"",""5230""
","
","
","""event"",""trial"",""time""
""fullscreenenter"",""1"",""5230""
","
","","","","","","null","<div style=""font-size:60px;"">+</div>","null","","fixation","","","","","","","","","","",""
"aa-learning-trial","121","549076","0.0-9.0-2.0-1.24","6460","1","11","Male","approach_avoid_spark_v1","""event"",""trial"",""time""
""fullscreenenter"",""1"",""5230""
","
","
","""event"",""trial"",""time""
""fullscreenenter"",""1"",""5230""
","
","","","","","","781.9000000953674","images/dog5.png","","","learning","-4","-4","1","1","dog","pets","1","0","","bad","[-4]"
"html-keyboard-response","122","549579","0.0-9.0-2.0-0.25","6460","1","11","Male","approach_avoid_spark_v1","""event"",""trial"",""time""
""fullscreenenter"",""1"",""5230""
","
","
","""event"",""trial"",""time""
""fullscreenenter"",""1"",""5230""
","
","","","","","","null","<div style=""font-size:60px;"">+</div>","null","","fixation","","","","","","","","","","",""
"aa-learning-trial","123","552581","0.0-9.0-2.0-1.25","6460","1","11","Male","approach_avoid_spark_v1","""event"",""trial"",""time""
""fullscreenenter"",""1"",""5230""
","
","
","""event"",""trial"",""time""
""fullscreenenter"",""1"",""5230""
","
","","","","","","640.3000001907349","images/dog7.png","","","learning","-1","-1","1","1","dog","pets","1","0","","bad","[-4]"
"html-keyboard-response","124","553095","0.0-9.0-2.0-0.26","6460","1","11","Male","approach_avoid_spark_v1","""event"",""trial"",""time""
""fullscreenenter"",""1"",""5230""
","
","
","""event"",""trial"",""time""
""fullscreenenter"",""1"",""5230""
","
","","","","","","null","<div style=""font-size:60px;"">+</div>","null","","fixation","","","","","","","","","","",""
"aa-learning-trial","125","556100","0.0-9.0-2.0-1.26","6460","1","11","Male","approach_avoid_spark_v1","""event"",""trial"",""time""
""fullscreenenter"",""1"",""5230""
","
","
","""event"",""trial"",""time""
""fullscreenenter"",""1"",""5230""
","
","","","","","","686","images/dog5.png","","","learning","-5","-5","1","1","dog","pets","1","0","","bad","[-4]"
"html-keyboard-response","126","556601","0.0-9.0-2.0-0.27","6460","1","11","Male","approach_avoid_spark_v1","""event"",""trial"",""time""
""fullscreenenter"",""1"",""5230""
","
","
","""event"",""trial"",""time""
""fullscreenenter"",""1"",""5230""
","
","","","","","","null","<div style=""font-size:60px;"">+</div>","null","","fixation","","","","","","","","","","",""
"aa-learning-trial","127","559606","0.0-9.0-2.0-1.27","6460","1","11","Male","approach_avoid_spark_v1","""event"",""trial"",""time""
""fullscreenenter"",""1"",""5230""
","
","
","""event"",""trial"",""time""
""fullscreenenter"",""1"",""5230""
","
","","","","","","950.5","images/rodent1.png","","","learning","4","4","1","1","rodent","pets","1","0","","good","[6]"
"html-keyboard-response","128","560108","0.0-9.0-2.0-0.28","6460","1","11","Male","approach_avoid_spark_v1","""event"",""trial"",""time""
""fullscreenenter"",""1"",""5230""
","
","
","""event"",""trial"",""time""
""fullscreenenter"",""1"",""5230""
","
","","","","","","null","<div style=""font-size:60px;"">+</div>","null","","fixation","","","","","","","","","","",""
"aa-learning-trial","129","563111","0.0-9.0-2.0-1.28","6460","1","11","Male","approach_avoid_spark_v1","""event"",""trial"",""time""
""fullscreenenter"",""1"",""5230""
","
","
","""event"",""trial"",""time""
""fullscreenenter"",""1"",""5230""
","
","","","","","","562.3000001907349","images/rodent6.png","","","learning","3","3","1","1","rodent","pets","1","0","","good","[6]"
"html-keyboard-response","130","563613","0.0-9.0-2.0-0.29","6460","1","11","Male","approach_avoid_spark_v1","""event"",""trial"",""time""
""fullscreenenter"",""1"",""5230""
","
","
","""event"",""trial"",""time""
""fullscreenenter"",""1"",""5230""
","
","","","","","","null","<div style=""font-size:60px;"">+</div>","null","","fixation","","","","","","","","","","",""
"aa-learning-trial","131","566616","0.0-9.0-2.0-1.29","6460","1","11","Male","approach_avoid_spark_v1","""event"",""trial"",""time""
""fullscreenenter"",""1"",""5230""
","
","
","""event"",""trial"",""time""
""fullscreenenter"",""1"",""5230""
","
","","","","","","624.6999998092651","images/cat1.png","","","learning","-2","0","0","0","cat","pets","1","0","","neutral","0"
"html-keyboard-response","132","567117","0.0-9.0-2.0-0.30","6460","1","11","Male","approach_avoid_spark_v1","""event"",""trial"",""time""
""fullscreenenter"",""1"",""5230""
","
","
","""event"",""trial"",""time""
""fullscreenenter"",""1"",""5230""
","
","","","","","","null","<div style=""font-size:60px;"">+</div>","null","","fixation","","","","","","","","","","",""
"aa-learning-trial","133","570120","0.0-9.0-2.0-1.30","6460","1","11","Male","approach_avoid_spark_v1","""event"",""trial"",""time""
""fullscreenenter"",""1"",""5230""
","
","
","""event"",""trial"",""time""
""fullscreenenter"",""1"",""5230""
","
","","","","","","796.2999997138977","images/dog6.png","","","learning","-5","-5","1","1","dog","pets","1","0","","bad","[-4]"
"html-keyboard-response","134","570622","0.0-9.0-2.0-0.31","6460","1","11","Male","approach_avoid_spark_v1","""event"",""trial"",""time""
""fullscreenenter"",""1"",""5230""
","
","
","""event"",""trial"",""time""
""fullscreenenter"",""1"",""5230""
","
","","","","","","null","<div style=""font-size:60px;"">+</div>","null","","fixation","","","","","","","","","","",""
"aa-learning-trial","135","573624","0.0-9.0-2.0-1.31","6460","1","11","Male","approach_avoid_spark_v1","""event"",""trial"",""time""
""fullscreenenter"",""1"",""5230""
","
","
","""event"",""trial"",""time""
""fullscreenenter"",""1"",""5230""
","
","","","","","","1820.5","images/cat1.png","","","learning","-3","-3","1","1","cat","pets","1","0","","neutral","0"
"html-keyboard-response","136","574126","0.0-9.0-2.0-0.32","6460","1","11","Male","approach_avoid_spark_v1","""event"",""trial"",""time""
""fullscreenenter"",""1"",""5230""
","
","
","""event"",""trial"",""time""
""fullscreenenter"",""1"",""5230""
","
","","","","","","null","<div style=""font-size:60px;"">+</div>","null","","fixation","","","","","","","","","","",""
"aa-learning-trial","137","577131","0.0-9.0-2.0-1.32","6460","1","11","Male","approach_avoid_spark_v1","""event"",""trial"",""time""
""fullscreenenter"",""1"",""5230""
","
","
","""event"",""trial"",""time""
""fullscreenenter"",""1"",""5230""
","
","","","","","","1415.4000000953674","images/cat3.png","","","learning","[1]","1","1","1","cat","pets","1","0","","neutral","0"
"html-keyboard-response","138","577633","0.0-9.0-2.0-0.33","6460","1","11","Male","approach_avoid_spark_v1","""event"",""trial"",""time""
""fullscreenenter"",""1"",""5230""
","
","
","""event"",""trial"",""time""
""fullscreenenter"",""1"",""5230""
","
","","","","","","null","<div style=""font-size:60px;"">+</div>","null","","fixation","","","","","","","","","","",""
"aa-learning-trial","139","580637","0.0-9.0-2.0-1.33","6460","1","11","Male","approach_avoid_spark_v1","""event"",""trial"",""time""
""fullscreenenter"",""1"",""5230""
","
","
","""event"",""trial"",""time""
""fullscreenenter"",""1"",""5230""
","
","","","","","","680.5999999046326","images/rodent1.png","","","learning","6","6","1","1","rodent","pets","1","0","","good","[6]"
"html-keyboard-response","140","581139","0.0-9.0-2.0-0.34","6460","1","11","Male","approach_avoid_spark_v1","""event"",""trial"",""time""
""fullscreenenter"",""1"",""5230""
","
","
","""event"",""trial"",""time""
""fullscreenenter"",""1"",""5230""
","
","","","","","","null","<div style=""font-size:60px;"">+</div>","null","","fixation","","","","","","","","","","",""
"aa-learning-trial","141","584143","0.0-9.0-2.0-1.34","6460","1","11","Male","approach_avoid_spark_v1","""event"",""trial"",""time""
""fullscreenenter"",""1"",""5230""
","
","
","""event"",""trial"",""time""
""fullscreenenter"",""1"",""5230""
","
","","","","","","552.5999999046326","images/dog5.png","","","learning","-3","-3","1","1","dog","pets","1","0","","bad","[-4]"
"html-keyboard-response","142","584646","0.0-9.0-2.0-0.35","6460","1","11","Male","approach_avoid_spark_v1","""event"",""trial"",""time""
""fullscreenenter"",""1"",""5230""
","
","
","""event"",""trial"",""time""
""fullscreenenter"",""1"",""5230""
","
","","","","","","null","<div style=""font-size:60px;"">+</div>","null","","fixation","","","","","","","","","","",""
"aa-learning-trial","143","587651","0.0-9.0-2.0-1.35","6460","1","11","Male","approach_avoid_spark_v1","""event"",""trial"",""time""
""fullscreenenter"",""1"",""5230""
","
","
","""event"",""trial"",""time""
""fullscreenenter"",""1"",""5230""
","
","","","","","","605.6000003814697","images/dog6.png","","","learning","-5","-5","1","1","dog","pets","1","0","","bad","[-4]"
"html-keyboard-response","144","588153","0.0-9.0-2.0-0.36","6460","1","11","Male","approach_avoid_spark_v1","""event"",""trial"",""time""
""fullscreenenter"",""1"",""5230""
","
","
","""event"",""trial"",""time""
""fullscreenenter"",""1"",""5230""
","
","","","","","","null","<div style=""font-size:60px;"">+</div>","null","","fixation","","","","","","","","","","",""
"aa-learning-trial","145","591157","0.0-9.0-2.0-1.36","6460","1","11","Male","approach_avoid_spark_v1","""event"",""trial"",""time""
""fullscreenenter"",""1"",""5230""
","
","
","""event"",""trial"",""time""
""fullscreenenter"",""1"",""5230""
","
","","","","","","624.3000001907349","images/rodent1.png","","","learning","6","0","0","0","rodent","pets","1","0","","good","[6]"
"html-keyboard-response","146","591660","0.0-9.0-2.0-0.37","6460","1","11","Male","approach_avoid_spark_v1","""event"",""trial"",""time""
""fullscreenenter"",""1"",""5230""
","
","
","""event"",""trial"",""time""
""fullscreenenter"",""1"",""5230""
","
","","","","","","null","<div style=""font-size:60px;"">+</div>","null","","fixation","","","","","","","","","","",""
"aa-learning-trial","147","594663","0.0-9.0-2.0-1.37","6460","1","11","Male","approach_avoid_spark_v1","""event"",""trial"",""time""
""fullscreenenter"",""1"",""5230""
","
","
","""event"",""trial"",""time""
""fullscreenenter"",""1"",""5230""
","
","","","","","","1029","images/rodent2.png","","","learning","4","4","1","1","rodent","pets","1","0","","good","[6]"
"html-keyboard-response","148","595165","0.0-9.0-2.0-0.38","6460","1","11","Male","approach_avoid_spark_v1","""event"",""trial"",""time""
""fullscreenenter"",""1"",""5230""
","
","
","""event"",""trial"",""time""
""fullscreenenter"",""1"",""5230""
","
","","","","","","null","<div style=""font-size:60px;"">+</div>","null","","fixation","","","","","","","","","","",""
"aa-learning-trial","149","598169","0.0-9.0-2.0-1.38","6460","1","11","Male","approach_avoid_spark_v1","""event"",""trial"",""time""
""fullscreenenter"",""1"",""5230""
","
","
","""event"",""trial"",""time""
""fullscreenenter"",""1"",""5230""
","
","","","","","","546.3999996185303","images/dog8.png","","","learning","-2","-2","1","1","dog","pets","1","0","","bad","[-4]"
"html-keyboard-response","150","598671","0.0-9.0-2.0-0.39","6460","1","11","Male","approach_avoid_spark_v1","""event"",""trial"",""time""
""fullscreenenter"",""1"",""5230""
","
","
","""event"",""trial"",""time""
""fullscreenenter"",""1"",""5230""
","
","","","","","","null","<div style=""font-size:60px;"">+</div>","null","","fixation","","","","","","","","","","",""
"aa-learning-trial","151","601674","0.0-9.0-2.0-1.39","6460","1","11","Male","approach_avoid_spark_v1","""event"",""trial"",""time""
""fullscreenenter"",""1"",""5230""
","
","
","""event"",""trial"",""time""
""fullscreenenter"",""1"",""5230""
","
","","","","","","682.5999999046326","images/cat3.png","","","learning","-1","-1","1","1","cat","pets","1","0","","neutral","0"
"html-keyboard-response","152","602175","0.0-9.0-2.0-0.40","6460","1","11","Male","approach_avoid_spark_v1","""event"",""trial"",""time""
""fullscreenenter"",""1"",""5230""
","
","
","""event"",""trial"",""time""
""fullscreenenter"",""1"",""5230""
","
","","","","","","null","<div style=""font-size:60px;"">+</div>","null","","fixation","","","","","","","","","","",""
"aa-learning-trial","153","605180","0.0-9.0-2.0-1.40","6460","1","11","Male","approach_avoid_spark_v1","""event"",""trial"",""time""
""fullscreenenter"",""1"",""5230""
","
","
","""event"",""trial"",""time""
""fullscreenenter"",""1"",""5230""
","
","","","","","","527.1999998092651","images/dog3.png","","","learning","-2","-2","1","1","dog","pets","1","0","","bad","[-4]"
"html-keyboard-response","154","605682","0.0-9.0-2.0-0.41","6460","1","11","Male","approach_avoid_spark_v1","""event"",""trial"",""time""
""fullscreenenter"",""1"",""5230""
","
","
","""event"",""trial"",""time""
""fullscreenenter"",""1"",""5230""
","
","","","","","","null","<div style=""font-size:60px;"">+</div>","null","","fixation","","","","","","","","","","",""
"aa-learning-trial","155","608686","0.0-9.0-2.0-1.41","6460","1","11","Male","approach_avoid_spark_v1","""event"",""trial"",""time""
""fullscreenenter"",""1"",""5230""
","
","
","""event"",""trial"",""time""
""fullscreenenter"",""1"",""5230""
","
","","","","","","629.8999996185303","images/dog7.png","","","learning","-4","-4","1","1","dog","pets","1","0","","bad","[-4]"
"html-keyboard-response","156","609187","0.0-9.0-2.0-0.42","6460","1","11","Male","approach_avoid_spark_v1","""event"",""trial"",""time""
""fullscreenenter"",""1"",""5230""
","
","
","""event"",""trial"",""time""
""fullscreenenter"",""1"",""5230""
","
","","","","","","null","<div style=""font-size:60px;"">+</div>","null","","fixation","","","","","","","","","","",""
"aa-learning-trial","157","612190","0.0-9.0-2.0-1.42","6460","1","11","Male","approach_avoid_spark_v1","""event"",""trial"",""time""
""fullscreenenter"",""1"",""5230""
","
","
","""event"",""trial"",""time""
""fullscreenenter"",""1"",""5230""
","
","","","","","","568.6999998092651","images/dog6.png","","","learning","-3","-3","1","1","dog","pets","1","0","","bad","[-4]"
"html-keyboard-response","158","612691","0.0-9.0-2.0-0.43","6460","1","11","Male","approach_avoid_spark_v1","""event"",""trial"",""time""
""fullscreenenter"",""1"",""5230""
","
","
","""event"",""trial"",""time""
""fullscreenenter"",""1"",""5230""
","
","","","","","","null","<div style=""font-size:60px;"">+</div>","null","","fixation","","","","","","","","","","",""
"aa-learning-trial","159","615695","0.0-9.0-2.0-1.43","6460","1","11","Male","approach_avoid_spark_v1","""event"",""trial"",""time""
""fullscreenenter"",""1"",""5230""
","
","
","""event"",""trial"",""time""
""fullscreenenter"",""1"",""5230""
","
","","","","","","441.40000009536743","images/rodent6.png","","","learning","6","6","1","1","rodent","pets","1","0","","good","[6]"
"html-keyboard-response","160","616196","0.0-9.0-2.0-0.44","6460","1","11","Male","approach_avoid_spark_v1","""event"",""trial"",""time""
""fullscreenenter"",""1"",""5230""
","
","
","""event"",""trial"",""time""
""fullscreenenter"",""1"",""5230""
","
","","","","","","null","<div style=""font-size:60px;"">+</div>","null","","fixation","","","","","","","","","","",""
"aa-learning-trial","161","619200","0.0-9.0-2.0-1.44","6460","1","11","Male","approach_avoid_spark_v1","""event"",""trial"",""time""
""fullscreenenter"",""1"",""5230""
","
","
","""event"",""trial"",""time""
""fullscreenenter"",""1"",""5230""
","
","","","","","","453.69999980926514","images/cat1.png","","","learning","2","2","1","1","cat","pets","1","0","","neutral","0"
"html-keyboard-response","162","619701","0.0-9.0-2.0-0.45","6460","1","11","Male","approach_avoid_spark_v1","""event"",""trial"",""time""
""fullscreenenter"",""1"",""5230""
","
","
","""event"",""trial"",""time""
""fullscreenenter"",""1"",""5230""
","
","","","","","","null","<div style=""font-size:60px;"">+</div>","null","","fixation","","","","","","","","","","",""
"aa-learning-trial","163","622703","0.0-9.0-2.0-1.45","6460","1","11","Male","approach_avoid_spark_v1","""event"",""trial"",""time""
""fullscreenenter"",""1"",""5230""
","
","
","""event"",""trial"",""time""
""fullscreenenter"",""1"",""5230""
","
","","","","","","877.9000000953674","images/rodent3.png","","","learning","6","0","0","0","rodent","pets","1","0","","good","[6]"
"html-keyboard-response","164","623205","0.0-9.0-2.0-0.46","6460","1","11","Male","approach_avoid_spark_v1","""event"",""trial"",""time""
""fullscreenenter"",""1"",""5230""
","
","
","""event"",""trial"",""time""
""fullscreenenter"",""1"",""5230""
","
","","","","","","null","<div style=""font-size:60px;"">+</div>","null","","fixation","","","","","","","","","","",""
"aa-learning-trial","165","626210","0.0-9.0-2.0-1.46","6460","1","11","Male","approach_avoid_spark_v1","""event"",""trial"",""time""
""fullscreenenter"",""1"",""5230""
","
","
","""event"",""trial"",""time""
""fullscreenenter"",""1"",""5230""
","
","","","","","","797.4000000953674","images/rodent6.png","","","learning","4","4","1","1","rodent","pets","1","0","","good","[6]"
"html-keyboard-response","166","626711","0.0-9.0-2.0-0.47","6460","1","11","Male","approach_avoid_spark_v1","""event"",""trial"",""time""
""fullscreenenter"",""1"",""5230""
","
","
","""event"",""trial"",""time""
""fullscreenenter"",""1"",""5230""
","
","","","","","","null","<div style=""font-size:60px;"">+</div>","null","","fixation","","","","","","","","","","",""
"aa-learning-trial","167","629715","0.0-9.0-2.0-1.47","6460","1","11","Male","approach_avoid_spark_v1","""event"",""trial"",""time""
""fullscreenenter"",""1"",""5230""
","
","
","""event"",""trial"",""time""
""fullscreenenter"",""1"",""5230""
","
","","","","","","749.1000003814697","images/rodent6.png","","","learning","5","5","1","1","rodent","pets","1","0","","good","[6]"
"html-keyboard-response","168","630216","0.0-9.0-2.0-0.48","6460","1","11","Male","approach_avoid_spark_v1","""event"",""trial"",""time""
""fullscreenenter"",""1"",""5230""
","
","
","""event"",""trial"",""time""
""fullscreenenter"",""1"",""5230""
","
","","","","","","null","<div style=""font-size:60px;"">+</div>","null","","fixation","","","","","","","","","","",""
"aa-learning-trial","169","633220","0.0-9.0-2.0-1.48","6460","1","11","Male","approach_avoid_spark_v1","""event"",""trial"",""time""
""fullscreenenter"",""1"",""5230""
","
","
","""event"",""trial"",""time""
""fullscreenenter"",""1"",""5230""
","
","","","","","","507.7999997138977","images/cat3.png","","","learning","[1]","1","1","1","cat","pets","1","0","","neutral","0"
"html-keyboard-response","170","633723","0.0-9.0-2.0-0.49","6460","1","11","Male","approach_avoid_spark_v1","""event"",""trial"",""time""
""fullscreenenter"",""1"",""5230""
","
","
","""event"",""trial"",""time""
""fullscreenenter"",""1"",""5230""
","
","","","","","","null","<div style=""font-size:60px;"">+</div>","null","","fixation","","","","","","","","","","",""
"aa-learning-trial","171","636727","0.0-9.0-2.0-1.49","6460","1","11","Male","approach_avoid_spark_v1","""event"",""trial"",""time""
""fullscreenenter"",""1"",""5230""
","
","
","""event"",""trial"",""time""
""fullscreenenter"",""1"",""5230""
","
","","","","","","805.9000000953674","images/cat7.png","","","learning","-1","-1","1","1","cat","pets","1","0","","neutral","0"
"html-keyboard-response","172","637230","0.0-9.0-2.0-0.50","6460","1","11","Male","approach_avoid_spark_v1","""event"",""trial"",""time""
""fullscreenenter"",""1"",""5230""
","
","
","""event"",""trial"",""time""
""fullscreenenter"",""1"",""5230""
","
","","","","","","null","<div style=""font-size:60px;"">+</div>","null","","fixation","","","","","","","","","","",""
"aa-learning-trial","173","640234","0.0-9.0-2.0-1.50","6460","1","11","Male","approach_avoid_spark_v1","""event"",""trial"",""time""
""fullscreenenter"",""1"",""5230""
","
","
","""event"",""trial"",""time""
""fullscreenenter"",""1"",""5230""
","
","","","","","","788.4000000953674","images/cat1.png","","","learning","2","0","0","0","cat","pets","1","0","","neutral","0"
"html-button-response","174","645256","0.0-9.0-3.0","6460","1","11","Male","approach_avoid_spark_v1","""event"",""trial"",""time""
""fullscreenenter"",""1"",""5230""
","
","
","""event"",""trial"",""time""
""fullscreenenter"",""1"",""5230""
","
","","","","","","5020.599999904633","<p> You have completed the round! <p> In this round, you earned 9 points! </p>","0","","break","","","","","","","","","","",""
"html-button-response","175","648615","0.0-10.0","6460","1","11","Male","approach_avoid_spark_v1","""event"",""trial"",""time""
""fullscreenenter"",""1"",""5230""
","
","
","""event"",""trial"",""time""
""fullscreenenter"",""1"",""5230""
","
","","","","","","3357.5999999046326","<p> Now it's time to play another round. </p>","0","","transition_screen","","","","","","","","","","",""
"preload","176","648735","0.0-11.0-0.0","6460","1","11","Male","approach_avoid_spark_v1","""event"",""trial"",""time""
""fullscreenenter"",""1"",""5230""
","
","
","""event"",""trial"",""time""
""fullscreenenter"",""1"",""5230""
","
","true","false","[]","[]","[]","","","","","","","","","","","","","","","",""
"learning-instructions","177","657376","0.0-11.0-1.0-0.0","6460","1","11","Male","approach_avoid_spark_v1","""event"",""trial"",""time""
""fullscreenenter"",""1"",""5230""
","
","
","""event"",""trial"",""time""
""fullscreenenter"",""1"",""5230""
","
","","","","","","2471.3999996185303","<p> Your goal in this round is to decorate your friend's new house with furniture. </p></div>","","0","instructions","","","","","","","","","","",""
"learning-instructions","178","671111","0.0-11.0-1.0-0.1","6460","1","11","Male","approach_avoid_spark_v1","""event"",""trial"",""time""
""fullscreenenter"",""1"",""5230""
","
","
","""event"",""trial"",""time""
""fullscreenenter"",""1"",""5230""
","
","","","","","","3456.5","<p> Your friend likes some pieces of furniture but not others.  </p><p> On each turn, you will see a piece of furniture.   </p><p> You need to decide whether to put it in your friend's house or not.  </p>","","0","instructions","","","","","","","","","","",""
"learning-instructions","179","677907","0.0-11.0-1.0-0.2","6460","1","11","Male","approach_avoid_spark_v1","""event"",""trial"",""time""
""fullscreenenter"",""1"",""5230""
","
","
","""event"",""trial"",""time""
""fullscreenenter"",""1"",""5230""
","
","","","","","","831.6999998092651","<p> You can put the furniture in her house by pressing 1 and deliver it elsewhere by pressing 0. </p><br><div class=""choice-instructions-grid""> <div class=""choice-option""><img src=""images/approach.png"" class=""choice-option-img"" stage=""instructions"" position=""0"" ><div class=""choice-option-text""> Press ""1."" </div></div><div class=""choice-option""><img src=""images/avoid.png"" class=""choice-option-img"" stage=""instructions"" position=""1"" ><div class=""choice-option-text""> Press ""0."" </div></div>","","0","instructions","","","","","","","","","","",""
"learning-instructions","180","688011","0.0-11.0-1.0-0.3","6460","1","11","Male","approach_avoid_spark_v1","""event"",""trial"",""time""
""fullscreenenter"",""1"",""5230""
","
","
","""event"",""trial"",""time""
""fullscreenenter"",""1"",""5230""
","
","","","","","","847.6999998092651","<p> If you decorate your friend's house with furniture she likes, she will be happy! </p><p> But if you give her furniture that she does not like, she will be annoyed. </p>","","0","instructions","","","","","","","","","","",""
"learning-instructions","181","701697","0.0-11.0-1.0-0.4","6460","1","11","Male","approach_avoid_spark_v1","""event"",""trial"",""time""
""fullscreenenter"",""1"",""5230""
","
","
","""event"",""trial"",""time""
""fullscreenenter"",""1"",""5230""
","
","","","","","","1183.6999998092651","<p> You will earn points based on how you made your friend feel. </p><p> If you made her happy, you will WIN anywhere from 1 - 9 points, </p><p> but if you made her annoyed you will LOSE anywhere from 1 - 9 points. </p>","","0","instructions","","","","","","","","","","",""
"learning-instructions","182","709699","0.0-11.0-1.0-0.5","6460","1","11","Male","approach_avoid_spark_v1","""event"",""trial"",""time""
""fullscreenenter"",""1"",""5230""
","
","
","""event"",""trial"",""time""
""fullscreenenter"",""1"",""5230""
","
","","","","","","1344.5999999046326","<p> You will see how many points you won or lost in the center of the screen. </p><p> Here is what you would see if you won 5 points: </p><p style=""color:green;font-size:50px;font-weight:bolder"">5</p>","","0","instructions","","","","","","","","","","",""
"learning-instructions","183","712923","0.0-11.0-1.0-0.6","6460","1","11","Male","approach_avoid_spark_v1","""event"",""trial"",""time""
""fullscreenenter"",""1"",""5230""
","
","
","""event"",""trial"",""time""
""fullscreenenter"",""1"",""5230""
","
","","","","","","389.40000009536743","<p> And here is what you would see if you lost 3 points: </p><p style=""color:red;font-size:50px;font-weight:bolder"">-3</p>","","0","instructions","","","","","","","","","","",""
"learning-instructions","184","731354","0.0-11.0-1.0-0.7","6460","1","11","Male","approach_avoid_spark_v1","""event"",""trial"",""time""
""fullscreenenter"",""1"",""5230""
","
","
","""event"",""trial"",""time""
""fullscreenenter"",""1"",""5230""
","
","","","","","","650.8999996185303","<p> Some pieces of furniture will make her feel very happy or very annoyed. </p><p> These pieces of furniture will make you win or lose LOTS of points. </p><p> Other pieces of furniture will only make her feel a little happy or a little annoyed. </p><p> These pieces of furniture will make you win or lose small amounts of points. </p>","","0","instructions","","","","","","","","","","",""
"learning-instructions","185","745196","0.0-11.0-1.0-0.8","6460","1","11","Male","approach_avoid_spark_v1","""event"",""trial"",""time""
""fullscreenenter"",""1"",""5230""
","
","
","""event"",""trial"",""time""
""fullscreenenter"",""1"",""5230""
","
","","","","","","722.5","<p> If you choose to deliver a piece of furniture elsewhere, you will not win or lose any points. </p><p>  However, in the center of the screen, you will see the number of points you WOULD HAVE won or lost if you had given the furniture to your friend. </p>","","0","instructions","","","","","","","","","","",""
"learning-instructions","186","757384","0.0-11.0-1.0-0.9","6460","1","11","Male","approach_avoid_spark_v1","""event"",""trial"",""time""
""fullscreenenter"",""1"",""5230""
","
","
","""event"",""trial"",""time""
""fullscreenenter"",""1"",""5230""
","
","","","","","","411.90000009536743","<p> Here is what you might see if you did not give a piece of furniture to your friend that would have made her happy: </p><p style=""color:grey; font-size:50px; display: inline-block; border-spacing: 15px; border-width:3px; border-style:solid; border-color:red"">  &nbsp; 6 &nbsp; </p><p> Remember, in this case, you would not win or lose ANY points because you did not give her the furniture.  </p>","","0","instructions","","","","","","","","","","",""
"learning-instructions","187","765407","0.0-11.0-1.0-0.10","6460","1","11","Male","approach_avoid_spark_v1","""event"",""trial"",""time""
""fullscreenenter"",""1"",""5230""
","
","
","""event"",""trial"",""time""
""fullscreenenter"",""1"",""5230""
","
","","","","","","124.60000038146973","<p> Try to make the best choice for each piece of furniture because </p><p> at the end of the game, you will earn bonus money based on how many points you earned. </p>","","0","instructions","","","","","","","","","","",""
"learning-instructions","188","774026","0.0-11.0-1.0-0.11","6460","1","11","Male","approach_avoid_spark_v1","""event"",""trial"",""time""
""fullscreenenter"",""1"",""5230""
","
","
","""event"",""trial"",""time""
""fullscreenenter"",""1"",""5230""
","
","","","","","","423.40000009536743","<p> You will have 3 seconds to make each choice. Try to respond before time runs out! </p><p> You will lose 5 points each time you do not make a response. </p>","","0","instructions","","","","","","","","","","",""
"html-keyboard-response","189","774648","0.0-11.0-2.0-0.0","6460","1","11","Male","approach_avoid_spark_v1","""event"",""trial"",""time""
""fullscreenenter"",""1"",""5230""
","
","
","""event"",""trial"",""time""
""fullscreenenter"",""1"",""5230""
","
","","","","","","null","<div style=""font-size:60px;"">+</div>","null","","fixation","","","","","","","","","","",""
"aa-learning-trial","190","777663","0.0-11.0-2.0-1.0","6460","1","11","Male","approach_avoid_spark_v1","""event"",""trial"",""time""
""fullscreenenter"",""1"",""5230""
","
","
","""event"",""trial"",""time""
""fullscreenenter"",""1"",""5230""
","
","","","","","","1083.3000001907349","images/chair4.png","","","learning","-9","-9","1","1","chair","furniture","2","1","","good","[5]"
"html-keyboard-response","191","778166","0.0-11.0-2.0-0.1","6460","1","11","Male","approach_avoid_spark_v1","""event"",""trial"",""time""
""fullscreenenter"",""1"",""5230""
","
","
","""event"",""trial"",""time""
""fullscreenenter"",""1"",""5230""
","
","","","","","","null","<div style=""font-size:60px;"">+</div>","null","","fixation","","","","","","","","","","",""
"aa-learning-trial","192","781175","0.0-11.0-2.0-1.1","6460","1","11","Male","approach_avoid_spark_v1","""event"",""trial"",""time""
""fullscreenenter"",""1"",""5230""
","
","
","""event"",""trial"",""time""
""fullscreenenter"",""1"",""5230""
","
","","","","","","1204.7000002861023","images/bed6.png","","","learning","8","0","0","0","bed","furniture","2","1","","neutral","0"
"html-keyboard-response","193","781679","0.0-11.0-2.0-0.2","6460","1","11","Male","approach_avoid_spark_v1","""event"",""trial"",""time""
""fullscreenenter"",""1"",""5230""
","
","
","""event"",""trial"",""time""
""fullscreenenter"",""1"",""5230""
","
","","","","","","null","<div style=""font-size:60px;"">+</div>","null","","fixation","","","","","","","","","","",""
"aa-learning-trial","194","784693","0.0-11.0-2.0-1.2","6460","1","11","Male","approach_avoid_spark_v1","""event"",""trial"",""time""
""fullscreenenter"",""1"",""5230""
","
","
","""event"",""trial"",""time""
""fullscreenenter"",""1"",""5230""
","
","","","","","","743.6999998092651","images/sofa2.png","","","learning","-3","-3","1","1","sofa","furniture","2","1","","bad","[-6]"
"html-keyboard-response","195","785207","0.0-11.0-2.0-0.3","6460","1","11","Male","approach_avoid_spark_v1","""event"",""trial"",""time""
""fullscreenenter"",""1"",""5230""
","
","
","""event"",""trial"",""time""
""fullscreenenter"",""1"",""5230""
","
","","","","","","null","<div style=""font-size:60px;"">+</div>","null","","fixation","","","","","","","","","","",""
"aa-learning-trial","196","788222","0.0-11.0-2.0-1.3","6460","1","11","Male","approach_avoid_spark_v1","""event"",""trial"",""time""
""fullscreenenter"",""1"",""5230""
","
","
","""event"",""trial"",""time""
""fullscreenenter"",""1"",""5230""
","
","","","","","","456.19999980926514","images/sofa2.png","","","learning","-3","-3","1","1","sofa","furniture","2","1","","bad","[-6]"
"html-keyboard-response","197","788740","0.0-11.0-2.0-0.4","6460","1","11","Male","approach_avoid_spark_v1","""event"",""trial"",""time""
""fullscreenenter"",""1"",""5230""
","
","
","""event"",""trial"",""time""
""fullscreenenter"",""1"",""5230""
","
","","","","","","null","<div style=""font-size:60px;"">+</div>","null","","fixation","","","","","","","","","","",""
"aa-learning-trial","198","791754","0.0-11.0-2.0-1.4","6460","1","11","Male","approach_avoid_spark_v1","""event"",""trial"",""time""
""fullscreenenter"",""1"",""5230""
","
","
","""event"",""trial"",""time""
""fullscreenenter"",""1"",""5230""
","
","","","","","","750.6000003814697","images/sofa6.png","","","learning","3","3","1","1","sofa","furniture","2","1","","bad","[-6]"
"html-keyboard-response","199","792271","0.0-11.0-2.0-0.5","6460","1","11","Male","approach_avoid_spark_v1","""event"",""trial"",""time""
""fullscreenenter"",""1"",""5230""
","
","
","""event"",""trial"",""time""
""fullscreenenter"",""1"",""5230""
","
","","","","","","null","<div style=""font-size:60px;"">+</div>","null","","fixation","","","","","","","","","","",""
"aa-learning-trial","200","795274","0.0-11.0-2.0-1.5","6460","1","11","Male","approach_avoid_spark_v1","""event"",""trial"",""time""
""fullscreenenter"",""1"",""5230""
","
","
","""event"",""trial"",""time""
""fullscreenenter"",""1"",""5230""
","
","","","","","","837.8999996185303","images/bed5.png","","","learning","-8","0","0","0","bed","furniture","2","1","","neutral","0"
"html-keyboard-response","201","795776","0.0-11.0-2.0-0.6","6460","1","11","Male","approach_avoid_spark_v1","""event"",""trial"",""time""
""fullscreenenter"",""1"",""5230""
","
","
","""event"",""trial"",""time""
""fullscreenenter"",""1"",""5230""
","
","","","","","","null","<div style=""font-size:60px;"">+</div>","null","","fixation","","","","","","","","","","",""
"aa-learning-trial","202","798796","0.0-11.0-2.0-1.6","6460","1","11","Male","approach_avoid_spark_v1","""event"",""trial"",""time""
""fullscreenenter"",""1"",""5230""
","
","
","""event"",""trial"",""time""
""fullscreenenter"",""1"",""5230""
","
","","","","","","814.6999998092651","images/chair2.png","","","learning","-4","-4","1","1","chair","furniture","2","1","","good","[5]"
"html-keyboard-response","203","799312","0.0-11.0-2.0-0.7","6460","1","11","Male","approach_avoid_spark_v1","""event"",""trial"",""time""
""fullscreenenter"",""1"",""5230""
","
","
","""event"",""trial"",""time""
""fullscreenenter"",""1"",""5230""
","
","","","","","","null","<div style=""font-size:60px;"">+</div>","null","","fixation","","","","","","","","","","",""
"aa-learning-trial","204","802327","0.0-11.0-2.0-1.7","6460","1","11","Male","approach_avoid_spark_v1","""event"",""trial"",""time""
""fullscreenenter"",""1"",""5230""
","
","
","""event"",""trial"",""time""
""fullscreenenter"",""1"",""5230""
","
","","","","","","809.1999998092651","images/bed5.png","","","learning","-8","0","0","0","bed","furniture","2","1","","neutral","0"
"html-keyboard-response","205","802831","0.0-11.0-2.0-0.8","6460","1","11","Male","approach_avoid_spark_v1","""event"",""trial"",""time""
""fullscreenenter"",""1"",""5230""
","
","
","""event"",""trial"",""time""
""fullscreenenter"",""1"",""5230""
","
","","","","","","null","<div style=""font-size:60px;"">+</div>","null","","fixation","","","","","","","","","","",""
"aa-learning-trial","206","805836","0.0-11.0-2.0-1.8","6460","1","11","Male","approach_avoid_spark_v1","""event"",""trial"",""time""
""fullscreenenter"",""1"",""5230""
","
","
","""event"",""trial"",""time""
""fullscreenenter"",""1"",""5230""
","
","","","","","","1185","images/bed6.png","","","learning","8","8","1","1","bed","furniture","2","1","","neutral","0"
"html-keyboard-response","207","806337","0.0-11.0-2.0-0.9","6460","1","11","Male","approach_avoid_spark_v1","""event"",""trial"",""time""
""fullscreenenter"",""1"",""5230""
","
","
","""event"",""trial"",""time""
""fullscreenenter"",""1"",""5230""
","
","","","","","","null","<div style=""font-size:60px;"">+</div>","null","","fixation","","","","","","","","","","",""
"aa-learning-trial","208","809340","0.0-11.0-2.0-1.9","6460","1","11","Male","approach_avoid_spark_v1","""event"",""trial"",""time""
""fullscreenenter"",""1"",""5230""
","
","
","""event"",""trial"",""time""
""fullscreenenter"",""1"",""5230""
","
","","","","","","784.3000001907349","images/chair2.png","","","learning","-4","0","0","0","chair","furniture","2","1","","good","[5]"
"html-keyboard-response","209","809841","0.0-11.0-2.0-0.10","6460","1","11","Male","approach_avoid_spark_v1","""event"",""trial"",""time""
""fullscreenenter"",""1"",""5230""
","
","
","""event"",""trial"",""time""
""fullscreenenter"",""1"",""5230""
","
","","","","","","null","<div style=""font-size:60px;"">+</div>","null","","fixation","","","","","","","","","","",""
"aa-learning-trial","210","812845","0.0-11.0-2.0-1.10","6460","1","11","Male","approach_avoid_spark_v1","""event"",""trial"",""time""
""fullscreenenter"",""1"",""5230""
","
","
","""event"",""trial"",""time""
""fullscreenenter"",""1"",""5230""
","
","","","","","","702.0999999046326","images/chair4.png","","","learning","-9","0","0","0","chair","furniture","2","1","","good","[5]"
"html-keyboard-response","211","813346","0.0-11.0-2.0-0.11","6460","1","11","Male","approach_avoid_spark_v1","""event"",""trial"",""time""
""fullscreenenter"",""1"",""5230""
","
","
","""event"",""trial"",""time""
""fullscreenenter"",""1"",""5230""
","
","","","","","","null","<div style=""font-size:60px;"">+</div>","null","","fixation","","","","","","","","","","",""
"aa-learning-trial","212","816350","0.0-11.0-2.0-1.11","6460","1","11","Male","approach_avoid_spark_v1","""event"",""trial"",""time""
""fullscreenenter"",""1"",""5230""
","
","
","""event"",""trial"",""time""
""fullscreenenter"",""1"",""5230""
","
","","","","","","809.4000000953674","images/sofa6.png","","","learning","3","3","1","1","sofa","furniture","2","1","","bad","[-6]"
"html-keyboard-response","213","816866","0.0-11.0-2.0-0.12","6460","1","11","Male","approach_avoid_spark_v1","""event"",""trial"",""time""
""fullscreenenter"",""1"",""5230""
","
","
","""event"",""trial"",""time""
""fullscreenenter"",""1"",""5230""
","
","","","","","","null","<div style=""font-size:60px;"">+</div>","null","","fixation","","","","","","","","","","",""
"aa-learning-trial","214","819871","0.0-11.0-2.0-1.12","6460","1","11","Male","approach_avoid_spark_v1","""event"",""trial"",""time""
""fullscreenenter"",""1"",""5230""
","
","
","""event"",""trial"",""time""
""fullscreenenter"",""1"",""5230""
","
","","","","","","962.3000001907349","images/bed3.png","","","learning","-1","-1","1","1","bed","furniture","2","1","","neutral","0"
"html-keyboard-response","215","820384","0.0-11.0-2.0-0.13","6460","1","11","Male","approach_avoid_spark_v1","""event"",""trial"",""time""
""fullscreenenter"",""1"",""5230""
","
","
","""event"",""trial"",""time""
""fullscreenenter"",""1"",""5230""
","
","","","","","","null","<div style=""font-size:60px;"">+</div>","null","","fixation","","","","","","","","","","",""
"aa-learning-trial","216","823387","0.0-11.0-2.0-1.13","6460","1","11","Male","approach_avoid_spark_v1","""event"",""trial"",""time""
""fullscreenenter"",""1"",""5230""
","
","
","""event"",""trial"",""time""
""fullscreenenter"",""1"",""5230""
","
","","","","","","1049.3000001907349","images/chair6.png","","","learning","7","0","0","0","chair","furniture","2","1","","good","[5]"
"html-keyboard-response","217","823888","0.0-11.0-2.0-0.14","6460","1","11","Male","approach_avoid_spark_v1","""event"",""trial"",""time""
""fullscreenenter"",""1"",""5230""
","
","
","""event"",""trial"",""time""
""fullscreenenter"",""1"",""5230""
","
","","","","","","null","<div style=""font-size:60px;"">+</div>","null","","fixation","","","","","","","","","","",""
"aa-learning-trial","218","826891","0.0-11.0-2.0-1.14","6460","1","11","Male","approach_avoid_spark_v1","""event"",""trial"",""time""
""fullscreenenter"",""1"",""5230""
","
","
","""event"",""trial"",""time""
""fullscreenenter"",""1"",""5230""
","
","","","","","","965.7999997138977","images/sofa8.png","","","learning","1","1","1","1","sofa","furniture","2","1","","bad","[-6]"
"html-keyboard-response","219","827393","0.0-11.0-2.0-0.15","6460","1","11","Male","approach_avoid_spark_v1","""event"",""trial"",""time""
""fullscreenenter"",""1"",""5230""
","
","
","""event"",""trial"",""time""
""fullscreenenter"",""1"",""5230""
","
","","","","","","null","<div style=""font-size:60px;"">+</div>","null","","fixation","","","","","","","","","","",""
"aa-learning-trial","220","830398","0.0-11.0-2.0-1.15","6460","1","11","Male","approach_avoid_spark_v1","""event"",""trial"",""time""
""fullscreenenter"",""1"",""5230""
","
","
","""event"",""trial"",""time""
""fullscreenenter"",""1"",""5230""
","
","","","","","","982.6999998092651","images/sofa2.png","","","learning","-3","-3","1","1","sofa","furniture","2","1","","bad","[-6]"
"html-keyboard-response","221","830900","0.0-11.0-2.0-0.16","6460","1","11","Male","approach_avoid_spark_v1","""event"",""trial"",""time""
""fullscreenenter"",""1"",""5230""
","
","
","""event"",""trial"",""time""
""fullscreenenter"",""1"",""5230""
","
","","","","","","null","<div style=""font-size:60px;"">+</div>","null","","fixation","","","","","","","","","","",""
"aa-learning-trial","222","833905","0.0-11.0-2.0-1.16","6460","1","11","Male","approach_avoid_spark_v1","""event"",""trial"",""time""
""fullscreenenter"",""1"",""5230""
","
","
","""event"",""trial"",""time""
""fullscreenenter"",""1"",""5230""
","
","","","","","","1189.0999999046326","images/bed5.png","","","learning","-8","0","0","0","bed","furniture","2","1","","neutral","0"
"html-keyboard-response","223","834421","0.0-11.0-2.0-0.17","6460","1","11","Male","approach_avoid_spark_v1","""event"",""trial"",""time""
""fullscreenenter"",""1"",""5230""
","
","
","""event"",""trial"",""time""
""fullscreenenter"",""1"",""5230""
","
","","","","","","null","<div style=""font-size:60px;"">+</div>","null","","fixation","","","","","","","","","","",""
"aa-learning-trial","224","837425","0.0-11.0-2.0-1.17","6460","1","11","Male","approach_avoid_spark_v1","""event"",""trial"",""time""
""fullscreenenter"",""1"",""5230""
","
","
","""event"",""trial"",""time""
""fullscreenenter"",""1"",""5230""
","
","","","","","","1264.2000002861023","images/chair5.png","","","learning","-2","-2","1","1","chair","furniture","2","1","","good","[5]"
"html-keyboard-response","225","837928","0.0-11.0-2.0-0.18","6460","1","11","Male","approach_avoid_spark_v1","""event"",""trial"",""time""
""fullscreenenter"",""1"",""5230""
","
","
","""event"",""trial"",""time""
""fullscreenenter"",""1"",""5230""
","
","","","","","","null","<div style=""font-size:60px;"">+</div>","null","","fixation","","","","","","","","","","",""
"aa-learning-trial","226","840933","0.0-11.0-2.0-1.18","6460","1","11","Male","approach_avoid_spark_v1","""event"",""trial"",""time""
""fullscreenenter"",""1"",""5230""
","
","
","""event"",""trial"",""time""
""fullscreenenter"",""1"",""5230""
","
","","","","","","1337.4000000953674","images/bed5.png","","","learning","-8","0","0","0","bed","furniture","2","1","","neutral","0"
"html-keyboard-response","227","841435","0.0-11.0-2.0-0.19","6460","1","11","Male","approach_avoid_spark_v1","""event"",""trial"",""time""
""fullscreenenter"",""1"",""5230""
","
","
","""event"",""trial"",""time""
""fullscreenenter"",""1"",""5230""
","
","","","","","","null","<div style=""font-size:60px;"">+</div>","null","","fixation","","","","","","","","","","",""
"aa-learning-trial","228","844440","0.0-11.0-2.0-1.19","6460","1","11","Male","approach_avoid_spark_v1","""event"",""trial"",""time""
""fullscreenenter"",""1"",""5230""
","
","
","""event"",""trial"",""time""
""fullscreenenter"",""1"",""5230""
","
","","","","","","1052.5","images/bed5.png","","","learning","-8","-8","1","1","bed","furniture","2","1","","neutral","0"
"html-keyboard-response","229","844942","0.0-11.0-2.0-0.20","6460","1","11","Male","approach_avoid_spark_v1","""event"",""trial"",""time""
""fullscreenenter"",""1"",""5230""
","
","
","""event"",""trial"",""time""
""fullscreenenter"",""1"",""5230""
","
","","","","","","null","<div style=""font-size:60px;"">+</div>","null","","fixation","","","","","","","","","","",""
"aa-learning-trial","230","847945","0.0-11.0-2.0-1.20","6460","1","11","Male","approach_avoid_spark_v1","""event"",""trial"",""time""
""fullscreenenter"",""1"",""5230""
","
","
","""event"",""trial"",""time""
""fullscreenenter"",""1"",""5230""
","
","","","","","","897","images/bed6.png","","","learning","8","8","1","1","bed","furniture","2","1","","neutral","0"
"html-keyboard-response","231","848447","0.0-11.0-2.0-0.21","6460","1","11","Male","approach_avoid_spark_v1","""event"",""trial"",""time""
""fullscreenenter"",""1"",""5230""
","
","
","""event"",""trial"",""time""
""fullscreenenter"",""1"",""5230""
","
","","","","","","null","<div style=""font-size:60px;"">+</div>","null","","fixation","","","","","","","","","","",""
"aa-learning-trial","232","851449","0.0-11.0-2.0-1.21","6460","1","11","Male","approach_avoid_spark_v1","""event"",""trial"",""time""
""fullscreenenter"",""1"",""5230""
","
","
","""event"",""trial"",""time""
""fullscreenenter"",""1"",""5230""
","
","","","","","","799.6000003814697","images/chair4.png","","","learning","-9","0","0","0","chair","furniture","2","1","","good","[5]"
"html-keyboard-response","233","851950","0.0-11.0-2.0-0.22","6460","1","11","Male","approach_avoid_spark_v1","""event"",""trial"",""time""
""fullscreenenter"",""1"",""5230""
","
","
","""event"",""trial"",""time""
""fullscreenenter"",""1"",""5230""
","
","","","","","","null","<div style=""font-size:60px;"">+</div>","null","","fixation","","","","","","","","","","",""
"aa-learning-trial","234","854966","0.0-11.0-2.0-1.22","6460","1","11","Male","approach_avoid_spark_v1","""event"",""trial"",""time""
""fullscreenenter"",""1"",""5230""
","
","
","""event"",""trial"",""time""
""fullscreenenter"",""1"",""5230""
","
","","","","","","811","images/bed5.png","","","learning","-8","-8","1","1","bed","furniture","2","1","","neutral","0"
"html-keyboard-response","235","855468","0.0-11.0-2.0-0.23","6460","1","11","Male","approach_avoid_spark_v1","""event"",""trial"",""time""
""fullscreenenter"",""1"",""5230""
","
","
","""event"",""trial"",""time""
""fullscreenenter"",""1"",""5230""
","
","","","","","","null","<div style=""font-size:60px;"">+</div>","null","","fixation","","","","","","","","","","",""
"aa-learning-trial","236","858472","0.0-11.0-2.0-1.23","6460","1","11","Male","approach_avoid_spark_v1","""event"",""trial"",""time""
""fullscreenenter"",""1"",""5230""
","
","
","""event"",""trial"",""time""
""fullscreenenter"",""1"",""5230""
","
","","","","","","1124.5999999046326","images/sofa7.png","","","learning","6","6","1","1","sofa","furniture","2","1","","bad","[-6]"
"html-keyboard-response","237","858974","0.0-11.0-2.0-0.24","6460","1","11","Male","approach_avoid_spark_v1","""event"",""trial"",""time""
""fullscreenenter"",""1"",""5230""
","
","
","""event"",""trial"",""time""
""fullscreenenter"",""1"",""5230""
","
","","","","","","null","<div style=""font-size:60px;"">+</div>","null","","fixation","","","","","","","","","","",""
