"trial_type","trial_index","time_elapsed","internal_node_id","subject_id","task_condition","age","gender","task_version","interactions","blur_events","focus_events","fullscreenenter_events","fullscreenexit_events","success","timeout","failed_images","failed_audio","failed_video","rt","stimulus","response","button_pressed","task_part","approach_reward","points","key_press","option_selected","stim_cat","task_block","block_condition","block_number","correct","cat_type","mean_cat_reward"
"pavlovia","0","12","0.0-0.0","3864","2","17","Male","approach_avoid_spark_v1","""event"",""trial"",""time""
""fullscreenenter"",""1"",""3654""
","
","
","""event"",""trial"",""time""
""fullscreenenter"",""1"",""3654""
","
","","","","","","","","","","","","","","","","","","","","",""
"fullscreen","1","4646","0.0-1.0","3864","2","17","Male","approach_avoid_spark_v1","""event"",""trial"",""time""
""fullscreenenter"",""1"",""3654""
","
","
","""event"",""trial"",""time""
""fullscreenenter"",""1"",""3654""
","
","true","","","","","","","","","","","","","","","","","","","",""
"preload","2","7338","0.0-2.0","3864","2","17","Male","approach_avoid_spark_v1","""event"",""trial"",""time""
""fullscreenenter"",""1"",""3654""
","
","
","""event"",""trial"",""time""
""fullscreenenter"",""1"",""3654""
","
","true","false","[]","[]","[]","","","","","","","","","","","","","","","",""
"audio-keyboard-response","3","10625","0.0-3.0","3864","2","17","Male","approach_avoid_spark_v1","""event"",""trial"",""time""
""fullscreenenter"",""1"",""3654""
","
","
","""event"",""trial"",""time""
""fullscreenenter"",""1"",""3654""
","
","","","","","","3285.3333333333335","audio/beep_loop.wav"," ","","","","","","","","","","","","",""
"audio-button-response","4","12985","0.0-4.0","3864","2","17","Male","approach_avoid_spark_v1","""event"",""trial"",""time""
""fullscreenenter"",""1"",""3654""
","
","
","""event"",""trial"",""time""
""fullscreenenter"",""1"",""3654""
","
","","","","","","2357","audio/shark.wav","4","","","","","","","","","","","","",""
"audio-button-response","5","15376","0.0-5.0","3864","2","17","Male","approach_avoid_spark_v1","""event"",""trial"",""time""
""fullscreenenter"",""1"",""3654""
","
","
","""event"",""trial"",""time""
""fullscreenenter"",""1"",""3654""
","
","","","","","","1387","audio/turtle.wav","1","","","","","","","","","","","","",""
"preload","6","17776","0.0-6.0","3864","2","17","Male","approach_avoid_spark_v1","""event"",""trial"",""time""
""fullscreenenter"",""1"",""3654""
","
","
","""event"",""trial"",""time""
""fullscreenenter"",""1"",""3654""
","
","true","false","[]","[]","[]","","","","","","","","","","","","","","","",""
"html-keyboard-response","7","19355","0.0-7.0","3864","2","17","Male","approach_avoid_spark_v1","""event"",""trial"",""time""
""fullscreenenter"",""1"",""3654""
","
","
","""event"",""trial"",""time""
""fullscreenenter"",""1"",""3654""
","
","","","","","","1575.8000000002794","Welcome to the experiment. Press any key to begin and to advance the instructions."," ","","","","","","","","","","","","",""
"learning-instructions","8","28446","0.0-8.0-0.0-0.0","3864","2","17","Male","approach_avoid_spark_v1","""event"",""trial"",""time""
""fullscreenenter"",""1"",""3654""
","
","
","""event"",""trial"",""time""
""fullscreenenter"",""1"",""3654""
","
","","","","","","2128.5","<p> Welcome! Today you are going to play 6 different rounds of a decision-making game. </p><p> Use the mouse to click next to continue. </p>","","0","instructions","","","","","","","","","","",""
"learning-instructions","9","32455","0.0-8.0-0.0-0.1","3864","2","17","Male","approach_avoid_spark_v1","""event"",""trial"",""time""
""fullscreenenter"",""1"",""3654""
","
","
","""event"",""trial"",""time""
""fullscreenenter"",""1"",""3654""
","
","","","","","","1285.7000000001863","<p> You will start with a practice round to learn the rules. </p>","","0","instructions","","","","","","","","","","",""
"learning-instructions","10","39394","0.0-8.0-0.0-0.2","3864","2","17","Male","approach_avoid_spark_v1","""event"",""trial"",""time""
""fullscreenenter"",""1"",""3654""
","
","
","""event"",""trial"",""time""
""fullscreenenter"",""1"",""3654""
","
","","","","","","3488.1999999997206","<p> Your goal in this round is to give out sports equipment to kids. </p></div>","","0","instructions","","","","","","","","","","",""
"learning-instructions","11","47456","0.0-8.0-0.0-0.3","3864","2","17","Male","approach_avoid_spark_v1","""event"",""trial"",""time""
""fullscreenenter"",""1"",""3654""
","
","
","""event"",""trial"",""time""
""fullscreenenter"",""1"",""3654""
","
","","","","","","511","<p> The kids only like some of the equipment.  </p><p> On each turn, you will see a piece of sports equipment.   </p><p> You need to decide whether to give it to the kids or not.  </p>","","0","instructions","","","","","","","","","","",""
"learning-instructions","12","52659","0.0-8.0-0.0-0.4","3864","2","17","Male","approach_avoid_spark_v1","""event"",""trial"",""time""
""fullscreenenter"",""1"",""3654""
","
","
","""event"",""trial"",""time""
""fullscreenenter"",""1"",""3654""
","
","","","","","","442.90000000037253","<p> You can give them the equipment by pressing 1 and choose not to give it to them by pressing 0. </p><br><div class=""choice-instructions-grid""> <div class=""choice-option""><img src=""images/approach.png"" class=""choice-option-img"" stage=""instructions"" position=""0"" ><div class=""choice-option-text""> Press ""1."" </div></div><div class=""choice-option""><img src=""images/avoid.png"" class=""choice-option-img"" stage=""instructions"" position=""1"" ><div class=""choice-option-text""> Press ""0."" </div></div>","","0","instructions","","","","","","","","","","",""
"learning-instructions","13","60561","0.0-8.0-0.0-0.5","3864","2","17","Male","approach_avoid_spark_v1","""event"",""trial"",""time""
""fullscreenenter"",""1"",""3654""
","
","
","""event"",""trial"",""time""
""fullscreenenter"",""1"",""3654""
","
","","","","","","506.5","<p> If you give them a piece of equipment they like, they will be happy! </p><p> But if you give them a piece of equipment they do not like, they will be sad. </p>","","0","instructions","","","","","","","","","","",""
"learning-instructions","14","71615","0.0-8.0-0.0-0.6","3864","2","17","Male","approach_avoid_spark_v1","""event"",""trial"",""time""
""fullscreenenter"",""1"",""3654""
","
","
","""event"",""trial"",""time""
""fullscreenenter"",""1"",""3654""
","
","","","","","","529.7999999998137","<p> You will earn points based on how you make kids feel. </p><p> If you make them happy, you will WIN anywhere from 1 - 9 points, </p><p> but if you make them sad, you will LOSE anywhere from 1 - 9 points. </p>","","0","instructions","","","","","","","","","","",""
"learning-instructions","15","81667","0.0-8.0-0.0-0.7","3864","2","17","Male","approach_avoid_spark_v1","""event"",""trial"",""time""
""fullscreenenter"",""1"",""3654""
","
","
","""event"",""trial"",""time""
""fullscreenenter"",""1"",""3654""
","
","","","","","","491.09999999962747","<p> You will see how many points you won or lost in the center of the screen. </p><p> Here is what you would see if you won 6 points: </p><p style=""color:green;font-size:50px;font-weight:bolder"">6</p><p style=""color:green"">The text is GREEN because you WON points.</p>","","0","instructions","","","","","","","","","","",""
"learning-instructions","16","87590","0.0-8.0-0.0-0.8","3864","2","17","Male","approach_avoid_spark_v1","""event"",""trial"",""time""
""fullscreenenter"",""1"",""3654""
","
","
","""event"",""trial"",""time""
""fullscreenenter"",""1"",""3654""
","
","","","","","","408.8000000002794","<p> And here is what you would see if you lost 4 points: </p><p style=""color:red;font-size:50px;font-weight:bolder"">-4</p><p style=""color:red"">The text is RED because you LOST points. </p>","","0","instructions","","","","","","","","","","",""
"learning-instructions","17","102764","0.0-8.0-0.0-0.9","3864","2","17","Male","approach_avoid_spark_v1","""event"",""trial"",""time""
""fullscreenenter"",""1"",""3654""
","
","
","""event"",""trial"",""time""
""fullscreenenter"",""1"",""3654""
","
","","","","","","458.39999999990687","<p> Some of the equipment will make the kids VERY happy or sad. </p><p> These pieces of equipment will make you win or lose LOTS of points. </p><p> Other pieces of equipment will only make the kids a little happy or sad. </p><p> These pieces of equipment will make you win or lose small amounts of points. </p>","","0","instructions","","","","","","","","","","",""
"learning-instructions","18","113835","0.0-8.0-0.0-0.10","3864","2","17","Male","approach_avoid_spark_v1","""event"",""trial"",""time""
""fullscreenenter"",""1"",""3654""
","
","
","""event"",""trial"",""time""
""fullscreenenter"",""1"",""3654""
","
","","","","","","435.8000000002794","<p> If you choose not to give them the equipment, you will not win or lose any points. </p><p>  However, in the center of the screen, you will see the number of points you WOULD HAVE won or lost if you had given them the equipment. </p>","","0","instructions","","","","","","","","","","",""
"learning-instructions","19","136354","0.0-8.0-0.0-0.11","3864","2","17","Male","approach_avoid_spark_v1","""event"",""trial"",""time""
""fullscreenenter"",""1"",""3654""
","
","
","""event"",""trial"",""time""
""fullscreenenter"",""1"",""3654""
","
","","","","","","981.2999999998137","<p> Here is what you might see if you did not give the equipment to the kids but it would have made them happy: </p><p style=""color:grey; font-size:50px; display: inline-block; border-spacing: 15px; border-width:3px; border-style:solid; border-color:red"">  &nbsp; 7 &nbsp; </p><p> Remember, in this case, you would not win or lose ANY points because you did not give them the equipment.  </p><p style=""color:grey"">The text is GREY because you earned ZERO points. </p><p style=""color:red"">However, choosing to give the kids the equipment would have made you win points. The box around the text is RED because you chose the worse option. </p>","","0","instructions","","","","","","","","","","",""
"learning-instructions","20","158062","0.0-8.0-0.0-0.12","3864","2","17","Male","approach_avoid_spark_v1","""event"",""trial"",""time""
""fullscreenenter"",""1"",""3654""
","
","
","""event"",""trial"",""time""
""fullscreenenter"",""1"",""3654""
","
","","","","","","630.8999999999069","<p> Here is what you might see if you did not give the equipment to the kids but it would have made them sad: </p><p style=""color:grey;font-size:50px; display: inline-block; border-spacing: 15px; border-width:3px; border-style:solid; border-color:green"">  &nbsp; -8 &nbsp; </p><p> Remember, in this case, you would not win or lose ANY points because you did not give them the equipment.  </p><p style=""color:grey"">The text is GREY because you earned ZERO points. </p><p  style=""color:green""> Choosing to give the kids the equipment would have made you lose points. The box around the text is GREEN because you chose the better option.</p>","","0","instructions","","","","","","","","","","",""
"learning-instructions","21","167543","0.0-8.0-0.0-0.13","3864","2","17","Male","approach_avoid_spark_v1","""event"",""trial"",""time""
""fullscreenenter"",""1"",""3654""
","
","
","""event"",""trial"",""time""
""fullscreenenter"",""1"",""3654""
","
","","","","","","587","<p> You will have 3 seconds to make each choice. Try to respond before time runs out! </p><p> You will lose 5 points each time you do not make a response. </p>","","0","instructions","","","","","","","","","","",""
"learning-instructions","22","173428","0.0-8.0-0.0-0.14","3864","2","17","Male","approach_avoid_spark_v1","""event"",""trial"",""time""
""fullscreenenter"",""1"",""3654""
","
","
","""event"",""trial"",""time""
""fullscreenenter"",""1"",""3654""
","
","","","","","","466.70000000018626","<p> This is just a practice round, but in the real game, your bonus payment will depend on your total number of points.","","0","instructions","","","","","","","","","","",""
"learning-instructions","23","179604","0.0-8.0-0.0-0.15","3864","2","17","Male","approach_avoid_spark_v1","""event"",""trial"",""time""
""fullscreenenter"",""1"",""3654""
","
","
","""event"",""trial"",""time""
""fullscreenenter"",""1"",""3654""
","
","","","","","","401.10000000009313","<p> Remember, you can give them the equipment by pressing 1 and choose not to give it to them by pressing 0. </p><br><div class=""choice-instructions-grid""> <div class=""choice-option""><img src=""images/approach.png"" class=""choice-option-img"" stage=""instructions"" position=""0"" ><div class=""choice-option-text""> Press ""1."" </div></div><div class=""choice-option""><img src=""images/avoid.png"" class=""choice-option-img"" stage=""instructions"" position=""1"" ><div class=""choice-option-text""> Press ""0."" </div></div>","","0","instructions","","","","","","","","","","",""
"html-button-response","24","180792","0.0-8.0-1.0","3864","2","17","Male","approach_avoid_spark_v1","""event"",""trial"",""time""
""fullscreenenter"",""1"",""3654""
","
","
","""event"",""trial"",""time""
""fullscreenenter"",""1"",""3654""
","
","","","","","","1078.6999999997206","<p> Ready to practice? </p>","0","","","","","","","","","","","","",""
"html-keyboard-response","25","181397","0.0-8.0-2.0-0.0","3864","2","17","Male","approach_avoid_spark_v1","""event"",""trial"",""time""
""fullscreenenter"",""1"",""3654""
","
","
","""event"",""trial"",""time""
""fullscreenenter"",""1"",""3654""
","
","","","","","","null","<div style=""font-size:60px;"">+</div>","null","","fixation","","","","","","","","","","",""
"aa-learning-trial","26","184414","0.0-8.0-2.0-1.0","3864","2","17","Male","approach_avoid_spark_v1","""event"",""trial"",""time""
""fullscreenenter"",""1"",""3654""
","
","
","""event"",""trial"",""time""
""fullscreenenter"",""1"",""3654""
","
","","","","","","1775.2999999998137","images/racket1.png","","","learning","4","4","1","1","practice","practice","practice","-1","","",""
"html-keyboard-response","27","184926","0.0-8.0-2.0-0.1","3864","2","17","Male","approach_avoid_spark_v1","""event"",""trial"",""time""
""fullscreenenter"",""1"",""3654""
","
","
","""event"",""trial"",""time""
""fullscreenenter"",""1"",""3654""
","
","","","","","","null","<div style=""font-size:60px;"">+</div>","null","","fixation","","","","","","","","","","",""
"aa-learning-trial","28","187935","0.0-8.0-2.0-1.1","3864","2","17","Male","approach_avoid_spark_v1","""event"",""trial"",""time""
""fullscreenenter"",""1"",""3654""
","
","
","""event"",""trial"",""time""
""fullscreenenter"",""1"",""3654""
","
","","","","","","983.3999999999069","images/racket3.png","","","learning","5","5","1","1","practice","practice","practice","-1","","",""
"html-keyboard-response","29","188446","0.0-8.0-2.0-0.2","3864","2","17","Male","approach_avoid_spark_v1","""event"",""trial"",""time""
""fullscreenenter"",""1"",""3654""
","
","
","""event"",""trial"",""time""
""fullscreenenter"",""1"",""3654""
","
","","","","","","null","<div style=""font-size:60px;"">+</div>","null","","fixation","","","","","","","","","","",""
"aa-learning-trial","30","191463","0.0-8.0-2.0-1.2","3864","2","17","Male","approach_avoid_spark_v1","""event"",""trial"",""time""
""fullscreenenter"",""1"",""3654""
","
","
","""event"",""trial"",""time""
""fullscreenenter"",""1"",""3654""
","
","","","","","","749.6000000000931","images/racket2.png","","","learning","-1","-1","1","1","practice","practice","practice","-1","","",""
"html-keyboard-response","31","191974","0.0-8.0-2.0-0.3","3864","2","17","Male","approach_avoid_spark_v1","""event"",""trial"",""time""
""fullscreenenter"",""1"",""3654""
","
","
","""event"",""trial"",""time""
""fullscreenenter"",""1"",""3654""
","
","","","","","","null","<div style=""font-size:60px;"">+</div>","null","","fixation","","","","","","","","","","",""
"aa-learning-trial","32","194998","0.0-8.0-2.0-1.3","3864","2","17","Male","approach_avoid_spark_v1","""event"",""trial"",""time""
""fullscreenenter"",""1"",""3654""
","
","
","""event"",""trial"",""time""
""fullscreenenter"",""1"",""3654""
","
","","","","","","788.1000000000931","images/racket1.png","","","learning","7","7","1","1","practice","practice","practice","-1","","",""
"html-keyboard-response","33","195502","0.0-8.0-2.0-0.4","3864","2","17","Male","approach_avoid_spark_v1","""event"",""trial"",""time""
""fullscreenenter"",""1"",""3654""
","
","
","""event"",""trial"",""time""
""fullscreenenter"",""1"",""3654""
","
","","","","","","null","<div style=""font-size:60px;"">+</div>","null","","fixation","","","","","","","","","","",""
"aa-learning-trial","34","198518","0.0-8.0-2.0-1.4","3864","2","17","Male","approach_avoid_spark_v1","""event"",""trial"",""time""
""fullscreenenter"",""1"",""3654""
","
","
","""event"",""trial"",""time""
""fullscreenenter"",""1"",""3654""
","
","","","","","","519.7999999998137","images/racket1.png","","","learning","4","4","1","1","practice","practice","practice","-1","","",""
"html-keyboard-response","35","199021","0.0-8.0-2.0-0.5","3864","2","17","Male","approach_avoid_spark_v1","""event"",""trial"",""time""
""fullscreenenter"",""1"",""3654""
","
","
","""event"",""trial"",""time""
""fullscreenenter"",""1"",""3654""
","
","","","","","","null","<div style=""font-size:60px;"">+</div>","null","","fixation","","","","","","","","","","",""
"aa-learning-trial","36","202030","0.0-8.0-2.0-1.5","3864","2","17","Male","approach_avoid_spark_v1","""event"",""trial"",""time""
""fullscreenenter"",""1"",""3654""
","
","
","""event"",""trial"",""time""
""fullscreenenter"",""1"",""3654""
","
","","","","","","439.89999999990687","images/racket1.png","","","learning","2","2","1","1","practice","practice","practice","-1","","",""
"html-keyboard-response","37","202533","0.0-8.0-2.0-0.6","3864","2","17","Male","approach_avoid_spark_v1","""event"",""trial"",""time""
""fullscreenenter"",""1"",""3654""
","
","
","""event"",""trial"",""time""
""fullscreenenter"",""1"",""3654""
","
","","","","","","null","<div style=""font-size:60px;"">+</div>","null","","fixation","","","","","","","","","","",""
"aa-learning-trial","38","205542","0.0-8.0-2.0-1.6","3864","2","17","Male","approach_avoid_spark_v1","""event"",""trial"",""time""
""fullscreenenter"",""1"",""3654""
","
","
","""event"",""trial"",""time""
""fullscreenenter"",""1"",""3654""
","
","","","","","","1020.2999999998137","images/ball3.png","","","learning","4","4","1","1","practice","practice","practice","-1","","",""
"html-keyboard-response","39","206054","0.0-8.0-2.0-0.7","3864","2","17","Male","approach_avoid_spark_v1","""event"",""trial"",""time""
""fullscreenenter"",""1"",""3654""
","
","
","""event"",""trial"",""time""
""fullscreenenter"",""1"",""3654""
","
","","","","","","null","<div style=""font-size:60px;"">+</div>","null","","fixation","","","","","","","","","","",""
"aa-learning-trial","40","209070","0.0-8.0-2.0-1.7","3864","2","17","Male","approach_avoid_spark_v1","""event"",""trial"",""time""
""fullscreenenter"",""1"",""3654""
","
","
","""event"",""trial"",""time""
""fullscreenenter"",""1"",""3654""
","
","","","","","","819.3000000002794","images/ball1.png","","","learning","-9","-9","1","1","practice","practice","practice","-1","","",""
"html-keyboard-response","41","209573","0.0-8.0-2.0-0.8","3864","2","17","Male","approach_avoid_spark_v1","""event"",""trial"",""time""
""fullscreenenter"",""1"",""3654""
","
","
","""event"",""trial"",""time""
""fullscreenenter"",""1"",""3654""
","
","","","","","","null","<div style=""font-size:60px;"">+</div>","null","","fixation","","","","","","","","","","",""
"aa-learning-trial","42","212582","0.0-8.0-2.0-1.8","3864","2","17","Male","approach_avoid_spark_v1","""event"",""trial"",""time""
""fullscreenenter"",""1"",""3654""
","
","
","""event"",""trial"",""time""
""fullscreenenter"",""1"",""3654""
","
","","","","","","1372","images/ball4.png","","","learning","-9","-9","1","1","practice","practice","practice","-1","","",""
"html-keyboard-response","43","213085","0.0-8.0-2.0-0.9","3864","2","17","Male","approach_avoid_spark_v1","""event"",""trial"",""time""
""fullscreenenter"",""1"",""3654""
","
","
","""event"",""trial"",""time""
""fullscreenenter"",""1"",""3654""
","
","","","","","","null","<div style=""font-size:60px;"">+</div>","null","","fixation","","","","","","","","","","",""
"aa-learning-trial","44","216094","0.0-8.0-2.0-1.9","3864","2","17","Male","approach_avoid_spark_v1","""event"",""trial"",""time""
""fullscreenenter"",""1"",""3654""
","
","
","""event"",""trial"",""time""
""fullscreenenter"",""1"",""3654""
","
","","","","","","953.5999999996275","images/racket2.png","","","learning","-6","0","0","0","practice","practice","practice","-1","","",""
"html-keyboard-response","45","216605","0.0-8.0-2.0-0.10","3864","2","17","Male","approach_avoid_spark_v1","""event"",""trial"",""time""
""fullscreenenter"",""1"",""3654""
","
","
","""event"",""trial"",""time""
""fullscreenenter"",""1"",""3654""
","
","","","","","","null","<div style=""font-size:60px;"">+</div>","null","","fixation","","","","","","","","","","",""
"aa-learning-trial","46","219622","0.0-8.0-2.0-1.10","3864","2","17","Male","approach_avoid_spark_v1","""event"",""trial"",""time""
""fullscreenenter"",""1"",""3654""
","
","
","""event"",""trial"",""time""
""fullscreenenter"",""1"",""3654""
","
","","","","","","717","images/ball4.png","","","learning","-4","0","0","0","practice","practice","practice","-1","","",""
"html-keyboard-response","47","220125","0.0-8.0-2.0-0.11","3864","2","17","Male","approach_avoid_spark_v1","""event"",""trial"",""time""
""fullscreenenter"",""1"",""3654""
","
","
","""event"",""trial"",""time""
""fullscreenenter"",""1"",""3654""
","
","","","","","","null","<div style=""font-size:60px;"">+</div>","null","","fixation","","","","","","","","","","",""
"aa-learning-trial","48","223134","0.0-8.0-2.0-1.11","3864","2","17","Male","approach_avoid_spark_v1","""event"",""trial"",""time""
""fullscreenenter"",""1"",""3654""
","
","
","""event"",""trial"",""time""
""fullscreenenter"",""1"",""3654""
","
","","","","","","476.3000000002794","images/ball4.png","","","learning","-4","0","0","0","practice","practice","practice","-1","","",""
"html-button-response","49","229950","0.0-8.0-3.0","3864","2","17","Male","approach_avoid_spark_v1","""event"",""trial"",""time""
""fullscreenenter"",""1"",""3654""
","
","
","""event"",""trial"",""time""
""fullscreenenter"",""1"",""3654""
","
","","","","","","6809.699999999721","<p> You earned 7 points in the practice round! </p>","0","","break","","","","","","","","","","",""
"learning-instructions","50","236937","0.0-8.0-4.0-0.0","3864","2","17","Male","approach_avoid_spark_v1","""event"",""trial"",""time""
""fullscreenenter"",""1"",""3654""
","
","
","""event"",""trial"",""time""
""fullscreenenter"",""1"",""3654""
","
","","","","","","1004.6999999997206","<p> It's almost time to start the real game. </p><p> Before you start, we're going to ask you a few questions about how the game works. </p>","","0","instructions","","","","","","","","","","",""
"preload","51","238066","0.0-8.0-5.0","3864","2","17","Male","approach_avoid_spark_v1","""event"",""trial"",""time""
""fullscreenenter"",""1"",""3654""
","
","
","""event"",""trial"",""time""
""fullscreenenter"",""1"",""3654""
","
","true","false","[]","[]","[]","","","","","","","","","","","","","","","",""
"comp-q","52","244490","0.0-8.0-6.0-0.0","3864","2","17","Male","approach_avoid_spark_v1","""event"",""trial"",""time""
""fullscreenenter"",""1"",""3654""
","
","
","""event"",""trial"",""time""
""fullscreenenter"",""1"",""3654""
","
","","","","","","1420.7999999998137","<p> <b> True or False? </b> </p><p> If you see a number in GREY, that means you earned that many points. </p>","","1","comp_question","","","","","","","","","true","",""
"comp-q","53","253928","0.0-8.0-6.0-1.0","3864","2","17","Male","approach_avoid_spark_v1","""event"",""trial"",""time""
""fullscreenenter"",""1"",""3654""
","
","
","""event"",""trial"",""time""
""fullscreenenter"",""1"",""3654""
","
","","","","","","1067.1999999997206","<p><b> That's right! </b> If you see a grey number, it means you earned ZERO points. <br> The grey numbers show the points you WOULD HAVE earned if you had made the other choice. </p>","","0","comp_answer","","","","","","","","","","",""
"comp-q","54","259449","0.0-8.0-7.0-0.0","3864","2","17","Male","approach_avoid_spark_v1","""event"",""trial"",""time""
""fullscreenenter"",""1"",""3654""
","
","
","""event"",""trial"",""time""
""fullscreenenter"",""1"",""3654""
","
","","","","","","828.3000000002794","<p> <b> True or False? </b> </p><p> You will have as much time as you want to make each choice. </p>","","1","comp_question","","","","","","","","","true","",""
"comp-q","55","264482","0.0-8.0-7.0-1.0","3864","2","17","Male","approach_avoid_spark_v1","""event"",""trial"",""time""
""fullscreenenter"",""1"",""3654""
","
","
","""event"",""trial"",""time""
""fullscreenenter"",""1"",""3654""
","
","","","","","","987.2000000001863","<p> <b> That's right! </b> You will only have 3 seconds to make each choice. </p>","","0","comp_answer","","","","","","","","","","",""
"comp-q","56","269995","0.0-8.0-8.0-0.0","3864","2","17","Male","approach_avoid_spark_v1","""event"",""trial"",""time""
""fullscreenenter"",""1"",""3654""
","
","
","""event"",""trial"",""time""
""fullscreenenter"",""1"",""3654""
","
","","","","","","846.7999999998137","<p> <b> True or False? </b> </p><p> You should use the '1' and '0' keys to make your choices. </p>","","0","comp_question","","","","","","","","","true","",""
"comp-q","57","276771","0.0-8.0-8.0-1.0","3864","2","17","Male","approach_avoid_spark_v1","""event"",""trial"",""time""
""fullscreenenter"",""1"",""3654""
","
","
","""event"",""trial"",""time""
""fullscreenenter"",""1"",""3654""
","
","","","","","","2151.100000000093","<p> <b> That's right! </b> You should use the '1' and '0' keys to make each choice. </p>","","0","comp_answer","","","","","","","","","","",""
"learning-instructions","58","284265","0.0-8.0-9.0-0.0","3864","2","17","Male","approach_avoid_spark_v1","""event"",""trial"",""time""
""fullscreenenter"",""1"",""3654""
","
","
","""event"",""trial"",""time""
""fullscreenenter"",""1"",""3654""
","
","","","","","","1218.0999999996275","<p> It's now time to start the real game. </p>Do your best, because the points you earn in the next rounds will influence your bonus payment. </p>","","0","instructions","","","","","","","","","","",""
"preload","59","284465","0.0-9.0-0.0","3864","2","17","Male","approach_avoid_spark_v1","""event"",""trial"",""time""
""fullscreenenter"",""1"",""3654""
","
","
","""event"",""trial"",""time""
""fullscreenenter"",""1"",""3654""
","
","true","false","[]","[]","[]","","","","","","","","","","","","","","","",""
"learning-instructions","60","290963","0.0-9.0-1.0-0.0","3864","2","17","Male","approach_avoid_spark_v1","""event"",""trial"",""time""
""fullscreenenter"",""1"",""3654""
","
","
","""event"",""trial"",""time""
""fullscreenenter"",""1"",""3654""
","
","","","","","","1518.2999999998137","<p> Your goal in this round is to take your friend for rides in different vehicles. </p></div>","","0","instructions","","","","","","","","","","",""
"learning-instructions","61","302089","0.0-9.0-1.0-0.1","3864","2","17","Male","approach_avoid_spark_v1","""event"",""trial"",""time""
""fullscreenenter"",""1"",""3654""
","
","
","""event"",""trial"",""time""
""fullscreenenter"",""1"",""3654""
","
","","","","","","760.3999999999069","<p> Your friend enjoys riding in some vehicles but not in others.  </p><p> On each turn, you will see a vehicle.   </p><p> You need to decide whether to take your friend for a ride or not.  </p>","","0","instructions","","","","","","","","","","",""
"learning-instructions","62","309242","0.0-9.0-1.0-0.2","3864","2","17","Male","approach_avoid_spark_v1","""event"",""trial"",""time""
""fullscreenenter"",""1"",""3654""
","
","
","""event"",""trial"",""time""
""fullscreenenter"",""1"",""3654""
","
","","","","","","679.1999999997206","<p> You can take your friend for a ride in the vehicle by pressing 1 and skip the ride by pressing 0. </p><br><div class=""choice-instructions-grid""> <div class=""choice-option""><img src=""images/approach.png"" class=""choice-option-img"" stage=""instructions"" position=""0"" ><div class=""choice-option-text""> Press ""1."" </div></div><div class=""choice-option""><img src=""images/avoid.png"" class=""choice-option-img"" stage=""instructions"" position=""1"" ><div class=""choice-option-text""> Press ""0."" </div></div>","","0","instructions","","","","","","","","","","",""
"learning-instructions","63","318809","0.0-9.0-1.0-0.3","3864","2","17","Male","approach_avoid_spark_v1","""event"",""trial"",""time""
""fullscreenenter"",""1"",""3654""
","
","
","""event"",""trial"",""time""
""fullscreenenter"",""1"",""3654""
","
","","","","","","850.2999999998137","<p> If you take them for a ride in a vehicle they like, they will be thrilled! </p><p> But if you take them for a ride in a vehicle they do not like, they will be upset. </p>","","0","instructions","","","","","","","","","","",""
"learning-instructions","64","331515","0.0-9.0-1.0-0.4","3864","2","17","Male","approach_avoid_spark_v1","""event"",""trial"",""time""
""fullscreenenter"",""1"",""3654""
","
","
","""event"",""trial"",""time""
""fullscreenenter"",""1"",""3654""
","
","","","","","","809.7999999998137","<p> You will earn points based on how you made your friend feel. </p><p> If you made him thrilled, you will WIN anywhere from 1 - 9 points, </p><p> but if you made him upset, you will LOSE anywhere from 1 - 9 points. </p>","","0","instructions","","","","","","","","","","",""
"learning-instructions","65","339381","0.0-9.0-1.0-0.5","3864","2","17","Male","approach_avoid_spark_v1","""event"",""trial"",""time""
""fullscreenenter"",""1"",""3654""
","
","
","""event"",""trial"",""time""
""fullscreenenter"",""1"",""3654""
","
","","","","","","355.6999999997206","<p> You will see how many points you won or lost in the center of the screen. </p><p> Here is what you would see if you won 5 points: </p><p style=""color:green;font-size:50px;font-weight:bolder"">5</p>","","0","instructions","","","","","","","","","","",""
"learning-instructions","66","343286","0.0-9.0-1.0-0.6","3864","2","17","Male","approach_avoid_spark_v1","""event"",""trial"",""time""
""fullscreenenter"",""1"",""3654""
","
","
","""event"",""trial"",""time""
""fullscreenenter"",""1"",""3654""
","
","","","","","","591.5","<p> And here is what you would see if you lost 3 points: </p><p style=""color:red;font-size:50px;font-weight:bolder"">-3</p>","","0","instructions","","","","","","","","","","",""
"learning-instructions","67","358826","0.0-9.0-1.0-0.7","3864","2","17","Male","approach_avoid_spark_v1","""event"",""trial"",""time""
""fullscreenenter"",""1"",""3654""
","
","
","""event"",""trial"",""time""
""fullscreenenter"",""1"",""3654""
","
","","","","","","312.79999999981374","<p> Some vehicles will make your friend REALLY thrilled or upset. </p><p> These vehicles will make you win or lose LOTS of points. </p><p> Other vehicles will only make him feel a little thrilled or upset. </p><p> These vehicles will make you win or lose small amounts of points. </p>","","0","instructions","","","","","","","","","","",""
"learning-instructions","68","371407","0.0-9.0-1.0-0.8","3864","2","17","Male","approach_avoid_spark_v1","""event"",""trial"",""time""
""fullscreenenter"",""1"",""3654""
","
","
","""event"",""trial"",""time""
""fullscreenenter"",""1"",""3654""
","
","","","","","","871.3999999999069","<p> If you choose to skip the ride, you will not win or lose any points. </p><p>  However, in the center of the screen, you will see the number of points you WOULD HAVE won or lost if you had taken your friend for a ride. </p>","","0","instructions","","","","","","","","","","",""
"learning-instructions","69","382571","0.0-9.0-1.0-0.9","3864","2","17","Male","approach_avoid_spark_v1","""event"",""trial"",""time""
""fullscreenenter"",""1"",""3654""
","
","
","""event"",""trial"",""time""
""fullscreenenter"",""1"",""3654""
","
","","","","","","441","<p> Here is what you might see if you did not take your friend for a ride but he would have enjoyed it: </p><p style=""color:grey; font-size:50px; display: inline-block; border-spacing: 15px; border-width:3px; border-style:solid; border-color:red"">  &nbsp; 6 &nbsp; </p><p> Remember, in this case, you would not win or lose ANY points because you skipped the ride.  </p>","","0","instructions","","","","","","","","","","",""
"learning-instructions","70","390691","0.0-9.0-1.0-0.10","3864","2","17","Male","approach_avoid_spark_v1","""event"",""trial"",""time""
""fullscreenenter"",""1"",""3654""
","
","
","""event"",""trial"",""time""
""fullscreenenter"",""1"",""3654""
","
","","","","","","423.29999999981374","<p> Try to make the best choice for each vehicle because </p><p> at the end of the game, you will earn bonus money based on how many points you earned. </p>","","0","instructions","","","","","","","","","","",""
"learning-instructions","71","399307","0.0-9.0-1.0-0.11","3864","2","17","Male","approach_avoid_spark_v1","""event"",""trial"",""time""
""fullscreenenter"",""1"",""3654""
","
","
","""event"",""trial"",""time""
""fullscreenenter"",""1"",""3654""
","
","","","","","","420","<p> You will have 3 seconds to make each choice. Try to respond before time runs out! </p><p> You will lose 5 points each time you do not make a response. </p>","","0","instructions","","","","","","","","","","",""
"html-keyboard-response","72","399918","0.0-9.0-2.0-0.0","3864","2","17","Male","approach_avoid_spark_v1","""event"",""trial"",""time""
""fullscreenenter"",""1"",""3654""
","
","
","""event"",""trial"",""time""
""fullscreenenter"",""1"",""3654""
","
","","","","","","null","<div style=""font-size:60px;"">+</div>","null","","fixation","","","","","","","","","","",""
"aa-learning-trial","73","402928","0.0-9.0-2.0-1.0","3864","2","17","Male","approach_avoid_spark_v1","""event"",""trial"",""time""
""fullscreenenter"",""1"",""3654""
","
","
","""event"",""trial"",""time""
""fullscreenenter"",""1"",""3654""
","
","","","","","","1272.6000000000931","images/truck7.png","","","learning","4","0","0","0","truck","vehicles","2","0","","bad","[-6]"
"html-keyboard-response","74","403438","0.0-9.0-2.0-0.1","3864","2","17","Male","approach_avoid_spark_v1","""event"",""trial"",""time""
""fullscreenenter"",""1"",""3654""
","
","
","""event"",""trial"",""time""
""fullscreenenter"",""1"",""3654""
","
","","","","","","null","<div style=""font-size:60px;"">+</div>","null","","fixation","","","","","","","","","","",""
"aa-learning-trial","75","406454","0.0-9.0-2.0-1.1","3864","2","17","Male","approach_avoid_spark_v1","""event"",""trial"",""time""
""fullscreenenter"",""1"",""3654""
","
","
","""event"",""trial"",""time""
""fullscreenenter"",""1"",""3654""
","
","","","","","","966.5","images/boat7.png","","","learning","1","1","1","1","boat","vehicles","2","0","","good","[3]"
"html-keyboard-response","76","406958","0.0-9.0-2.0-0.2","3864","2","17","Male","approach_avoid_spark_v1","""event"",""trial"",""time""
""fullscreenenter"",""1"",""3654""
","
","
","""event"",""trial"",""time""
""fullscreenenter"",""1"",""3654""
","
","","","","","","null","<div style=""font-size:60px;"">+</div>","null","","fixation","","","","","","","","","","",""
"aa-learning-trial","77","409974","0.0-9.0-2.0-1.2","3864","2","17","Male","approach_avoid_spark_v1","""event"",""trial"",""time""
""fullscreenenter"",""1"",""3654""
","
","
","""event"",""trial"",""time""
""fullscreenenter"",""1"",""3654""
","
","","","","","","837.3000000002794","images/truck6.png","","","learning","8","8","1","1","truck","vehicles","2","0","","bad","[-6]"
"html-keyboard-response","78","410478","0.0-9.0-2.0-0.3","3864","2","17","Male","approach_avoid_spark_v1","""event"",""trial"",""time""
""fullscreenenter"",""1"",""3654""
","
","
","""event"",""trial"",""time""
""fullscreenenter"",""1"",""3654""
","
","","","","","","null","<div style=""font-size:60px;"">+</div>","null","","fixation","","","","","","","","","","",""
"aa-learning-trial","79","413494","0.0-9.0-2.0-1.3","3864","2","17","Male","approach_avoid_spark_v1","""event"",""trial"",""time""
""fullscreenenter"",""1"",""3654""
","
","
","""event"",""trial"",""time""
""fullscreenenter"",""1"",""3654""
","
","","","","","","876.1999999997206","images/train3.png","","","learning","-8","-8","1","1","train","vehicles","2","0","","neutral","0"
"html-keyboard-response","80","413998","0.0-9.0-2.0-0.4","3864","2","17","Male","approach_avoid_spark_v1","""event"",""trial"",""time""
""fullscreenenter"",""1"",""3654""
","
","
","""event"",""trial"",""time""
""fullscreenenter"",""1"",""3654""
","
","","","","","","null","<div style=""font-size:60px;"">+</div>","null","","fixation","","","","","","","","","","",""
"aa-learning-trial","81","417015","0.0-9.0-2.0-1.4","3864","2","17","Male","approach_avoid_spark_v1","""event"",""trial"",""time""
""fullscreenenter"",""1"",""3654""
","
","
","""event"",""trial"",""time""
""fullscreenenter"",""1"",""3654""
","
","","","","","","798.8000000002794","images/train3.png","","","learning","-8","0","0","0","train","vehicles","2","0","","neutral","0"
"html-keyboard-response","82","417526","0.0-9.0-2.0-0.5","3864","2","17","Male","approach_avoid_spark_v1","""event"",""trial"",""time""
""fullscreenenter"",""1"",""3654""
","
","
","""event"",""trial"",""time""
""fullscreenenter"",""1"",""3654""
","
","","","","","","null","<div style=""font-size:60px;"">+</div>","null","","fixation","","","","","","","","","","",""
"aa-learning-trial","83","420534","0.0-9.0-2.0-1.5","3864","2","17","Male","approach_avoid_spark_v1","""event"",""trial"",""time""
""fullscreenenter"",""1"",""3654""
","
","
","""event"",""trial"",""time""
""fullscreenenter"",""1"",""3654""
","
","","","","","","899.3000000002794","images/boat6.png","","","learning","-4","-4","1","1","boat","vehicles","2","0","","good","[3]"
"html-keyboard-response","84","421037","0.0-9.0-2.0-0.6","3864","2","17","Male","approach_avoid_spark_v1","""event"",""trial"",""time""
""fullscreenenter"",""1"",""3654""
","
","
","""event"",""trial"",""time""
""fullscreenenter"",""1"",""3654""
","
","","","","","","null","<div style=""font-size:60px;"">+</div>","null","","fixation","","","","","","","","","","",""
"aa-learning-trial","85","424047","0.0-9.0-2.0-1.6","3864","2","17","Male","approach_avoid_spark_v1","""event"",""trial"",""time""
""fullscreenenter"",""1"",""3654""
","
","
","""event"",""trial"",""time""
""fullscreenenter"",""1"",""3654""
","
","","","","","","967.6000000000931","images/train4.png","","","learning","-2","-2","1","1","train","vehicles","2","0","","neutral","0"
"html-keyboard-response","86","424557","0.0-9.0-2.0-0.7","3864","2","17","Male","approach_avoid_spark_v1","""event"",""trial"",""time""
""fullscreenenter"",""1"",""3654""
","
","
","""event"",""trial"",""time""
""fullscreenenter"",""1"",""3654""
","
","","","","","","null","<div style=""font-size:60px;"">+</div>","null","","fixation","","","","","","","","","","",""
"aa-learning-trial","87","427574","0.0-9.0-2.0-1.7","3864","2","17","Male","approach_avoid_spark_v1","""event"",""trial"",""time""
""fullscreenenter"",""1"",""3654""
","
","
","""event"",""trial"",""time""
""fullscreenenter"",""1"",""3654""
","
","","","","","","1079","images/boat7.png","","","learning","1","1","1","1","boat","vehicles","2","0","","good","[3]"
"html-keyboard-response","88","428078","0.0-9.0-2.0-0.8","3864","2","17","Male","approach_avoid_spark_v1","""event"",""trial"",""time""
""fullscreenenter"",""1"",""3654""
","
","
","""event"",""trial"",""time""
""fullscreenenter"",""1"",""3654""
","
","","","","","","null","<div style=""font-size:60px;"">+</div>","null","","fixation","","","","","","","","","","",""
"aa-learning-trial","89","431094","0.0-9.0-2.0-1.8","3864","2","17","Male","approach_avoid_spark_v1","""event"",""trial"",""time""
""fullscreenenter"",""1"",""3654""
","
","
","""event"",""trial"",""time""
""fullscreenenter"",""1"",""3654""
","
","","","","","","1114.0999999996275","images/train2.png","","","learning","3","0","0","0","train","vehicles","2","0","","neutral","0"
"html-keyboard-response","90","431598","0.0-9.0-2.0-0.9","3864","2","17","Male","approach_avoid_spark_v1","""event"",""trial"",""time""
""fullscreenenter"",""1"",""3654""
","
","
","""event"",""trial"",""time""
""fullscreenenter"",""1"",""3654""
","
","","","","","","null","<div style=""font-size:60px;"">+</div>","null","","fixation","","","","","","","","","","",""
"aa-learning-trial","91","434606","0.0-9.0-2.0-1.9","3864","2","17","Male","approach_avoid_spark_v1","""event"",""trial"",""time""
""fullscreenenter"",""1"",""3654""
","
","
","""event"",""trial"",""time""
""fullscreenenter"",""1"",""3654""
","
","","","","","","947.6000000000931","images/boat1.png","","","learning","-7","-7","1","1","boat","vehicles","2","0","","good","[3]"
"html-keyboard-response","92","435110","0.0-9.0-2.0-0.10","3864","2","17","Male","approach_avoid_spark_v1","""event"",""trial"",""time""
""fullscreenenter"",""1"",""3654""
","
","
","""event"",""trial"",""time""
""fullscreenenter"",""1"",""3654""
","
","","","","","","null","<div style=""font-size:60px;"">+</div>","null","","fixation","","","","","","","","","","",""
"aa-learning-trial","93","438127","0.0-9.0-2.0-1.10","3864","2","17","Male","approach_avoid_spark_v1","""event"",""trial"",""time""
""fullscreenenter"",""1"",""3654""
","
","
","""event"",""trial"",""time""
""fullscreenenter"",""1"",""3654""
","
","","","","","","730.8999999999069","images/boat1.png","","","learning","-7","0","0","0","boat","vehicles","2","0","","good","[3]"
"html-keyboard-response","94","438638","0.0-9.0-2.0-0.11","3864","2","17","Male","approach_avoid_spark_v1","""event"",""trial"",""time""
""fullscreenenter"",""1"",""3654""
","
","
","""event"",""trial"",""time""
""fullscreenenter"",""1"",""3654""
","
","","","","","","null","<div style=""font-size:60px;"">+</div>","null","","fixation","","","","","","","","","","",""
"aa-learning-trial","95","441655","0.0-9.0-2.0-1.11","3864","2","17","Male","approach_avoid_spark_v1","""event"",""trial"",""time""
""fullscreenenter"",""1"",""3654""
","
","
","""event"",""trial"",""time""
""fullscreenenter"",""1"",""3654""
","
","","","","","","1090.3999999999069","images/truck4.png","","","learning","-9","0","0","0","truck","vehicles","2","0","","bad","[-6]"
"html-keyboard-response","96","442158","0.0-9.0-2.0-0.12","3864","2","17","Male","approach_avoid_spark_v1","""event"",""trial"",""time""
""fullscreenenter"",""1"",""3654""
","
","
","""event"",""trial"",""time""
""fullscreenenter"",""1"",""3654""
","
","","","","","","null","<div style=""font-size:60px;"">+</div>","null","","fixation","","","","","","","","","","",""
"aa-learning-trial","97","445174","0.0-9.0-2.0-1.12","3864","2","17","Male","approach_avoid_spark_v1","""event"",""trial"",""time""
""fullscreenenter"",""1"",""3654""
","
","
","""event"",""trial"",""time""
""fullscreenenter"",""1"",""3654""
","
","","","","","","1376.3999999999069","images/train4.png","","","learning","-2","-2","1","1","train","vehicles","2","0","","neutral","0"
"html-keyboard-response","98","445678","0.0-9.0-2.0-0.13","3864","2","17","Male","approach_avoid_spark_v1","""event"",""trial"",""time""
""fullscreenenter"",""1"",""3654""
","
","
","""event"",""trial"",""time""
""fullscreenenter"",""1"",""3654""
","
","","","","","","null","<div style=""font-size:60px;"">+</div>","null","","fixation","","","","","","","","","","",""
"aa-learning-trial","99","448686","0.0-9.0-2.0-1.13","3864","2","17","Male","approach_avoid_spark_v1","""event"",""trial"",""time""
""fullscreenenter"",""1"",""3654""
","
","
","""event"",""trial"",""time""
""fullscreenenter"",""1"",""3654""
","
","","","","","","844.7999999998137","images/truck7.png","","","learning","4","4","1","1","truck","vehicles","2","0","","bad","[-6]"
"html-keyboard-response","100","449198","0.0-9.0-2.0-0.14","3864","2","17","Male","approach_avoid_spark_v1","""event"",""trial"",""time""
""fullscreenenter"",""1"",""3654""
","
","
","""event"",""trial"",""time""
""fullscreenenter"",""1"",""3654""
","
","","","","","","null","<div style=""font-size:60px;"">+</div>","null","","fixation","","","","","","","","","","",""
"aa-learning-trial","101","452214","0.0-9.0-2.0-1.14","3864","2","17","Male","approach_avoid_spark_v1","""event"",""trial"",""time""
""fullscreenenter"",""1"",""3654""
","
","
","""event"",""trial"",""time""
""fullscreenenter"",""1"",""3654""
","
","","","","","","952.6999999997206","images/truck6.png","","","learning","8","8","1","1","truck","vehicles","2","0","","bad","[-6]"
"html-keyboard-response","102","452726","0.0-9.0-2.0-0.15","3864","2","17","Male","approach_avoid_spark_v1","""event"",""trial"",""time""
""fullscreenenter"",""1"",""3654""
","
","
","""event"",""trial"",""time""
""fullscreenenter"",""1"",""3654""
","
","","","","","","null","<div style=""font-size:60px;"">+</div>","null","","fixation","","","","","","","","","","",""
"aa-learning-trial","103","455743","0.0-9.0-2.0-1.15","3864","2","17","Male","approach_avoid_spark_v1","""event"",""trial"",""time""
""fullscreenenter"",""1"",""3654""
","
","
","""event"",""trial"",""time""
""fullscreenenter"",""1"",""3654""
","
","","","","","","1030.8000000002794","images/train5.png","","","learning","7","0","0","0","train","vehicles","2","0","","neutral","0"
"html-keyboard-response","104","456253","0.0-9.0-2.0-0.16","3864","2","17","Male","approach_avoid_spark_v1","""event"",""trial"",""time""
""fullscreenenter"",""1"",""3654""
","
","
","""event"",""trial"",""time""
""fullscreenenter"",""1"",""3654""
","
","","","","","","null","<div style=""font-size:60px;"">+</div>","null","","fixation","","","","","","","","","","",""
"aa-learning-trial","105","459272","0.0-9.0-2.0-1.16","3864","2","17","Male","approach_avoid_spark_v1","""event"",""trial"",""time""
""fullscreenenter"",""1"",""3654""
","
","
","""event"",""trial"",""time""
""fullscreenenter"",""1"",""3654""
","
","","","","","","1200","images/boat1.png","","","learning","-7","0","0","0","boat","vehicles","2","0","","good","[3]"
"html-keyboard-response","106","459782","0.0-9.0-2.0-0.17","3864","2","17","Male","approach_avoid_spark_v1","""event"",""trial"",""time""
""fullscreenenter"",""1"",""3654""
","
","
","""event"",""trial"",""time""
""fullscreenenter"",""1"",""3654""
","
","","","","","","null","<div style=""font-size:60px;"">+</div>","null","","fixation","","","","","","","","","","",""
"aa-learning-trial","107","462799","0.0-9.0-2.0-1.17","3864","2","17","Male","approach_avoid_spark_v1","""event"",""trial"",""time""
""fullscreenenter"",""1"",""3654""
","
","
","""event"",""trial"",""time""
""fullscreenenter"",""1"",""3654""
","
","","","","","","1168.6000000000931","images/train2.png","","","learning","3","0","0","0","train","vehicles","2","0","","neutral","0"
"html-keyboard-response","108","463302","0.0-9.0-2.0-0.18","3864","2","17","Male","approach_avoid_spark_v1","""event"",""trial"",""time""
""fullscreenenter"",""1"",""3654""
","
","
","""event"",""trial"",""time""
""fullscreenenter"",""1"",""3654""
","
","","","","","","null","<div style=""font-size:60px;"">+</div>","null","","fixation","","","","","","","","","","",""
"aa-learning-trial","109","466319","0.0-9.0-2.0-1.18","3864","2","17","Male","approach_avoid_spark_v1","""event"",""trial"",""time""
""fullscreenenter"",""1"",""3654""
","
","
","""event"",""trial"",""time""
""fullscreenenter"",""1"",""3654""
","
","","","","","","1085.7999999998137","images/train3.png","","","learning","-8","0","0","0","train","vehicles","2","0","","neutral","0"
"html-keyboard-response","110","466830","0.0-9.0-2.0-0.19","3864","2","17","Male","approach_avoid_spark_v1","""event"",""trial"",""time""
""fullscreenenter"",""1"",""3654""
","
","
","""event"",""trial"",""time""
""fullscreenenter"",""1"",""3654""
","
","","","","","","null","<div style=""font-size:60px;"">+</div>","null","","fixation","","","","","","","","","","",""
"aa-learning-trial","111","469846","0.0-9.0-2.0-1.19","3864","2","17","Male","approach_avoid_spark_v1","""event"",""trial"",""time""
""fullscreenenter"",""1"",""3654""
","
","
","""event"",""trial"",""time""
""fullscreenenter"",""1"",""3654""
","
","","","","","","1187","images/boat2.png","","","learning","6","0","0","0","boat","vehicles","2","0","","good","[3]"
"html-keyboard-response","112","470350","0.0-9.0-2.0-0.20","3864","2","17","Male","approach_avoid_spark_v1","""event"",""trial"",""time""
""fullscreenenter"",""1"",""3654""
","
","
","""event"",""trial"",""time""
""fullscreenenter"",""1"",""3654""
","
","","","","","","null","<div style=""font-size:60px;"">+</div>","null","","fixation","","","","","","","","","","",""
"aa-learning-trial","113","473366","0.0-9.0-2.0-1.20","3864","2","17","Male","approach_avoid_spark_v1","""event"",""trial"",""time""
""fullscreenenter"",""1"",""3654""
","
","
","""event"",""trial"",""time""
""fullscreenenter"",""1"",""3654""
","
","","","","","","1001.2999999998137","images/boat6.png","","","learning","-4","-4","1","1","boat","vehicles","2","0","","good","[3]"
"html-keyboard-response","114","473878","0.0-9.0-2.0-0.21","3864","2","17","Male","approach_avoid_spark_v1","""event"",""trial"",""time""
""fullscreenenter"",""1"",""3654""
","
","
","""event"",""trial"",""time""
""fullscreenenter"",""1"",""3654""
","
","","","","","","null","<div style=""font-size:60px;"">+</div>","null","","fixation","","","","","","","","","","",""
"aa-learning-trial","115","476886","0.0-9.0-2.0-1.21","3864","2","17","Male","approach_avoid_spark_v1","""event"",""trial"",""time""
""fullscreenenter"",""1"",""3654""
","
","
","""event"",""trial"",""time""
""fullscreenenter"",""1"",""3654""
","
","","","","","","647","images/truck6.png","","","learning","8","8","1","1","truck","vehicles","2","0","","bad","[-6]"
"html-keyboard-response","116","477398","0.0-9.0-2.0-0.22","3864","2","17","Male","approach_avoid_spark_v1","""event"",""trial"",""time""
""fullscreenenter"",""1"",""3654""
","
","
","""event"",""trial"",""time""
""fullscreenenter"",""1"",""3654""
","
","","","","","","null","<div style=""font-size:60px;"">+</div>","null","","fixation","","","","","","","","","","",""
"aa-learning-trial","117","480414","0.0-9.0-2.0-1.22","3864","2","17","Male","approach_avoid_spark_v1","""event"",""trial"",""time""
""fullscreenenter"",""1"",""3654""
","
","
","""event"",""trial"",""time""
""fullscreenenter"",""1"",""3654""
","
","","","","","","869.7999999998137","images/train4.png","","","learning","-2","-2","1","1","train","vehicles","2","0","","neutral","0"
"html-keyboard-response","118","480926","0.0-9.0-2.0-0.23","3864","2","17","Male","approach_avoid_spark_v1","""event"",""trial"",""time""
""fullscreenenter"",""1"",""3654""
","
","
","""event"",""trial"",""time""
""fullscreenenter"",""1"",""3654""
","
","","","","","","null","<div style=""font-size:60px;"">+</div>","null","","fixation","","","","","","","","","","",""
"aa-learning-trial","119","483942","0.0-9.0-2.0-1.23","3864","2","17","Male","approach_avoid_spark_v1","""event"",""trial"",""time""
""fullscreenenter"",""1"",""3654""
","
","
","""event"",""trial"",""time""
""fullscreenenter"",""1"",""3654""
","
","","","","","","1731.3999999999069","images/train3.png","","","learning","-8","-8","1","1","train","vehicles","2","0","","neutral","0"
"html-keyboard-response","120","484454","0.0-9.0-2.0-0.24","3864","2","17","Male","approach_avoid_spark_v1","""event"",""trial"",""time""
""fullscreenenter"",""1"",""3654""
","
","
","""event"",""trial"",""time""
""fullscreenenter"",""1"",""3654""
","
","","","","","","null","<div style=""font-size:60px;"">+</div>","null","","fixation","","","","","","","","","","",""
"aa-learning-trial","121","487471","0.0-9.0-2.0-1.24","3864","2","17","Male","approach_avoid_spark_v1","""event"",""trial"",""time""
""fullscreenenter"",""1"",""3654""
","
","
","""event"",""trial"",""time""
""fullscreenenter"",""1"",""3654""
","
","","","","","","1052.8999999999069","images/boat1.png","","","learning","-7","0","0","0","boat","vehicles","2","0","","good","[3]"
"html-keyboard-response","122","487982","0.0-9.0-2.0-0.25","3864","2","17","Male","approach_avoid_spark_v1","""event"",""trial"",""time""
""fullscreenenter"",""1"",""3654""
","
","
","""event"",""trial"",""time""
""fullscreenenter"",""1"",""3654""
","
","","","","","","null","<div style=""font-size:60px;"">+</div>","null","","fixation","","","","","","","","","","",""
"aa-learning-trial","123","490998","0.0-9.0-2.0-1.25","3864","2","17","Male","approach_avoid_spark_v1","""event"",""trial"",""time""
""fullscreenenter"",""1"",""3654""
","
","
","""event"",""trial"",""time""
""fullscreenenter"",""1"",""3654""
","
","","","","","","776.3000000002794","images/boat1.png","","","learning","-7","0","0","0","boat","vehicles","2","0","","good","[3]"
"html-keyboard-response","124","491510","0.0-9.0-2.0-0.26","3864","2","17","Male","approach_avoid_spark_v1","""event"",""trial"",""time""
""fullscreenenter"",""1"",""3654""
","
","
","""event"",""trial"",""time""
""fullscreenenter"",""1"",""3654""
","
","","","","","","null","<div style=""font-size:60px;"">+</div>","null","","fixation","","","","","","","","","","",""
"aa-learning-trial","125","494526","0.0-9.0-2.0-1.26","3864","2","17","Male","approach_avoid_spark_v1","""event"",""trial"",""time""
""fullscreenenter"",""1"",""3654""
","
","
","""event"",""trial"",""time""
""fullscreenenter"",""1"",""3654""
","
","","","","","","731.6000000000931","images/truck6.png","","","learning","8","8","1","1","truck","vehicles","2","0","","bad","[-6]"
"html-keyboard-response","126","495030","0.0-9.0-2.0-0.27","3864","2","17","Male","approach_avoid_spark_v1","""event"",""trial"",""time""
""fullscreenenter"",""1"",""3654""
","
","
","""event"",""trial"",""time""
""fullscreenenter"",""1"",""3654""
","
","","","","","","null","<div style=""font-size:60px;"">+</div>","null","","fixation","","","","","","","","","","",""
"aa-learning-trial","127","498044","0.0-9.0-2.0-1.27","3864","2","17","Male","approach_avoid_spark_v1","""event"",""trial"",""time""
""fullscreenenter"",""1"",""3654""
","
","
","""event"",""trial"",""time""
""fullscreenenter"",""1"",""3654""
","
","","","","","","2341.5","images/train3.png","","","learning","-8","-8","1","1","train","vehicles","2","0","","neutral","0"
"html-keyboard-response","128","498549","0.0-9.0-2.0-0.28","3864","2","17","Male","approach_avoid_spark_v1","""event"",""trial"",""time""
""fullscreenenter"",""1"",""3654""
","
","
","""event"",""trial"",""time""
""fullscreenenter"",""1"",""3654""
","
","","","","","","null","<div style=""font-size:60px;"">+</div>","null","","fixation","","","","","","","","","","",""
"aa-learning-trial","129","501567","0.0-9.0-2.0-1.28","3864","2","17","Male","approach_avoid_spark_v1","""event"",""trial"",""time""
""fullscreenenter"",""1"",""3654""
","
","
","""event"",""trial"",""time""
""fullscreenenter"",""1"",""3654""
","
","","","","","","935.3999999999069","images/train4.png","","","learning","-2","0","0","0","train","vehicles","2","0","","neutral","0"
"html-keyboard-response","130","502077","0.0-9.0-2.0-0.29","3864","2","17","Male","approach_avoid_spark_v1","""event"",""trial"",""time""
""fullscreenenter"",""1"",""3654""
","
","
","""event"",""trial"",""time""
""fullscreenenter"",""1"",""3654""
","
","","","","","","null","<div style=""font-size:60px;"">+</div>","null","","fixation","","","","","","","","","","",""
"aa-learning-trial","131","505087","0.0-9.0-2.0-1.29","3864","2","17","Male","approach_avoid_spark_v1","""event"",""trial"",""time""
""fullscreenenter"",""1"",""3654""
","
","
","""event"",""trial"",""time""
""fullscreenenter"",""1"",""3654""
","
","","","","","","1212.6999999997206","images/truck1.png","","","learning","-1","-1","1","1","truck","vehicles","2","0","","bad","[-6]"
"html-keyboard-response","132","505598","0.0-9.0-2.0-0.30","3864","2","17","Male","approach_avoid_spark_v1","""event"",""trial"",""time""
""fullscreenenter"",""1"",""3654""
","
","
","""event"",""trial"",""time""
""fullscreenenter"",""1"",""3654""
","
","","","","","","null","<div style=""font-size:60px;"">+</div>","null","","fixation","","","","","","","","","","",""
"aa-learning-trial","133","508615","0.0-9.0-2.0-1.30","3864","2","17","Male","approach_avoid_spark_v1","""event"",""trial"",""time""
""fullscreenenter"",""1"",""3654""
","
","
","""event"",""trial"",""time""
""fullscreenenter"",""1"",""3654""
","
","","","","","","994.3000000002794","images/boat7.png","","","learning","1","0","0","0","boat","vehicles","2","0","","good","[3]"
"html-keyboard-response","134","509126","0.0-9.0-2.0-0.31","3864","2","17","Male","approach_avoid_spark_v1","""event"",""trial"",""time""
""fullscreenenter"",""1"",""3654""
","
","
","""event"",""trial"",""time""
""fullscreenenter"",""1"",""3654""
","
","","","","","","null","<div style=""font-size:60px;"">+</div>","null","","fixation","","","","","","","","","","",""
"aa-learning-trial","135","512143","0.0-9.0-2.0-1.31","3864","2","17","Male","approach_avoid_spark_v1","""event"",""trial"",""time""
""fullscreenenter"",""1"",""3654""
","
","
","""event"",""trial"",""time""
""fullscreenenter"",""1"",""3654""
","
","","","","","","1359.8999999999069","images/truck4.png","","","learning","-9","-9","1","1","truck","vehicles","2","0","","bad","[-6]"
"html-keyboard-response","136","512646","0.0-9.0-2.0-0.32","3864","2","17","Male","approach_avoid_spark_v1","""event"",""trial"",""time""
""fullscreenenter"",""1"",""3654""
","
","
","""event"",""trial"",""time""
""fullscreenenter"",""1"",""3654""
","
","","","","","","null","<div style=""font-size:60px;"">+</div>","null","","fixation","","","","","","","","","","",""
"aa-learning-trial","137","515662","0.0-9.0-2.0-1.32","3864","2","17","Male","approach_avoid_spark_v1","""event"",""trial"",""time""
""fullscreenenter"",""1"",""3654""
","
","
","""event"",""trial"",""time""
""fullscreenenter"",""1"",""3654""
","
","","","","","","1498.3999999999069","images/truck7.png","","","learning","4","4","1","1","truck","vehicles","2","0","","bad","[-6]"
"html-keyboard-response","138","516173","0.0-9.0-2.0-0.33","3864","2","17","Male","approach_avoid_spark_v1","""event"",""trial"",""time""
""fullscreenenter"",""1"",""3654""
","
","
","""event"",""trial"",""time""
""fullscreenenter"",""1"",""3654""
","
","","","","","","null","<div style=""font-size:60px;"">+</div>","null","","fixation","","","","","","","","","","",""
"aa-learning-trial","139","519182","0.0-9.0-2.0-1.33","3864","2","17","Male","approach_avoid_spark_v1","""event"",""trial"",""time""
""fullscreenenter"",""1"",""3654""
","
","
","""event"",""trial"",""time""
""fullscreenenter"",""1"",""3654""
","
","","","","","","565.5","images/truck7.png","","","learning","4","4","1","1","truck","vehicles","2","0","","bad","[-6]"
"html-keyboard-response","140","519686","0.0-9.0-2.0-0.34","3864","2","17","Male","approach_avoid_spark_v1","""event"",""trial"",""time""
""fullscreenenter"",""1"",""3654""
","
","
","""event"",""trial"",""time""
""fullscreenenter"",""1"",""3654""
","
","","","","","","null","<div style=""font-size:60px;"">+</div>","null","","fixation","","","","","","","","","","",""
"aa-learning-trial","141","522704","0.0-9.0-2.0-1.34","3864","2","17","Male","approach_avoid_spark_v1","""event"",""trial"",""time""
""fullscreenenter"",""1"",""3654""
","
","
","""event"",""trial"",""time""
""fullscreenenter"",""1"",""3654""
","
","","","","","","1408.6000000000931","images/truck3.png","","","learning","-5","-5","1","1","truck","vehicles","2","0","","bad","[-6]"
"html-keyboard-response","142","523214","0.0-9.0-2.0-0.35","3864","2","17","Male","approach_avoid_spark_v1","""event"",""trial"",""time""
""fullscreenenter"",""1"",""3654""
","
","
","""event"",""trial"",""time""
""fullscreenenter"",""1"",""3654""
","
","","","","","","null","<div style=""font-size:60px;"">+</div>","null","","fixation","","","","","","","","","","",""
"aa-learning-trial","143","526231","0.0-9.0-2.0-1.35","3864","2","17","Male","approach_avoid_spark_v1","""event"",""trial"",""time""
""fullscreenenter"",""1"",""3654""
","
","
","""event"",""trial"",""time""
""fullscreenenter"",""1"",""3654""
","
","","","","","","1459.2999999998137","images/train6.png","","","learning","-3","0","0","0","train","vehicles","2","0","","neutral","0"
"html-keyboard-response","144","526734","0.0-9.0-2.0-0.36","3864","2","17","Male","approach_avoid_spark_v1","""event"",""trial"",""time""
""fullscreenenter"",""1"",""3654""
","
","
","""event"",""trial"",""time""
""fullscreenenter"",""1"",""3654""
","
","","","","","","null","<div style=""font-size:60px;"">+</div>","null","","fixation","","","","","","","","","","",""
"aa-learning-trial","145","529749","0.0-9.0-2.0-1.36","3864","2","17","Male","approach_avoid_spark_v1","""event"",""trial"",""time""
""fullscreenenter"",""1"",""3654""
","
","
","""event"",""trial"",""time""
""fullscreenenter"",""1"",""3654""
","
","","","","","","1399.9000000003725","images/boat1.png","","","learning","-7","-7","1","1","boat","vehicles","2","0","","good","[3]"
"html-keyboard-response","146","530253","0.0-9.0-2.0-0.37","3864","2","17","Male","approach_avoid_spark_v1","""event"",""trial"",""time""
""fullscreenenter"",""1"",""3654""
","
","
","""event"",""trial"",""time""
""fullscreenenter"",""1"",""3654""
","
","","","","","","null","<div style=""font-size:60px;"">+</div>","null","","fixation","","","","","","","","","","",""
"aa-learning-trial","147","533263","0.0-9.0-2.0-1.37","3864","2","17","Male","approach_avoid_spark_v1","""event"",""trial"",""time""
""fullscreenenter"",""1"",""3654""
","
","
","""event"",""trial"",""time""
""fullscreenenter"",""1"",""3654""
","
","","","","","","1603.4000000003725","images/train4.png","","","learning","-2","0","0","0","train","vehicles","2","0","","neutral","0"
"html-keyboard-response","148","533774","0.0-9.0-2.0-0.38","3864","2","17","Male","approach_avoid_spark_v1","""event"",""trial"",""time""
""fullscreenenter"",""1"",""3654""
","
","
","""event"",""trial"",""time""
""fullscreenenter"",""1"",""3654""
","
","","","","","","null","<div style=""font-size:60px;"">+</div>","null","","fixation","","","","","","","","","","",""
"aa-learning-trial","149","536791","0.0-9.0-2.0-1.38","3864","2","17","Male","approach_avoid_spark_v1","""event"",""trial"",""time""
""fullscreenenter"",""1"",""3654""
","
","
","""event"",""trial"",""time""
""fullscreenenter"",""1"",""3654""
","
","","","","","","596.8999999999069","images/train4.png","","","learning","-2","0","0","0","train","vehicles","2","0","","neutral","0"
"html-keyboard-response","150","537302","0.0-9.0-2.0-0.39","3864","2","17","Male","approach_avoid_spark_v1","""event"",""trial"",""time""
""fullscreenenter"",""1"",""3654""
","
","
","""event"",""trial"",""time""
""fullscreenenter"",""1"",""3654""
","
","","","","","","null","<div style=""font-size:60px;"">+</div>","null","","fixation","","","","","","","","","","",""
"aa-learning-trial","151","540318","0.0-9.0-2.0-1.39","3864","2","17","Male","approach_avoid_spark_v1","""event"",""trial"",""time""
""fullscreenenter"",""1"",""3654""
","
","
","""event"",""trial"",""time""
""fullscreenenter"",""1"",""3654""
","
","","","","","","1652.8999999999069","images/boat4.png","","","learning","5","5","1","1","boat","vehicles","2","0","","good","[3]"
"html-keyboard-response","152","540829","0.0-9.0-2.0-0.40","3864","2","17","Male","approach_avoid_spark_v1","""event"",""trial"",""time""
""fullscreenenter"",""1"",""3654""
","
","
","""event"",""trial"",""time""
""fullscreenenter"",""1"",""3654""
","
","","","","","","null","<div style=""font-size:60px;"">+</div>","null","","fixation","","","","","","","","","","",""
"aa-learning-trial","153","543847","0.0-9.0-2.0-1.40","3864","2","17","Male","approach_avoid_spark_v1","""event"",""trial"",""time""
""fullscreenenter"",""1"",""3654""
","
","
","""event"",""trial"",""time""
""fullscreenenter"",""1"",""3654""
","
","","","","","","712.1999999997206","images/truck6.png","","","learning","8","8","1","1","truck","vehicles","2","0","","bad","[-6]"
"html-keyboard-response","154","544358","0.0-9.0-2.0-0.41","3864","2","17","Male","approach_avoid_spark_v1","""event"",""trial"",""time""
""fullscreenenter"",""1"",""3654""
","
","
","""event"",""trial"",""time""
""fullscreenenter"",""1"",""3654""
","
","","","","","","null","<div style=""font-size:60px;"">+</div>","null","","fixation","","","","","","","","","","",""
"aa-learning-trial","155","547367","0.0-9.0-2.0-1.41","3864","2","17","Male","approach_avoid_spark_v1","""event"",""trial"",""time""
""fullscreenenter"",""1"",""3654""
","
","
","""event"",""trial"",""time""
""fullscreenenter"",""1"",""3654""
","
","","","","","","1542.1000000000931","images/boat7.png","","","learning","1","1","1","1","boat","vehicles","2","0","","good","[3]"
"html-keyboard-response","156","547878","0.0-9.0-2.0-0.42","3864","2","17","Male","approach_avoid_spark_v1","""event"",""trial"",""time""
""fullscreenenter"",""1"",""3654""
","
","
","""event"",""trial"",""time""
""fullscreenenter"",""1"",""3654""
","
","","","","","","null","<div style=""font-size:60px;"">+</div>","null","","fixation","","","","","","","","","","",""
"aa-learning-trial","157","550895","0.0-9.0-2.0-1.42","3864","2","17","Male","approach_avoid_spark_v1","""event"",""trial"",""time""
""fullscreenenter"",""1"",""3654""
","
","
","""event"",""trial"",""time""
""fullscreenenter"",""1"",""3654""
","
","","","","","","1305.7999999998137","images/boat6.png","","","learning","-4","0","0","0","boat","vehicles","2","0","","good","[3]"
"html-keyboard-response","158","551406","0.0-9.0-2.0-0.43","3864","2","17","Male","approach_avoid_spark_v1","""event"",""trial"",""time""
""fullscreenenter"",""1"",""3654""
","
","
","""event"",""trial"",""time""
""fullscreenenter"",""1"",""3654""
","
","","","","","","null","<div style=""font-size:60px;"">+</div>","null","","fixation","","","","","","","","","","",""
"aa-learning-trial","159","554423","0.0-9.0-2.0-1.43","3864","2","17","Male","approach_avoid_spark_v1","""event"",""trial"",""time""
""fullscreenenter"",""1"",""3654""
","
","
","""event"",""trial"",""time""
""fullscreenenter"",""1"",""3654""
","
","","","","","","902.8999999999069","images/truck4.png","","","learning","-9","0","0","0","truck","vehicles","2","0","","bad","[-6]"
"html-keyboard-response","160","554934","0.0-9.0-2.0-0.44","3864","2","17","Male","approach_avoid_spark_v1","""event"",""trial"",""time""
""fullscreenenter"",""1"",""3654""
","
","
","""event"",""trial"",""time""
""fullscreenenter"",""1"",""3654""
","
","","","","","","null","<div style=""font-size:60px;"">+</div>","null","","fixation","","","","","","","","","","",""
"aa-learning-trial","161","557951","0.0-9.0-2.0-1.44","3864","2","17","Male","approach_avoid_spark_v1","""event"",""trial"",""time""
""fullscreenenter"",""1"",""3654""
","
","
","""event"",""trial"",""time""
""fullscreenenter"",""1"",""3654""
","
","","","","","","701.6999999997206","images/truck6.png","","","learning","8","8","1","1","truck","vehicles","2","0","","bad","[-6]"
"html-keyboard-response","162","558461","0.0-9.0-2.0-0.45","3864","2","17","Male","approach_avoid_spark_v1","""event"",""trial"",""time""
""fullscreenenter"",""1"",""3654""
","
","
","""event"",""trial"",""time""
""fullscreenenter"",""1"",""3654""
","
","","","","","","null","<div style=""font-size:60px;"">+</div>","null","","fixation","","","","","","","","","","",""
"aa-learning-trial","163","561479","0.0-9.0-2.0-1.45","3864","2","17","Male","approach_avoid_spark_v1","""event"",""trial"",""time""
""fullscreenenter"",""1"",""3654""
","
","
","""event"",""trial"",""time""
""fullscreenenter"",""1"",""3654""
","
","","","","","","1094.8999999999069","images/train3.png","","","learning","-8","0","0","0","train","vehicles","2","0","","neutral","0"
"html-keyboard-response","164","561990","0.0-9.0-2.0-0.46","3864","2","17","Male","approach_avoid_spark_v1","""event"",""trial"",""time""
""fullscreenenter"",""1"",""3654""
","
","
","""event"",""trial"",""time""
""fullscreenenter"",""1"",""3654""
","
","","","","","","null","<div style=""font-size:60px;"">+</div>","null","","fixation","","","","","","","","","","",""
"aa-learning-trial","165","565007","0.0-9.0-2.0-1.46","3864","2","17","Male","approach_avoid_spark_v1","""event"",""trial"",""time""
""fullscreenenter"",""1"",""3654""
","
","
","""event"",""trial"",""time""
""fullscreenenter"",""1"",""3654""
","
","","","","","","1431.3000000002794","images/train2.png","","","learning","3","0","0","0","train","vehicles","2","0","","neutral","0"
"html-keyboard-response","166","565518","0.0-9.0-2.0-0.47","3864","2","17","Male","approach_avoid_spark_v1","""event"",""trial"",""time""
""fullscreenenter"",""1"",""3654""
","
","
","""event"",""trial"",""time""
""fullscreenenter"",""1"",""3654""
","
","","","","","","null","<div style=""font-size:60px;"">+</div>","null","","fixation","","","","","","","","","","",""
"aa-learning-trial","167","568528","0.0-9.0-2.0-1.47","3864","2","17","Male","approach_avoid_spark_v1","""event"",""trial"",""time""
""fullscreenenter"",""1"",""3654""
","
","
","""event"",""trial"",""time""
""fullscreenenter"",""1"",""3654""
","
","","","","","","985.8999999999069","images/boat7.png","","","learning","1","0","0","0","boat","vehicles","2","0","","good","[3]"
"html-keyboard-response","168","569038","0.0-9.0-2.0-0.48","3864","2","17","Male","approach_avoid_spark_v1","""event"",""trial"",""time""
""fullscreenenter"",""1"",""3654""
","
","
","""event"",""trial"",""time""
""fullscreenenter"",""1"",""3654""
","
","","","","","","null","<div style=""font-size:60px;"">+</div>","null","","fixation","","","","","","","","","","",""
"aa-learning-trial","169","572055","0.0-9.0-2.0-1.48","3864","2","17","Male","approach_avoid_spark_v1","""event"",""trial"",""time""
""fullscreenenter"",""1"",""3654""
","
","
","""event"",""trial"",""time""
""fullscreenenter"",""1"",""3654""
","
","","","","","","659.3000000002794","images/truck7.png","","","learning","4","4","1","1","truck","vehicles","2","0","","bad","[-6]"
"html-keyboard-response","170","572558","0.0-9.0-2.0-0.49","3864","2","17","Male","approach_avoid_spark_v1","""event"",""trial"",""time""
""fullscreenenter"",""1"",""3654""
","
","
","""event"",""trial"",""time""
""fullscreenenter"",""1"",""3654""
","
","","","","","","null","<div style=""font-size:60px;"">+</div>","null","","fixation","","","","","","","","","","",""
"aa-learning-trial","171","575576","0.0-9.0-2.0-1.49","3864","2","17","Male","approach_avoid_spark_v1","""event"",""trial"",""time""
""fullscreenenter"",""1"",""3654""
","
","
","""event"",""trial"",""time""
""fullscreenenter"",""1"",""3654""
","
","","","","","","846.8999999999069","images/boat7.png","","","learning","1","1","1","1","boat","vehicles","2","0","","good","[3]"
"html-keyboard-response","172","576086","0.0-9.0-2.0-0.50","3864","2","17","Male","approach_avoid_spark_v1","""event"",""trial"",""time""
""fullscreenenter"",""1"",""3654""
","
","
","""event"",""trial"",""time""
""fullscreenenter"",""1"",""3654""
","
","","","","","","null","<div style=""font-size:60px;"">+</div>","null","","fixation","","","","","","","","","","",""
"aa-learning-trial","173","579102","0.0-9.0-2.0-1.50","3864","2","17","Male","approach_avoid_spark_v1","""event"",""trial"",""time""
""fullscreenenter"",""1"",""3654""
","
","
","""event"",""trial"",""time""
""fullscreenenter"",""1"",""3654""
","
","","","","","","613.3999999999069","images/truck7.png","","","learning","4","4","1","1","truck","vehicles","2","0","","bad","[-6]"
"html-button-response","174","584606","0.0-9.0-3.0","3864","2","17","Male","approach_avoid_spark_v1","""event"",""trial"",""time""
""fullscreenenter"",""1"",""3654""
","
","
","""event"",""trial"",""time""
""fullscreenenter"",""1"",""3654""
","
","","","","","","5499.100000000093","<p> You have completed the round! <p> In this round, you earned 10 points! </p>","0","","break","","","","","","","","","","",""
"html-button-response","175","585427","0.0-10.0","3864","2","17","Male","approach_avoid_spark_v1","""event"",""trial"",""time""
""fullscreenenter"",""1"",""3654""
","
","
","""event"",""trial"",""time""
""fullscreenenter"",""1"",""3654""
","
","","","","","","817.3999999999069","<p> Now it's time to play another round. </p>","0","","transition_screen","","","","","","","","","","",""
"preload","176","585637","0.0-11.0-0.0","3864","2","17","Male","approach_avoid_spark_v1","""event"",""trial"",""time""
""fullscreenenter"",""1"",""3654""
","
","
","""event"",""trial"",""time""
""fullscreenenter"",""1"",""3654""
","
","true","false","[]","[]","[]","","","","","","","","","","","","","","","",""
"learning-instructions","177","591896","0.0-11.0-1.0-0.0","3864","2","17","Male","approach_avoid_spark_v1","""event"",""trial"",""time""
""fullscreenenter"",""1"",""3654""
","
","
","""event"",""trial"",""time""
""fullscreenenter"",""1"",""3654""
","
","","","","","","1250.8000000002794","<p> Your goal in this round is to decorate your friend's new house with furniture. </p></div>","","0","instructions","","","","","","","","","","",""
"learning-instructions","178","603955","0.0-11.0-1.0-0.1","3864","2","17","Male","approach_avoid_spark_v1","""event"",""trial"",""time""
""fullscreenenter"",""1"",""3654""
","
","
","""event"",""trial"",""time""
""fullscreenenter"",""1"",""3654""
","
","","","","","","2376.2999999998137","<p> Your friend likes some pieces of furniture but not others.  </p><p> On each turn, you will see a piece of furniture.   </p><p> You need to decide whether to put it in your friend's house or not.  </p>","","0","instructions","","","","","","","","","","",""
"learning-instructions","179","609936","0.0-11.0-1.0-0.2","3864","2","17","Male","approach_avoid_spark_v1","""event"",""trial"",""time""
""fullscreenenter"",""1"",""3654""
","
","
","""event"",""trial"",""time""
""fullscreenenter"",""1"",""3654""
","
","","","","","","357.20000000018626","<p> You can put the furniture in her house by pressing 1 and deliver it elsewhere by pressing 0. </p><br><div class=""choice-instructions-grid""> <div class=""choice-option""><img src=""images/approach.png"" class=""choice-option-img"" stage=""instructions"" position=""0"" ><div class=""choice-option-text""> Press ""1."" </div></div><div class=""choice-option""><img src=""images/avoid.png"" class=""choice-option-img"" stage=""instructions"" position=""1"" ><div class=""choice-option-text""> Press ""0."" </div></div>","","0","instructions","","","","","","","","","","",""
"learning-instructions","180","618664","0.0-11.0-1.0-0.3","3864","2","17","Male","approach_avoid_spark_v1","""event"",""trial"",""time""
""fullscreenenter"",""1"",""3654""
","
","
","""event"",""trial"",""time""
""fullscreenenter"",""1"",""3654""
","
","","","","","","61.89999999990687","<p> If you decorate your friend's house with furniture she likes, she will be happy! </p><p> But if you give her furniture that she does not like, she will be annoyed. </p>","","0","instructions","","","","","","","","","","",""
"learning-instructions","181","630670","0.0-11.0-1.0-0.4","3864","2","17","Male","approach_avoid_spark_v1","""event"",""trial"",""time""
""fullscreenenter"",""1"",""3654""
","
","
","""event"",""trial"",""time""
""fullscreenenter"",""1"",""3654""
","
","","","","","","14.700000000186265","<p> You will earn points based on how you made your friend feel. </p><p> If you made her happy, you will WIN anywhere from 1 - 9 points, </p><p> but if you made her annoyed you will LOSE anywhere from 1 - 9 points. </p>","","0","instructions","","","","","","","","","","",""
"learning-instructions","182","637671","0.0-11.0-1.0-0.5","3864","2","17","Male","approach_avoid_spark_v1","""event"",""trial"",""time""
""fullscreenenter"",""1"",""3654""
","
","
","""event"",""trial"",""time""
""fullscreenenter"",""1"",""3654""
","
","","","","","","349.1999999997206","<p> You will see how many points you won or lost in the center of the screen. </p><p> Here is what you would see if you won 5 points: </p><p style=""color:green;font-size:50px;font-weight:bolder"">5</p>","","0","instructions","","","","","","","","","","",""
"learning-instructions","183","640774","0.0-11.0-1.0-0.6","3864","2","17","Male","approach_avoid_spark_v1","""event"",""trial"",""time""
""fullscreenenter"",""1"",""3654""
","
","
","""event"",""trial"",""time""
""fullscreenenter"",""1"",""3654""
","
","","","","","","262","<p> And here is what you would see if you lost 3 points: </p><p style=""color:red;font-size:50px;font-weight:bolder"">-3</p>","","0","instructions","","","","","","","","","","",""
"learning-instructions","184","661427","0.0-11.0-1.0-0.7","3864","2","17","Male","approach_avoid_spark_v1","""event"",""trial"",""time""
""fullscreenenter"",""1"",""3654""
","
","
","""event"",""trial"",""time""
""fullscreenenter"",""1"",""3654""
","
","","","","","","3410.600000000093","<p> Some pieces of furniture will make her feel very happy or very annoyed. </p><p> These pieces of furniture will make you win or lose LOTS of points. </p><p> Other pieces of furniture will only make her feel a little happy or a little annoyed. </p><p> These pieces of furniture will make you win or lose small amounts of points. </p>","","0","instructions","","","","","","","","","","",""
"learning-instructions","185","674504","0.0-11.0-1.0-0.8","3864","2","17","Male","approach_avoid_spark_v1","""event"",""trial"",""time""
""fullscreenenter"",""1"",""3654""
","
","
","""event"",""trial"",""time""
""fullscreenenter"",""1"",""3654""
","
","","","","","","529.3999999999069","<p> If you choose to deliver a piece of furniture elsewhere, you will not win or lose any points. </p><p>  However, in the center of the screen, you will see the number of points you WOULD HAVE won or lost if you had given the furniture to your friend. </p>","","0","instructions","","","","","","","","","","",""
"learning-instructions","186","686360","0.0-11.0-1.0-0.9","3864","2","17","Male","approach_avoid_spark_v1","""event"",""trial"",""time""
""fullscreenenter"",""1"",""3654""
","
","
","""event"",""trial"",""time""
""fullscreenenter"",""1"",""3654""
","
","","","","","","428.79999999981374","<p> Here is what you might see if you did not give a piece of furniture to your friend that would have made her happy: </p><p style=""color:grey; font-size:50px; display: inline-block; border-spacing: 15px; border-width:3px; border-style:solid; border-color:red"">  &nbsp; 6 &nbsp; </p><p> Remember, in this case, you would not win or lose ANY points because you did not give her the furniture.  </p>","","0","instructions","","","","","","","","","","",""
"learning-instructions","187","694293","0.0-11.0-1.0-0.10","3864","2","17","Male","approach_avoid_spark_v1","""event"",""trial"",""time""
""fullscreenenter"",""1"",""3654""
","
","
","""event"",""trial"",""time""
""fullscreenenter"",""1"",""3654""
","
","","","","","","308.5","<p> Try to make the best choice for each piece of furniture because </p><p> at the end of the game, you will earn bonus money based on how many points you earned. </p>","","0","instructions","","","","","","","","","","",""
"learning-instructions","188","702600","0.0-11.0-1.0-0.11","3864","2","17","Male","approach_avoid_spark_v1","""event"",""trial"",""time""
""fullscreenenter"",""1"",""3654""
","
","
","""event"",""trial"",""time""
""fullscreenenter"",""1"",""3654""
","
","","","","","","114.39999999990687","<p> You will have 3 seconds to make each choice. Try to respond before time runs out! </p><p> You will lose 5 points each time you do not make a response. </p>","","0","instructions","","","","","","","","","","",""
"html-keyboard-response","189","703206","0.0-11.0-2.0-0.0","3864","2","17","Male","approach_avoid_spark_v1","""event"",""trial"",""time""
""fullscreenenter"",""1"",""3654""
","
","
","""event"",""trial"",""time""
""fullscreenenter"",""1"",""3654""
","
","","","","","","null","<div style=""font-size:60px;"">+</div>","null","","fixation","","","","","","","","","","",""
"aa-learning-trial","190","706223","0.0-11.0-2.0-1.0","3864","2","17","Male","approach_avoid_spark_v1","""event"",""trial"",""time""
""fullscreenenter"",""1"",""3654""
","
","
","""event"",""trial"",""time""
""fullscreenenter"",""1"",""3654""
","
","","","","","","676","images/table6.png","","","learning","[-1]","-1","1","1","table","furniture","1","1","","neutral","0"
"html-keyboard-response","191","706726","0.0-11.0-2.0-0.1","3864","2","17","Male","approach_avoid_spark_v1","""event"",""trial"",""time""
""fullscreenenter"",""1"",""3654""
","
","
","""event"",""trial"",""time""
""fullscreenenter"",""1"",""3654""
","
","","","","","","null","<div style=""font-size:60px;"">+</div>","null","","fixation","","","","","","","","","","",""
"aa-learning-trial","192","709735","0.0-11.0-2.0-1.1","3864","2","17","Male","approach_avoid_spark_v1","""event"",""trial"",""time""
""fullscreenenter"",""1"",""3654""
","
","
","""event"",""trial"",""time""
""fullscreenenter"",""1"",""3654""
","
","","","","","","936.2999999998137","images/table7.png","","","learning","1","1","1","1","table","furniture","1","1","","neutral","0"
"html-keyboard-response","193","710246","0.0-11.0-2.0-0.2","3864","2","17","Male","approach_avoid_spark_v1","""event"",""trial"",""time""
""fullscreenenter"",""1"",""3654""
","
","
","""event"",""trial"",""time""
""fullscreenenter"",""1"",""3654""
","
","","","","","","null","<div style=""font-size:60px;"">+</div>","null","","fixation","","","","","","","","","","",""
"aa-learning-trial","194","713263","0.0-11.0-2.0-1.2","3864","2","17","Male","approach_avoid_spark_v1","""event"",""trial"",""time""
""fullscreenenter"",""1"",""3654""
","
","
","""event"",""trial"",""time""
""fullscreenenter"",""1"",""3654""
","
","","","","","","912.4000000003725","images/table1.png","","","learning","[-1]","-1","1","1","table","furniture","1","1","","neutral","0"
"html-keyboard-response","195","713774","0.0-11.0-2.0-0.3","3864","2","17","Male","approach_avoid_spark_v1","""event"",""trial"",""time""
""fullscreenenter"",""1"",""3654""
","
","
","""event"",""trial"",""time""
""fullscreenenter"",""1"",""3654""
","
","","","","","","null","<div style=""font-size:60px;"">+</div>","null","","fixation","","","","","","","","","","",""
"aa-learning-trial","196","716784","0.0-11.0-2.0-1.3","3864","2","17","Male","approach_avoid_spark_v1","""event"",""trial"",""time""
""fullscreenenter"",""1"",""3654""
","
","
","""event"",""trial"",""time""
""fullscreenenter"",""1"",""3654""
","
","","","","","","867.6000000000931","images/table6.png","","","learning","2","0","0","0","table","furniture","1","1","","neutral","0"
"html-keyboard-response","197","717294","0.0-11.0-2.0-0.4","3864","2","17","Male","approach_avoid_spark_v1","""event"",""trial"",""time""
""fullscreenenter"",""1"",""3654""
","
","
","""event"",""trial"",""time""
""fullscreenenter"",""1"",""3654""
","
","","","","","","null","<div style=""font-size:60px;"">+</div>","null","","fixation","","","","","","","","","","",""
"aa-learning-trial","198","720311","0.0-11.0-2.0-1.4","3864","2","17","Male","approach_avoid_spark_v1","""event"",""trial"",""time""
""fullscreenenter"",""1"",""3654""
","
","
","""event"",""trial"",""time""
""fullscreenenter"",""1"",""3654""
","
","","","","","","942","images/chair4.png","","","learning","-6","-6","1","1","chair","furniture","1","1","","bad","[-5]"
"html-keyboard-response","199","720822","0.0-11.0-2.0-0.5","3864","2","17","Male","approach_avoid_spark_v1","""event"",""trial"",""time""
""fullscreenenter"",""1"",""3654""
","
","
","""event"",""trial"",""time""
""fullscreenenter"",""1"",""3654""
","
","","","","","","null","<div style=""font-size:60px;"">+</div>","null","","fixation","","","","","","","","","","",""
"aa-learning-trial","200","723838","0.0-11.0-2.0-1.5","3864","2","17","Male","approach_avoid_spark_v1","""event"",""trial"",""time""
""fullscreenenter"",""1"",""3654""
","
","
","""event"",""trial"",""time""
""fullscreenenter"",""1"",""3654""
","
","","","","","","1251.7999999998137","images/table7.png","","","learning","1","1","1","1","table","furniture","1","1","","neutral","0"
"html-keyboard-response","201","724350","0.0-11.0-2.0-0.6","3864","2","17","Male","approach_avoid_spark_v1","""event"",""trial"",""time""
""fullscreenenter"",""1"",""3654""
","
","
","""event"",""trial"",""time""
""fullscreenenter"",""1"",""3654""
","
","","","","","","null","<div style=""font-size:60px;"">+</div>","null","","fixation","","","","","","","","","","",""
"aa-learning-trial","202","727367","0.0-11.0-2.0-1.6","3864","2","17","Male","approach_avoid_spark_v1","""event"",""trial"",""time""
""fullscreenenter"",""1"",""3654""
","
","
","""event"",""trial"",""time""
""fullscreenenter"",""1"",""3654""
","
","","","","","","1314.7999999998137","images/bed1.png","","","learning","3","3","1","1","bed","furniture","1","1","","good","[5]"
"html-keyboard-response","203","727870","0.0-11.0-2.0-0.7","3864","2","17","Male","approach_avoid_spark_v1","""event"",""trial"",""time""
""fullscreenenter"",""1"",""3654""
","
","
","""event"",""trial"",""time""
""fullscreenenter"",""1"",""3654""
","
","","","","","","null","<div style=""font-size:60px;"">+</div>","null","","fixation","","","","","","","","","","",""
"aa-learning-trial","204","730888","0.0-11.0-2.0-1.7","3864","2","17","Male","approach_avoid_spark_v1","""event"",""trial"",""time""
""fullscreenenter"",""1"",""3654""
","
","
","""event"",""trial"",""time""
""fullscreenenter"",""1"",""3654""
","
","","","","","","753.6000000000931","images/chair4.png","","","learning","-5","0","0","0","chair","furniture","1","1","","bad","[-5]"
"html-keyboard-response","205","731398","0.0-11.0-2.0-0.8","3864","2","17","Male","approach_avoid_spark_v1","""event"",""trial"",""time""
""fullscreenenter"",""1"",""3654""
","
","
","""event"",""trial"",""time""
""fullscreenenter"",""1"",""3654""
","
","","","","","","null","<div style=""font-size:60px;"">+</div>","null","","fixation","","","","","","","","","","",""
"aa-learning-trial","206","734415","0.0-11.0-2.0-1.8","3864","2","17","Male","approach_avoid_spark_v1","""event"",""trial"",""time""
""fullscreenenter"",""1"",""3654""
","
","
","""event"",""trial"",""time""
""fullscreenenter"",""1"",""3654""
","
","","","","","","1200.1000000000931","images/bed5.png","","","learning","5","0","0","0","bed","furniture","1","1","","good","[5]"
"html-keyboard-response","207","734926","0.0-11.0-2.0-0.9","3864","2","17","Male","approach_avoid_spark_v1","""event"",""trial"",""time""
""fullscreenenter"",""1"",""3654""
","
","
","""event"",""trial"",""time""
""fullscreenenter"",""1"",""3654""
","
","","","","","","null","<div style=""font-size:60px;"">+</div>","null","","fixation","","","","","","","","","","",""
"aa-learning-trial","208","737943","0.0-11.0-2.0-1.9","3864","2","17","Male","approach_avoid_spark_v1","""event"",""trial"",""time""
""fullscreenenter"",""1"",""3654""
","
","
","""event"",""trial"",""time""
""fullscreenenter"",""1"",""3654""
","
","","","","","","926.8999999999069","images/chair6.png","","","learning","-5","-5","1","1","chair","furniture","1","1","","bad","[-5]"
"html-keyboard-response","209","738454","0.0-11.0-2.0-0.10","3864","2","17","Male","approach_avoid_spark_v1","""event"",""trial"",""time""
""fullscreenenter"",""1"",""3654""
","
","
","""event"",""trial"",""time""
""fullscreenenter"",""1"",""3654""
","
","","","","","","null","<div style=""font-size:60px;"">+</div>","null","","fixation","","","","","","","","","","",""
"aa-learning-trial","210","741471","0.0-11.0-2.0-1.10","3864","2","17","Male","approach_avoid_spark_v1","""event"",""trial"",""time""
""fullscreenenter"",""1"",""3654""
","
","
","""event"",""trial"",""time""
""fullscreenenter"",""1"",""3654""
","
","","","","","","1047.3999999999069","images/bed5.png","","","learning","6","6","1","1","bed","furniture","1","1","","good","[5]"
"html-keyboard-response","211","741982","0.0-11.0-2.0-0.11","3864","2","17","Male","approach_avoid_spark_v1","""event"",""trial"",""time""
""fullscreenenter"",""1"",""3654""
","
","
","""event"",""trial"",""time""
""fullscreenenter"",""1"",""3654""
","
","","","","","","null","<div style=""font-size:60px;"">+</div>","null","","fixation","","","","","","","","","","",""
"aa-learning-trial","212","744993","0.0-11.0-2.0-1.11","3864","2","17","Male","approach_avoid_spark_v1","""event"",""trial"",""time""
""fullscreenenter"",""1"",""3654""
","
","
","""event"",""trial"",""time""
""fullscreenenter"",""1"",""3654""
","
","","","","","","2162.5","images/chair6.png","","","learning","-5","-5","1","1","chair","furniture","1","1","","bad","[-5]"
"html-keyboard-response","213","745501","0.0-11.0-2.0-0.12","3864","2","17","Male","approach_avoid_spark_v1","""event"",""trial"",""time""
""fullscreenenter"",""1"",""3654""
","
","
","""event"",""trial"",""time""
""fullscreenenter"",""1"",""3654""
","
","","","","","","null","<div style=""font-size:60px;"">+</div>","null","","fixation","","","","","","","","","","",""
"aa-learning-trial","214","748519","0.0-11.0-2.0-1.12","3864","2","17","Male","approach_avoid_spark_v1","""event"",""trial"",""time""
""fullscreenenter"",""1"",""3654""
","
","
","""event"",""trial"",""time""
""fullscreenenter"",""1"",""3654""
","
","","","","","","1230","images/bed1.png","","","learning","4","4","1","1","bed","furniture","1","1","","good","[5]"
"html-keyboard-response","215","749029","0.0-11.0-2.0-0.13","3864","2","17","Male","approach_avoid_spark_v1","""event"",""trial"",""time""
""fullscreenenter"",""1"",""3654""
","
","
","""event"",""trial"",""time""
""fullscreenenter"",""1"",""3654""
","
","","","","","","null","<div style=""font-size:60px;"">+</div>","null","","fixation","","","","","","","","","","",""
"aa-learning-trial","216","752040","0.0-11.0-2.0-1.13","3864","2","17","Male","approach_avoid_spark_v1","""event"",""trial"",""time""
""fullscreenenter"",""1"",""3654""
","
","
","""event"",""trial"",""time""
""fullscreenenter"",""1"",""3654""
","
","","","","","","1308.2000000001863","images/chair3.png","","","learning","-4","0","0","0","chair","furniture","1","1","","bad","[-5]"
"html-keyboard-response","217","752550","0.0-11.0-2.0-0.14","3864","2","17","Male","approach_avoid_spark_v1","""event"",""trial"",""time""
""fullscreenenter"",""1"",""3654""
","
","
","""event"",""trial"",""time""
""fullscreenenter"",""1"",""3654""
","
","","","","","","null","<div style=""font-size:60px;"">+</div>","null","","fixation","","","","","","","","","","",""
"aa-learning-trial","218","755567","0.0-11.0-2.0-1.14","3864","2","17","Male","approach_avoid_spark_v1","""event"",""trial"",""time""
""fullscreenenter"",""1"",""3654""
","
","
","""event"",""trial"",""time""
""fullscreenenter"",""1"",""3654""
","
","","","","","","1054.4000000003725","images/bed6.png","","","learning","6","6","1","1","bed","furniture","1","1","","good","[5]"
"html-keyboard-response","219","756078","0.0-11.0-2.0-0.15","3864","2","17","Male","approach_avoid_spark_v1","""event"",""trial"",""time""
""fullscreenenter"",""1"",""3654""
","
","
","""event"",""trial"",""time""
""fullscreenenter"",""1"",""3654""
","
","","","","","","null","<div style=""font-size:60px;"">+</div>","null","","fixation","","","","","","","","","","",""
"aa-learning-trial","220","759094","0.0-11.0-2.0-1.15","3864","2","17","Male","approach_avoid_spark_v1","""event"",""trial"",""time""
""fullscreenenter"",""1"",""3654""
","
","
","""event"",""trial"",""time""
""fullscreenenter"",""1"",""3654""
","
","","","","","","504.70000000018626","images/bed6.png","","","learning","4","4","1","1","bed","furniture","1","1","","good","[5]"
"html-keyboard-response","221","759605","0.0-11.0-2.0-0.16","3864","2","17","Male","approach_avoid_spark_v1","""event"",""trial"",""time""
""fullscreenenter"",""1"",""3654""
","
","
","""event"",""trial"",""time""
""fullscreenenter"",""1"",""3654""
","
","","","","","","null","<div style=""font-size:60px;"">+</div>","null","","fixation","","","","","","","","","","",""
"aa-learning-trial","222","762623","0.0-11.0-2.0-1.16","3864","2","17","Male","approach_avoid_spark_v1","""event"",""trial"",""time""
""fullscreenenter"",""1"",""3654""
","
","
","""event"",""trial"",""time""
""fullscreenenter"",""1"",""3654""
","
","","","","","","947.2999999998137","images/bed1.png","","","learning","6","6","1","1","bed","furniture","1","1","","good","[5]"
"html-keyboard-response","223","763134","0.0-11.0-2.0-0.17","3864","2","17","Male","approach_avoid_spark_v1","""event"",""trial"",""time""
""fullscreenenter"",""1"",""3654""
","
","
","""event"",""trial"",""time""
""fullscreenenter"",""1"",""3654""
","
","","","","","","null","<div style=""font-size:60px;"">+</div>","null","","fixation","","","","","","","","","","",""
"aa-learning-trial","224","766151","0.0-11.0-2.0-1.17","3864","2","17","Male","approach_avoid_spark_v1","""event"",""trial"",""time""
""fullscreenenter"",""1"",""3654""
","
","
","""event"",""trial"",""time""
""fullscreenenter"",""1"",""3654""
","
","","","","","","579.2999999998137","images/bed5.png","","","learning","3","3","1","1","bed","furniture","1","1","","good","[5]"
"html-keyboard-response","225","766662","0.0-11.0-2.0-0.18","3864","2","17","Male","approach_avoid_spark_v1","""event"",""trial"",""time""
""fullscreenenter"",""1"",""3654""
","
","
","""event"",""trial"",""time""
""fullscreenenter"",""1"",""3654""
","
","","","","","","null","<div style=""font-size:60px;"">+</div>","null","","fixation","","","","","","","","","","",""
"aa-learning-trial","226","769679","0.0-11.0-2.0-1.18","3864","2","17","Male","approach_avoid_spark_v1","""event"",""trial"",""time""
""fullscreenenter"",""1"",""3654""
","
","
","""event"",""trial"",""time""
""fullscreenenter"",""1"",""3654""
","
","","","","","","1482.8999999999069","images/table7.png","","","learning","1","0","0","0","table","furniture","1","1","","neutral","0"
"html-keyboard-response","227","770190","0.0-11.0-2.0-0.19","3864","2","17","Male","approach_avoid_spark_v1","""event"",""trial"",""time""
""fullscreenenter"",""1"",""3654""
","
","
","""event"",""trial"",""time""
""fullscreenenter"",""1"",""3654""
","
","","","","","","null","<div style=""font-size:60px;"">+</div>","null","","fixation","","","","","","","","","","",""
"aa-learning-trial","228","773207","0.0-11.0-2.0-1.19","3864","2","17","Male","approach_avoid_spark_v1","""event"",""trial"",""time""
""fullscreenenter"",""1"",""3654""
","
","
","""event"",""trial"",""time""
""fullscreenenter"",""1"",""3654""
","
","","","","","","1453.2999999998137","images/chair6.png","","","learning","-6","0","0","0","chair","furniture","1","1","","bad","[-5]"
"html-keyboard-response","229","773718","0.0-11.0-2.0-0.20","3864","2","17","Male","approach_avoid_spark_v1","""event"",""trial"",""time""
""fullscreenenter"",""1"",""3654""
","
","
","""event"",""trial"",""time""
""fullscreenenter"",""1"",""3654""
","
","","","","","","null","<div style=""font-size:60px;"">+</div>","null","","fixation","","","","","","","","","","",""
"aa-learning-trial","230","776731","0.0-11.0-2.0-1.20","3864","2","17","Male","approach_avoid_spark_v1","""event"",""trial"",""time""
""fullscreenenter"",""1"",""3654""
","
","
","""event"",""trial"",""time""
""fullscreenenter"",""1"",""3654""
","
","","","","","","1429.3999999999069","images/table4.png","","","learning","[1]","1","1","1","table","furniture","1","1","","neutral","0"
"html-keyboard-response","231","777238","0.0-11.0-2.0-0.21","3864","2","17","Male","approach_avoid_spark_v1","""event"",""trial"",""time""
""fullscreenenter"",""1"",""3654""
","
","
","""event"",""trial"",""time""
""fullscreenenter"",""1"",""3654""
","
","","","","","","null","<div style=""font-size:60px;"">+</div>","null","","fixation","","","","","","","","","","",""
"aa-learning-trial","232","780255","0.0-11.0-2.0-1.21","3864","2","17","Male","approach_avoid_spark_v1","""event"",""trial"",""time""
""fullscreenenter"",""1"",""3654""
","
","
","""event"",""trial"",""time""
""fullscreenenter"",""1"",""3654""
","
","","","","","","1145.6000000000931","images/table7.png","","","learning","2","2","1","1","table","furniture","1","1","","neutral","0"
"html-keyboard-response","233","780766","0.0-11.0-2.0-0.22","3864","2","17","Male","approach_avoid_spark_v1","""event"",""trial"",""time""
""fullscreenenter"",""1"",""3654""
","
","
","""event"",""trial"",""time""
""fullscreenenter"",""1"",""3654""
","
","","","","","","null","<div style=""font-size:60px;"">+</div>","null","","fixation","","","","","","","","","","",""
"aa-learning-trial","234","783784","0.0-11.0-2.0-1.22","3864","2","17","Male","approach_avoid_spark_v1","""event"",""trial"",""time""
""fullscreenenter"",""1"",""3654""
","
","
","""event"",""trial"",""time""
""fullscreenenter"",""1"",""3654""
","
","","","","","","613.7999999998137","images/bed5.png","","","learning","3","3","1","1","bed","furniture","1","1","","good","[5]"
"html-keyboard-response","235","784294","0.0-11.0-2.0-0.23","3864","2","17","Male","approach_avoid_spark_v1","""event"",""trial"",""time""
""fullscreenenter"",""1"",""3654""
","
","
","""event"",""trial"",""time""
""fullscreenenter"",""1"",""3654""
","
","","","","","","null","<div style=""font-size:60px;"">+</div>","null","","fixation","","","","","","","","","","",""
"aa-learning-trial","236","787312","0.0-11.0-2.0-1.23","3864","2","17","Male","approach_avoid_spark_v1","""event"",""trial"",""time""
""fullscreenenter"",""1"",""3654""
","
","
","""event"",""trial"",""time""
""fullscreenenter"",""1"",""3654""
","
