"trial_type","trial_index","time_elapsed","internal_node_id","subject_id","task_condition","age","gender","task_version","interactions","blur_events","focus_events","fullscreenenter_events","fullscreenexit_events","success","timeout","failed_images","failed_audio","failed_video","rt","stimulus","response","button_pressed","task_part","approach_reward","points","key_press","option_selected","stim_cat","task_block","block_condition","block_number","correct","cat_type","mean_cat_reward"
"pavlovia","0","5","0.0-0.0","6461","1","18","Male","approach_avoid_spark_v1","""event"",""trial"",""time""
""fullscreenenter"",""1"",""3866""
","
","
","""event"",""trial"",""time""
""fullscreenenter"",""1"",""3866""
","
","","","","","","","","","","","","","","","","","","","","",""
"fullscreen","1","4828","0.0-1.0","6461","1","18","Male","approach_avoid_spark_v1","""event"",""trial"",""time""
""fullscreenenter"",""1"",""3866""
","
","
","""event"",""trial"",""time""
""fullscreenenter"",""1"",""3866""
","
","true","","","","","","","","","","","","","","","","","","","",""
"preload","2","15803","0.0-2.0","6461","1","18","Male","approach_avoid_spark_v1","""event"",""trial"",""time""
""fullscreenenter"",""1"",""3866""
","
","
","""event"",""trial"",""time""
""fullscreenenter"",""1"",""3866""
","
","true","false","[]","[]","[]","","","","","","","","","","","","","","","",""
"audio-keyboard-response","3","18445","0.0-3.0","6461","1","18","Male","approach_avoid_spark_v1","""event"",""trial"",""time""
""fullscreenenter"",""1"",""3866""
","
","
","""event"",""trial"",""time""
""fullscreenenter"",""1"",""3866""
","
","","","","","","0","audio/beep_loop.wav"," ","","","","","","","","","","","","",""
"audio-button-response","4","21293","0.0-4.0","6461","1","18","Male","approach_avoid_spark_v1","""event"",""trial"",""time""
""fullscreenenter"",""1"",""3866""
","
","
","""event"",""trial"",""time""
""fullscreenenter"",""1"",""3866""
","
","","","","","","2669","audio/shark.wav","4","","","","","","","","","","","","",""
"audio-button-response","5","23760","0.0-5.0","6461","1","18","Male","approach_avoid_spark_v1","""event"",""trial"",""time""
""fullscreenenter"",""1"",""3866""
","
","
","""event"",""trial"",""time""
""fullscreenenter"",""1"",""3866""
","
","","","","","","1463","audio/turtle.wav","1","","","","","","","","","","","","",""
"preload","6","28798","0.0-6.0","6461","1","18","Male","approach_avoid_spark_v1","""event"",""trial"",""time""
""fullscreenenter"",""1"",""3866""
","
","
","""event"",""trial"",""time""
""fullscreenenter"",""1"",""3866""
","
","true","false","[]","[]","[]","","","","","","","","","","","","","","","",""
"html-keyboard-response","7","30448","0.0-7.0","6461","1","18","Male","approach_avoid_spark_v1","""event"",""trial"",""time""
""fullscreenenter"",""1"",""3866""
","
","
","""event"",""trial"",""time""
""fullscreenenter"",""1"",""3866""
","
","","","","","","1648.9999999999964","Welcome to the experiment. Press any key to begin and to advance the instructions."," ","","","","","","","","","","","","",""
"learning-instructions","8","39375","0.0-8.0-0.0-0.0","6461","1","18","Male","approach_avoid_spark_v1","""event"",""trial"",""time""
""fullscreenenter"",""1"",""3866""
","
","
","""event"",""trial"",""time""
""fullscreenenter"",""1"",""3866""
","
","","","","","","1968","<p> Welcome! Today you are going to play 6 different rounds of a decision-making game. </p><p> Use the mouse to click next to continue. </p>","","0","instructions","","","","","","","","","","",""
"learning-instructions","9","42991","0.0-8.0-0.0-0.1","6461","1","18","Male","approach_avoid_spark_v1","""event"",""trial"",""time""
""fullscreenenter"",""1"",""3866""
","
","
","""event"",""trial"",""time""
""fullscreenenter"",""1"",""3866""
","
","","","","","","887","<p> You will start with a practice round to learn the rules. </p>","","0","instructions","","","","","","","","","","",""
"learning-instructions","10","47207","0.0-8.0-0.0-0.2","6461","1","18","Male","approach_avoid_spark_v1","""event"",""trial"",""time""
""fullscreenenter"",""1"",""3866""
","
","
","""event"",""trial"",""time""
""fullscreenenter"",""1"",""3866""
","
","","","","","","770.0000000000073","<p> Your goal in this round is to give out sports equipment to kids. </p></div>","","0","instructions","","","","","","","","","","",""
"learning-instructions","11","55556","0.0-8.0-0.0-0.3","6461","1","18","Male","approach_avoid_spark_v1","""event"",""trial"",""time""
""fullscreenenter"",""1"",""3866""
","
","
","""event"",""trial"",""time""
""fullscreenenter"",""1"",""3866""
","
","","","","","","802","<p> The kids only like some of the equipment.  </p><p> On each turn, you will see a piece of sports equipment.   </p><p> You need to decide whether to give it to the kids or not.  </p>","","0","instructions","","","","","","","","","","",""
"learning-instructions","12","61274","0.0-8.0-0.0-0.4","6461","1","18","Male","approach_avoid_spark_v1","""event"",""trial"",""time""
""fullscreenenter"",""1"",""3866""
","
","
","""event"",""trial"",""time""
""fullscreenenter"",""1"",""3866""
","
","","","","","","970","<p> You can give them the equipment by pressing 1 and choose not to give it to them by pressing 0. </p><br><div class=""choice-instructions-grid""> <div class=""choice-option""><img src=""images/approach.png"" class=""choice-option-img"" stage=""instructions"" position=""0"" ><div class=""choice-option-text""> Press ""1."" </div></div><div class=""choice-option""><img src=""images/avoid.png"" class=""choice-option-img"" stage=""instructions"" position=""1"" ><div class=""choice-option-text""> Press ""0."" </div></div>","","0","instructions","","","","","","","","","","",""
"learning-instructions","13","69488","0.0-8.0-0.0-0.5","6461","1","18","Male","approach_avoid_spark_v1","""event"",""trial"",""time""
""fullscreenenter"",""1"",""3866""
","
","
","""event"",""trial"",""time""
""fullscreenenter"",""1"",""3866""
","
","","","","","","831.0000000000146","<p> If you give them a piece of equipment they like, they will be happy! </p><p> But if you give them a piece of equipment they do not like, they will be sad. </p>","","0","instructions","","","","","","","","","","",""
"learning-instructions","14","80623","0.0-8.0-0.0-0.6","6461","1","18","Male","approach_avoid_spark_v1","""event"",""trial"",""time""
""fullscreenenter"",""1"",""3866""
","
","
","""event"",""trial"",""time""
""fullscreenenter"",""1"",""3866""
","
","","","","","","629.0000000000146","<p> You will earn points based on how you make kids feel. </p><p> If you make them happy, you will WIN anywhere from 1 - 9 points, </p><p> but if you make them sad, you will LOSE anywhere from 1 - 9 points. </p>","","0","instructions","","","","","","","","","","",""
"learning-instructions","15","92770","0.0-8.0-0.0-0.7","6461","1","18","Male","approach_avoid_spark_v1","""event"",""trial"",""time""
""fullscreenenter"",""1"",""3866""
","
","
","""event"",""trial"",""time""
""fullscreenenter"",""1"",""3866""
","
","","","","","","2593","<p> You will see how many points you won or lost in the center of the screen. </p><p> Here is what you would see if you won 6 points: </p><p style=""color:green;font-size:50px;font-weight:bolder"">6</p><p style=""color:green"">The text is GREEN because you WON points.</p>","","0","instructions","","","","","","","","","","",""
"learning-instructions","16","99438","0.0-8.0-0.0-0.8","6461","1","18","Male","approach_avoid_spark_v1","""event"",""trial"",""time""
""fullscreenenter"",""1"",""3866""
","
","
","""event"",""trial"",""time""
""fullscreenenter"",""1"",""3866""
","
","","","","","","1165","<p> And here is what you would see if you lost 4 points: </p><p style=""color:red;font-size:50px;font-weight:bolder"">-4</p><p style=""color:red"">The text is RED because you LOST points. </p>","","0","instructions","","","","","","","","","","",""
"learning-instructions","17","114824","0.0-8.0-0.0-0.9","6461","1","18","Male","approach_avoid_spark_v1","""event"",""trial"",""time""
""fullscreenenter"",""1"",""3866""
","
","
","""event"",""trial"",""time""
""fullscreenenter"",""1"",""3866""
","
","","","","","","675.9999999999854","<p> Some of the equipment will make the kids VERY happy or sad. </p><p> These pieces of equipment will make you win or lose LOTS of points. </p><p> Other pieces of equipment will only make the kids a little happy or sad. </p><p> These pieces of equipment will make you win or lose small amounts of points. </p>","","0","instructions","","","","","","","","","","",""
"learning-instructions","18","127053","0.0-8.0-0.0-0.10","6461","1","18","Male","approach_avoid_spark_v1","""event"",""trial"",""time""
""fullscreenenter"",""1"",""3866""
","
","
","""event"",""trial"",""time""
""fullscreenenter"",""1"",""3866""
","
","","","","","","1606","<p> If you choose not to give them the equipment, you will not win or lose any points. </p><p>  However, in the center of the screen, you will see the number of points you WOULD HAVE won or lost if you had given them the equipment. </p>","","0","instructions","","","","","","","","","","",""
"learning-instructions","19","150452","0.0-8.0-0.0-0.11","6461","1","18","Male","approach_avoid_spark_v1","""event"",""trial"",""time""
""fullscreenenter"",""1"",""3866""
","
","
","""event"",""trial"",""time""
""fullscreenenter"",""1"",""3866""
","
","","","","","","1875","<p> Here is what you might see if you did not give the equipment to the kids but it would have made them happy: </p><p style=""color:grey; font-size:50px; display: inline-block; border-spacing: 15px; border-width:3px; border-style:solid; border-color:red"">  &nbsp; 7 &nbsp; </p><p> Remember, in this case, you would not win or lose ANY points because you did not give them the equipment.  </p><p style=""color:grey"">The text is GREY because you earned ZERO points. </p><p style=""color:red"">However, choosing to give the kids the equipment would have made you win points. The box around the text is RED because you chose the worse option. </p>","","0","instructions","","","","","","","","","","",""
"learning-instructions","20","173385","0.0-8.0-0.0-0.12","6461","1","18","Male","approach_avoid_spark_v1","""event"",""trial"",""time""
""fullscreenenter"",""1"",""3866""
","
","
","""event"",""trial"",""time""
""fullscreenenter"",""1"",""3866""
","
","","","","","","1863","<p> Here is what you might see if you did not give the equipment to the kids but it would have made them sad: </p><p style=""color:grey;font-size:50px; display: inline-block; border-spacing: 15px; border-width:3px; border-style:solid; border-color:green"">  &nbsp; -8 &nbsp; </p><p> Remember, in this case, you would not win or lose ANY points because you did not give them the equipment.  </p><p style=""color:grey"">The text is GREY because you earned ZERO points. </p><p  style=""color:green""> Choosing to give the kids the equipment would have made you lose points. The box around the text is GREEN because you chose the better option.</p>","","0","instructions","","","","","","","","","","",""
"learning-instructions","21","184550","0.0-8.0-0.0-0.13","6461","1","18","Male","approach_avoid_spark_v1","""event"",""trial"",""time""
""fullscreenenter"",""1"",""3866""
","
","
","""event"",""trial"",""time""
""fullscreenenter"",""1"",""3866""
","
","","","","","","2359","<p> You will have 3 seconds to make each choice. Try to respond before time runs out! </p><p> You will lose 5 points each time you do not make a response. </p>","","0","instructions","","","","","","","","","","",""
"learning-instructions","22","191582","0.0-8.0-0.0-0.14","6461","1","18","Male","approach_avoid_spark_v1","""event"",""trial"",""time""
""fullscreenenter"",""1"",""3866""
","
","
","""event"",""trial"",""time""
""fullscreenenter"",""1"",""3866""
","
","","","","","","1623.000000000029","<p> This is just a practice round, but in the real game, your bonus payment will depend on your total number of points.","","0","instructions","","","","","","","","","","",""
"learning-instructions","23","197832","0.0-8.0-0.0-0.15","6461","1","18","Male","approach_avoid_spark_v1","""event"",""trial"",""time""
""fullscreenenter"",""1"",""3866""
","
","
","""event"",""trial"",""time""
""fullscreenenter"",""1"",""3866""
","
","","","","","","492","<p> Remember, you can give them the equipment by pressing 1 and choose not to give it to them by pressing 0. </p><br><div class=""choice-instructions-grid""> <div class=""choice-option""><img src=""images/approach.png"" class=""choice-option-img"" stage=""instructions"" position=""0"" ><div class=""choice-option-text""> Press ""1."" </div></div><div class=""choice-option""><img src=""images/avoid.png"" class=""choice-option-img"" stage=""instructions"" position=""1"" ><div class=""choice-option-text""> Press ""0."" </div></div>","","0","instructions","","","","","","","","","","",""
"html-button-response","24","200167","0.0-8.0-1.0","6461","1","18","Male","approach_avoid_spark_v1","""event"",""trial"",""time""
""fullscreenenter"",""1"",""3866""
","
","
","""event"",""trial"",""time""
""fullscreenenter"",""1"",""3866""
","
","","","","","","2230","<p> Ready to practice? </p>","0","","","","","","","","","","","","",""
"html-keyboard-response","25","200771","0.0-8.0-2.0-0.0","6461","1","18","Male","approach_avoid_spark_v1","""event"",""trial"",""time""
""fullscreenenter"",""1"",""3866""
","
","
","""event"",""trial"",""time""
""fullscreenenter"",""1"",""3866""
","
","","","","","","null","<div style=""font-size:60px;"">+</div>","null","","fixation","","","","","","","","","","",""
"aa-learning-trial","26","203777","0.0-8.0-2.0-1.0","6461","1","18","Male","approach_avoid_spark_v1","""event"",""trial"",""time""
""fullscreenenter"",""1"",""3866""
","
","
","""event"",""trial"",""time""
""fullscreenenter"",""1"",""3866""
","
","","","","","","1973","images/ball4.png","","","learning","4","4","1","1","practice","practice","practice","-1","","",""
"html-keyboard-response","27","204279","0.0-8.0-2.0-0.1","6461","1","18","Male","approach_avoid_spark_v1","""event"",""trial"",""time""
""fullscreenenter"",""1"",""3866""
","
","
","""event"",""trial"",""time""
""fullscreenenter"",""1"",""3866""
","
","","","","","","null","<div style=""font-size:60px;"">+</div>","null","","fixation","","","","","","","","","","",""
"aa-learning-trial","28","207283","0.0-8.0-2.0-1.1","6461","1","18","Male","approach_avoid_spark_v1","""event"",""trial"",""time""
""fullscreenenter"",""1"",""3866""
","
","
","""event"",""trial"",""time""
""fullscreenenter"",""1"",""3866""
","
","","","","","","2056.000000000029","images/racket4.png","","","learning","-7","-7","1","1","practice","practice","practice","-1","","",""
"html-keyboard-response","29","207807","0.0-8.0-2.0-0.2","6461","1","18","Male","approach_avoid_spark_v1","""event"",""trial"",""time""
""fullscreenenter"",""1"",""3866""
","
","
","""event"",""trial"",""time""
""fullscreenenter"",""1"",""3866""
","
","","","","","","null","<div style=""font-size:60px;"">+</div>","null","","fixation","","","","","","","","","","",""
"aa-learning-trial","30","210838","0.0-8.0-2.0-1.2","6461","1","18","Male","approach_avoid_spark_v1","""event"",""trial"",""time""
""fullscreenenter"",""1"",""3866""
","
","
","""event"",""trial"",""time""
""fullscreenenter"",""1"",""3866""
","
","","","","","","1380","images/ball4.png","","","learning","-6","-5","2","","practice","practice","practice","-1","","",""
"html-keyboard-response","31","211347","0.0-8.0-2.0-0.3","6461","1","18","Male","approach_avoid_spark_v1","""event"",""trial"",""time""
""fullscreenenter"",""1"",""3866""
","
","
","""event"",""trial"",""time""
""fullscreenenter"",""1"",""3866""
","
","","","","","","null","<div style=""font-size:60px;"">+</div>","null","","fixation","","","","","","","","","","",""
"aa-learning-trial","32","214378","0.0-8.0-2.0-1.3","6461","1","18","Male","approach_avoid_spark_v1","""event"",""trial"",""time""
""fullscreenenter"",""1"",""3866""
","
","
","""event"",""trial"",""time""
""fullscreenenter"",""1"",""3866""
","
","","","","","","1088","images/ball3.png","","","learning","-2","-2","1","1","practice","practice","practice","-1","","",""
"html-keyboard-response","33","214887","0.0-8.0-2.0-0.4","6461","1","18","Male","approach_avoid_spark_v1","""event"",""trial"",""time""
""fullscreenenter"",""1"",""3866""
","
","
","""event"",""trial"",""time""
""fullscreenenter"",""1"",""3866""
","
","","","","","","null","<div style=""font-size:60px;"">+</div>","null","","fixation","","","","","","","","","","",""
"aa-learning-trial","34","217917","0.0-8.0-2.0-1.4","6461","1","18","Male","approach_avoid_spark_v1","""event"",""trial"",""time""
""fullscreenenter"",""1"",""3866""
","
","
","""event"",""trial"",""time""
""fullscreenenter"",""1"",""3866""
","
","","","","","","null","images/ball3.png","","","learning","3","-5","","null","practice","practice","practice","-1","","",""
"html-keyboard-response","35","218427","0.0-8.0-2.0-0.5","6461","1","18","Male","approach_avoid_spark_v1","""event"",""trial"",""time""
""fullscreenenter"",""1"",""3866""
","
","
","""event"",""trial"",""time""
""fullscreenenter"",""1"",""3866""
","
","","","","","","null","<div style=""font-size:60px;"">+</div>","null","","fixation","","","","","","","","","","",""
"aa-learning-trial","36","221457","0.0-8.0-2.0-1.5","6461","1","18","Male","approach_avoid_spark_v1","""event"",""trial"",""time""
""fullscreenenter"",""1"",""3866""
","
","
","""event"",""trial"",""time""
""fullscreenenter"",""1"",""3866""
","
","","","","","","2046","images/ball4.png","","","learning","1","0","0","0","practice","practice","practice","-1","","",""
"html-keyboard-response","37","221967","0.0-8.0-2.0-0.6","6461","1","18","Male","approach_avoid_spark_v1","""event"",""trial"",""time""
""fullscreenenter"",""1"",""3866""
","
","
","""event"",""trial"",""time""
""fullscreenenter"",""1"",""3866""
","
","","","","","","null","<div style=""font-size:60px;"">+</div>","null","","fixation","","","","","","","","","","",""
"aa-learning-trial","38","224997","0.0-8.0-2.0-1.6","6461","1","18","Male","approach_avoid_spark_v1","""event"",""trial"",""time""
""fullscreenenter"",""1"",""3866""
","
","
","""event"",""trial"",""time""
""fullscreenenter"",""1"",""3866""
","
","","","","","","742","images/ball4.png","","","learning","-7","-7","1","1","practice","practice","practice","-1","","",""
"html-keyboard-response","39","225506","0.0-8.0-2.0-0.7","6461","1","18","Male","approach_avoid_spark_v1","""event"",""trial"",""time""
""fullscreenenter"",""1"",""3866""
","
","
","""event"",""trial"",""time""
""fullscreenenter"",""1"",""3866""
","
","","","","","","null","<div style=""font-size:60px;"">+</div>","null","","fixation","","","","","","","","","","",""
"aa-learning-trial","40","228537","0.0-8.0-2.0-1.7","6461","1","18","Male","approach_avoid_spark_v1","""event"",""trial"",""time""
""fullscreenenter"",""1"",""3866""
","
","
","""event"",""trial"",""time""
""fullscreenenter"",""1"",""3866""
","
","","","","","","771","images/ball3.png","","","learning","1","0","0","0","practice","practice","practice","-1","","",""
"html-keyboard-response","41","229047","0.0-8.0-2.0-0.8","6461","1","18","Male","approach_avoid_spark_v1","""event"",""trial"",""time""
""fullscreenenter"",""1"",""3866""
","
","
","""event"",""trial"",""time""
""fullscreenenter"",""1"",""3866""
","
","","","","","","null","<div style=""font-size:60px;"">+</div>","null","","fixation","","","","","","","","","","",""
"aa-learning-trial","42","232078","0.0-8.0-2.0-1.8","6461","1","18","Male","approach_avoid_spark_v1","""event"",""trial"",""time""
""fullscreenenter"",""1"",""3866""
","
","
","""event"",""trial"",""time""
""fullscreenenter"",""1"",""3866""
","
","","","","","","1016","images/ball4.png","","","learning","-1","-1","1","1","practice","practice","practice","-1","","",""
"html-keyboard-response","43","232587","0.0-8.0-2.0-0.9","6461","1","18","Male","approach_avoid_spark_v1","""event"",""trial"",""time""
""fullscreenenter"",""1"",""3866""
","
","
","""event"",""trial"",""time""
""fullscreenenter"",""1"",""3866""
","
","","","","","","null","<div style=""font-size:60px;"">+</div>","null","","fixation","","","","","","","","","","",""
"aa-learning-trial","44","235618","0.0-8.0-2.0-1.9","6461","1","18","Male","approach_avoid_spark_v1","""event"",""trial"",""time""
""fullscreenenter"",""1"",""3866""
","
","
","""event"",""trial"",""time""
""fullscreenenter"",""1"",""3866""
","
","","","","","","991","images/racket1.png","","","learning","-4","-4","1","1","practice","practice","practice","-1","","",""
"html-keyboard-response","45","236127","0.0-8.0-2.0-0.10","6461","1","18","Male","approach_avoid_spark_v1","""event"",""trial"",""time""
""fullscreenenter"",""1"",""3866""
","
","
","""event"",""trial"",""time""
""fullscreenenter"",""1"",""3866""
","
","","","","","","null","<div style=""font-size:60px;"">+</div>","null","","fixation","","","","","","","","","","",""
"aa-learning-trial","46","239157","0.0-8.0-2.0-1.10","6461","1","18","Male","approach_avoid_spark_v1","""event"",""trial"",""time""
""fullscreenenter"",""1"",""3866""
","
","
","""event"",""trial"",""time""
""fullscreenenter"",""1"",""3866""
","
","","","","","","426.9999999999709","images/racket1.png","","","learning","-5","0","0","0","practice","practice","practice","-1","","",""
"html-keyboard-response","47","239667","0.0-8.0-2.0-0.11","6461","1","18","Male","approach_avoid_spark_v1","""event"",""trial"",""time""
""fullscreenenter"",""1"",""3866""
","
","
","""event"",""trial"",""time""
""fullscreenenter"",""1"",""3866""
","
","","","","","","null","<div style=""font-size:60px;"">+</div>","null","","fixation","","","","","","","","","","",""
"aa-learning-trial","48","242697","0.0-8.0-2.0-1.11","6461","1","18","Male","approach_avoid_spark_v1","""event"",""trial"",""time""
""fullscreenenter"",""1"",""3866""
","
","
","""event"",""trial"",""time""
""fullscreenenter"",""1"",""3866""
","
","","","","","","2304","images/racket2.png","","","learning","6","0","0","0","practice","practice","practice","-1","","",""
"html-button-response","49","245248","0.0-8.0-3.0","6461","1","18","Male","approach_avoid_spark_v1","""event"",""trial"",""time""
""fullscreenenter"",""1"",""3866""
","
","
","""event"",""trial"",""time""
""fullscreenenter"",""1"",""3866""
","
","","","","","","2548","<p> You earned -27 points in the practice round! </p>","0","","break","","","","","","","","","","",""
"learning-instructions","50","253413","0.0-8.0-4.0-0.0","6461","1","18","Male","approach_avoid_spark_v1","""event"",""trial"",""time""
""fullscreenenter"",""1"",""3866""
","
","
","""event"",""trial"",""time""
""fullscreenenter"",""1"",""3866""
","
","","","","","","2205.999999999971","<p> It's almost time to start the real game. </p><p> Before you start, we're going to ask you a few questions about how the game works. </p>","","0","instructions","","","","","","","","","","",""
"preload","51","255482","0.0-8.0-5.0","6461","1","18","Male","approach_avoid_spark_v1","""event"",""trial"",""time""
""fullscreenenter"",""1"",""3866""
","
","
","""event"",""trial"",""time""
""fullscreenenter"",""1"",""3866""
","
","true","false","[]","[]","[]","","","","","","","","","","","","","","","",""
"comp-q","52","261798","0.0-8.0-6.0-0.0","6461","1","18","Male","approach_avoid_spark_v1","""event"",""trial"",""time""
""fullscreenenter"",""1"",""3866""
","
","
","""event"",""trial"",""time""
""fullscreenenter"",""1"",""3866""
","
","","","","","","1319.9999999999418","<p> <b> True or False? </b> </p><p> If you see a number in GREY, that means you earned that many points. </p>","","1","comp_question","","","","","","","","","true","",""
"comp-q","53","271795","0.0-8.0-6.0-1.0","6461","1","18","Male","approach_avoid_spark_v1","""event"",""trial"",""time""
""fullscreenenter"",""1"",""3866""
","
","
","""event"",""trial"",""time""
""fullscreenenter"",""1"",""3866""
","
","","","","","","1637","<p><b> That's right! </b> If you see a grey number, it means you earned ZERO points. <br> The grey numbers show the points you WOULD HAVE earned if you had made the other choice. </p>","","0","comp_answer","","","","","","","","","","",""
"comp-q","54","277411","0.0-8.0-7.0-0.0","6461","1","18","Male","approach_avoid_spark_v1","""event"",""trial"",""time""
""fullscreenenter"",""1"",""3866""
","
","
","""event"",""trial"",""time""
""fullscreenenter"",""1"",""3866""
","
","","","","","","926","<p> <b> True or False? </b> </p><p> You will have as much time as you want to make each choice. </p>","","1","comp_question","","","","","","","","","true","",""
"comp-q","55","282444","0.0-8.0-7.0-1.0","6461","1","18","Male","approach_avoid_spark_v1","""event"",""trial"",""time""
""fullscreenenter"",""1"",""3866""
","
","
","""event"",""trial"",""time""
""fullscreenenter"",""1"",""3866""
","
","","","","","","995","<p> <b> That's right! </b> You will only have 3 seconds to make each choice. </p>","","0","comp_answer","","","","","","","","","","",""
"comp-q","56","287779","0.0-8.0-8.0-0.0","6461","1","18","Male","approach_avoid_spark_v1","""event"",""trial"",""time""
""fullscreenenter"",""1"",""3866""
","
","
","""event"",""trial"",""time""
""fullscreenenter"",""1"",""3866""
","
","","","","","","676.9999999999418","<p> <b> True or False? </b> </p><p> You should use the '1' and '0' keys to make your choices. </p>","","0","comp_question","","","","","","","","","true","",""
"comp-q","57","293928","0.0-8.0-8.0-1.0","6461","1","18","Male","approach_avoid_spark_v1","""event"",""trial"",""time""
""fullscreenenter"",""1"",""3866""
","
","
","""event"",""trial"",""time""
""fullscreenenter"",""1"",""3866""
","
","","","","","","1542.0000000000582","<p> <b> That's right! </b> You should use the '1' and '0' keys to make each choice. </p>","","0","comp_answer","","","","","","","","","","",""
"learning-instructions","58","301609","0.0-8.0-9.0-0.0","6461","1","18","Male","approach_avoid_spark_v1","""event"",""trial"",""time""
""fullscreenenter"",""1"",""3866""
","
","
","""event"",""trial"",""time""
""fullscreenenter"",""1"",""3866""
","
","","","","","","1412","<p> It's now time to start the real game. </p>Do your best, because the points you earn in the next rounds will influence your bonus payment. </p>","","0","instructions","","","","","","","","","","",""
"preload","59","301721","0.0-9.0-0.0","6461","1","18","Male","approach_avoid_spark_v1","""event"",""trial"",""time""
""fullscreenenter"",""1"",""3866""
","
","
","""event"",""trial"",""time""
""fullscreenenter"",""1"",""3866""
","
","true","false","[]","[]","[]","","","","","","","","","","","","","","","",""
"learning-instructions","60","307508","0.0-9.0-1.0-0.0","6461","1","18","Male","approach_avoid_spark_v1","""event"",""trial"",""time""
""fullscreenenter"",""1"",""3866""
","
","
","""event"",""trial"",""time""
""fullscreenenter"",""1"",""3866""
","
","","","","","","1394.9999999999418","<p> Your goal in this round is to decorate your friend's new house with furniture. </p></div>","","0","instructions","","","","","","","","","","",""
"learning-instructions","61","317791","0.0-9.0-1.0-0.1","6461","1","18","Male","approach_avoid_spark_v1","""event"",""trial"",""time""
""fullscreenenter"",""1"",""3866""
","
","
","""event"",""trial"",""time""
""fullscreenenter"",""1"",""3866""
","
","","","","","","771","<p> Your friend likes some pieces of furniture but not others.  </p><p> On each turn, you will see a piece of furniture.   </p><p> You need to decide whether to put it in your friend's house or not.  </p>","","0","instructions","","","","","","","","","","",""
"learning-instructions","62","323608","0.0-9.0-1.0-0.2","6461","1","18","Male","approach_avoid_spark_v1","""event"",""trial"",""time""
""fullscreenenter"",""1"",""3866""
","
","
","""event"",""trial"",""time""
""fullscreenenter"",""1"",""3866""
","
","","","","","","422.9999999999418","<p> You can put the furniture in her house by pressing 1 and deliver it elsewhere by pressing 0. </p><br><div class=""choice-instructions-grid""> <div class=""choice-option""><img src=""images/approach.png"" class=""choice-option-img"" stage=""instructions"" position=""0"" ><div class=""choice-option-text""> Press ""1."" </div></div><div class=""choice-option""><img src=""images/avoid.png"" class=""choice-option-img"" stage=""instructions"" position=""1"" ><div class=""choice-option-text""> Press ""0."" </div></div>","","0","instructions","","","","","","","","","","",""
"learning-instructions","63","332559","0.0-9.0-1.0-0.3","6461","1","18","Male","approach_avoid_spark_v1","""event"",""trial"",""time""
""fullscreenenter"",""1"",""3866""
","
","
","""event"",""trial"",""time""
""fullscreenenter"",""1"",""3866""
","
","","","","","","490","<p> If you decorate your friend's house with furniture she likes, she will be happy! </p><p> But if you give her furniture that she does not like, she will be annoyed. </p>","","0","instructions","","","","","","","","","","",""
"learning-instructions","64","349574","0.0-9.0-1.0-0.4","6461","1","18","Male","approach_avoid_spark_v1","""event"",""trial"",""time""
""fullscreenenter"",""1"",""3866""
","
","
","""event"",""trial"",""time""
""fullscreenenter"",""1"",""3866""
","
","","","","","","5161","<p> You will earn points based on how you made your friend feel. </p><p> If you made her happy, you will WIN anywhere from 1 - 9 points, </p><p> but if you made her annoyed you will LOSE anywhere from 1 - 9 points. </p>","","0","instructions","","","","","","","","","","",""
"learning-instructions","65","358639","0.0-9.0-1.0-0.5","6461","1","18","Male","approach_avoid_spark_v1","""event"",""trial"",""time""
""fullscreenenter"",""1"",""3866""
","
","
","""event"",""trial"",""time""
""fullscreenenter"",""1"",""3866""
","
","","","","","","1444","<p> You will see how many points you won or lost in the center of the screen. </p><p> Here is what you would see if you won 5 points: </p><p style=""color:green;font-size:50px;font-weight:bolder"">5</p>","","0","instructions","","","","","","","","","","",""
"learning-instructions","66","363424","0.0-9.0-1.0-0.6","6461","1","18","Male","approach_avoid_spark_v1","""event"",""trial"",""time""
""fullscreenenter"",""1"",""3866""
","
","
","""event"",""trial"",""time""
""fullscreenenter"",""1"",""3866""
","
","","","","","","1025.9999999999418","<p> And here is what you would see if you lost 3 points: </p><p style=""color:red;font-size:50px;font-weight:bolder"">-3</p>","","0","instructions","","","","","","","","","","",""
"learning-instructions","67","380956","0.0-9.0-1.0-0.7","6461","1","18","Male","approach_avoid_spark_v1","""event"",""trial"",""time""
""fullscreenenter"",""1"",""3866""
","
","
","""event"",""trial"",""time""
""fullscreenenter"",""1"",""3866""
","
","","","","","","505","<p> Some pieces of furniture will make her feel very happy or very annoyed. </p><p> These pieces of furniture will make you win or lose LOTS of points. </p><p> Other pieces of furniture will only make her feel a little happy or a little annoyed. </p><p> These pieces of furniture will make you win or lose small amounts of points. </p>","","0","instructions","","","","","","","","","","",""
"learning-instructions","68","395254","0.0-9.0-1.0-0.8","6461","1","18","Male","approach_avoid_spark_v1","""event"",""trial"",""time""
""fullscreenenter"",""1"",""3866""
","
","
","""event"",""trial"",""time""
""fullscreenenter"",""1"",""3866""
","
","","","","","","1631","<p> If you choose to deliver a piece of furniture elsewhere, you will not win or lose any points. </p><p>  However, in the center of the screen, you will see the number of points you WOULD HAVE won or lost if you had given the furniture to your friend. </p>","","0","instructions","","","","","","","","","","",""
"learning-instructions","69","410004","0.0-9.0-1.0-0.9","6461","1","18","Male","approach_avoid_spark_v1","""event"",""trial"",""time""
""fullscreenenter"",""1"",""3866""
","
","
","""event"",""trial"",""time""
""fullscreenenter"",""1"",""3866""
","
","","","","","","3567","<p> Here is what you might see if you did not give a piece of furniture to your friend that would have made her happy: </p><p style=""color:grey; font-size:50px; display: inline-block; border-spacing: 15px; border-width:3px; border-style:solid; border-color:red"">  &nbsp; 6 &nbsp; </p><p> Remember, in this case, you would not win or lose ANY points because you did not give her the furniture.  </p>","","0","instructions","","","","","","","","","","",""
"learning-instructions","70","418671","0.0-9.0-1.0-0.10","6461","1","18","Male","approach_avoid_spark_v1","""event"",""trial"",""time""
""fullscreenenter"",""1"",""3866""
","
","
","""event"",""trial"",""time""
""fullscreenenter"",""1"",""3866""
","
","","","","","","1308.0000000000582","<p> Try to make the best choice for each piece of furniture because </p><p> at the end of the game, you will earn bonus money based on how many points you earned. </p>","","0","instructions","","","","","","","","","","",""
"learning-instructions","71","427604","0.0-9.0-1.0-0.11","6461","1","18","Male","approach_avoid_spark_v1","""event"",""trial"",""time""
""fullscreenenter"",""1"",""3866""
","
","
","""event"",""trial"",""time""
""fullscreenenter"",""1"",""3866""
","
","","","","","","747","<p> You will have 3 seconds to make each choice. Try to respond before time runs out! </p><p> You will lose 5 points each time you do not make a response. </p>","","0","instructions","","","","","","","","","","",""
"html-keyboard-response","72","428208","0.0-9.0-2.0-0.0","6461","1","18","Male","approach_avoid_spark_v1","""event"",""trial"",""time""
""fullscreenenter"",""1"",""3866""
","
","
","""event"",""trial"",""time""
""fullscreenenter"",""1"",""3866""
","
","","","","","","null","<div style=""font-size:60px;"">+</div>","null","","fixation","","","","","","","","","","",""
"aa-learning-trial","73","431212","0.0-9.0-2.0-1.0","6461","1","18","Male","approach_avoid_spark_v1","""event"",""trial"",""time""
""fullscreenenter"",""1"",""3866""
","
","
","""event"",""trial"",""time""
""fullscreenenter"",""1"",""3866""
","
","","","","","","1935","images/table6.png","","","learning","-3","-3","1","1","table","furniture","1","0","","bad","[-4]"
"html-keyboard-response","74","431714","0.0-9.0-2.0-0.1","6461","1","18","Male","approach_avoid_spark_v1","""event"",""trial"",""time""
""fullscreenenter"",""1"",""3866""
","
","
","""event"",""trial"",""time""
""fullscreenenter"",""1"",""3866""
","
","","","","","","null","<div style=""font-size:60px;"">+</div>","null","","fixation","","","","","","","","","","",""
"aa-learning-trial","75","434718","0.0-9.0-2.0-1.1","6461","1","18","Male","approach_avoid_spark_v1","""event"",""trial"",""time""
""fullscreenenter"",""1"",""3866""
","
","
","""event"",""trial"",""time""
""fullscreenenter"",""1"",""3866""
","
","","","","","","1324","images/bed8.png","","","learning","3","-5","2","","bed","furniture","1","0","","good","[6]"
"html-keyboard-response","76","435233","0.0-9.0-2.0-0.2","6461","1","18","Male","approach_avoid_spark_v1","""event"",""trial"",""time""
""fullscreenenter"",""1"",""3866""
","
","
","""event"",""trial"",""time""
""fullscreenenter"",""1"",""3866""
","
","","","","","","null","<div style=""font-size:60px;"">+</div>","null","","fixation","","","","","","","","","","",""
"aa-learning-trial","77","438263","0.0-9.0-2.0-1.2","6461","1","18","Male","approach_avoid_spark_v1","""event"",""trial"",""time""
""fullscreenenter"",""1"",""3866""
","
","
","""event"",""trial"",""time""
""fullscreenenter"",""1"",""3866""
","
","","","","","","1121.9999999999418","images/sofa3.png","","","learning","1","1","1","1","sofa","furniture","1","0","","neutral","0"
"html-keyboard-response","78","438772","0.0-9.0-2.0-0.3","6461","1","18","Male","approach_avoid_spark_v1","""event"",""trial"",""time""
""fullscreenenter"",""1"",""3866""
","
","
","""event"",""trial"",""time""
""fullscreenenter"",""1"",""3866""
","
","","","","","","null","<div style=""font-size:60px;"">+</div>","null","","fixation","","","","","","","","","","",""
"aa-learning-trial","79","441803","0.0-9.0-2.0-1.3","6461","1","18","Male","approach_avoid_spark_v1","""event"",""trial"",""time""
""fullscreenenter"",""1"",""3866""
","
","
","""event"",""trial"",""time""
""fullscreenenter"",""1"",""3866""
","
","","","","","","1102","images/table7.png","","","learning","-3","0","0","0","table","furniture","1","0","","bad","[-4]"
"html-keyboard-response","80","442312","0.0-9.0-2.0-0.4","6461","1","18","Male","approach_avoid_spark_v1","""event"",""trial"",""time""
""fullscreenenter"",""1"",""3866""
","
","
","""event"",""trial"",""time""
""fullscreenenter"",""1"",""3866""
","
","","","","","","null","<div style=""font-size:60px;"">+</div>","null","","fixation","","","","","","","","","","",""
"aa-learning-trial","81","445343","0.0-9.0-2.0-1.4","6461","1","18","Male","approach_avoid_spark_v1","""event"",""trial"",""time""
""fullscreenenter"",""1"",""3866""
","
","
","""event"",""trial"",""time""
""fullscreenenter"",""1"",""3866""
","
","","","","","","961","images/bed8.png","","","learning","7","7","1","1","bed","furniture","1","0","","good","[6]"
"html-keyboard-response","82","445852","0.0-9.0-2.0-0.5","6461","1","18","Male","approach_avoid_spark_v1","""event"",""trial"",""time""
""fullscreenenter"",""1"",""3866""
","
","
","""event"",""trial"",""time""
""fullscreenenter"",""1"",""3866""
","
","","","","","","null","<div style=""font-size:60px;"">+</div>","null","","fixation","","","","","","","","","","",""
"aa-learning-trial","83","448883","0.0-9.0-2.0-1.5","6461","1","18","Male","approach_avoid_spark_v1","""event"",""trial"",""time""
""fullscreenenter"",""1"",""3866""
","
","
","""event"",""trial"",""time""
""fullscreenenter"",""1"",""3866""
","
","","","","","","643.0000000000582","images/bed5.png","","","learning","5","5","1","1","bed","furniture","1","0","","good","[6]"
"html-keyboard-response","84","449392","0.0-9.0-2.0-0.6","6461","1","18","Male","approach_avoid_spark_v1","""event"",""trial"",""time""
""fullscreenenter"",""1"",""3866""
","
","
","""event"",""trial"",""time""
""fullscreenenter"",""1"",""3866""
","
","","","","","","null","<div style=""font-size:60px;"">+</div>","null","","fixation","","","","","","","","","","",""
"aa-learning-trial","85","452422","0.0-9.0-2.0-1.6","6461","1","18","Male","approach_avoid_spark_v1","""event"",""trial"",""time""
""fullscreenenter"",""1"",""3866""
","
","
","""event"",""trial"",""time""
""fullscreenenter"",""1"",""3866""
","
","","","","","","519","images/sofa3.png","","","learning","-1","-1","1","1","sofa","furniture","1","0","","neutral","0"
"html-keyboard-response","86","452932","0.0-9.0-2.0-0.7","6461","1","18","Male","approach_avoid_spark_v1","""event"",""trial"",""time""
""fullscreenenter"",""1"",""3866""
","
","
","""event"",""trial"",""time""
""fullscreenenter"",""1"",""3866""
","
","","","","","","null","<div style=""font-size:60px;"">+</div>","null","","fixation","","","","","","","","","","",""
"aa-learning-trial","87","455963","0.0-9.0-2.0-1.7","6461","1","18","Male","approach_avoid_spark_v1","""event"",""trial"",""time""
""fullscreenenter"",""1"",""3866""
","
","
","""event"",""trial"",""time""
""fullscreenenter"",""1"",""3866""
","
","","","","","","501","images/bed5.png","","","learning","7","0","0","0","bed","furniture","1","0","","good","[6]"
"html-keyboard-response","88","456472","0.0-9.0-2.0-0.8","6461","1","18","Male","approach_avoid_spark_v1","""event"",""trial"",""time""
""fullscreenenter"",""1"",""3866""
","
","
","""event"",""trial"",""time""
""fullscreenenter"",""1"",""3866""
","
","","","","","","null","<div style=""font-size:60px;"">+</div>","null","","fixation","","","","","","","","","","",""
"aa-learning-trial","89","459502","0.0-9.0-2.0-1.8","6461","1","18","Male","approach_avoid_spark_v1","""event"",""trial"",""time""
""fullscreenenter"",""1"",""3866""
","
","
","""event"",""trial"",""time""
""fullscreenenter"",""1"",""3866""
","
","","","","","","445","images/bed2.png","","","learning","8","8","1","1","bed","furniture","1","0","","good","[6]"
"html-keyboard-response","90","460012","0.0-9.0-2.0-0.9","6461","1","18","Male","approach_avoid_spark_v1","""event"",""trial"",""time""
""fullscreenenter"",""1"",""3866""
","
","
","""event"",""trial"",""time""
""fullscreenenter"",""1"",""3866""
","
","","","","","","null","<div style=""font-size:60px;"">+</div>","null","","fixation","","","","","","","","","","",""
"aa-learning-trial","91","463042","0.0-9.0-2.0-1.9","6461","1","18","Male","approach_avoid_spark_v1","""event"",""trial"",""time""
""fullscreenenter"",""1"",""3866""
","
","
","""event"",""trial"",""time""
""fullscreenenter"",""1"",""3866""
","
","","","","","","1870.0000000000582","images/sofa1.png","","","learning","1","0","0","0","sofa","furniture","1","0","","neutral","0"
"html-keyboard-response","92","463552","0.0-9.0-2.0-0.10","6461","1","18","Male","approach_avoid_spark_v1","""event"",""trial"",""time""
""fullscreenenter"",""1"",""3866""
","
","
","""event"",""trial"",""time""
""fullscreenenter"",""1"",""3866""
","
","","","","","","null","<div style=""font-size:60px;"">+</div>","null","","fixation","","","","","","","","","","",""
"aa-learning-trial","93","466582","0.0-9.0-2.0-1.10","6461","1","18","Male","approach_avoid_spark_v1","""event"",""trial"",""time""
""fullscreenenter"",""1"",""3866""
","
","
","""event"",""trial"",""time""
""fullscreenenter"",""1"",""3866""
","
","","","","","","1902","images/table1.png","","","learning","-4","-4","1","1","table","furniture","1","0","","bad","[-4]"
"html-keyboard-response","94","467092","0.0-9.0-2.0-0.11","6461","1","18","Male","approach_avoid_spark_v1","""event"",""trial"",""time""
""fullscreenenter"",""1"",""3866""
","
","
","""event"",""trial"",""time""
""fullscreenenter"",""1"",""3866""
","
","","","","","","null","<div style=""font-size:60px;"">+</div>","null","","fixation","","","","","","","","","","",""
"aa-learning-trial","95","470122","0.0-9.0-2.0-1.11","6461","1","18","Male","approach_avoid_spark_v1","""event"",""trial"",""time""
""fullscreenenter"",""1"",""3866""
","
","
","""event"",""trial"",""time""
""fullscreenenter"",""1"",""3866""
","
","","","","","","582","images/sofa1.png","","","learning","2","0","0","0","sofa","furniture","1","0","","neutral","0"
"html-keyboard-response","96","470632","0.0-9.0-2.0-0.12","6461","1","18","Male","approach_avoid_spark_v1","""event"",""trial"",""time""
""fullscreenenter"",""1"",""3866""
","
","
","""event"",""trial"",""time""
""fullscreenenter"",""1"",""3866""
","
","","","","","","null","<div style=""font-size:60px;"">+</div>","null","","fixation","","","","","","","","","","",""
"aa-learning-trial","97","473662","0.0-9.0-2.0-1.12","6461","1","18","Male","approach_avoid_spark_v1","""event"",""trial"",""time""
""fullscreenenter"",""1"",""3866""
","
","
","""event"",""trial"",""time""
""fullscreenenter"",""1"",""3866""
","
","","","","","","807","images/sofa5.png","","","learning","1","1","1","1","sofa","furniture","1","0","","neutral","0"
"html-keyboard-response","98","474172","0.0-9.0-2.0-0.13","6461","1","18","Male","approach_avoid_spark_v1","""event"",""trial"",""time""
""fullscreenenter"",""1"",""3866""
","
","
","""event"",""trial"",""time""
""fullscreenenter"",""1"",""3866""
","
","","","","","","null","<div style=""font-size:60px;"">+</div>","null","","fixation","","","","","","","","","","",""
"aa-learning-trial","99","477201","0.0-9.0-2.0-1.13","6461","1","18","Male","approach_avoid_spark_v1","""event"",""trial"",""time""
""fullscreenenter"",""1"",""3866""
","
","
","""event"",""trial"",""time""
""fullscreenenter"",""1"",""3866""
","
","","","","","","864.9999999999418","images/table6.png","","","learning","-5","-5","1","1","table","furniture","1","0","","bad","[-4]"
"html-keyboard-response","100","477712","0.0-9.0-2.0-0.14","6461","1","18","Male","approach_avoid_spark_v1","""event"",""trial"",""time""
""fullscreenenter"",""1"",""3866""
","
","
","""event"",""trial"",""time""
""fullscreenenter"",""1"",""3866""
","
","","","","","","null","<div style=""font-size:60px;"">+</div>","null","","fixation","","","","","","","","","","",""
"aa-learning-trial","101","480742","0.0-9.0-2.0-1.14","6461","1","18","Male","approach_avoid_spark_v1","""event"",""trial"",""time""
""fullscreenenter"",""1"",""3866""
","
","
","""event"",""trial"",""time""
""fullscreenenter"",""1"",""3866""
","
","","","","","","1217.0000000000582","images/table7.png","","","learning","2","0","0","0","table","furniture","1","0","","bad","[-4]"
"html-keyboard-response","102","481251","0.0-9.0-2.0-0.15","6461","1","18","Male","approach_avoid_spark_v1","""event"",""trial"",""time""
""fullscreenenter"",""1"",""3866""
","
","
","""event"",""trial"",""time""
""fullscreenenter"",""1"",""3866""
","
","","","","","","null","<div style=""font-size:60px;"">+</div>","null","","fixation","","","","","","","","","","",""
"aa-learning-trial","103","484282","0.0-9.0-2.0-1.15","6461","1","18","Male","approach_avoid_spark_v1","""event"",""trial"",""time""
""fullscreenenter"",""1"",""3866""
","
","
","""event"",""trial"",""time""
""fullscreenenter"",""1"",""3866""
","
","","","","","","776.9999999999418","images/sofa1.png","","","learning","[1]","1","1","1","sofa","furniture","1","0","","neutral","0"
"html-keyboard-response","104","484791","0.0-9.0-2.0-0.16","6461","1","18","Male","approach_avoid_spark_v1","""event"",""trial"",""time""
""fullscreenenter"",""1"",""3866""
","
","
","""event"",""trial"",""time""
""fullscreenenter"",""1"",""3866""
","
","","","","","","null","<div style=""font-size:60px;"">+</div>","null","","fixation","","","","","","","","","","",""
"aa-learning-trial","105","487822","0.0-9.0-2.0-1.16","6461","1","18","Male","approach_avoid_spark_v1","""event"",""trial"",""time""
""fullscreenenter"",""1"",""3866""
","
","
","""event"",""trial"",""time""
""fullscreenenter"",""1"",""3866""
","
","","","","","","447","images/sofa1.png","","","learning","-2","-2","1","1","sofa","furniture","1","0","","neutral","0"
"html-keyboard-response","106","488332","0.0-9.0-2.0-0.17","6461","1","18","Male","approach_avoid_spark_v1","""event"",""trial"",""time""
""fullscreenenter"",""1"",""3866""
","
","
","""event"",""trial"",""time""
""fullscreenenter"",""1"",""3866""
","
","","","","","","null","<div style=""font-size:60px;"">+</div>","null","","fixation","","","","","","","","","","",""
"aa-learning-trial","107","491362","0.0-9.0-2.0-1.17","6461","1","18","Male","approach_avoid_spark_v1","""event"",""trial"",""time""
""fullscreenenter"",""1"",""3866""
","
","
","""event"",""trial"",""time""
""fullscreenenter"",""1"",""3866""
","
","","","","","","743","images/sofa3.png","","","learning","[-1]","0","0","0","sofa","furniture","1","0","","neutral","0"
"html-keyboard-response","108","491871","0.0-9.0-2.0-0.18","6461","1","18","Male","approach_avoid_spark_v1","""event"",""trial"",""time""
""fullscreenenter"",""1"",""3866""
","
","
","""event"",""trial"",""time""
""fullscreenenter"",""1"",""3866""
","
","","","","","","null","<div style=""font-size:60px;"">+</div>","null","","fixation","","","","","","","","","","",""
"aa-learning-trial","109","494902","0.0-9.0-2.0-1.18","6461","1","18","Male","approach_avoid_spark_v1","""event"",""trial"",""time""
""fullscreenenter"",""1"",""3866""
","
","
","""event"",""trial"",""time""
""fullscreenenter"",""1"",""3866""
","
","","","","","","653.0000000000582","images/bed5.png","","","learning","4","4","1","1","bed","furniture","1","0","","good","[6]"
"html-keyboard-response","110","495411","0.0-9.0-2.0-0.19","6461","1","18","Male","approach_avoid_spark_v1","""event"",""trial"",""time""
""fullscreenenter"",""1"",""3866""
","
","
","""event"",""trial"",""time""
""fullscreenenter"",""1"",""3866""
","
","","","","","","null","<div style=""font-size:60px;"">+</div>","null","","fixation","","","","","","","","","","",""
"aa-learning-trial","111","498441","0.0-9.0-2.0-1.19","6461","1","18","Male","approach_avoid_spark_v1","""event"",""trial"",""time""
""fullscreenenter"",""1"",""3866""
","
","
","""event"",""trial"",""time""
""fullscreenenter"",""1"",""3866""
","
","","","","","","1523.9999999999418","images/table6.png","","","learning","-2","0","0","0","table","furniture","1","0","","bad","[-4]"
"html-keyboard-response","112","498951","0.0-9.0-2.0-0.20","6461","1","18","Male","approach_avoid_spark_v1","""event"",""trial"",""time""
""fullscreenenter"",""1"",""3866""
","
","
","""event"",""trial"",""time""
""fullscreenenter"",""1"",""3866""
","
","","","","","","null","<div style=""font-size:60px;"">+</div>","null","","fixation","","","","","","","","","","",""
"aa-learning-trial","113","501982","0.0-9.0-2.0-1.20","6461","1","18","Male","approach_avoid_spark_v1","""event"",""trial"",""time""
""fullscreenenter"",""1"",""3866""
","
","
","""event"",""trial"",""time""
""fullscreenenter"",""1"",""3866""
","
","","","","","","2998","images/sofa3.png","","","learning","1","0","0","0","sofa","furniture","1","0","","neutral","0"
"html-keyboard-response","114","502491","0.0-9.0-2.0-0.21","6461","1","18","Male","approach_avoid_spark_v1","""event"",""trial"",""time""
""fullscreenenter"",""1"",""3866""
","
","
","""event"",""trial"",""time""
""fullscreenenter"",""1"",""3866""
","
","","","","","","null","<div style=""font-size:60px;"">+</div>","null","","fixation","","","","","","","","","","",""
"aa-learning-trial","115","505522","0.0-9.0-2.0-1.21","6461","1","18","Male","approach_avoid_spark_v1","""event"",""trial"",""time""
""fullscreenenter"",""1"",""3866""
","
","
","""event"",""trial"",""time""
""fullscreenenter"",""1"",""3866""
","
","","","","","","1118","images/table4.png","","","learning","-4","0","0","0","table","furniture","1","0","","bad","[-4]"
"html-keyboard-response","116","506031","0.0-9.0-2.0-0.22","6461","1","18","Male","approach_avoid_spark_v1","""event"",""trial"",""time""
""fullscreenenter"",""1"",""3866""
","
","
","""event"",""trial"",""time""
""fullscreenenter"",""1"",""3866""
","
","","","","","","null","<div style=""font-size:60px;"">+</div>","null","","fixation","","","","","","","","","","",""
"aa-learning-trial","117","509062","0.0-9.0-2.0-1.22","6461","1","18","Male","approach_avoid_spark_v1","""event"",""trial"",""time""
""fullscreenenter"",""1"",""3866""
","
","
","""event"",""trial"",""time""
""fullscreenenter"",""1"",""3866""
","
","","","","","","772.0000000000582","images/table6.png","","","learning","-4","-4","1","1","table","furniture","1","0","","bad","[-4]"
"html-keyboard-response","118","509571","0.0-9.0-2.0-0.23","6461","1","18","Male","approach_avoid_spark_v1","""event"",""trial"",""time""
""fullscreenenter"",""1"",""3866""
","
","
","""event"",""trial"",""time""
""fullscreenenter"",""1"",""3866""
","
","","","","","","null","<div style=""font-size:60px;"">+</div>","null","","fixation","","","","","","","","","","",""
"aa-learning-trial","119","512601","0.0-9.0-2.0-1.23","6461","1","18","Male","approach_avoid_spark_v1","""event"",""trial"",""time""
""fullscreenenter"",""1"",""3866""
","
","
","""event"",""trial"",""time""
""fullscreenenter"",""1"",""3866""
","
","","","","","","382.9999999999418","images/sofa7.png","","","learning","-1","0","0","0","sofa","furniture","1","0","","neutral","0"
"html-keyboard-response","120","513111","0.0-9.0-2.0-0.24","6461","1","18","Male","approach_avoid_spark_v1","""event"",""trial"",""time""
""fullscreenenter"",""1"",""3866""
","
","
","""event"",""trial"",""time""
""fullscreenenter"",""1"",""3866""
","
","","","","","","null","<div style=""font-size:60px;"">+</div>","null","","fixation","","","","","","","","","","",""
"aa-learning-trial","121","516141","0.0-9.0-2.0-1.24","6461","1","18","Male","approach_avoid_spark_v1","""event"",""trial"",""time""
""fullscreenenter"",""1"",""3866""
","
","
","""event"",""trial"",""time""
""fullscreenenter"",""1"",""3866""
","
","","","","","","1146.9999999999418","images/sofa5.png","","","learning","2","0","0","0","sofa","furniture","1","0","","neutral","0"
"html-keyboard-response","122","516651","0.0-9.0-2.0-0.25","6461","1","18","Male","approach_avoid_spark_v1","""event"",""trial"",""time""
""fullscreenenter"",""1"",""3866""
","
","
","""event"",""trial"",""time""
""fullscreenenter"",""1"",""3866""
","
","","","","","","null","<div style=""font-size:60px;"">+</div>","null","","fixation","","","","","","","","","","",""
"aa-learning-trial","123","519681","0.0-9.0-2.0-1.25","6461","1","18","Male","approach_avoid_spark_v1","""event"",""trial"",""time""
""fullscreenenter"",""1"",""3866""
","
","
","""event"",""trial"",""time""
""fullscreenenter"",""1"",""3866""
","
","","","","","","469.0000000000582","images/table1.png","","","learning","-2","-2","1","1","table","furniture","1","0","","bad","[-4]"
"html-keyboard-response","124","520191","0.0-9.0-2.0-0.26","6461","1","18","Male","approach_avoid_spark_v1","""event"",""trial"",""time""
""fullscreenenter"",""1"",""3866""
","
","
","""event"",""trial"",""time""
""fullscreenenter"",""1"",""3866""
","
","","","","","","null","<div style=""font-size:60px;"">+</div>","null","","fixation","","","","","","","","","","",""
"aa-learning-trial","125","523226","0.0-9.0-2.0-1.26","6461","1","18","Male","approach_avoid_spark_v1","""event"",""trial"",""time""
""fullscreenenter"",""1"",""3866""
","
","
","""event"",""trial"",""time""
""fullscreenenter"",""1"",""3866""
","
","","","","","","495.9999999999418","images/bed7.png","","","learning","4","0","0","0","bed","furniture","1","0","","good","[6]"
"html-keyboard-response","126","523730","0.0-9.0-2.0-0.27","6461","1","18","Male","approach_avoid_spark_v1","""event"",""trial"",""time""
""fullscreenenter"",""1"",""3866""
","
","
","""event"",""trial"",""time""
""fullscreenenter"",""1"",""3866""
","
","","","","","","null","<div style=""font-size:60px;"">+</div>","null","","fixation","","","","","","","","","","",""
"aa-learning-trial","127","526761","0.0-9.0-2.0-1.27","6461","1","18","Male","approach_avoid_spark_v1","""event"",""trial"",""time""
""fullscreenenter"",""1"",""3866""
","
","
","""event"",""trial"",""time""
""fullscreenenter"",""1"",""3866""
","
","","","","","","558","images/bed8.png","","","learning","6","6","1","1","bed","furniture","1","0","","good","[6]"
"html-keyboard-response","128","527270","0.0-9.0-2.0-0.28","6461","1","18","Male","approach_avoid_spark_v1","""event"",""trial"",""time""
""fullscreenenter"",""1"",""3866""
","
","
","""event"",""trial"",""time""
""fullscreenenter"",""1"",""3866""
","
","","","","","","null","<div style=""font-size:60px;"">+</div>","null","","fixation","","","","","","","","","","",""
"aa-learning-trial","129","530301","0.0-9.0-2.0-1.28","6461","1","18","Male","approach_avoid_spark_v1","""event"",""trial"",""time""
""fullscreenenter"",""1"",""3866""
","
","
","""event"",""trial"",""time""
""fullscreenenter"",""1"",""3866""
","
","","","","","","590","images/bed8.png","","","learning","9","9","1","1","bed","furniture","1","0","","good","[6]"
"html-keyboard-response","130","530810","0.0-9.0-2.0-0.29","6461","1","18","Male","approach_avoid_spark_v1","""event"",""trial"",""time""
""fullscreenenter"",""1"",""3866""
","
","
","""event"",""trial"",""time""
""fullscreenenter"",""1"",""3866""
","
","","","","","","null","<div style=""font-size:60px;"">+</div>","null","","fixation","","","","","","","","","","",""
"aa-learning-trial","131","533841","0.0-9.0-2.0-1.29","6461","1","18","Male","approach_avoid_spark_v1","""event"",""trial"",""time""
""fullscreenenter"",""1"",""3866""
","
","
","""event"",""trial"",""time""
""fullscreenenter"",""1"",""3866""
","
","","","","","","880","images/bed5.png","","","learning","3","3","1","1","bed","furniture","1","0","","good","[6]"
"html-keyboard-response","132","534350","0.0-9.0-2.0-0.30","6461","1","18","Male","approach_avoid_spark_v1","""event"",""trial"",""time""
""fullscreenenter"",""1"",""3866""
","
","
","""event"",""trial"",""time""
""fullscreenenter"",""1"",""3866""
","
","","","","","","null","<div style=""font-size:60px;"">+</div>","null","","fixation","","","","","","","","","","",""
"aa-learning-trial","133","537380","0.0-9.0-2.0-1.30","6461","1","18","Male","approach_avoid_spark_v1","""event"",""trial"",""time""
""fullscreenenter"",""1"",""3866""
","
","
","""event"",""trial"",""time""
""fullscreenenter"",""1"",""3866""
","
","","","","","","554","images/bed8.png","","","learning","4","4","1","1","bed","furniture","1","0","","good","[6]"
"html-keyboard-response","134","537890","0.0-9.0-2.0-0.31","6461","1","18","Male","approach_avoid_spark_v1","""event"",""trial"",""time""
""fullscreenenter"",""1"",""3866""
","
","
","""event"",""trial"",""time""
""fullscreenenter"",""1"",""3866""
","
","","","","","","null","<div style=""font-size:60px;"">+</div>","null","","fixation","","","","","","","","","","",""
"aa-learning-trial","135","540921","0.0-9.0-2.0-1.31","6461","1","18","Male","approach_avoid_spark_v1","""event"",""trial"",""time""
""fullscreenenter"",""1"",""3866""
","
","
","""event"",""trial"",""time""
""fullscreenenter"",""1"",""3866""
","
","","","","","","675","images/table7.png","","","learning","-2","0","0","0","table","furniture","1","0","","bad","[-4]"
"html-keyboard-response","136","541430","0.0-9.0-2.0-0.32","6461","1","18","Male","approach_avoid_spark_v1","""event"",""trial"",""time""
""fullscreenenter"",""1"",""3866""
","
","
","""event"",""trial"",""time""
""fullscreenenter"",""1"",""3866""
","
","","","","","","null","<div style=""font-size:60px;"">+</div>","null","","fixation","","","","","","","","","","",""
"aa-learning-trial","137","544461","0.0-9.0-2.0-1.32","6461","1","18","Male","approach_avoid_spark_v1","""event"",""trial"",""time""
""fullscreenenter"",""1"",""3866""
","
","
","""event"",""trial"",""time""
""fullscreenenter"",""1"",""3866""
","
","","","","","","726","images/table7.png","","","learning","-3","-3","1","1","table","furniture","1","0","","bad","[-4]"
"html-keyboard-response","138","544970","0.0-9.0-2.0-0.33","6461","1","18","Male","approach_avoid_spark_v1","""event"",""trial"",""time""
""fullscreenenter"",""1"",""3866""
","
","
","""event"",""trial"",""time""
""fullscreenenter"",""1"",""3866""
","
","","","","","","null","<div style=""font-size:60px;"">+</div>","null","","fixation","","","","","","","","","","",""
"aa-learning-trial","139","548001","0.0-9.0-2.0-1.33","6461","1","18","Male","approach_avoid_spark_v1","""event"",""trial"",""time""
""fullscreenenter"",""1"",""3866""
","
","
","""event"",""trial"",""time""
""fullscreenenter"",""1"",""3866""
","
","","","","","","675.9999999998836","images/sofa5.png","","","learning","-2","-2","1","1","sofa","furniture","1","0","","neutral","0"
"html-keyboard-response","140","548510","0.0-9.0-2.0-0.34","6461","1","18","Male","approach_avoid_spark_v1","""event"",""trial"",""time""
""fullscreenenter"",""1"",""3866""
","
","
","""event"",""trial"",""time""
""fullscreenenter"",""1"",""3866""
","
","","","","","","null","<div style=""font-size:60px;"">+</div>","null","","fixation","","","","","","","","","","",""
"aa-learning-trial","141","551541","0.0-9.0-2.0-1.34","6461","1","18","Male","approach_avoid_spark_v1","""event"",""trial"",""time""
""fullscreenenter"",""1"",""3866""
","
","
","""event"",""trial"",""time""
""fullscreenenter"",""1"",""3866""
","
","","","","","","921","images/table7.png","","","learning","-4","0","0","0","table","furniture","1","0","","bad","[-4]"
"html-keyboard-response","142","552050","0.0-9.0-2.0-0.35","6461","1","18","Male","approach_avoid_spark_v1","""event"",""trial"",""time""
""fullscreenenter"",""1"",""3866""
","
","
","""event"",""trial"",""time""
""fullscreenenter"",""1"",""3866""
","
","","","","","","null","<div style=""font-size:60px;"">+</div>","null","","fixation","","","","","","","","","","",""
"aa-learning-trial","143","555081","0.0-9.0-2.0-1.35","6461","1","18","Male","approach_avoid_spark_v1","""event"",""trial"",""time""
""fullscreenenter"",""1"",""3866""
","
","
","""event"",""trial"",""time""
""fullscreenenter"",""1"",""3866""
","
","","","","","","1080","images/bed5.png","","","learning","2","2","1","1","bed","furniture","1","0","","good","[6]"
"html-keyboard-response","144","555589","0.0-9.0-2.0-0.36","6461","1","18","Male","approach_avoid_spark_v1","""event"",""trial"",""time""
""fullscreenenter"",""1"",""3866""
","
","
","""event"",""trial"",""time""
""fullscreenenter"",""1"",""3866""
","
","","","","","","null","<div style=""font-size:60px;"">+</div>","null","","fixation","","","","","","","","","","",""
"aa-learning-trial","145","558620","0.0-9.0-2.0-1.36","6461","1","18","Male","approach_avoid_spark_v1","""event"",""trial"",""time""
""fullscreenenter"",""1"",""3866""
","
","
","""event"",""trial"",""time""
""fullscreenenter"",""1"",""3866""
","
","","","","","","497","images/bed5.png","","","learning","9","9","1","1","bed","furniture","1","0","","good","[6]"
"html-keyboard-response","146","559130","0.0-9.0-2.0-0.37","6461","1","18","Male","approach_avoid_spark_v1","""event"",""trial"",""time""
""fullscreenenter"",""1"",""3866""
","
","
","""event"",""trial"",""time""
""fullscreenenter"",""1"",""3866""
","
","","","","","","null","<div style=""font-size:60px;"">+</div>","null","","fixation","","","","","","","","","","",""
"aa-learning-trial","147","562160","0.0-9.0-2.0-1.37","6461","1","18","Male","approach_avoid_spark_v1","""event"",""trial"",""time""
""fullscreenenter"",""1"",""3866""
","
","
","""event"",""trial"",""time""
""fullscreenenter"",""1"",""3866""
","
","","","","","","776","images/sofa4.png","","","learning","2","2","1","1","sofa","furniture","1","0","","neutral","0"
"html-keyboard-response","148","562670","0.0-9.0-2.0-0.38","6461","1","18","Male","approach_avoid_spark_v1","""event"",""trial"",""time""
""fullscreenenter"",""1"",""3866""
","
","
","""event"",""trial"",""time""
""fullscreenenter"",""1"",""3866""
","
","","","","","","null","<div style=""font-size:60px;"">+</div>","null","","fixation","","","","","","","","","","",""
"aa-learning-trial","149","565700","0.0-9.0-2.0-1.38","6461","1","18","Male","approach_avoid_spark_v1","""event"",""trial"",""time""
""fullscreenenter"",""1"",""3866""
","
","
","""event"",""trial"",""time""
""fullscreenenter"",""1"",""3866""
","
","","","","","","595","images/sofa1.png","","","learning","-1","-1","1","1","sofa","furniture","1","0","","neutral","0"
"html-keyboard-response","150","566210","0.0-9.0-2.0-0.39","6461","1","18","Male","approach_avoid_spark_v1","""event"",""trial"",""time""
""fullscreenenter"",""1"",""3866""
","
","
","""event"",""trial"",""time""
""fullscreenenter"",""1"",""3866""
","
","","","","","","null","<div style=""font-size:60px;"">+</div>","null","","fixation","","","","","","","","","","",""
"aa-learning-trial","151","569240","0.0-9.0-2.0-1.39","6461","1","18","Male","approach_avoid_spark_v1","""event"",""trial"",""time""
""fullscreenenter"",""1"",""3866""
","
","
","""event"",""trial"",""time""
""fullscreenenter"",""1"",""3866""
","
","","","","","","571","images/table1.png","","","learning","-5","0","0","0","table","furniture","1","0","","bad","[-4]"
"html-keyboard-response","152","569750","0.0-9.0-2.0-0.40","6461","1","18","Male","approach_avoid_spark_v1","""event"",""trial"",""time""
""fullscreenenter"",""1"",""3866""
","
","
","""event"",""trial"",""time""
""fullscreenenter"",""1"",""3866""
","
","","","","","","null","<div style=""font-size:60px;"">+</div>","null","","fixation","","","","","","","","","","",""
"aa-learning-trial","153","572780","0.0-9.0-2.0-1.40","6461","1","18","Male","approach_avoid_spark_v1","""event"",""trial"",""time""
""fullscreenenter"",""1"",""3866""
","
","
","""event"",""trial"",""time""
""fullscreenenter"",""1"",""3866""
","
","","","","","","758","images/table3.png","","","learning","-5","-5","1","1","table","furniture","1","0","","bad","[-4]"
"html-keyboard-response","154","573289","0.0-9.0-2.0-0.41","6461","1","18","Male","approach_avoid_spark_v1","""event"",""trial"",""time""
""fullscreenenter"",""1"",""3866""
","
","
","""event"",""trial"",""time""
""fullscreenenter"",""1"",""3866""
","
","","","","","","null","<div style=""font-size:60px;"">+</div>","null","","fixation","","","","","","","","","","",""
"aa-learning-trial","155","576320","0.0-9.0-2.0-1.41","6461","1","18","Male","approach_avoid_spark_v1","""event"",""trial"",""time""
""fullscreenenter"",""1"",""3866""
","
","
","""event"",""trial"",""time""
""fullscreenenter"",""1"",""3866""
","
","","","","","","476","images/bed8.png","","","learning","6","0","0","0","bed","furniture","1","0","","good","[6]"
"html-keyboard-response","156","576830","0.0-9.0-2.0-0.42","6461","1","18","Male","approach_avoid_spark_v1","""event"",""trial"",""time""
""fullscreenenter"",""1"",""3866""
","
","
","""event"",""trial"",""time""
""fullscreenenter"",""1"",""3866""
","
","","","","","","null","<div style=""font-size:60px;"">+</div>","null","","fixation","","","","","","","","","","",""
"aa-learning-trial","157","579860","0.0-9.0-2.0-1.42","6461","1","18","Male","approach_avoid_spark_v1","""event"",""trial"",""time""
""fullscreenenter"",""1"",""3866""
","
","
","""event"",""trial"",""time""
""fullscreenenter"",""1"",""3866""
","
","","","","","","698","images/sofa1.png","","","learning","[-1]","-1","1","1","sofa","furniture","1","0","","neutral","0"
"html-keyboard-response","158","580369","0.0-9.0-2.0-0.43","6461","1","18","Male","approach_avoid_spark_v1","""event"",""trial"",""time""
""fullscreenenter"",""1"",""3866""
","
","
","""event"",""trial"",""time""
""fullscreenenter"",""1"",""3866""
","
","","","","","","null","<div style=""font-size:60px;"">+</div>","null","","fixation","","","","","","","","","","",""
"aa-learning-trial","159","583400","0.0-9.0-2.0-1.43","6461","1","18","Male","approach_avoid_spark_v1","""event"",""trial"",""time""
""fullscreenenter"",""1"",""3866""
","
","
","""event"",""trial"",""time""
""fullscreenenter"",""1"",""3866""
","
","","","","","","782","images/table6.png","","","learning","-5","-5","1","1","table","furniture","1","0","","bad","[-4]"
"html-keyboard-response","160","583909","0.0-9.0-2.0-0.44","6461","1","18","Male","approach_avoid_spark_v1","""event"",""trial"",""time""
""fullscreenenter"",""1"",""3866""
","
","
","""event"",""trial"",""time""
""fullscreenenter"",""1"",""3866""
","
","","","","","","null","<div style=""font-size:60px;"">+</div>","null","","fixation","","","","","","","","","","",""
"aa-learning-trial","161","586940","0.0-9.0-2.0-1.44","6461","1","18","Male","approach_avoid_spark_v1","""event"",""trial"",""time""
""fullscreenenter"",""1"",""3866""
","
","
","""event"",""trial"",""time""
""fullscreenenter"",""1"",""3866""
","
","","","","","","852","images/table6.png","","","learning","-2","0","0","0","table","furniture","1","0","","bad","[-4]"
"html-keyboard-response","162","587449","0.0-9.0-2.0-0.45","6461","1","18","Male","approach_avoid_spark_v1","""event"",""trial"",""time""
""fullscreenenter"",""1"",""3866""
","
","
","""event"",""trial"",""time""
""fullscreenenter"",""1"",""3866""
","
","","","","","","null","<div style=""font-size:60px;"">+</div>","null","","fixation","","","","","","","","","","",""
"aa-learning-trial","163","590480","0.0-9.0-2.0-1.45","6461","1","18","Male","approach_avoid_spark_v1","""event"",""trial"",""time""
""fullscreenenter"",""1"",""3866""
","
","
","""event"",""trial"",""time""
""fullscreenenter"",""1"",""3866""
","
","","","","","","883.9999999998836","images/bed2.png","","","learning","4","-5","q","","bed","furniture","1","0","","good","[6]"
"html-keyboard-response","164","590989","0.0-9.0-2.0-0.46","6461","1","18","Male","approach_avoid_spark_v1","""event"",""trial"",""time""
""fullscreenenter"",""1"",""3866""
","
","
","""event"",""trial"",""time""
""fullscreenenter"",""1"",""3866""
","
","","","","","","null","<div style=""font-size:60px;"">+</div>","null","","fixation","","","","","","","","","","",""
"aa-learning-trial","165","594019","0.0-9.0-2.0-1.46","6461","1","18","Male","approach_avoid_spark_v1","""event"",""trial"",""time""
""fullscreenenter"",""1"",""3866""
","
","
","""event"",""trial"",""time""
""fullscreenenter"",""1"",""3866""
","
","","","","","","532.0000000001164","images/bed2.png","","","learning","4","4","1","1","bed","furniture","1","0","","good","[6]"
"html-keyboard-response","166","594529","0.0-9.0-2.0-0.47","6461","1","18","Male","approach_avoid_spark_v1","""event"",""trial"",""time""
""fullscreenenter"",""1"",""3866""
","
","
","""event"",""trial"",""time""
""fullscreenenter"",""1"",""3866""
","
","","","","","","null","<div style=""font-size:60px;"">+</div>","null","","fixation","","","","","","","","","","",""
"aa-learning-trial","167","597560","0.0-9.0-2.0-1.47","6461","1","18","Male","approach_avoid_spark_v1","""event"",""trial"",""time""
""fullscreenenter"",""1"",""3866""
","
","
","""event"",""trial"",""time""
""fullscreenenter"",""1"",""3866""
","
","","","","","","1180","images/bed1.png","","","learning","1","1","1","1","bed","furniture","1","0","","good","[6]"
"html-keyboard-response","168","598069","0.0-9.0-2.0-0.48","6461","1","18","Male","approach_avoid_spark_v1","""event"",""trial"",""time""
""fullscreenenter"",""1"",""3866""
","
","
","""event"",""trial"",""time""
""fullscreenenter"",""1"",""3866""
","
","","","","","","null","<div style=""font-size:60px;"">+</div>","null","","fixation","","","","","","","","","","",""
"aa-learning-trial","169","601100","0.0-9.0-2.0-1.48","6461","1","18","Male","approach_avoid_spark_v1","""event"",""trial"",""time""
""fullscreenenter"",""1"",""3866""
","
","
","""event"",""trial"",""time""
""fullscreenenter"",""1"",""3866""
","
","","","","","","1024.9999999998836","images/sofa3.png","","","learning","[-1]","-1","1","1","sofa","furniture","1","0","","neutral","0"
"html-keyboard-response","170","601609","0.0-9.0-2.0-0.49","6461","1","18","Male","approach_avoid_spark_v1","""event"",""trial"",""time""
""fullscreenenter"",""1"",""3866""
","
","
","""event"",""trial"",""time""
""fullscreenenter"",""1"",""3866""
","
","","","","","","null","<div style=""font-size:60px;"">+</div>","null","","fixation","","","","","","","","","","",""
"aa-learning-trial","171","604639","0.0-9.0-2.0-1.49","6461","1","18","Male","approach_avoid_spark_v1","""event"",""trial"",""time""
""fullscreenenter"",""1"",""3866""
","
","
","""event"",""trial"",""time""
""fullscreenenter"",""1"",""3866""
","
","","","","","","1702","images/sofa3.png","","","learning","2","2","1","1","sofa","furniture","1","0","","neutral","0"
"html-keyboard-response","172","605149","0.0-9.0-2.0-0.50","6461","1","18","Male","approach_avoid_spark_v1","""event"",""trial"",""time""
""fullscreenenter"",""1"",""3866""
","
","
","""event"",""trial"",""time""
""fullscreenenter"",""1"",""3866""
","
","","","","","","null","<div style=""font-size:60px;"">+</div>","null","","fixation","","","","","","","","","","",""
"aa-learning-trial","173","608179","0.0-9.0-2.0-1.50","6461","1","18","Male","approach_avoid_spark_v1","""event"",""trial"",""time""
""fullscreenenter"",""1"",""3866""
","
","
","""event"",""trial"",""time""
""fullscreenenter"",""1"",""3866""
","
","","","","","","2571","images/table7.png","","","learning","-4","0","0","0","table","furniture","1","0","","bad","[-4]"
"html-button-response","174","610778","0.0-9.0-3.0","6461","1","18","Male","approach_avoid_spark_v1","""event"",""trial"",""time""
""fullscreenenter"",""1"",""3866""
","
","
","""event"",""trial"",""time""
""fullscreenenter"",""1"",""3866""
","
","","","","","","2596","<p> You have completed the round! <p> In this round, you earned 20 points! </p>","0","","break","","","","","","","","","","",""
"html-button-response","175","612059","0.0-10.0","6461","1","18","Male","approach_avoid_spark_v1","""event"",""trial"",""time""
""fullscreenenter"",""1"",""3866""
","
","
","""event"",""trial"",""time""
""fullscreenenter"",""1"",""3866""
","
","","","","","","1279","<p> Now it's time to play another round. </p>","0","","transition_screen","","","","","","","","","","",""
"preload","176","612172","0.0-11.0-0.0","6461","1","18","Male","approach_avoid_spark_v1","""event"",""trial"",""time""
""fullscreenenter"",""1"",""3866""
","
","
","""event"",""trial"",""time""
""fullscreenenter"",""1"",""3866""
","
","true","false","[]","[]","[]","","","","","","","","","","","","","","","",""
"learning-instructions","177","619474","0.0-11.0-1.0-0.0","6461","1","18","Male","approach_avoid_spark_v1","""event"",""trial"",""time""
""fullscreenenter"",""1"",""3866""
","
","
","""event"",""trial"",""time""
""fullscreenenter"",""1"",""3866""
","
","","","","","","2042","<p> Your goal in this round is to sell different plants to a picky customer. </p></div>","","0","instructions","","","","","","","","","","",""
"learning-instructions","178","631491","0.0-11.0-1.0-0.1","6461","1","18","Male","approach_avoid_spark_v1","""event"",""trial"",""time""
""fullscreenenter"",""1"",""3866""
","
","
","""event"",""trial"",""time""
""fullscreenenter"",""1"",""3866""
","
","","","","","","2160","<p> The customer likes some plants and dislikes others.  </p><p> On each turn, you will see a plant.   </p><p> You need to decide whether to offer it to the customer or not.  </p>","","0","instructions","","","","","","","","","","",""
"learning-instructions","179","639640","0.0-11.0-1.0-0.2","6461","1","18","Male","approach_avoid_spark_v1","""event"",""trial"",""time""
""fullscreenenter"",""1"",""3866""
","
","
","""event"",""trial"",""time""
""fullscreenenter"",""1"",""3866""
","
","","","","","","2611","<p> You can offer the plant by pressing 1 and decide to not offer it by pressing 0. </p><br><div class=""choice-instructions-grid""> <div class=""choice-option""><img src=""images/approach.png"" class=""choice-option-img"" stage=""instructions"" position=""0"" ><div class=""choice-option-text""> Press ""1."" </div></div><div class=""choice-option""><img src=""images/avoid.png"" class=""choice-option-img"" stage=""instructions"" position=""1"" ><div class=""choice-option-text""> Press ""0."" </div></div>","","0","instructions","","","","","","","","","","",""
"learning-instructions","180","649023","0.0-11.0-1.0-0.3","6461","1","18","Male","approach_avoid_spark_v1","""event"",""trial"",""time""
""fullscreenenter"",""1"",""3866""
","
","
","""event"",""trial"",""time""
""fullscreenenter"",""1"",""3866""
","
","","","","","","752.0000000001164","<p> If you offer a plant to the customer that she likes, she will be very pleased! </p><p> But if you offer a plant that she does NOT like, she will be annoyed. </p>","","0","instructions","","","","","","","","","","",""
"learning-instructions","181","661754","0.0-11.0-1.0-0.4","6461","1","18","Male","approach_avoid_spark_v1","""event"",""trial"",""time""
""fullscreenenter"",""1"",""3866""
","
","
","""event"",""trial"",""time""
""fullscreenenter"",""1"",""3866""
","
","","","","","","457.9999999998836","<p> You will earn points based on how you made the customer feel. </p><p> If you made her pleased, you will WIN anywhere from 1 - 9 points, </p><p> but if you made her annoyed, you will LOSE anywhere from 1 - 9 points. </p>","","0","instructions","","","","","","","","","","",""
"learning-instructions","182","669989","0.0-11.0-1.0-0.5","6461","1","18","Male","approach_avoid_spark_v1","""event"",""trial"",""time""
""fullscreenenter"",""1"",""3866""
","
","
","""event"",""trial"",""time""
""fullscreenenter"",""1"",""3866""
","
","","","","","","1583","<p> You will see how many points you won or lost in the center of the screen. </p><p> Here is what you would see if you won 5 points: </p><p style=""color:green;font-size:50px;font-weight:bolder"">5</p>","","0","instructions","","","","","","","","","","",""
"learning-instructions","183","673223","0.0-11.0-1.0-0.6","6461","1","18","Male","approach_avoid_spark_v1","""event"",""trial"",""time""
""fullscreenenter"",""1"",""3866""
","
","
","""event"",""trial"",""time""
""fullscreenenter"",""1"",""3866""
","
","","","","","","401.9999999998836","<p> And here is what you would see if you lost 3 points: </p><p style=""color:red;font-size:50px;font-weight:bolder"">-3</p>","","0","instructions","","","","","","","","","","",""
"learning-instructions","184","689554","0.0-11.0-1.0-0.7","6461","1","18","Male","approach_avoid_spark_v1","""event"",""trial"",""time""
""fullscreenenter"",""1"",""3866""
","
","
","""event"",""trial"",""time""
""fullscreenenter"",""1"",""3866""
","
","","","","","","1877","<p> Some plants will make the customer VERY pleased or annoyed. </p><p> These plants will make you win or lose LOTS of points. </p><p> The customer will have less strong feelings about other plants. </p><p> These plants will make you win or lose small amounts of points. </p>","","0","instructions","","","","","","","","","","",""
"learning-instructions","185","703587","0.0-11.0-1.0-0.8","6461","1","18","Male","approach_avoid_spark_v1","""event"",""trial"",""time""
""fullscreenenter"",""1"",""3866""
","
","
","""event"",""trial"",""time""
""fullscreenenter"",""1"",""3866""
","
","","","","","","1718","<p> If you choose to not offer the plant to the customer, you will not win or lose any points. </p><p>  However, in the center of the screen, you will see the number of points you WOULD HAVE won or lost if you had offered the plant. </p>","","0","instructions","","","","","","","","","","",""
"learning-instructions","186","715352","0.0-11.0-1.0-0.9","6461","1","18","Male","approach_avoid_spark_v1","""event"",""trial"",""time""
""fullscreenenter"",""1"",""3866""
","
","
","""event"",""trial"",""time""
""fullscreenenter"",""1"",""3866""
","
","","","","","","570","<p> Here is what you might see if you did not offer the plant but the customer would have liked it: </p><p style=""color:grey; font-size:50px; display: inline-block; border-spacing: 15px; border-width:3px; border-style:solid; border-color:red"">  &nbsp; 6 &nbsp; </p><p> Remember, in this case, you would not win or lose ANY points because you did not offer the plant.  </p>","","0","instructions","","","","","","","","","","",""
"learning-instructions","187","723568","0.0-11.0-1.0-0.10","6461","1","18","Male","approach_avoid_spark_v1","""event"",""trial"",""time""
""fullscreenenter"",""1"",""3866""
","
","
","""event"",""trial"",""time""
""fullscreenenter"",""1"",""3866""
","
","","","","","","873.9999999998836","<p> Try to make the best choice for each plant because </p><p> at the end of the game, you will earn bonus money based on how many points you earned. </p>","","0","instructions","","","","","","","","","","",""
"learning-instructions","188","732134","0.0-11.0-1.0-0.11","6461","1","18","Male","approach_avoid_spark_v1","""event"",""trial"",""time""
""fullscreenenter"",""1"",""3866""
","
","
","""event"",""trial"",""time""
""fullscreenenter"",""1"",""3866""
","
","","","","","","381","<p> You will have 3 seconds to make each choice. Try to respond before time runs out! </p><p> You will lose 5 points each time you do not make a response. </p>","","0","instructions","","","","","","","","","","",""
"html-keyboard-response","189","732738","0.0-11.0-2.0-0.0","6461","1","18","Male","approach_avoid_spark_v1","""event"",""trial"",""time""
""fullscreenenter"",""1"",""3866""
","
","
","""event"",""trial"",""time""
""fullscreenenter"",""1"",""3866""
","
","","","","","","null","<div style=""font-size:60px;"">+</div>","null","","fixation","","","","","","","","","","",""
"aa-learning-trial","190","735741","0.0-11.0-2.0-1.0","6461","1","18","Male","approach_avoid_spark_v1","""event"",""trial"",""time""
""fullscreenenter"",""1"",""3866""
","
","
","""event"",""trial"",""time""
""fullscreenenter"",""1"",""3866""
","
","","","","","","1326","images/tree3.png","","","learning","-3","-3","1","1","tree","plants","2","1","","bad","[-6]"
"html-keyboard-response","191","736243","0.0-11.0-2.0-0.1","6461","1","18","Male","approach_avoid_spark_v1","""event"",""trial"",""time""
""fullscreenenter"",""1"",""3866""
","
","
","""event"",""trial"",""time""
""fullscreenenter"",""1"",""3866""
","
","","","","","","null","<div style=""font-size:60px;"">+</div>","null","","fixation","","","","","","","","","","",""
"aa-learning-trial","192","739247","0.0-11.0-2.0-1.1","6461","1","18","Male","approach_avoid_spark_v1","""event"",""trial"",""time""
""fullscreenenter"",""1"",""3866""
","
","
","""event"",""trial"",""time""
""fullscreenenter"",""1"",""3866""
","
","","","","","","944","images/cactus3.png","","","learning","-5","-5","-","","cactus","plants","2","1","","neutral","0"
"html-keyboard-response","193","739756","0.0-11.0-2.0-0.2","6461","1","18","Male","approach_avoid_spark_v1","""event"",""trial"",""time""
""fullscreenenter"",""1"",""3866""
","
","
","""event"",""trial"",""time""
""fullscreenenter"",""1"",""3866""
","
","","","","","","null","<div style=""font-size:60px;"">+</div>","null","","fixation","","","","","","","","","","",""
"aa-learning-trial","194","742786","0.0-11.0-2.0-1.2","6461","1","18","Male","approach_avoid_spark_v1","""event"",""trial"",""time""
""fullscreenenter"",""1"",""3866""
","
","
","""event"",""trial"",""time""
""fullscreenenter"",""1"",""3866""
","
","","","","","","969","images/tree1.png","","","learning","-1","0","0","0","tree","plants","2","1","","bad","[-6]"
"html-keyboard-response","195","743296","0.0-11.0-2.0-0.3","6461","1","18","Male","approach_avoid_spark_v1","""event"",""trial"",""time""
""fullscreenenter"",""1"",""3866""
","
","
","""event"",""trial"",""time""
""fullscreenenter"",""1"",""3866""
","
","","","","","","null","<div style=""font-size:60px;"">+</div>","null","","fixation","","","","","","","","","","",""
"aa-learning-trial","196","746326","0.0-11.0-2.0-1.3","6461","1","18","Male","approach_avoid_spark_v1","""event"",""trial"",""time""
""fullscreenenter"",""1"",""3866""
","
","
","""event"",""trial"",""time""
""fullscreenenter"",""1"",""3866""
","
","","","","","","657","images/tree1.png","","","learning","-1","0","0","0","tree","plants","2","1","","bad","[-6]"
"html-keyboard-response","197","746836","0.0-11.0-2.0-0.4","6461","1","18","Male","approach_avoid_spark_v1","""event"",""trial"",""time""
""fullscreenenter"",""1"",""3866""
","
","
","""event"",""trial"",""time""
""fullscreenenter"",""1"",""3866""
","
","","","","","","null","<div style=""font-size:60px;"">+</div>","null","","fixation","","","","","","","","","","",""
"aa-learning-trial","198","749866","0.0-11.0-2.0-1.4","6461","1","18","Male","approach_avoid_spark_v1","""event"",""trial"",""time""
""fullscreenenter"",""1"",""3866""
","
","
","""event"",""trial"",""time""
""fullscreenenter"",""1"",""3866""
","
","","","","","","929","images/cactus5.png","","","learning","-9","-9","1","1","cactus","plants","2","1","","neutral","0"
"html-keyboard-response","199","750376","0.0-11.0-2.0-0.5","6461","1","18","Male","approach_avoid_spark_v1","""event"",""trial"",""time""
""fullscreenenter"",""1"",""3866""
","
","
","""event"",""trial"",""time""
""fullscreenenter"",""1"",""3866""
","
","","","","","","null","<div style=""font-size:60px;"">+</div>","null","","fixation","","","","","","","","","","",""
"aa-learning-trial","200","753406","0.0-11.0-2.0-1.5","6461","1","18","Male","approach_avoid_spark_v1","""event"",""trial"",""time""
""fullscreenenter"",""1"",""3866""
","
","
","""event"",""trial"",""time""
""fullscreenenter"",""1"",""3866""
","
","","","","","","524","images/cactus5.png","","","learning","-9","0","0","0","cactus","plants","2","1","","neutral","0"
"html-keyboard-response","201","753916","0.0-11.0-2.0-0.6","6461","1","18","Male","approach_avoid_spark_v1","""event"",""trial"",""time""
""fullscreenenter"",""1"",""3866""
","
","
","""event"",""trial"",""time""
""fullscreenenter"",""1"",""3866""
","
","","","","","","null","<div style=""font-size:60px;"">+</div>","null","","fixation","","","","","","","","","","",""
"aa-learning-trial","202","756946","0.0-11.0-2.0-1.6","6461","1","18","Male","approach_avoid_spark_v1","""event"",""trial"",""time""
""fullscreenenter"",""1"",""3866""
","
","
","""event"",""trial"",""time""
""fullscreenenter"",""1"",""3866""
","
","","","","","","698.0000000001164","images/cactus3.png","","","learning","-5","0","0","0","cactus","plants","2","1","","neutral","0"
"html-keyboard-response","203","757456","0.0-11.0-2.0-0.7","6461","1","18","Male","approach_avoid_spark_v1","""event"",""trial"",""time""
""fullscreenenter"",""1"",""3866""
","
","
","""event"",""trial"",""time""
""fullscreenenter"",""1"",""3866""
","
","","","","","","null","<div style=""font-size:60px;"">+</div>","null","","fixation","","","","","","","","","","",""
"aa-learning-trial","204","760485","0.0-11.0-2.0-1.7","6461","1","18","Male","approach_avoid_spark_v1","""event"",""trial"",""time""
""fullscreenenter"",""1"",""3866""
","
","
","""event"",""trial"",""time""
""fullscreenenter"",""1"",""3866""
","
","","","","","","650","images/flower8.png","","","learning","2","0","0","0","flower","plants","2","1","","good","[3]"
"html-keyboard-response","205","760996","0.0-11.0-2.0-0.8","6461","1","18","Male","approach_avoid_spark_v1","""event"",""trial"",""time""
""fullscreenenter"",""1"",""3866""
","
","
","""event"",""trial"",""time""
""fullscreenenter"",""1"",""3866""
","
","","","","","","null","<div style=""font-size:60px;"">+</div>","null","","fixation","","","","","","","","","","",""
"aa-learning-trial","206","764026","0.0-11.0-2.0-1.8","6461","1","18","Male","approach_avoid_spark_v1","""event"",""trial"",""time""
""fullscreenenter"",""1"",""3866""
","
","
","""event"",""trial"",""time""
""fullscreenenter"",""1"",""3866""
","
","","","","","","1334","images/flower4.png","","","learning","7","0","0","0","flower","plants","2","1","","good","[3]"
"html-keyboard-response","207","764535","0.0-11.0-2.0-0.9","6461","1","18","Male","approach_avoid_spark_v1","""event"",""trial"",""time""
""fullscreenenter"",""1"",""3866""
","
","
","""event"",""trial"",""time""
""fullscreenenter"",""1"",""3866""
","
","","","","","","null","<div style=""font-size:60px;"">+</div>","null","","fixation","","","","","","","","","","",""
"aa-learning-trial","208","767566","0.0-11.0-2.0-1.9","6461","1","18","Male","approach_avoid_spark_v1","""event"",""trial"",""time""
""fullscreenenter"",""1"",""3866""
","
","
","""event"",""trial"",""time""
""fullscreenenter"",""1"",""3866""
","
","","","","","","620","images/flower7.png","","","learning","-4","-4","1","1","flower","plants","2","1","","good","[3]"
"html-keyboard-response","209","768076","0.0-11.0-2.0-0.10","6461","1","18","Male","approach_avoid_spark_v1","""event"",""trial"",""time""
""fullscreenenter"",""1"",""3866""
","
","
","""event"",""trial"",""time""
""fullscreenenter"",""1"",""3866""
","
","","","","","","null","<div style=""font-size:60px;"">+</div>","null","","fixation","","","","","","","","","","",""
"aa-learning-trial","210","771106","0.0-11.0-2.0-1.10","6461","1","18","Male","approach_avoid_spark_v1","""event"",""trial"",""time""
""fullscreenenter"",""1"",""3866""
","
","
","""event"",""trial"",""time""
""fullscreenenter"",""1"",""3866""
","
","","","","","","1549","images/tree3.png","","","learning","-3","0","0","0","tree","plants","2","1","","bad","[-6]"
"html-keyboard-response","211","771615","0.0-11.0-2.0-0.11","6461","1","18","Male","approach_avoid_spark_v1","""event"",""trial"",""time""
""fullscreenenter"",""1"",""3866""
","
","
","""event"",""trial"",""time""
""fullscreenenter"",""1"",""3866""
","
","","","","","","null","<div style=""font-size:60px;"">+</div>","null","","fixation","","","","","","","","","","",""
"aa-learning-trial","212","774646","0.0-11.0-2.0-1.11","6461","1","18","Male","approach_avoid_spark_v1","""event"",""trial"",""time""
""fullscreenenter"",""1"",""3866""
","
","
","""event"",""trial"",""time""
""fullscreenenter"",""1"",""3866""
","
","","","","","","1715","images/flower7.png","","","learning","-4","0","0","0","flower","plants","2","1","","good","[3]"
"html-keyboard-response","213","775155","0.0-11.0-2.0-0.12","6461","1","18","Male","approach_avoid_spark_v1","""event"",""trial"",""time""
""fullscreenenter"",""1"",""3866""
","
","
","""event"",""trial"",""time""
""fullscreenenter"",""1"",""3866""
","
","","","","","","null","<div style=""font-size:60px;"">+</div>","null","","fixation","","","","","","","","","","",""
"aa-learning-trial","214","778185","0.0-11.0-2.0-1.12","6461","1","18","Male","approach_avoid_spark_v1","""event"",""trial"",""time""
""fullscreenenter"",""1"",""3866""
","
","
","""event"",""trial"",""time""
""fullscreenenter"",""1"",""3866""
","
","","","","","","1178","images/flower4.png","","","learning","7","7","1","1","flower","plants","2","1","","good","[3]"
"html-keyboard-response","215","778695","0.0-11.0-2.0-0.13","6461","1","18","Male","approach_avoid_spark_v1","""event"",""trial"",""time""
""fullscreenenter"",""1"",""3866""
","
","
","""event"",""trial"",""time""
""fullscreenenter"",""1"",""3866""
","
","","","","","","null","<div style=""font-size:60px;"">+</div>","null","","fixation","","","","","","","","","","",""
"aa-learning-trial","216","781725","0.0-11.0-2.0-1.13","6461","1","18","Male","approach_avoid_spark_v1","""event"",""trial"",""time""
""fullscreenenter"",""1"",""3866""
","
","
","""event"",""trial"",""time""
""fullscreenenter"",""1"",""3866""
","
","","","","","","1790.9999999998836","images/cactus4.png","","","learning","1","0","0","0","cactus","plants","2","1","","neutral","0"
"html-keyboard-response","217","782235","0.0-11.0-2.0-0.14","6461","1","18","Male","approach_avoid_spark_v1","""event"",""trial"",""time""
""fullscreenenter"",""1"",""3866""
","
","
","""event"",""trial"",""time""
""fullscreenenter"",""1"",""3866""
","
","","","","","","null","<div style=""font-size:60px;"">+</div>","null","","fixation","","","","","","","","","","",""
"aa-learning-trial","218","785266","0.0-11.0-2.0-1.14","6461","1","18","Male","approach_avoid_spark_v1","""event"",""trial"",""time""
""fullscreenenter"",""1"",""3866""
","
","
","""event"",""trial"",""time""
""fullscreenenter"",""1"",""3866""
","
","","","","","","1437","images/tree6.png","","","learning","3","0","0","0","tree","plants","2","1","","bad","[-6]"
"html-keyboard-response","219","785775","0.0-11.0-2.0-0.15","6461","1","18","Male","approach_avoid_spark_v1","""event"",""trial"",""time""
""fullscreenenter"",""1"",""3866""
","
","
","""event"",""trial"",""time""
""fullscreenenter"",""1"",""3866""
","
","","","","","","null","<div style=""font-size:60px;"">+</div>","null","","fixation","","","","","","","","","","",""
"aa-learning-trial","220","788806","0.0-11.0-2.0-1.15","6461","1","18","Male","approach_avoid_spark_v1","""event"",""trial"",""time""
""fullscreenenter"",""1"",""3866""
","
","
","""event"",""trial"",""time""
""fullscreenenter"",""1"",""3866""
","
","","","","","","1568","images/flower7.png","","","learning","-4","0","0","0","flower","plants","2","1","","good","[3]"
"html-keyboard-response","221","789315","0.0-11.0-2.0-0.16","6461","1","18","Male","approach_avoid_spark_v1","""event"",""trial"",""time""
""fullscreenenter"",""1"",""3866""
","
","
","""event"",""trial"",""time""
""fullscreenenter"",""1"",""3866""
","
","","","","","","null","<div style=""font-size:60px;"">+</div>","null","","fixation","","","","","","","","","","",""
"aa-learning-trial","222","792345","0.0-11.0-2.0-1.16","6461","1","18","Male","approach_avoid_spark_v1","""event"",""trial"",""time""
""fullscreenenter"",""1"",""3866""
","
","
","""event"",""trial"",""time""
""fullscreenenter"",""1"",""3866""
","
","","","","","","1222.9999999998836","images/tree4.png","","","learning","8","0","0","0","tree","plants","2","1","","bad","[-6]"
"html-keyboard-response","223","792854","0.0-11.0-2.0-0.17","6461","1","18","Male","approach_avoid_spark_v1","""event"",""trial"",""time""
""fullscreenenter"",""1"",""3866""
","
","
","""event"",""trial"",""time""
""fullscreenenter"",""1"",""3866""
","
","","","","","","null","<div style=""font-size:60px;"">+</div>","null","","fixation","","","","","","","","","","",""
"aa-learning-trial","224","795885","0.0-11.0-2.0-1.17","6461","1","18","Male","approach_avoid_spark_v1","""event"",""trial"",""time""
""fullscreenenter"",""1"",""3866""
","
","
","""event"",""trial"",""time""
""fullscreenenter"",""1"",""3866""
","
","","","","","","741","images/cactus5.png","","","learning","-9","-9","1","1","cactus","plants","2","1","","neutral","0"
"html-keyboard-response","225","796395","0.0-11.0-2.0-0.18","6461","1","18","Male","approach_avoid_spark_v1","""event"",""trial"",""time""
""fullscreenenter"",""1"",""3866""
","
","
","""event"",""trial"",""time""
""fullscreenenter"",""1"",""3866""
","
","","","","","","null","<div style=""font-size:60px;"">+</div>","null","","fixation","","","","","","","","","","",""
"aa-learning-trial","226","799425","0.0-11.0-2.0-1.18","6461","1","18","Male","approach_avoid_spark_v1","""event"",""trial"",""time""
""fullscreenenter"",""1"",""3866""
","
","
","""event"",""trial"",""time""
""fullscreenenter"",""1"",""3866""
","
","","","","","","1304","images/flower8.png","","","learning","2","2","1","1","flower","plants","2","1","","good","[3]"
"html-keyboard-response","227","799935","0.0-11.0-2.0-0.19","6461","1","18","Male","approach_avoid_spark_v1","""event"",""trial"",""time""
""fullscreenenter"",""1"",""3866""
","
","
","""event"",""trial"",""time""
""fullscreenenter"",""1"",""3866""
","
","","","","","","null","<div style=""font-size:60px;"">+</div>","null","","fixation","","","","","","","","","","",""
"aa-learning-trial","228","802964","0.0-11.0-2.0-1.19","6461","1","18","Male","approach_avoid_spark_v1","""event"",""trial"",""time""
""fullscreenenter"",""1"",""3866""
","
","
","""event"",""trial"",""time""
""fullscreenenter"",""1"",""3866""
","
","","","","","","924.0000000001164","images/tree1.png","","","learning","-1","0","0","0","tree","plants","2","1","","bad","[-6]"
"html-keyboard-response","229","803475","0.0-11.0-2.0-0.20","6461","1","18","Male","approach_avoid_spark_v1","""event"",""trial"",""time""
""fullscreenenter"",""1"",""3866""
","
","
","""event"",""trial"",""time""
""fullscreenenter"",""1"",""3866""
","
","","","","","","null","<div style=""font-size:60px;"">+</div>","null","","fixation","","","","","","","","","","",""
"aa-learning-trial","230","806505","0.0-11.0-2.0-1.20","6461","1","18","Male","approach_avoid_spark_v1","""event"",""trial"",""time""
""fullscreenenter"",""1"",""3866""
","
","
","""event"",""trial"",""time""
""fullscreenenter"",""1"",""3866""
","
","","","","","","965.0000000001164","images/cactus5.png","","","learning","-9","0","0","0","cactus","plants","2","1","","neutral","0"
"html-keyboard-response","231","807015","0.0-11.0-2.0-0.21","6461","1","18","Male","approach_avoid_spark_v1","""event"",""trial"",""time""
""fullscreenenter"",""1"",""3866""
","
","
","""event"",""trial"",""time""
""fullscreenenter"",""1"",""3866""
","
","","","","","","null","<div style=""font-size:60px;"">+</div>","null","","fixation","","","","","","","","","","",""
"aa-learning-trial","232","810045","0.0-11.0-2.0-1.21","6461","1","18","Male","approach_avoid_spark_v1","""event"",""trial"",""time""
""fullscreenenter"",""1"",""3866""
","
","
","""event"",""trial"",""time""
""fullscreenenter"",""1"",""3866""
","
","","","","","","1384","images/flower3.png","","","learning","5","0","0","0","flower","plants","2","1","","good","[3]"
"html-keyboard-response","233","810554","0.0-11.0-2.0-0.22","6461","1","18","Male","approach_avoid_spark_v1","""event"",""trial"",""time""
""fullscreenenter"",""1"",""3866""
","
","
","""event"",""trial"",""time""
""fullscreenenter"",""1"",""3866""
","
","","","","","","null","<div style=""font-size:60px;"">+</div>","null","","fixation","","","","","","","","","","",""
"aa-learning-trial","234","813584","0.0-11.0-2.0-1.22","6461","1","18","Male","approach_avoid_spark_v1","""event"",""trial"",""time""
""fullscreenenter"",""1"",""3866""
","
","
","""event"",""trial"",""time""
""fullscreenenter"",""1"",""3866""
","
","","","","","","1019.9999999998836","images/tree3.png","","","learning","-3","-3","1","1","tree","plants","2","1","","bad","[-6]"
"html-keyboard-response","235","814094","0.0-11.0-2.0-0.23","6461","1","18","Male","approach_avoid_spark_v1","""event"",""trial"",""time""
""fullscreenenter"",""1"",""3866""
","
","
","""event"",""trial"",""time""
""fullscreenenter"",""1"",""3866""
","
","","","","","","null","<div style=""font-size:60px;"">+</div>","null","","fixation","","","","","","","","","","",""
"aa-learning-trial","236","817124","0.0-11.0-2.0-1.23","6461","1","18","Male","approach_avoid_spark_v1","""event"",""trial"",""time""
""fullscreenenter"",""1"",""3866""
","
","
","""event"",""trial"",""time""
""fullscreenenter"",""1"",""3866""
","
","","","","","","987.0000000001164","images/tree1.png","","","learning","-1","0","0","0","tree","plants","2","1","","bad","[-6]"
"html-keyboard-response","237","817634","0.0-11.0-2.0-0.24","6461","1","18","Male","approach_avoid_spark_v1","""event"",""trial"",""time""
""fullscreenenter"",""1"",""3866""
","
","
","""event"",""trial"",""time""
""fullscreenenter"",""1"",""3866""
","
","","","","","","null","<div style=""font-size:60px;"">+</div>","null","","fixation","","","","","","","","","","",""
"aa-learning-trial","238","820664","0.0-11.0-2.0-1.24","6461","1","18","Male","approach_avoid_spark_v1","""event"",""trial"",""time""
""fullscreenenter"",""1"",""3866""
","
","
","""event"",""trial"",""time""
""fullscreenenter"",""1"",""3866""
","
","","","","","","867","images/flower7.png","","","learning","-4","0","0","0","flower","plants","2","1","","good","[3]"
"html-keyboard-response","239","821174","0.0-11.0-2.0-0.25","6461","1","18","Male","approach_avoid_spark_v1","""event"",""trial"",""time""
""fullscreenenter"",""1"",""3866""
","
","
","""event"",""trial"",""time""
""fullscreenenter"",""1"",""3866""
","
