"trial_type","trial_index","time_elapsed","internal_node_id","subject_id","task_condition","age","gender","task_version","interactions","blur_events","focus_events","fullscreenenter_events","fullscreenexit_events","success","timeout","failed_images","failed_audio","failed_video","rt","stimulus","response","button_pressed","task_part","approach_reward","points","key_press","option_selected","stim_cat","task_block","block_condition","block_number","correct","cat_type","mean_cat_reward"
"pavlovia","0","3","0.0-0.0","5977","2","18","Male","approach_avoid_spark_v1","""event"",""trial"",""time""
""fullscreenenter"",""1"",""3168""
","
","
","""event"",""trial"",""time""
""fullscreenenter"",""1"",""3168""
","
","","","","","","","","","","","","","","","","","","","","",""
"fullscreen","1","4165","0.0-1.0","5977","2","18","Male","approach_avoid_spark_v1","""event"",""trial"",""time""
""fullscreenenter"",""1"",""3168""
""blur"",""2"",""8529""
","""event"",""trial"",""time""
""blur"",""2"",""8529""
","
","""event"",""trial"",""time""
""fullscreenenter"",""1"",""3168""
","
","true","","","","","","","","","","","","","","","","","","","",""
"preload","2","9461","0.0-2.0","5977","2","18","Male","approach_avoid_spark_v1","""event"",""trial"",""time""
""fullscreenenter"",""1"",""3168""
""blur"",""2"",""8529""
""focus"",""3"",""13194""
","""event"",""trial"",""time""
""blur"",""2"",""8529""
","""event"",""trial"",""time""
""focus"",""3"",""13194""
","""event"",""trial"",""time""
""fullscreenenter"",""1"",""3168""
","
","true","false","[]","[]","[]","","","","","","","","","","","","","","","",""
"audio-keyboard-response","3","13728","0.0-3.0","5977","2","18","Male","approach_avoid_spark_v1","""event"",""trial"",""time""
""fullscreenenter"",""1"",""3168""
""blur"",""2"",""8529""
""focus"",""3"",""13194""
","""event"",""trial"",""time""
""blur"",""2"",""8529""
","""event"",""trial"",""time""
""focus"",""3"",""13194""
","""event"",""trial"",""time""
""fullscreenenter"",""1"",""3168""
","
","","","","","","4266.666666666667","audio/beep_loop.wav"," ","","","","","","","","","","","","",""
"audio-button-response","4","15341","0.0-4.0","5977","2","18","Male","approach_avoid_spark_v1","""event"",""trial"",""time""
""fullscreenenter"",""1"",""3168""
""blur"",""2"",""8529""
""focus"",""3"",""13194""
","""event"",""trial"",""time""
""blur"",""2"",""8529""
","""event"",""trial"",""time""
""focus"",""3"",""13194""
","""event"",""trial"",""time""
""fullscreenenter"",""1"",""3168""
","
","","","","","","1611","audio/shark.wav","4","","","","","","","","","","","","",""
"audio-button-response","5","17791","0.0-5.0","5977","2","18","Male","approach_avoid_spark_v1","""event"",""trial"",""time""
""fullscreenenter"",""1"",""3168""
""blur"",""2"",""8529""
""focus"",""3"",""13194""
","""event"",""trial"",""time""
""blur"",""2"",""8529""
","""event"",""trial"",""time""
""focus"",""3"",""13194""
","""event"",""trial"",""time""
""fullscreenenter"",""1"",""3168""
","
","","","","","","1440","audio/turtle.wav","1","","","","","","","","","","","","",""
"preload","6","21614","0.0-6.0","5977","2","18","Male","approach_avoid_spark_v1","""event"",""trial"",""time""
""fullscreenenter"",""1"",""3168""
""blur"",""2"",""8529""
""focus"",""3"",""13194""
","""event"",""trial"",""time""
""blur"",""2"",""8529""
","""event"",""trial"",""time""
""focus"",""3"",""13194""
","""event"",""trial"",""time""
""fullscreenenter"",""1"",""3168""
","
","true","false","[]","[]","[]","","","","","","","","","","","","","","","",""
"html-keyboard-response","7","25137","0.0-7.0","5977","2","18","Male","approach_avoid_spark_v1","""event"",""trial"",""time""
""fullscreenenter"",""1"",""3168""
""blur"",""2"",""8529""
""focus"",""3"",""13194""
""blur"",""8"",""31169""
""focus"",""8"",""34339""
","""event"",""trial"",""time""
""blur"",""2"",""8529""
""blur"",""8"",""31169""
","""event"",""trial"",""time""
""focus"",""3"",""13194""
""focus"",""8"",""34339""
","""event"",""trial"",""time""
""fullscreenenter"",""1"",""3168""
","
","","","","","","3522.1000000089407","Welcome to the experiment. Press any key to begin and to advance the instructions."," ","","","","","","","","","","","","",""
"learning-instructions","8","35957","0.0-8.0-0.0-0.0","5977","2","18","Male","approach_avoid_spark_v1","""event"",""trial"",""time""
""fullscreenenter"",""1"",""3168""
""blur"",""2"",""8529""
""focus"",""3"",""13194""
""blur"",""8"",""31169""
""focus"",""8"",""34339""
","""event"",""trial"",""time""
""blur"",""2"",""8529""
""blur"",""8"",""31169""
","""event"",""trial"",""time""
""focus"",""3"",""13194""
""focus"",""8"",""34339""
","""event"",""trial"",""time""
""fullscreenenter"",""1"",""3168""
","
","","","","","","3862.4000000059605","<p> Welcome! Today you are going to play 6 different rounds of a decision-making game. </p><p> Use the mouse to click next to continue. </p>","","0","instructions","","","","","","","","","","",""
"learning-instructions","9","39657","0.0-8.0-0.0-0.1","5977","2","18","Male","approach_avoid_spark_v1","""event"",""trial"",""time""
""fullscreenenter"",""1"",""3168""
""blur"",""2"",""8529""
""focus"",""3"",""13194""
""blur"",""8"",""31169""
""focus"",""8"",""34339""
","""event"",""trial"",""time""
""blur"",""2"",""8529""
""blur"",""8"",""31169""
","""event"",""trial"",""time""
""focus"",""3"",""13194""
""focus"",""8"",""34339""
","""event"",""trial"",""time""
""fullscreenenter"",""1"",""3168""
","
","","","","","","971.5","<p> You will start with a practice round to learn the rules. </p>","","0","instructions","","","","","","","","","","",""
"learning-instructions","10","43957","0.0-8.0-0.0-0.2","5977","2","18","Male","approach_avoid_spark_v1","""event"",""trial"",""time""
""fullscreenenter"",""1"",""3168""
""blur"",""2"",""8529""
""focus"",""3"",""13194""
""blur"",""8"",""31169""
""focus"",""8"",""34339""
","""event"",""trial"",""time""
""blur"",""2"",""8529""
""blur"",""8"",""31169""
","""event"",""trial"",""time""
""focus"",""3"",""13194""
""focus"",""8"",""34339""
","""event"",""trial"",""time""
""fullscreenenter"",""1"",""3168""
","
","","","","","","844.5999999940395","<p> Your goal in this round is to give out sports equipment to kids. </p></div>","","0","instructions","","","","","","","","","","",""
"learning-instructions","11","52660","0.0-8.0-0.0-0.3","5977","2","18","Male","approach_avoid_spark_v1","""event"",""trial"",""time""
""fullscreenenter"",""1"",""3168""
""blur"",""2"",""8529""
""focus"",""3"",""13194""
""blur"",""8"",""31169""
""focus"",""8"",""34339""
","""event"",""trial"",""time""
""blur"",""2"",""8529""
""blur"",""8"",""31169""
","""event"",""trial"",""time""
""focus"",""3"",""13194""
""focus"",""8"",""34339""
","""event"",""trial"",""time""
""fullscreenenter"",""1"",""3168""
","
","","","","","","1153.3999999910593","<p> The kids only like some of the equipment.  </p><p> On each turn, you will see a piece of sports equipment.   </p><p> You need to decide whether to give it to the kids or not.  </p>","","0","instructions","","","","","","","","","","",""
"learning-instructions","12","59756","0.0-8.0-0.0-0.4","5977","2","18","Male","approach_avoid_spark_v1","""event"",""trial"",""time""
""fullscreenenter"",""1"",""3168""
""blur"",""2"",""8529""
""focus"",""3"",""13194""
""blur"",""8"",""31169""
""focus"",""8"",""34339""
","""event"",""trial"",""time""
""blur"",""2"",""8529""
""blur"",""8"",""31169""
","""event"",""trial"",""time""
""focus"",""3"",""13194""
""focus"",""8"",""34339""
","""event"",""trial"",""time""
""fullscreenenter"",""1"",""3168""
","
","","","","","","2339.2999999970198","<p> You can give them the equipment by pressing 1 and choose not to give it to them by pressing 0. </p><br><div class=""choice-instructions-grid""> <div class=""choice-option""><img src=""images/approach.png"" class=""choice-option-img"" stage=""instructions"" position=""0"" ><div class=""choice-option-text""> Press ""1."" </div></div><div class=""choice-option""><img src=""images/avoid.png"" class=""choice-option-img"" stage=""instructions"" position=""1"" ><div class=""choice-option-text""> Press ""0."" </div></div>","","0","instructions","","","","","","","","","","",""
"learning-instructions","13","69523","0.0-8.0-0.0-0.5","5977","2","18","Male","approach_avoid_spark_v1","""event"",""trial"",""time""
""fullscreenenter"",""1"",""3168""
""blur"",""2"",""8529""
""focus"",""3"",""13194""
""blur"",""8"",""31169""
""focus"",""8"",""34339""
","""event"",""trial"",""time""
""blur"",""2"",""8529""
""blur"",""8"",""31169""
","""event"",""trial"",""time""
""focus"",""3"",""13194""
""focus"",""8"",""34339""
","""event"",""trial"",""time""
""fullscreenenter"",""1"",""3168""
","
","","","","","","2379.7000000029802","<p> If you give them a piece of equipment they like, they will be happy! </p><p> But if you give them a piece of equipment they do not like, they will be sad. </p>","","0","instructions","","","","","","","","","","",""
"learning-instructions","14","80955","0.0-8.0-0.0-0.6","5977","2","18","Male","approach_avoid_spark_v1","""event"",""trial"",""time""
""fullscreenenter"",""1"",""3168""
""blur"",""2"",""8529""
""focus"",""3"",""13194""
""blur"",""8"",""31169""
""focus"",""8"",""34339""
","""event"",""trial"",""time""
""blur"",""2"",""8529""
""blur"",""8"",""31169""
","""event"",""trial"",""time""
""focus"",""3"",""13194""
""focus"",""8"",""34339""
","""event"",""trial"",""time""
""fullscreenenter"",""1"",""3168""
","
","","","","","","915.7000000029802","<p> You will earn points based on how you make kids feel. </p><p> If you make them happy, you will WIN anywhere from 1 - 9 points, </p><p> but if you make them sad, you will LOSE anywhere from 1 - 9 points. </p>","","0","instructions","","","","","","","","","","",""
"learning-instructions","15","91442","0.0-8.0-0.0-0.7","5977","2","18","Male","approach_avoid_spark_v1","""event"",""trial"",""time""
""fullscreenenter"",""1"",""3168""
""blur"",""2"",""8529""
""focus"",""3"",""13194""
""blur"",""8"",""31169""
""focus"",""8"",""34339""
","""event"",""trial"",""time""
""blur"",""2"",""8529""
""blur"",""8"",""31169""
","""event"",""trial"",""time""
""focus"",""3"",""13194""
""focus"",""8"",""34339""
","""event"",""trial"",""time""
""fullscreenenter"",""1"",""3168""
","
","","","","","","928.7999999970198","<p> You will see how many points you won or lost in the center of the screen. </p><p> Here is what you would see if you won 6 points: </p><p style=""color:green;font-size:50px;font-weight:bolder"">6</p><p style=""color:green"">The text is GREEN because you WON points.</p>","","0","instructions","","","","","","","","","","",""
"learning-instructions","16","99542","0.0-8.0-0.0-0.8","5977","2","18","Male","approach_avoid_spark_v1","""event"",""trial"",""time""
""fullscreenenter"",""1"",""3168""
""blur"",""2"",""8529""
""focus"",""3"",""13194""
""blur"",""8"",""31169""
""focus"",""8"",""34339""
""blur"",""17"",""109579""
""focus"",""17"",""109772""
","""event"",""trial"",""time""
""blur"",""2"",""8529""
""blur"",""8"",""31169""
""blur"",""17"",""109579""
","""event"",""trial"",""time""
""focus"",""3"",""13194""
""focus"",""8"",""34339""
""focus"",""17"",""109772""
","""event"",""trial"",""time""
""fullscreenenter"",""1"",""3168""
","
","","","","","","2584.4000000059605","<p> And here is what you would see if you lost 4 points: </p><p style=""color:red;font-size:50px;font-weight:bolder"">-4</p><p style=""color:red"">The text is RED because you LOST points. </p>","","0","instructions","","","","","","","","","","",""
"learning-instructions","17","119774","0.0-8.0-0.0-0.9","5977","2","18","Male","approach_avoid_spark_v1","""event"",""trial"",""time""
""fullscreenenter"",""1"",""3168""
""blur"",""2"",""8529""
""focus"",""3"",""13194""
""blur"",""8"",""31169""
""focus"",""8"",""34339""
""blur"",""17"",""109579""
""focus"",""17"",""109772""
","""event"",""trial"",""time""
""blur"",""2"",""8529""
""blur"",""8"",""31169""
""blur"",""17"",""109579""
","""event"",""trial"",""time""
""focus"",""3"",""13194""
""focus"",""8"",""34339""
""focus"",""17"",""109772""
","""event"",""trial"",""time""
""fullscreenenter"",""1"",""3168""
","
","","","","","","3649","<p> Some of the equipment will make the kids VERY happy or sad. </p><p> These pieces of equipment will make you win or lose LOTS of points. </p><p> Other pieces of equipment will only make the kids a little happy or sad. </p><p> These pieces of equipment will make you win or lose small amounts of points. </p>","","0","instructions","","","","","","","","","","",""
"learning-instructions","18","131890","0.0-8.0-0.0-0.10","5977","2","18","Male","approach_avoid_spark_v1","""event"",""trial"",""time""
""fullscreenenter"",""1"",""3168""
""blur"",""2"",""8529""
""focus"",""3"",""13194""
""blur"",""8"",""31169""
""focus"",""8"",""34339""
""blur"",""17"",""109579""
""focus"",""17"",""109772""
","""event"",""trial"",""time""
""blur"",""2"",""8529""
""blur"",""8"",""31169""
""blur"",""17"",""109579""
","""event"",""trial"",""time""
""focus"",""3"",""13194""
""focus"",""8"",""34339""
""focus"",""17"",""109772""
","""event"",""trial"",""time""
""fullscreenenter"",""1"",""3168""
","
","","","","","","1482.5","<p> If you choose not to give them the equipment, you will not win or lose any points. </p><p>  However, in the center of the screen, you will see the number of points you WOULD HAVE won or lost if you had given them the equipment. </p>","","0","instructions","","","","","","","","","","",""
"learning-instructions","19","156706","0.0-8.0-0.0-0.11","5977","2","18","Male","approach_avoid_spark_v1","""event"",""trial"",""time""
""fullscreenenter"",""1"",""3168""
""blur"",""2"",""8529""
""focus"",""3"",""13194""
""blur"",""8"",""31169""
""focus"",""8"",""34339""
""blur"",""17"",""109579""
""focus"",""17"",""109772""
","""event"",""trial"",""time""
""blur"",""2"",""8529""
""blur"",""8"",""31169""
""blur"",""17"",""109579""
","""event"",""trial"",""time""
""focus"",""3"",""13194""
""focus"",""8"",""34339""
""focus"",""17"",""109772""
","""event"",""trial"",""time""
""fullscreenenter"",""1"",""3168""
","
","","","","","","3280.7999999970198","<p> Here is what you might see if you did not give the equipment to the kids but it would have made them happy: </p><p style=""color:grey; font-size:50px; display: inline-block; border-spacing: 15px; border-width:3px; border-style:solid; border-color:red"">  &nbsp; 7 &nbsp; </p><p> Remember, in this case, you would not win or lose ANY points because you did not give them the equipment.  </p><p style=""color:grey"">The text is GREY because you earned ZERO points. </p><p style=""color:red"">However, choosing to give the kids the equipment would have made you win points. The box around the text is RED because you chose the worse option. </p>","","0","instructions","","","","","","","","","","",""
"learning-instructions","20","180939","0.0-8.0-0.0-0.12","5977","2","18","Male","approach_avoid_spark_v1","""event"",""trial"",""time""
""fullscreenenter"",""1"",""3168""
""blur"",""2"",""8529""
""focus"",""3"",""13194""
""blur"",""8"",""31169""
""focus"",""8"",""34339""
""blur"",""17"",""109579""
""focus"",""17"",""109772""
","""event"",""trial"",""time""
""blur"",""2"",""8529""
""blur"",""8"",""31169""
""blur"",""17"",""109579""
","""event"",""trial"",""time""
""focus"",""3"",""13194""
""focus"",""8"",""34339""
""focus"",""17"",""109772""
","""event"",""trial"",""time""
""fullscreenenter"",""1"",""3168""
","
","","","","","","3151.5","<p> Here is what you might see if you did not give the equipment to the kids but it would have made them sad: </p><p style=""color:grey;font-size:50px; display: inline-block; border-spacing: 15px; border-width:3px; border-style:solid; border-color:green"">  &nbsp; -8 &nbsp; </p><p> Remember, in this case, you would not win or lose ANY points because you did not give them the equipment.  </p><p style=""color:grey"">The text is GREY because you earned ZERO points. </p><p  style=""color:green""> Choosing to give the kids the equipment would have made you lose points. The box around the text is GREEN because you chose the better option.</p>","","0","instructions","","","","","","","","","","",""
"learning-instructions","21","191239","0.0-8.0-0.0-0.13","5977","2","18","Male","approach_avoid_spark_v1","""event"",""trial"",""time""
""fullscreenenter"",""1"",""3168""
""blur"",""2"",""8529""
""focus"",""3"",""13194""
""blur"",""8"",""31169""
""focus"",""8"",""34339""
""blur"",""17"",""109579""
""focus"",""17"",""109772""
","""event"",""trial"",""time""
""blur"",""2"",""8529""
""blur"",""8"",""31169""
""blur"",""17"",""109579""
","""event"",""trial"",""time""
""focus"",""3"",""13194""
""focus"",""8"",""34339""
""focus"",""17"",""109772""
","""event"",""trial"",""time""
""fullscreenenter"",""1"",""3168""
","
","","","","","","940.5999999940395","<p> You will have 3 seconds to make each choice. Try to respond before time runs out! </p><p> You will lose 5 points each time you do not make a response. </p>","","0","instructions","","","","","","","","","","",""
"learning-instructions","22","197372","0.0-8.0-0.0-0.14","5977","2","18","Male","approach_avoid_spark_v1","""event"",""trial"",""time""
""fullscreenenter"",""1"",""3168""
""blur"",""2"",""8529""
""focus"",""3"",""13194""
""blur"",""8"",""31169""
""focus"",""8"",""34339""
""blur"",""17"",""109579""
""focus"",""17"",""109772""
","""event"",""trial"",""time""
""blur"",""2"",""8529""
""blur"",""8"",""31169""
""blur"",""17"",""109579""
","""event"",""trial"",""time""
""focus"",""3"",""13194""
""focus"",""8"",""34339""
""focus"",""17"",""109772""
","""event"",""trial"",""time""
""fullscreenenter"",""1"",""3168""
","
","","","","","","716.4000000059605","<p> This is just a practice round, but in the real game, your bonus payment will depend on your total number of points.","","0","instructions","","","","","","","","","","",""
"learning-instructions","23","205072","0.0-8.0-0.0-0.15","5977","2","18","Male","approach_avoid_spark_v1","""event"",""trial"",""time""
""fullscreenenter"",""1"",""3168""
""blur"",""2"",""8529""
""focus"",""3"",""13194""
""blur"",""8"",""31169""
""focus"",""8"",""34339""
""blur"",""17"",""109579""
""focus"",""17"",""109772""
","""event"",""trial"",""time""
""blur"",""2"",""8529""
""blur"",""8"",""31169""
""blur"",""17"",""109579""
","""event"",""trial"",""time""
""focus"",""3"",""13194""
""focus"",""8"",""34339""
""focus"",""17"",""109772""
","""event"",""trial"",""time""
""fullscreenenter"",""1"",""3168""
","
","","","","","","1919.7000000029802","<p> Remember, you can give them the equipment by pressing 1 and choose not to give it to them by pressing 0. </p><br><div class=""choice-instructions-grid""> <div class=""choice-option""><img src=""images/approach.png"" class=""choice-option-img"" stage=""instructions"" position=""0"" ><div class=""choice-option-text""> Press ""1."" </div></div><div class=""choice-option""><img src=""images/avoid.png"" class=""choice-option-img"" stage=""instructions"" position=""1"" ><div class=""choice-option-text""> Press ""0."" </div></div>","","0","instructions","","","","","","","","","","",""
"html-button-response","24","207656","0.0-8.0-1.0","5977","2","18","Male","approach_avoid_spark_v1","""event"",""trial"",""time""
""fullscreenenter"",""1"",""3168""
""blur"",""2"",""8529""
""focus"",""3"",""13194""
""blur"",""8"",""31169""
""focus"",""8"",""34339""
""blur"",""17"",""109579""
""focus"",""17"",""109772""
","""event"",""trial"",""time""
""blur"",""2"",""8529""
""blur"",""8"",""31169""
""blur"",""17"",""109579""
","""event"",""trial"",""time""
""focus"",""3"",""13194""
""focus"",""8"",""34339""
""focus"",""17"",""109772""
","""event"",""trial"",""time""
""fullscreenenter"",""1"",""3168""
","
","","","","","","2477.4000000059605","<p> Ready to practice? </p>","0","","","","","","","","","","","","",""
"html-keyboard-response","25","208276","0.0-8.0-2.0-0.0","5977","2","18","Male","approach_avoid_spark_v1","""event"",""trial"",""time""
""fullscreenenter"",""1"",""3168""
""blur"",""2"",""8529""
""focus"",""3"",""13194""
""blur"",""8"",""31169""
""focus"",""8"",""34339""
""blur"",""17"",""109579""
""focus"",""17"",""109772""
","""event"",""trial"",""time""
""blur"",""2"",""8529""
""blur"",""8"",""31169""
""blur"",""17"",""109579""
","""event"",""trial"",""time""
""focus"",""3"",""13194""
""focus"",""8"",""34339""
""focus"",""17"",""109772""
","""event"",""trial"",""time""
""fullscreenenter"",""1"",""3168""
","
","","","","","","null","<div style=""font-size:60px;"">+</div>","null","","fixation","","","","","","","","","","",""
"aa-learning-trial","26","211288","0.0-8.0-2.0-1.0","5977","2","18","Male","approach_avoid_spark_v1","""event"",""trial"",""time""
""fullscreenenter"",""1"",""3168""
""blur"",""2"",""8529""
""focus"",""3"",""13194""
""blur"",""8"",""31169""
""focus"",""8"",""34339""
""blur"",""17"",""109579""
""focus"",""17"",""109772""
","""event"",""trial"",""time""
""blur"",""2"",""8529""
""blur"",""8"",""31169""
""blur"",""17"",""109579""
","""event"",""trial"",""time""
""focus"",""3"",""13194""
""focus"",""8"",""34339""
""focus"",""17"",""109772""
","""event"",""trial"",""time""
""fullscreenenter"",""1"",""3168""
","
","","","","","","1731.5","images/racket1.png","","","learning","-8","-8","1","1","practice","practice","practice","-1","","",""
"html-keyboard-response","27","211792","0.0-8.0-2.0-0.1","5977","2","18","Male","approach_avoid_spark_v1","""event"",""trial"",""time""
""fullscreenenter"",""1"",""3168""
""blur"",""2"",""8529""
""focus"",""3"",""13194""
""blur"",""8"",""31169""
""focus"",""8"",""34339""
""blur"",""17"",""109579""
""focus"",""17"",""109772""
","""event"",""trial"",""time""
""blur"",""2"",""8529""
""blur"",""8"",""31169""
""blur"",""17"",""109579""
","""event"",""trial"",""time""
""focus"",""3"",""13194""
""focus"",""8"",""34339""
""focus"",""17"",""109772""
","""event"",""trial"",""time""
""fullscreenenter"",""1"",""3168""
","
","","","","","","null","<div style=""font-size:60px;"">+</div>","null","","fixation","","","","","","","","","","",""
"aa-learning-trial","28","214804","0.0-8.0-2.0-1.1","5977","2","18","Male","approach_avoid_spark_v1","""event"",""trial"",""time""
""fullscreenenter"",""1"",""3168""
""blur"",""2"",""8529""
""focus"",""3"",""13194""
""blur"",""8"",""31169""
""focus"",""8"",""34339""
""blur"",""17"",""109579""
""focus"",""17"",""109772""
","""event"",""trial"",""time""
""blur"",""2"",""8529""
""blur"",""8"",""31169""
""blur"",""17"",""109579""
","""event"",""trial"",""time""
""focus"",""3"",""13194""
""focus"",""8"",""34339""
""focus"",""17"",""109772""
","""event"",""trial"",""time""
""fullscreenenter"",""1"",""3168""
","
","","","","","","1105.699999988079","images/ball4.png","","","learning","-5","-5","1","1","practice","practice","practice","-1","","",""
"html-keyboard-response","29","215316","0.0-8.0-2.0-0.2","5977","2","18","Male","approach_avoid_spark_v1","""event"",""trial"",""time""
""fullscreenenter"",""1"",""3168""
""blur"",""2"",""8529""
""focus"",""3"",""13194""
""blur"",""8"",""31169""
""focus"",""8"",""34339""
""blur"",""17"",""109579""
""focus"",""17"",""109772""
","""event"",""trial"",""time""
""blur"",""2"",""8529""
""blur"",""8"",""31169""
""blur"",""17"",""109579""
","""event"",""trial"",""time""
""focus"",""3"",""13194""
""focus"",""8"",""34339""
""focus"",""17"",""109772""
","""event"",""trial"",""time""
""fullscreenenter"",""1"",""3168""
","
","","","","","","null","<div style=""font-size:60px;"">+</div>","null","","fixation","","","","","","","","","","",""
"aa-learning-trial","30","218331","0.0-8.0-2.0-1.2","5977","2","18","Male","approach_avoid_spark_v1","""event"",""trial"",""time""
""fullscreenenter"",""1"",""3168""
""blur"",""2"",""8529""
""focus"",""3"",""13194""
""blur"",""8"",""31169""
""focus"",""8"",""34339""
""blur"",""17"",""109579""
""focus"",""17"",""109772""
","""event"",""trial"",""time""
""blur"",""2"",""8529""
""blur"",""8"",""31169""
""blur"",""17"",""109579""
","""event"",""trial"",""time""
""focus"",""3"",""13194""
""focus"",""8"",""34339""
""focus"",""17"",""109772""
","""event"",""trial"",""time""
""fullscreenenter"",""1"",""3168""
","
","","","","","","1186.5","images/racket1.png","","","learning","3","0","0","0","practice","practice","practice","-1","","",""
"html-keyboard-response","31","218844","0.0-8.0-2.0-0.3","5977","2","18","Male","approach_avoid_spark_v1","""event"",""trial"",""time""
""fullscreenenter"",""1"",""3168""
""blur"",""2"",""8529""
""focus"",""3"",""13194""
""blur"",""8"",""31169""
""focus"",""8"",""34339""
""blur"",""17"",""109579""
""focus"",""17"",""109772""
","""event"",""trial"",""time""
""blur"",""2"",""8529""
""blur"",""8"",""31169""
""blur"",""17"",""109579""
","""event"",""trial"",""time""
""focus"",""3"",""13194""
""focus"",""8"",""34339""
""focus"",""17"",""109772""
","""event"",""trial"",""time""
""fullscreenenter"",""1"",""3168""
","
","","","","","","null","<div style=""font-size:60px;"">+</div>","null","","fixation","","","","","","","","","","",""
"aa-learning-trial","32","221860","0.0-8.0-2.0-1.3","5977","2","18","Male","approach_avoid_spark_v1","""event"",""trial"",""time""
""fullscreenenter"",""1"",""3168""
""blur"",""2"",""8529""
""focus"",""3"",""13194""
""blur"",""8"",""31169""
""focus"",""8"",""34339""
""blur"",""17"",""109579""
""focus"",""17"",""109772""
","""event"",""trial"",""time""
""blur"",""2"",""8529""
""blur"",""8"",""31169""
""blur"",""17"",""109579""
","""event"",""trial"",""time""
""focus"",""3"",""13194""
""focus"",""8"",""34339""
""focus"",""17"",""109772""
","""event"",""trial"",""time""
""fullscreenenter"",""1"",""3168""
","
","","","","","","408.70000000298023","images/racket1.png","","","learning","-4","-4","1","1","practice","practice","practice","-1","","",""
"html-keyboard-response","33","222370","0.0-8.0-2.0-0.4","5977","2","18","Male","approach_avoid_spark_v1","""event"",""trial"",""time""
""fullscreenenter"",""1"",""3168""
""blur"",""2"",""8529""
""focus"",""3"",""13194""
""blur"",""8"",""31169""
""focus"",""8"",""34339""
""blur"",""17"",""109579""
""focus"",""17"",""109772""
","""event"",""trial"",""time""
""blur"",""2"",""8529""
""blur"",""8"",""31169""
""blur"",""17"",""109579""
","""event"",""trial"",""time""
""focus"",""3"",""13194""
""focus"",""8"",""34339""
""focus"",""17"",""109772""
","""event"",""trial"",""time""
""fullscreenenter"",""1"",""3168""
","
","","","","","","null","<div style=""font-size:60px;"">+</div>","null","","fixation","","","","","","","","","","",""
"aa-learning-trial","34","225388","0.0-8.0-2.0-1.4","5977","2","18","Male","approach_avoid_spark_v1","""event"",""trial"",""time""
""fullscreenenter"",""1"",""3168""
""blur"",""2"",""8529""
""focus"",""3"",""13194""
""blur"",""8"",""31169""
""focus"",""8"",""34339""
""blur"",""17"",""109579""
""focus"",""17"",""109772""
","""event"",""trial"",""time""
""blur"",""2"",""8529""
""blur"",""8"",""31169""
""blur"",""17"",""109579""
","""event"",""trial"",""time""
""focus"",""3"",""13194""
""focus"",""8"",""34339""
""focus"",""17"",""109772""
","""event"",""trial"",""time""
""fullscreenenter"",""1"",""3168""
","
","","","","","","738.4000000059605","images/racket2.png","","","learning","7","7","1","1","practice","practice","practice","-1","","",""
"html-keyboard-response","35","225897","0.0-8.0-2.0-0.5","5977","2","18","Male","approach_avoid_spark_v1","""event"",""trial"",""time""
""fullscreenenter"",""1"",""3168""
""blur"",""2"",""8529""
""focus"",""3"",""13194""
""blur"",""8"",""31169""
""focus"",""8"",""34339""
""blur"",""17"",""109579""
""focus"",""17"",""109772""
","""event"",""trial"",""time""
""blur"",""2"",""8529""
""blur"",""8"",""31169""
""blur"",""17"",""109579""
","""event"",""trial"",""time""
""focus"",""3"",""13194""
""focus"",""8"",""34339""
""focus"",""17"",""109772""
","""event"",""trial"",""time""
""fullscreenenter"",""1"",""3168""
","
","","","","","","null","<div style=""font-size:60px;"">+</div>","null","","fixation","","","","","","","","","","",""
"aa-learning-trial","36","228904","0.0-8.0-2.0-1.5","5977","2","18","Male","approach_avoid_spark_v1","""event"",""trial"",""time""
""fullscreenenter"",""1"",""3168""
""blur"",""2"",""8529""
""focus"",""3"",""13194""
""blur"",""8"",""31169""
""focus"",""8"",""34339""
""blur"",""17"",""109579""
""focus"",""17"",""109772""
","""event"",""trial"",""time""
""blur"",""2"",""8529""
""blur"",""8"",""31169""
""blur"",""17"",""109579""
","""event"",""trial"",""time""
""focus"",""3"",""13194""
""focus"",""8"",""34339""
""focus"",""17"",""109772""
","""event"",""trial"",""time""
""fullscreenenter"",""1"",""3168""
","
","","","","","","639.6999999880791","images/ball1.png","","","learning","7","7","1","1","practice","practice","practice","-1","","",""
"html-keyboard-response","37","229414","0.0-8.0-2.0-0.6","5977","2","18","Male","approach_avoid_spark_v1","""event"",""trial"",""time""
""fullscreenenter"",""1"",""3168""
""blur"",""2"",""8529""
""focus"",""3"",""13194""
""blur"",""8"",""31169""
""focus"",""8"",""34339""
""blur"",""17"",""109579""
""focus"",""17"",""109772""
","""event"",""trial"",""time""
""blur"",""2"",""8529""
""blur"",""8"",""31169""
""blur"",""17"",""109579""
","""event"",""trial"",""time""
""focus"",""3"",""13194""
""focus"",""8"",""34339""
""focus"",""17"",""109772""
","""event"",""trial"",""time""
""fullscreenenter"",""1"",""3168""
","
","","","","","","null","<div style=""font-size:60px;"">+</div>","null","","fixation","","","","","","","","","","",""
"aa-learning-trial","38","232427","0.0-8.0-2.0-1.6","5977","2","18","Male","approach_avoid_spark_v1","""event"",""trial"",""time""
""fullscreenenter"",""1"",""3168""
""blur"",""2"",""8529""
""focus"",""3"",""13194""
""blur"",""8"",""31169""
""focus"",""8"",""34339""
""blur"",""17"",""109579""
""focus"",""17"",""109772""
","""event"",""trial"",""time""
""blur"",""2"",""8529""
""blur"",""8"",""31169""
""blur"",""17"",""109579""
","""event"",""trial"",""time""
""focus"",""3"",""13194""
""focus"",""8"",""34339""
""focus"",""17"",""109772""
","""event"",""trial"",""time""
""fullscreenenter"",""1"",""3168""
","
","","","","","","914.7000000029802","images/racket1.png","","","learning","1","0","0","0","practice","practice","practice","-1","","",""
"html-keyboard-response","39","232937","0.0-8.0-2.0-0.7","5977","2","18","Male","approach_avoid_spark_v1","""event"",""trial"",""time""
""fullscreenenter"",""1"",""3168""
""blur"",""2"",""8529""
""focus"",""3"",""13194""
""blur"",""8"",""31169""
""focus"",""8"",""34339""
""blur"",""17"",""109579""
""focus"",""17"",""109772""
","""event"",""trial"",""time""
""blur"",""2"",""8529""
""blur"",""8"",""31169""
""blur"",""17"",""109579""
","""event"",""trial"",""time""
""focus"",""3"",""13194""
""focus"",""8"",""34339""
""focus"",""17"",""109772""
","""event"",""trial"",""time""
""fullscreenenter"",""1"",""3168""
","
","","","","","","null","<div style=""font-size:60px;"">+</div>","null","","fixation","","","","","","","","","","",""
"aa-learning-trial","40","235948","0.0-8.0-2.0-1.7","5977","2","18","Male","approach_avoid_spark_v1","""event"",""trial"",""time""
""fullscreenenter"",""1"",""3168""
""blur"",""2"",""8529""
""focus"",""3"",""13194""
""blur"",""8"",""31169""
""focus"",""8"",""34339""
""blur"",""17"",""109579""
""focus"",""17"",""109772""
","""event"",""trial"",""time""
""blur"",""2"",""8529""
""blur"",""8"",""31169""
""blur"",""17"",""109579""
","""event"",""trial"",""time""
""focus"",""3"",""13194""
""focus"",""8"",""34339""
""focus"",""17"",""109772""
","""event"",""trial"",""time""
""fullscreenenter"",""1"",""3168""
","
","","","","","","824.2999999970198","images/racket1.png","","","learning","-6","-6","1","1","practice","practice","practice","-1","","",""
"html-keyboard-response","41","236457","0.0-8.0-2.0-0.8","5977","2","18","Male","approach_avoid_spark_v1","""event"",""trial"",""time""
""fullscreenenter"",""1"",""3168""
""blur"",""2"",""8529""
""focus"",""3"",""13194""
""blur"",""8"",""31169""
""focus"",""8"",""34339""
""blur"",""17"",""109579""
""focus"",""17"",""109772""
","""event"",""trial"",""time""
""blur"",""2"",""8529""
""blur"",""8"",""31169""
""blur"",""17"",""109579""
","""event"",""trial"",""time""
""focus"",""3"",""13194""
""focus"",""8"",""34339""
""focus"",""17"",""109772""
","""event"",""trial"",""time""
""fullscreenenter"",""1"",""3168""
","
","","","","","","null","<div style=""font-size:60px;"">+</div>","null","","fixation","","","","","","","","","","",""
"aa-learning-trial","42","239468","0.0-8.0-2.0-1.8","5977","2","18","Male","approach_avoid_spark_v1","""event"",""trial"",""time""
""fullscreenenter"",""1"",""3168""
""blur"",""2"",""8529""
""focus"",""3"",""13194""
""blur"",""8"",""31169""
""focus"",""8"",""34339""
""blur"",""17"",""109579""
""focus"",""17"",""109772""
","""event"",""trial"",""time""
""blur"",""2"",""8529""
""blur"",""8"",""31169""
""blur"",""17"",""109579""
","""event"",""trial"",""time""
""focus"",""3"",""13194""
""focus"",""8"",""34339""
""focus"",""17"",""109772""
","""event"",""trial"",""time""
""fullscreenenter"",""1"",""3168""
","
","","","","","","663.4000000059605","images/ball1.png","","","learning","-4","-4","1","1","practice","practice","practice","-1","","",""
"html-keyboard-response","43","239975","0.0-8.0-2.0-0.9","5977","2","18","Male","approach_avoid_spark_v1","""event"",""trial"",""time""
""fullscreenenter"",""1"",""3168""
""blur"",""2"",""8529""
""focus"",""3"",""13194""
""blur"",""8"",""31169""
""focus"",""8"",""34339""
""blur"",""17"",""109579""
""focus"",""17"",""109772""
","""event"",""trial"",""time""
""blur"",""2"",""8529""
""blur"",""8"",""31169""
""blur"",""17"",""109579""
","""event"",""trial"",""time""
""focus"",""3"",""13194""
""focus"",""8"",""34339""
""focus"",""17"",""109772""
","""event"",""trial"",""time""
""fullscreenenter"",""1"",""3168""
","
","","","","","","null","<div style=""font-size:60px;"">+</div>","null","","fixation","","","","","","","","","","",""
"aa-learning-trial","44","242987","0.0-8.0-2.0-1.9","5977","2","18","Male","approach_avoid_spark_v1","""event"",""trial"",""time""
""fullscreenenter"",""1"",""3168""
""blur"",""2"",""8529""
""focus"",""3"",""13194""
""blur"",""8"",""31169""
""focus"",""8"",""34339""
""blur"",""17"",""109579""
""focus"",""17"",""109772""
","""event"",""trial"",""time""
""blur"",""2"",""8529""
""blur"",""8"",""31169""
""blur"",""17"",""109579""
","""event"",""trial"",""time""
""focus"",""3"",""13194""
""focus"",""8"",""34339""
""focus"",""17"",""109772""
","""event"",""trial"",""time""
""fullscreenenter"",""1"",""3168""
","
","","","","","","720","images/ball1.png","","","learning","5","0","0","0","practice","practice","practice","-1","","",""
"html-keyboard-response","45","243496","0.0-8.0-2.0-0.10","5977","2","18","Male","approach_avoid_spark_v1","""event"",""trial"",""time""
""fullscreenenter"",""1"",""3168""
""blur"",""2"",""8529""
""focus"",""3"",""13194""
""blur"",""8"",""31169""
""focus"",""8"",""34339""
""blur"",""17"",""109579""
""focus"",""17"",""109772""
","""event"",""trial"",""time""
""blur"",""2"",""8529""
""blur"",""8"",""31169""
""blur"",""17"",""109579""
","""event"",""trial"",""time""
""focus"",""3"",""13194""
""focus"",""8"",""34339""
""focus"",""17"",""109772""
","""event"",""trial"",""time""
""fullscreenenter"",""1"",""3168""
","
","","","","","","null","<div style=""font-size:60px;"">+</div>","null","","fixation","","","","","","","","","","",""
"aa-learning-trial","46","246503","0.0-8.0-2.0-1.10","5977","2","18","Male","approach_avoid_spark_v1","""event"",""trial"",""time""
""fullscreenenter"",""1"",""3168""
""blur"",""2"",""8529""
""focus"",""3"",""13194""
""blur"",""8"",""31169""
""focus"",""8"",""34339""
""blur"",""17"",""109579""
""focus"",""17"",""109772""
","""event"",""trial"",""time""
""blur"",""2"",""8529""
""blur"",""8"",""31169""
""blur"",""17"",""109579""
","""event"",""trial"",""time""
""focus"",""3"",""13194""
""focus"",""8"",""34339""
""focus"",""17"",""109772""
","""event"",""trial"",""time""
""fullscreenenter"",""1"",""3168""
","
","","","","","","412","images/ball1.png","","","learning","2","0","0","0","practice","practice","practice","-1","","",""
"html-keyboard-response","47","247011","0.0-8.0-2.0-0.11","5977","2","18","Male","approach_avoid_spark_v1","""event"",""trial"",""time""
""fullscreenenter"",""1"",""3168""
""blur"",""2"",""8529""
""focus"",""3"",""13194""
""blur"",""8"",""31169""
""focus"",""8"",""34339""
""blur"",""17"",""109579""
""focus"",""17"",""109772""
","""event"",""trial"",""time""
""blur"",""2"",""8529""
""blur"",""8"",""31169""
""blur"",""17"",""109579""
","""event"",""trial"",""time""
""focus"",""3"",""13194""
""focus"",""8"",""34339""
""focus"",""17"",""109772""
","""event"",""trial"",""time""
""fullscreenenter"",""1"",""3168""
","
","","","","","","null","<div style=""font-size:60px;"">+</div>","null","","fixation","","","","","","","","","","",""
"aa-learning-trial","48","250027","0.0-8.0-2.0-1.11","5977","2","18","Male","approach_avoid_spark_v1","""event"",""trial"",""time""
""fullscreenenter"",""1"",""3168""
""blur"",""2"",""8529""
""focus"",""3"",""13194""
""blur"",""8"",""31169""
""focus"",""8"",""34339""
""blur"",""17"",""109579""
""focus"",""17"",""109772""
","""event"",""trial"",""time""
""blur"",""2"",""8529""
""blur"",""8"",""31169""
""blur"",""17"",""109579""
","""event"",""trial"",""time""
""focus"",""3"",""13194""
""focus"",""8"",""34339""
""focus"",""17"",""109772""
","""event"",""trial"",""time""
""fullscreenenter"",""1"",""3168""
","
","","","","","","959.2000000029802","images/racket4.png","","","learning","-9","-9","1","1","practice","practice","practice","-1","","",""
"html-button-response","49","251472","0.0-8.0-3.0","5977","2","18","Male","approach_avoid_spark_v1","""event"",""trial"",""time""
""fullscreenenter"",""1"",""3168""
""blur"",""2"",""8529""
""focus"",""3"",""13194""
""blur"",""8"",""31169""
""focus"",""8"",""34339""
""blur"",""17"",""109579""
""focus"",""17"",""109772""
","""event"",""trial"",""time""
""blur"",""2"",""8529""
""blur"",""8"",""31169""
""blur"",""17"",""109579""
","""event"",""trial"",""time""
""focus"",""3"",""13194""
""focus"",""8"",""34339""
""focus"",""17"",""109772""
","""event"",""trial"",""time""
""fullscreenenter"",""1"",""3168""
","
","","","","","","1440.5999999940395","<p> You earned -22 points in the practice round! </p>","0","","break","","","","","","","","","","",""
"learning-instructions","50","261155","0.0-8.0-4.0-0.0","5977","2","18","Male","approach_avoid_spark_v1","""event"",""trial"",""time""
""fullscreenenter"",""1"",""3168""
""blur"",""2"",""8529""
""focus"",""3"",""13194""
""blur"",""8"",""31169""
""focus"",""8"",""34339""
""blur"",""17"",""109579""
""focus"",""17"",""109772""
","""event"",""trial"",""time""
""blur"",""2"",""8529""
""blur"",""8"",""31169""
""blur"",""17"",""109579""
","""event"",""trial"",""time""
""focus"",""3"",""13194""
""focus"",""8"",""34339""
""focus"",""17"",""109772""
","""event"",""trial"",""time""
""fullscreenenter"",""1"",""3168""
","
","","","","","","3578.2000000029802","<p> It's almost time to start the real game. </p><p> Before you start, we're going to ask you a few questions about how the game works. </p>","","0","instructions","","","","","","","","","","",""
"preload","51","263016","0.0-8.0-5.0","5977","2","18","Male","approach_avoid_spark_v1","""event"",""trial"",""time""
""fullscreenenter"",""1"",""3168""
""blur"",""2"",""8529""
""focus"",""3"",""13194""
""blur"",""8"",""31169""
""focus"",""8"",""34339""
""blur"",""17"",""109579""
""focus"",""17"",""109772""
","""event"",""trial"",""time""
""blur"",""2"",""8529""
""blur"",""8"",""31169""
""blur"",""17"",""109579""
","""event"",""trial"",""time""
""focus"",""3"",""13194""
""focus"",""8"",""34339""
""focus"",""17"",""109772""
","""event"",""trial"",""time""
""fullscreenenter"",""1"",""3168""
","
","true","false","[]","[]","[]","","","","","","","","","","","","","","","",""
"comp-q","52","269305","0.0-8.0-6.0-0.0","5977","2","18","Male","approach_avoid_spark_v1","""event"",""trial"",""time""
""fullscreenenter"",""1"",""3168""
""blur"",""2"",""8529""
""focus"",""3"",""13194""
""blur"",""8"",""31169""
""focus"",""8"",""34339""
""blur"",""17"",""109579""
""focus"",""17"",""109772""
","""event"",""trial"",""time""
""blur"",""2"",""8529""
""blur"",""8"",""31169""
""blur"",""17"",""109579""
","""event"",""trial"",""time""
""focus"",""3"",""13194""
""focus"",""8"",""34339""
""focus"",""17"",""109772""
","""event"",""trial"",""time""
""fullscreenenter"",""1"",""3168""
","
","","","","","","1288.5","<p> <b> True or False? </b> </p><p> If you see a number in GREY, that means you earned that many points. </p>","","1","comp_question","","","","","","","","","true","",""
"comp-q","53","280037","0.0-8.0-6.0-1.0","5977","2","18","Male","approach_avoid_spark_v1","""event"",""trial"",""time""
""fullscreenenter"",""1"",""3168""
""blur"",""2"",""8529""
""focus"",""3"",""13194""
""blur"",""8"",""31169""
""focus"",""8"",""34339""
""blur"",""17"",""109579""
""focus"",""17"",""109772""
","""event"",""trial"",""time""
""blur"",""2"",""8529""
""blur"",""8"",""31169""
""blur"",""17"",""109579""
","""event"",""trial"",""time""
""focus"",""3"",""13194""
""focus"",""8"",""34339""
""focus"",""17"",""109772""
","""event"",""trial"",""time""
""fullscreenenter"",""1"",""3168""
","
","","","","","","2381.7000000029802","<p><b> That's right! </b> If you see a grey number, it means you earned ZERO points. <br> The grey numbers show the points you WOULD HAVE earned if you had made the other choice. </p>","","0","comp_answer","","","","","","","","","","",""
"comp-q","54","285138","0.0-8.0-7.0-0.0","5977","2","18","Male","approach_avoid_spark_v1","""event"",""trial"",""time""
""fullscreenenter"",""1"",""3168""
""blur"",""2"",""8529""
""focus"",""3"",""13194""
""blur"",""8"",""31169""
""focus"",""8"",""34339""
""blur"",""17"",""109579""
""focus"",""17"",""109772""
","""event"",""trial"",""time""
""blur"",""2"",""8529""
""blur"",""8"",""31169""
""blur"",""17"",""109579""
","""event"",""trial"",""time""
""focus"",""3"",""13194""
""focus"",""8"",""34339""
""focus"",""17"",""109772""
","""event"",""trial"",""time""
""fullscreenenter"",""1"",""3168""
","
","","","","","","412.8999999910593","<p> <b> True or False? </b> </p><p> You will have as much time as you want to make each choice. </p>","","1","comp_question","","","","","","","","","true","",""
"comp-q","55","290688","0.0-8.0-7.0-1.0","5977","2","18","Male","approach_avoid_spark_v1","""event"",""trial"",""time""
""fullscreenenter"",""1"",""3168""
""blur"",""2"",""8529""
""focus"",""3"",""13194""
""blur"",""8"",""31169""
""focus"",""8"",""34339""
""blur"",""17"",""109579""
""focus"",""17"",""109772""
","""event"",""trial"",""time""
""blur"",""2"",""8529""
""blur"",""8"",""31169""
""blur"",""17"",""109579""
","""event"",""trial"",""time""
""focus"",""3"",""13194""
""focus"",""8"",""34339""
""focus"",""17"",""109772""
","""event"",""trial"",""time""
""fullscreenenter"",""1"",""3168""
","
","","","","","","1512.5","<p> <b> That's right! </b> You will only have 3 seconds to make each choice. </p>","","0","comp_answer","","","","","","","","","","",""
"comp-q","56","295920","0.0-8.0-8.0-0.0","5977","2","18","Male","approach_avoid_spark_v1","""event"",""trial"",""time""
""fullscreenenter"",""1"",""3168""
""blur"",""2"",""8529""
""focus"",""3"",""13194""
""blur"",""8"",""31169""
""focus"",""8"",""34339""
""blur"",""17"",""109579""
""focus"",""17"",""109772""
","""event"",""trial"",""time""
""blur"",""2"",""8529""
""blur"",""8"",""31169""
""blur"",""17"",""109579""
","""event"",""trial"",""time""
""focus"",""3"",""13194""
""focus"",""8"",""34339""
""focus"",""17"",""109772""
","""event"",""trial"",""time""
""fullscreenenter"",""1"",""3168""
","
","","","","","","565.5","<p> <b> True or False? </b> </p><p> You should use the '1' and '0' keys to make your choices. </p>","","0","comp_question","","","","","","","","","true","",""
"comp-q","57","301753","0.0-8.0-8.0-1.0","5977","2","18","Male","approach_avoid_spark_v1","""event"",""trial"",""time""
""fullscreenenter"",""1"",""3168""
""blur"",""2"",""8529""
""focus"",""3"",""13194""
""blur"",""8"",""31169""
""focus"",""8"",""34339""
""blur"",""17"",""109579""
""focus"",""17"",""109772""
","""event"",""trial"",""time""
""blur"",""2"",""8529""
""blur"",""8"",""31169""
""blur"",""17"",""109579""
","""event"",""trial"",""time""
""focus"",""3"",""13194""
""focus"",""8"",""34339""
""focus"",""17"",""109772""
","""event"",""trial"",""time""
""fullscreenenter"",""1"",""3168""
","
","","","","","","1228.4000000059605","<p> <b> That's right! </b> You should use the '1' and '0' keys to make each choice. </p>","","0","comp_answer","","","","","","","","","","",""
"learning-instructions","58","309354","0.0-8.0-9.0-0.0","5977","2","18","Male","approach_avoid_spark_v1","""event"",""trial"",""time""
""fullscreenenter"",""1"",""3168""
""blur"",""2"",""8529""
""focus"",""3"",""13194""
""blur"",""8"",""31169""
""focus"",""8"",""34339""
""blur"",""17"",""109579""
""focus"",""17"",""109772""
","""event"",""trial"",""time""
""blur"",""2"",""8529""
""blur"",""8"",""31169""
""blur"",""17"",""109579""
","""event"",""trial"",""time""
""focus"",""3"",""13194""
""focus"",""8"",""34339""
""focus"",""17"",""109772""
","""event"",""trial"",""time""
""fullscreenenter"",""1"",""3168""
","
","","","","","","1318.9000000059605","<p> It's now time to start the real game. </p>Do your best, because the points you earn in the next rounds will influence your bonus payment. </p>","","0","instructions","","","","","","","","","","",""
"preload","59","309488","0.0-9.0-0.0","5977","2","18","Male","approach_avoid_spark_v1","""event"",""trial"",""time""
""fullscreenenter"",""1"",""3168""
""blur"",""2"",""8529""
""focus"",""3"",""13194""
""blur"",""8"",""31169""
""focus"",""8"",""34339""
""blur"",""17"",""109579""
""focus"",""17"",""109772""
","""event"",""trial"",""time""
""blur"",""2"",""8529""
""blur"",""8"",""31169""
""blur"",""17"",""109579""
","""event"",""trial"",""time""
""focus"",""3"",""13194""
""focus"",""8"",""34339""
""focus"",""17"",""109772""
","""event"",""trial"",""time""
""fullscreenenter"",""1"",""3168""
","
","true","false","[]","[]","[]","","","","","","","","","","","","","","","",""
"learning-instructions","60","315971","0.0-9.0-1.0-0.0","5977","2","18","Male","approach_avoid_spark_v1","""event"",""trial"",""time""
""fullscreenenter"",""1"",""3168""
""blur"",""2"",""8529""
""focus"",""3"",""13194""
""blur"",""8"",""31169""
""focus"",""8"",""34339""
""blur"",""17"",""109579""
""focus"",""17"",""109772""
","""event"",""trial"",""time""
""blur"",""2"",""8529""
""blur"",""8"",""31169""
""blur"",""17"",""109579""
","""event"",""trial"",""time""
""focus"",""3"",""13194""
""focus"",""8"",""34339""
""focus"",""17"",""109772""
","""event"",""trial"",""time""
""fullscreenenter"",""1"",""3168""
","
","","","","","","1046","<p> Your goal in this round is to sell different plants to a picky customer. </p></div>","","0","instructions","","","","","","","","","","",""
"learning-instructions","61","326287","0.0-9.0-1.0-0.1","5977","2","18","Male","approach_avoid_spark_v1","""event"",""trial"",""time""
""fullscreenenter"",""1"",""3168""
""blur"",""2"",""8529""
""focus"",""3"",""13194""
""blur"",""8"",""31169""
""focus"",""8"",""34339""
""blur"",""17"",""109579""
""focus"",""17"",""109772""
","""event"",""trial"",""time""
""blur"",""2"",""8529""
""blur"",""8"",""31169""
""blur"",""17"",""109579""
","""event"",""trial"",""time""
""focus"",""3"",""13194""
""focus"",""8"",""34339""
""focus"",""17"",""109772""
","""event"",""trial"",""time""
""fullscreenenter"",""1"",""3168""
","
","","","","","","672.8999999910593","<p> The customer likes some plants and dislikes others.  </p><p> On each turn, you will see a plant.   </p><p> You need to decide whether to offer it to the customer or not.  </p>","","0","instructions","","","","","","","","","","",""
"learning-instructions","62","333571","0.0-9.0-1.0-0.2","5977","2","18","Male","approach_avoid_spark_v1","""event"",""trial"",""time""
""fullscreenenter"",""1"",""3168""
""blur"",""2"",""8529""
""focus"",""3"",""13194""
""blur"",""8"",""31169""
""focus"",""8"",""34339""
""blur"",""17"",""109579""
""focus"",""17"",""109772""
","""event"",""trial"",""time""
""blur"",""2"",""8529""
""blur"",""8"",""31169""
""blur"",""17"",""109579""
","""event"",""trial"",""time""
""focus"",""3"",""13194""
""focus"",""8"",""34339""
""focus"",""17"",""109772""
","""event"",""trial"",""time""
""fullscreenenter"",""1"",""3168""
","
","","","","","","1405.5","<p> You can offer the plant by pressing 1 and decide to not offer it by pressing 0. </p><br><div class=""choice-instructions-grid""> <div class=""choice-option""><img src=""images/approach.png"" class=""choice-option-img"" stage=""instructions"" position=""0"" ><div class=""choice-option-text""> Press ""1."" </div></div><div class=""choice-option""><img src=""images/avoid.png"" class=""choice-option-img"" stage=""instructions"" position=""1"" ><div class=""choice-option-text""> Press ""0."" </div></div>","","0","instructions","","","","","","","","","","",""
"learning-instructions","63","346271","0.0-9.0-1.0-0.3","5977","2","18","Male","approach_avoid_spark_v1","""event"",""trial"",""time""
""fullscreenenter"",""1"",""3168""
""blur"",""2"",""8529""
""focus"",""3"",""13194""
""blur"",""8"",""31169""
""focus"",""8"",""34339""
""blur"",""17"",""109579""
""focus"",""17"",""109772""
","""event"",""trial"",""time""
""blur"",""2"",""8529""
""blur"",""8"",""31169""
""blur"",""17"",""109579""
","""event"",""trial"",""time""
""focus"",""3"",""13194""
""focus"",""8"",""34339""
""focus"",""17"",""109772""
","""event"",""trial"",""time""
""fullscreenenter"",""1"",""3168""
","
","","","","","","1907","<p> If you offer a plant to the customer that she likes, she will be very pleased! </p><p> But if you offer a plant that she does NOT like, she will be annoyed. </p>","","0","instructions","","","","","","","","","","",""
"learning-instructions","64","362319","0.0-9.0-1.0-0.4","5977","2","18","Male","approach_avoid_spark_v1","""event"",""trial"",""time""
""fullscreenenter"",""1"",""3168""
""blur"",""2"",""8529""
""focus"",""3"",""13194""
""blur"",""8"",""31169""
""focus"",""8"",""34339""
""blur"",""17"",""109579""
""focus"",""17"",""109772""
","""event"",""trial"",""time""
""blur"",""2"",""8529""
""blur"",""8"",""31169""
""blur"",""17"",""109579""
","""event"",""trial"",""time""
""focus"",""3"",""13194""
""focus"",""8"",""34339""
""focus"",""17"",""109772""
","""event"",""trial"",""time""
""fullscreenenter"",""1"",""3168""
","
","","","","","","1024.7999999970198","<p> You will earn points based on how you made the customer feel. </p><p> If you made her pleased, you will WIN anywhere from 1 - 9 points, </p><p> but if you made her annoyed, you will LOSE anywhere from 1 - 9 points. </p>","","0","instructions","","","","","","","","","","",""
"learning-instructions","65","371053","0.0-9.0-1.0-0.5","5977","2","18","Male","approach_avoid_spark_v1","""event"",""trial"",""time""
""fullscreenenter"",""1"",""3168""
""blur"",""2"",""8529""
""focus"",""3"",""13194""
""blur"",""8"",""31169""
""focus"",""8"",""34339""
""blur"",""17"",""109579""
""focus"",""17"",""109772""
","""event"",""trial"",""time""
""blur"",""2"",""8529""
""blur"",""8"",""31169""
""blur"",""17"",""109579""
","""event"",""trial"",""time""
""focus"",""3"",""13194""
""focus"",""8"",""34339""
""focus"",""17"",""109772""
","""event"",""trial"",""time""
""fullscreenenter"",""1"",""3168""
","
","","","","","","150.09999999403954","<p> You will see how many points you won or lost in the center of the screen. </p><p> Here is what you would see if you won 5 points: </p><p style=""color:green;font-size:50px;font-weight:bolder"">5</p>","","0","instructions","","","","","","","","","","",""
"learning-instructions","66","375120","0.0-9.0-1.0-0.6","5977","2","18","Male","approach_avoid_spark_v1","""event"",""trial"",""time""
""fullscreenenter"",""1"",""3168""
""blur"",""2"",""8529""
""focus"",""3"",""13194""
""blur"",""8"",""31169""
""focus"",""8"",""34339""
""blur"",""17"",""109579""
""focus"",""17"",""109772""
","""event"",""trial"",""time""
""blur"",""2"",""8529""
""blur"",""8"",""31169""
""blur"",""17"",""109579""
","""event"",""trial"",""time""
""focus"",""3"",""13194""
""focus"",""8"",""34339""
""focus"",""17"",""109772""
","""event"",""trial"",""time""
""fullscreenenter"",""1"",""3168""
","
","","","","","","216.90000000596046","<p> And here is what you would see if you lost 3 points: </p><p style=""color:red;font-size:50px;font-weight:bolder"">-3</p>","","0","instructions","","","","","","","","","","",""
"learning-instructions","67","392221","0.0-9.0-1.0-0.7","5977","2","18","Male","approach_avoid_spark_v1","""event"",""trial"",""time""
""fullscreenenter"",""1"",""3168""
""blur"",""2"",""8529""
""focus"",""3"",""13194""
""blur"",""8"",""31169""
""focus"",""8"",""34339""
""blur"",""17"",""109579""
""focus"",""17"",""109772""
","""event"",""trial"",""time""
""blur"",""2"",""8529""
""blur"",""8"",""31169""
""blur"",""17"",""109579""
","""event"",""trial"",""time""
""focus"",""3"",""13194""
""focus"",""8"",""34339""
""focus"",""17"",""109772""
","""event"",""trial"",""time""
""fullscreenenter"",""1"",""3168""
","
","","","","","","917.7999999970198","<p> Some plants will make the customer VERY pleased or annoyed. </p><p> These plants will make you win or lose LOTS of points. </p><p> The customer will have less strong feelings about other plants. </p><p> These plants will make you win or lose small amounts of points. </p>","","0","instructions","","","","","","","","","","",""
"learning-instructions","68","405886","0.0-9.0-1.0-0.8","5977","2","18","Male","approach_avoid_spark_v1","""event"",""trial"",""time""
""fullscreenenter"",""1"",""3168""
""blur"",""2"",""8529""
""focus"",""3"",""13194""
""blur"",""8"",""31169""
""focus"",""8"",""34339""
""blur"",""17"",""109579""
""focus"",""17"",""109772""
","""event"",""trial"",""time""
""blur"",""2"",""8529""
""blur"",""8"",""31169""
""blur"",""17"",""109579""
","""event"",""trial"",""time""
""focus"",""3"",""13194""
""focus"",""8"",""34339""
""focus"",""17"",""109772""
","""event"",""trial"",""time""
""fullscreenenter"",""1"",""3168""
","
","","","","","","293.20000000298023","<p> If you choose to not offer the plant to the customer, you will not win or lose any points. </p><p>  However, in the center of the screen, you will see the number of points you WOULD HAVE won or lost if you had offered the plant. </p>","","0","instructions","","","","","","","","","","",""
"learning-instructions","69","419220","0.0-9.0-1.0-0.9","5977","2","18","Male","approach_avoid_spark_v1","""event"",""trial"",""time""
""fullscreenenter"",""1"",""3168""
""blur"",""2"",""8529""
""focus"",""3"",""13194""
""blur"",""8"",""31169""
""focus"",""8"",""34339""
""blur"",""17"",""109579""
""focus"",""17"",""109772""
","""event"",""trial"",""time""
""blur"",""2"",""8529""
""blur"",""8"",""31169""
""blur"",""17"",""109579""
","""event"",""trial"",""time""
""focus"",""3"",""13194""
""focus"",""8"",""34339""
""focus"",""17"",""109772""
","""event"",""trial"",""time""
""fullscreenenter"",""1"",""3168""
","
","","","","","","1236.5999999940395","<p> Here is what you might see if you did not offer the plant but the customer would have liked it: </p><p style=""color:grey; font-size:50px; display: inline-block; border-spacing: 15px; border-width:3px; border-style:solid; border-color:red"">  &nbsp; 6 &nbsp; </p><p> Remember, in this case, you would not win or lose ANY points because you did not offer the plant.  </p>","","0","instructions","","","","","","","","","","",""
"learning-instructions","70","428003","0.0-9.0-1.0-0.10","5977","2","18","Male","approach_avoid_spark_v1","""event"",""trial"",""time""
""fullscreenenter"",""1"",""3168""
""blur"",""2"",""8529""
""focus"",""3"",""13194""
""blur"",""8"",""31169""
""focus"",""8"",""34339""
""blur"",""17"",""109579""
""focus"",""17"",""109772""
","""event"",""trial"",""time""
""blur"",""2"",""8529""
""blur"",""8"",""31169""
""blur"",""17"",""109579""
","""event"",""trial"",""time""
""focus"",""3"",""13194""
""focus"",""8"",""34339""
""focus"",""17"",""109772""
","""event"",""trial"",""time""
""fullscreenenter"",""1"",""3168""
","
","","","","","","870.5999999940395","<p> Try to make the best choice for each plant because </p><p> at the end of the game, you will earn bonus money based on how many points you earned. </p>","","0","instructions","","","","","","","","","","",""
"learning-instructions","71","437136","0.0-9.0-1.0-0.11","5977","2","18","Male","approach_avoid_spark_v1","""event"",""trial"",""time""
""fullscreenenter"",""1"",""3168""
""blur"",""2"",""8529""
""focus"",""3"",""13194""
""blur"",""8"",""31169""
""focus"",""8"",""34339""
""blur"",""17"",""109579""
""focus"",""17"",""109772""
","""event"",""trial"",""time""
""blur"",""2"",""8529""
""blur"",""8"",""31169""
""blur"",""17"",""109579""
","""event"",""trial"",""time""
""focus"",""3"",""13194""
""focus"",""8"",""34339""
""focus"",""17"",""109772""
","""event"",""trial"",""time""
""fullscreenenter"",""1"",""3168""
","
","","","","","","934.1000000089407","<p> You will have 3 seconds to make each choice. Try to respond before time runs out! </p><p> You will lose 5 points each time you do not make a response. </p>","","0","instructions","","","","","","","","","","",""
"html-keyboard-response","72","437750","0.0-9.0-2.0-0.0","5977","2","18","Male","approach_avoid_spark_v1","""event"",""trial"",""time""
""fullscreenenter"",""1"",""3168""
""blur"",""2"",""8529""
""focus"",""3"",""13194""
""blur"",""8"",""31169""
""focus"",""8"",""34339""
""blur"",""17"",""109579""
""focus"",""17"",""109772""
","""event"",""trial"",""time""
""blur"",""2"",""8529""
""blur"",""8"",""31169""
""blur"",""17"",""109579""
","""event"",""trial"",""time""
""focus"",""3"",""13194""
""focus"",""8"",""34339""
""focus"",""17"",""109772""
","""event"",""trial"",""time""
""fullscreenenter"",""1"",""3168""
","
","","","","","","null","<div style=""font-size:60px;"">+</div>","null","","fixation","","","","","","","","","","",""
"aa-learning-trial","73","440763","0.0-9.0-2.0-1.0","5977","2","18","Male","approach_avoid_spark_v1","""event"",""trial"",""time""
""fullscreenenter"",""1"",""3168""
""blur"",""2"",""8529""
""focus"",""3"",""13194""
""blur"",""8"",""31169""
""focus"",""8"",""34339""
""blur"",""17"",""109579""
""focus"",""17"",""109772""
","""event"",""trial"",""time""
""blur"",""2"",""8529""
""blur"",""8"",""31169""
""blur"",""17"",""109579""
","""event"",""trial"",""time""
""focus"",""3"",""13194""
""focus"",""8"",""34339""
""focus"",""17"",""109772""
","""event"",""trial"",""time""
""fullscreenenter"",""1"",""3168""
","
","","","","","","2869","images/cactus1.png","","","learning","-2","-2","1","1","cactus","plants","2","0","","bad","[-3]"
"html-keyboard-response","74","441268","0.0-9.0-2.0-0.1","5977","2","18","Male","approach_avoid_spark_v1","""event"",""trial"",""time""
""fullscreenenter"",""1"",""3168""
""blur"",""2"",""8529""
""focus"",""3"",""13194""
""blur"",""8"",""31169""
""focus"",""8"",""34339""
""blur"",""17"",""109579""
""focus"",""17"",""109772""
","""event"",""trial"",""time""
""blur"",""2"",""8529""
""blur"",""8"",""31169""
""blur"",""17"",""109579""
","""event"",""trial"",""time""
""focus"",""3"",""13194""
""focus"",""8"",""34339""
""focus"",""17"",""109772""
","""event"",""trial"",""time""
""fullscreenenter"",""1"",""3168""
","
","","","","","","null","<div style=""font-size:60px;"">+</div>","null","","fixation","","","","","","","","","","",""
"aa-learning-trial","75","444273","0.0-9.0-2.0-1.1","5977","2","18","Male","approach_avoid_spark_v1","""event"",""trial"",""time""
""fullscreenenter"",""1"",""3168""
""blur"",""2"",""8529""
""focus"",""3"",""13194""
""blur"",""8"",""31169""
""focus"",""8"",""34339""
""blur"",""17"",""109579""
""focus"",""17"",""109772""
","""event"",""trial"",""time""
""blur"",""2"",""8529""
""blur"",""8"",""31169""
""blur"",""17"",""109579""
","""event"",""trial"",""time""
""focus"",""3"",""13194""
""focus"",""8"",""34339""
""focus"",""17"",""109772""
","""event"",""trial"",""time""
""fullscreenenter"",""1"",""3168""
","
","","","","","","902.2000000029802","images/tree2.png","","","learning","4","4","1","1","tree","plants","2","0","","good","[6]"
"html-keyboard-response","76","444780","0.0-9.0-2.0-0.2","5977","2","18","Male","approach_avoid_spark_v1","""event"",""trial"",""time""
""fullscreenenter"",""1"",""3168""
""blur"",""2"",""8529""
""focus"",""3"",""13194""
""blur"",""8"",""31169""
""focus"",""8"",""34339""
""blur"",""17"",""109579""
""focus"",""17"",""109772""
","""event"",""trial"",""time""
""blur"",""2"",""8529""
""blur"",""8"",""31169""
""blur"",""17"",""109579""
","""event"",""trial"",""time""
""focus"",""3"",""13194""
""focus"",""8"",""34339""
""focus"",""17"",""109772""
","""event"",""trial"",""time""
""fullscreenenter"",""1"",""3168""
","
","","","","","","null","<div style=""font-size:60px;"">+</div>","null","","fixation","","","","","","","","","","",""
"aa-learning-trial","77","447785","0.0-9.0-2.0-1.2","5977","2","18","Male","approach_avoid_spark_v1","""event"",""trial"",""time""
""fullscreenenter"",""1"",""3168""
""blur"",""2"",""8529""
""focus"",""3"",""13194""
""blur"",""8"",""31169""
""focus"",""8"",""34339""
""blur"",""17"",""109579""
""focus"",""17"",""109772""
","""event"",""trial"",""time""
""blur"",""2"",""8529""
""blur"",""8"",""31169""
""blur"",""17"",""109579""
","""event"",""trial"",""time""
""focus"",""3"",""13194""
""focus"",""8"",""34339""
""focus"",""17"",""109772""
","""event"",""trial"",""time""
""fullscreenenter"",""1"",""3168""
","
","","","","","","341.69999998807907","images/tree7.png","","","learning","1","0","0","0","tree","plants","2","0","","good","[6]"
"html-keyboard-response","78","448291","0.0-9.0-2.0-0.3","5977","2","18","Male","approach_avoid_spark_v1","""event"",""trial"",""time""
""fullscreenenter"",""1"",""3168""
""blur"",""2"",""8529""
""focus"",""3"",""13194""
""blur"",""8"",""31169""
""focus"",""8"",""34339""
""blur"",""17"",""109579""
""focus"",""17"",""109772""
","""event"",""trial"",""time""
""blur"",""2"",""8529""
""blur"",""8"",""31169""
""blur"",""17"",""109579""
","""event"",""trial"",""time""
""focus"",""3"",""13194""
""focus"",""8"",""34339""
""focus"",""17"",""109772""
","""event"",""trial"",""time""
""fullscreenenter"",""1"",""3168""
","
","","","","","","null","<div style=""font-size:60px;"">+</div>","null","","fixation","","","","","","","","","","",""
"aa-learning-trial","79","451301","0.0-9.0-2.0-1.3","5977","2","18","Male","approach_avoid_spark_v1","""event"",""trial"",""time""
""fullscreenenter"",""1"",""3168""
""blur"",""2"",""8529""
""focus"",""3"",""13194""
""blur"",""8"",""31169""
""focus"",""8"",""34339""
""blur"",""17"",""109579""
""focus"",""17"",""109772""
","""event"",""trial"",""time""
""blur"",""2"",""8529""
""blur"",""8"",""31169""
""blur"",""17"",""109579""
","""event"",""trial"",""time""
""focus"",""3"",""13194""
""focus"",""8"",""34339""
""focus"",""17"",""109772""
","""event"",""trial"",""time""
""fullscreenenter"",""1"",""3168""
","
","","","","","","889.7999999970198","images/cactus1.png","","","learning","-2","-2","1","1","cactus","plants","2","0","","bad","[-3]"
"html-keyboard-response","80","451810","0.0-9.0-2.0-0.4","5977","2","18","Male","approach_avoid_spark_v1","""event"",""trial"",""time""
""fullscreenenter"",""1"",""3168""
""blur"",""2"",""8529""
""focus"",""3"",""13194""
""blur"",""8"",""31169""
""focus"",""8"",""34339""
""blur"",""17"",""109579""
""focus"",""17"",""109772""
","""event"",""trial"",""time""
""blur"",""2"",""8529""
""blur"",""8"",""31169""
""blur"",""17"",""109579""
","""event"",""trial"",""time""
""focus"",""3"",""13194""
""focus"",""8"",""34339""
""focus"",""17"",""109772""
","""event"",""trial"",""time""
""fullscreenenter"",""1"",""3168""
","
","","","","","","null","<div style=""font-size:60px;"">+</div>","null","","fixation","","","","","","","","","","",""
"aa-learning-trial","81","454818","0.0-9.0-2.0-1.4","5977","2","18","Male","approach_avoid_spark_v1","""event"",""trial"",""time""
""fullscreenenter"",""1"",""3168""
""blur"",""2"",""8529""
""focus"",""3"",""13194""
""blur"",""8"",""31169""
""focus"",""8"",""34339""
""blur"",""17"",""109579""
""focus"",""17"",""109772""
","""event"",""trial"",""time""
""blur"",""2"",""8529""
""blur"",""8"",""31169""
""blur"",""17"",""109579""
","""event"",""trial"",""time""
""focus"",""3"",""13194""
""focus"",""8"",""34339""
""focus"",""17"",""109772""
","""event"",""trial"",""time""
""fullscreenenter"",""1"",""3168""
","
","","","","","","885.5","images/tree4.png","","","learning","-8","-8","1","1","tree","plants","2","0","","good","[6]"
"html-keyboard-response","82","455321","0.0-9.0-2.0-0.5","5977","2","18","Male","approach_avoid_spark_v1","""event"",""trial"",""time""
""fullscreenenter"",""1"",""3168""
""blur"",""2"",""8529""
""focus"",""3"",""13194""
""blur"",""8"",""31169""
""focus"",""8"",""34339""
""blur"",""17"",""109579""
""focus"",""17"",""109772""
","""event"",""trial"",""time""
""blur"",""2"",""8529""
""blur"",""8"",""31169""
""blur"",""17"",""109579""
","""event"",""trial"",""time""
""focus"",""3"",""13194""
""focus"",""8"",""34339""
""focus"",""17"",""109772""
","""event"",""trial"",""time""
""fullscreenenter"",""1"",""3168""
","
","","","","","","null","<div style=""font-size:60px;"">+</div>","null","","fixation","","","","","","","","","","",""
"aa-learning-trial","83","458333","0.0-9.0-2.0-1.5","5977","2","18","Male","approach_avoid_spark_v1","""event"",""trial"",""time""
""fullscreenenter"",""1"",""3168""
""blur"",""2"",""8529""
""focus"",""3"",""13194""
""blur"",""8"",""31169""
""focus"",""8"",""34339""
""blur"",""17"",""109579""
""focus"",""17"",""109772""
","""event"",""trial"",""time""
""blur"",""2"",""8529""
""blur"",""8"",""31169""
""blur"",""17"",""109579""
","""event"",""trial"",""time""
""focus"",""3"",""13194""
""focus"",""8"",""34339""
""focus"",""17"",""109772""
","""event"",""trial"",""time""
""fullscreenenter"",""1"",""3168""
","
","","","","","","912.5","images/cactus2.png","","","learning","6","0","0","0","cactus","plants","2","0","","bad","[-3]"
"html-keyboard-response","84","458844","0.0-9.0-2.0-0.6","5977","2","18","Male","approach_avoid_spark_v1","""event"",""trial"",""time""
""fullscreenenter"",""1"",""3168""
""blur"",""2"",""8529""
""focus"",""3"",""13194""
""blur"",""8"",""31169""
""focus"",""8"",""34339""
""blur"",""17"",""109579""
""focus"",""17"",""109772""
","""event"",""trial"",""time""
""blur"",""2"",""8529""
""blur"",""8"",""31169""
""blur"",""17"",""109579""
","""event"",""trial"",""time""
""focus"",""3"",""13194""
""focus"",""8"",""34339""
""focus"",""17"",""109772""
","""event"",""trial"",""time""
""fullscreenenter"",""1"",""3168""
","
","","","","","","null","<div style=""font-size:60px;"">+</div>","null","","fixation","","","","","","","","","","",""
"aa-learning-trial","85","461850","0.0-9.0-2.0-1.6","5977","2","18","Male","approach_avoid_spark_v1","""event"",""trial"",""time""
""fullscreenenter"",""1"",""3168""
""blur"",""2"",""8529""
""focus"",""3"",""13194""
""blur"",""8"",""31169""
""focus"",""8"",""34339""
""blur"",""17"",""109579""
""focus"",""17"",""109772""
","""event"",""trial"",""time""
""blur"",""2"",""8529""
""blur"",""8"",""31169""
""blur"",""17"",""109579""
","""event"",""trial"",""time""
""focus"",""3"",""13194""
""focus"",""8"",""34339""
""focus"",""17"",""109772""
","""event"",""trial"",""time""
""fullscreenenter"",""1"",""3168""
","
","","","","","","634.0999999940395","images/flower6.png","","","learning","-5","-5","1","1","flower","plants","2","0","","neutral","0"
"html-keyboard-response","86","462357","0.0-9.0-2.0-0.7","5977","2","18","Male","approach_avoid_spark_v1","""event"",""trial"",""time""
""fullscreenenter"",""1"",""3168""
""blur"",""2"",""8529""
""focus"",""3"",""13194""
""blur"",""8"",""31169""
""focus"",""8"",""34339""
""blur"",""17"",""109579""
""focus"",""17"",""109772""
","""event"",""trial"",""time""
""blur"",""2"",""8529""
""blur"",""8"",""31169""
""blur"",""17"",""109579""
","""event"",""trial"",""time""
""focus"",""3"",""13194""
""focus"",""8"",""34339""
""focus"",""17"",""109772""
","""event"",""trial"",""time""
""fullscreenenter"",""1"",""3168""
","
","","","","","","null","<div style=""font-size:60px;"">+</div>","null","","fixation","","","","","","","","","","",""
"aa-learning-trial","87","465370","0.0-9.0-2.0-1.7","5977","2","18","Male","approach_avoid_spark_v1","""event"",""trial"",""time""
""fullscreenenter"",""1"",""3168""
""blur"",""2"",""8529""
""focus"",""3"",""13194""
""blur"",""8"",""31169""
""focus"",""8"",""34339""
""blur"",""17"",""109579""
""focus"",""17"",""109772""
","""event"",""trial"",""time""
""blur"",""2"",""8529""
""blur"",""8"",""31169""
""blur"",""17"",""109579""
","""event"",""trial"",""time""
""focus"",""3"",""13194""
""focus"",""8"",""34339""
""focus"",""17"",""109772""
","""event"",""trial"",""time""
""fullscreenenter"",""1"",""3168""
","
","","","","","","896.5999999940395","images/tree7.png","","","learning","1","1","1","1","tree","plants","2","0","","good","[6]"
"html-keyboard-response","88","465875","0.0-9.0-2.0-0.8","5977","2","18","Male","approach_avoid_spark_v1","""event"",""trial"",""time""
""fullscreenenter"",""1"",""3168""
""blur"",""2"",""8529""
""focus"",""3"",""13194""
""blur"",""8"",""31169""
""focus"",""8"",""34339""
""blur"",""17"",""109579""
""focus"",""17"",""109772""
","""event"",""trial"",""time""
""blur"",""2"",""8529""
""blur"",""8"",""31169""
""blur"",""17"",""109579""
","""event"",""trial"",""time""
""focus"",""3"",""13194""
""focus"",""8"",""34339""
""focus"",""17"",""109772""
","""event"",""trial"",""time""
""fullscreenenter"",""1"",""3168""
","
","","","","","","null","<div style=""font-size:60px;"">+</div>","null","","fixation","","","","","","","","","","",""
"aa-learning-trial","89","468884","0.0-9.0-2.0-1.8","5977","2","18","Male","approach_avoid_spark_v1","""event"",""trial"",""time""
""fullscreenenter"",""1"",""3168""
""blur"",""2"",""8529""
""focus"",""3"",""13194""
""blur"",""8"",""31169""
""focus"",""8"",""34339""
""blur"",""17"",""109579""
""focus"",""17"",""109772""
","""event"",""trial"",""time""
""blur"",""2"",""8529""
""blur"",""8"",""31169""
""blur"",""17"",""109579""
","""event"",""trial"",""time""
""focus"",""3"",""13194""
""focus"",""8"",""34339""
""focus"",""17"",""109772""
","""event"",""trial"",""time""
""fullscreenenter"",""1"",""3168""
","
","","","","","","826.5","images/flower5.png","","","learning","-1","0","0","0","flower","plants","2","0","","neutral","0"
"html-keyboard-response","90","469393","0.0-9.0-2.0-0.9","5977","2","18","Male","approach_avoid_spark_v1","""event"",""trial"",""time""
""fullscreenenter"",""1"",""3168""
""blur"",""2"",""8529""
""focus"",""3"",""13194""
""blur"",""8"",""31169""
""focus"",""8"",""34339""
""blur"",""17"",""109579""
""focus"",""17"",""109772""
","""event"",""trial"",""time""
""blur"",""2"",""8529""
""blur"",""8"",""31169""
""blur"",""17"",""109579""
","""event"",""trial"",""time""
""focus"",""3"",""13194""
""focus"",""8"",""34339""
""focus"",""17"",""109772""
","""event"",""trial"",""time""
""fullscreenenter"",""1"",""3168""
","
","","","","","","null","<div style=""font-size:60px;"">+</div>","null","","fixation","","","","","","","","","","",""
"aa-learning-trial","91","472401","0.0-9.0-2.0-1.9","5977","2","18","Male","approach_avoid_spark_v1","""event"",""trial"",""time""
""fullscreenenter"",""1"",""3168""
""blur"",""2"",""8529""
""focus"",""3"",""13194""
""blur"",""8"",""31169""
""focus"",""8"",""34339""
""blur"",""17"",""109579""
""focus"",""17"",""109772""
","""event"",""trial"",""time""
""blur"",""2"",""8529""
""blur"",""8"",""31169""
""blur"",""17"",""109579""
","""event"",""trial"",""time""
""focus"",""3"",""13194""
""focus"",""8"",""34339""
""focus"",""17"",""109772""
","""event"",""trial"",""time""
""fullscreenenter"",""1"",""3168""
","
","","","","","","710.5","images/flower5.png","","","learning","-1","0","0","0","flower","plants","2","0","","neutral","0"
"html-keyboard-response","92","472909","0.0-9.0-2.0-0.10","5977","2","18","Male","approach_avoid_spark_v1","""event"",""trial"",""time""
""fullscreenenter"",""1"",""3168""
""blur"",""2"",""8529""
""focus"",""3"",""13194""
""blur"",""8"",""31169""
""focus"",""8"",""34339""
""blur"",""17"",""109579""
""focus"",""17"",""109772""
","""event"",""trial"",""time""
""blur"",""2"",""8529""
""blur"",""8"",""31169""
""blur"",""17"",""109579""
","""event"",""trial"",""time""
""focus"",""3"",""13194""
""focus"",""8"",""34339""
""focus"",""17"",""109772""
","""event"",""trial"",""time""
""fullscreenenter"",""1"",""3168""
","
","","","","","","null","<div style=""font-size:60px;"">+</div>","null","","fixation","","","","","","","","","","",""
"aa-learning-trial","93","475922","0.0-9.0-2.0-1.10","5977","2","18","Male","approach_avoid_spark_v1","""event"",""trial"",""time""
""fullscreenenter"",""1"",""3168""
""blur"",""2"",""8529""
""focus"",""3"",""13194""
""blur"",""8"",""31169""
""focus"",""8"",""34339""
""blur"",""17"",""109579""
""focus"",""17"",""109772""
","""event"",""trial"",""time""
""blur"",""2"",""8529""
""blur"",""8"",""31169""
""blur"",""17"",""109579""
","""event"",""trial"",""time""
""focus"",""3"",""13194""
""focus"",""8"",""34339""
""focus"",""17"",""109772""
","""event"",""trial"",""time""
""fullscreenenter"",""1"",""3168""
","
","","","","","","2218.9000000059605","images/flower6.png","","","learning","-5","0","0","0","flower","plants","2","0","","neutral","0"
"html-keyboard-response","94","476426","0.0-9.0-2.0-0.11","5977","2","18","Male","approach_avoid_spark_v1","""event"",""trial"",""time""
""fullscreenenter"",""1"",""3168""
""blur"",""2"",""8529""
""focus"",""3"",""13194""
""blur"",""8"",""31169""
""focus"",""8"",""34339""
""blur"",""17"",""109579""
""focus"",""17"",""109772""
","""event"",""trial"",""time""
""blur"",""2"",""8529""
""blur"",""8"",""31169""
""blur"",""17"",""109579""
","""event"",""trial"",""time""
""focus"",""3"",""13194""
""focus"",""8"",""34339""
""focus"",""17"",""109772""
","""event"",""trial"",""time""
""fullscreenenter"",""1"",""3168""
","
","","","","","","null","<div style=""font-size:60px;"">+</div>","null","","fixation","","","","","","","","","","",""
"aa-learning-trial","95","479429","0.0-9.0-2.0-1.11","5977","2","18","Male","approach_avoid_spark_v1","""event"",""trial"",""time""
""fullscreenenter"",""1"",""3168""
""blur"",""2"",""8529""
""focus"",""3"",""13194""
""blur"",""8"",""31169""
""focus"",""8"",""34339""
""blur"",""17"",""109579""
""focus"",""17"",""109772""
","""event"",""trial"",""time""
""blur"",""2"",""8529""
""blur"",""8"",""31169""
""blur"",""17"",""109579""
","""event"",""trial"",""time""
""focus"",""3"",""13194""
""focus"",""8"",""34339""
""focus"",""17"",""109772""
","""event"",""trial"",""time""
""fullscreenenter"",""1"",""3168""
","
","","","","","","1728.8999999910593","images/cactus2.png","","","learning","6","6","1","1","cactus","plants","2","0","","bad","[-3]"
"html-keyboard-response","96","479938","0.0-9.0-2.0-0.12","5977","2","18","Male","approach_avoid_spark_v1","""event"",""trial"",""time""
""fullscreenenter"",""1"",""3168""
""blur"",""2"",""8529""
""focus"",""3"",""13194""
""blur"",""8"",""31169""
""focus"",""8"",""34339""
""blur"",""17"",""109579""
""focus"",""17"",""109772""
","""event"",""trial"",""time""
""blur"",""2"",""8529""
""blur"",""8"",""31169""
""blur"",""17"",""109579""
","""event"",""trial"",""time""
""focus"",""3"",""13194""
""focus"",""8"",""34339""
""focus"",""17"",""109772""
","""event"",""trial"",""time""
""fullscreenenter"",""1"",""3168""
","
","","","","","","null","<div style=""font-size:60px;"">+</div>","null","","fixation","","","","","","","","","","",""
"aa-learning-trial","97","482946","0.0-9.0-2.0-1.12","5977","2","18","Male","approach_avoid_spark_v1","""event"",""trial"",""time""
""fullscreenenter"",""1"",""3168""
""blur"",""2"",""8529""
""focus"",""3"",""13194""
""blur"",""8"",""31169""
""focus"",""8"",""34339""
""blur"",""17"",""109579""
""focus"",""17"",""109772""
","""event"",""trial"",""time""
""blur"",""2"",""8529""
""blur"",""8"",""31169""
""blur"",""17"",""109579""
","""event"",""trial"",""time""
""focus"",""3"",""13194""
""focus"",""8"",""34339""
""focus"",""17"",""109772""
","""event"",""trial"",""time""
""fullscreenenter"",""1"",""3168""
","
","","","","","","829.9000000059605","images/tree4.png","","","learning","-8","0","0","0","tree","plants","2","0","","good","[6]"
"html-keyboard-response","98","483450","0.0-9.0-2.0-0.13","5977","2","18","Male","approach_avoid_spark_v1","""event"",""trial"",""time""
""fullscreenenter"",""1"",""3168""
""blur"",""2"",""8529""
""focus"",""3"",""13194""
""blur"",""8"",""31169""
""focus"",""8"",""34339""
""blur"",""17"",""109579""
""focus"",""17"",""109772""
","""event"",""trial"",""time""
""blur"",""2"",""8529""
""blur"",""8"",""31169""
""blur"",""17"",""109579""
","""event"",""trial"",""time""
""focus"",""3"",""13194""
""focus"",""8"",""34339""
""focus"",""17"",""109772""
","""event"",""trial"",""time""
""fullscreenenter"",""1"",""3168""
","
","","","","","","null","<div style=""font-size:60px;"">+</div>","null","","fixation","","","","","","","","","","",""
"aa-learning-trial","99","486461","0.0-9.0-2.0-1.13","5977","2","18","Male","approach_avoid_spark_v1","""event"",""trial"",""time""
""fullscreenenter"",""1"",""3168""
""blur"",""2"",""8529""
""focus"",""3"",""13194""
""blur"",""8"",""31169""
""focus"",""8"",""34339""
""blur"",""17"",""109579""
""focus"",""17"",""109772""
","""event"",""trial"",""time""
""blur"",""2"",""8529""
""blur"",""8"",""31169""
""blur"",""17"",""109579""
","""event"",""trial"",""time""
""focus"",""3"",""13194""
""focus"",""8"",""34339""
""focus"",""17"",""109772""
","""event"",""trial"",""time""
""fullscreenenter"",""1"",""3168""
","
","","","","","","1763.5","images/flower3.png","","","learning","8","0","0","0","flower","plants","2","0","","neutral","0"
"html-keyboard-response","100","486975","0.0-9.0-2.0-0.14","5977","2","18","Male","approach_avoid_spark_v1","""event"",""trial"",""time""
""fullscreenenter"",""1"",""3168""
""blur"",""2"",""8529""
""focus"",""3"",""13194""
""blur"",""8"",""31169""
""focus"",""8"",""34339""
""blur"",""17"",""109579""
""focus"",""17"",""109772""
","""event"",""trial"",""time""
""blur"",""2"",""8529""
""blur"",""8"",""31169""
""blur"",""17"",""109579""
","""event"",""trial"",""time""
""focus"",""3"",""13194""
""focus"",""8"",""34339""
""focus"",""17"",""109772""
","""event"",""trial"",""time""
""fullscreenenter"",""1"",""3168""
","
","","","","","","null","<div style=""font-size:60px;"">+</div>","null","","fixation","","","","","","","","","","",""
"aa-learning-trial","101","489986","0.0-9.0-2.0-1.14","5977","2","18","Male","approach_avoid_spark_v1","""event"",""trial"",""time""
""fullscreenenter"",""1"",""3168""
""blur"",""2"",""8529""
""focus"",""3"",""13194""
""blur"",""8"",""31169""
""focus"",""8"",""34339""
""blur"",""17"",""109579""
""focus"",""17"",""109772""
","""event"",""trial"",""time""
""blur"",""2"",""8529""
""blur"",""8"",""31169""
""blur"",""17"",""109579""
","""event"",""trial"",""time""
""focus"",""3"",""13194""
""focus"",""8"",""34339""
""focus"",""17"",""109772""
","""event"",""trial"",""time""
""fullscreenenter"",""1"",""3168""
","
","","","","","","1415.5","images/cactus5.png","","","learning","-9","0","0","0","cactus","plants","2","0","","bad","[-3]"
"html-keyboard-response","102","490489","0.0-9.0-2.0-0.15","5977","2","18","Male","approach_avoid_spark_v1","""event"",""trial"",""time""
""fullscreenenter"",""1"",""3168""
""blur"",""2"",""8529""
""focus"",""3"",""13194""
""blur"",""8"",""31169""
""focus"",""8"",""34339""
""blur"",""17"",""109579""
""focus"",""17"",""109772""
","""event"",""trial"",""time""
""blur"",""2"",""8529""
""blur"",""8"",""31169""
""blur"",""17"",""109579""
","""event"",""trial"",""time""
""focus"",""3"",""13194""
""focus"",""8"",""34339""
""focus"",""17"",""109772""
","""event"",""trial"",""time""
""fullscreenenter"",""1"",""3168""
","
","","","","","","null","<div style=""font-size:60px;"">+</div>","null","","fixation","","","","","","","","","","",""
"aa-learning-trial","103","493497","0.0-9.0-2.0-1.15","5977","2","18","Male","approach_avoid_spark_v1","""event"",""trial"",""time""
""fullscreenenter"",""1"",""3168""
""blur"",""2"",""8529""
""focus"",""3"",""13194""
""blur"",""8"",""31169""
""focus"",""8"",""34339""
""blur"",""17"",""109579""
""focus"",""17"",""109772""
","""event"",""trial"",""time""
""blur"",""2"",""8529""
""blur"",""8"",""31169""
""blur"",""17"",""109579""
","""event"",""trial"",""time""
""focus"",""3"",""13194""
""focus"",""8"",""34339""
""focus"",""17"",""109772""
","""event"",""trial"",""time""
""fullscreenenter"",""1"",""3168""
","
","","","","","","1475.800000011921","images/flower5.png","","","learning","-1","0","0","0","flower","plants","2","0","","neutral","0"
"html-keyboard-response","104","494001","0.0-9.0-2.0-0.16","5977","2","18","Male","approach_avoid_spark_v1","""event"",""trial"",""time""
""fullscreenenter"",""1"",""3168""
""blur"",""2"",""8529""
""focus"",""3"",""13194""
""blur"",""8"",""31169""
""focus"",""8"",""34339""
""blur"",""17"",""109579""
""focus"",""17"",""109772""
","""event"",""trial"",""time""
""blur"",""2"",""8529""
""blur"",""8"",""31169""
""blur"",""17"",""109579""
","""event"",""trial"",""time""
""focus"",""3"",""13194""
""focus"",""8"",""34339""
""focus"",""17"",""109772""
","""event"",""trial"",""time""
""fullscreenenter"",""1"",""3168""
","
","","","","","","null","<div style=""font-size:60px;"">+</div>","null","","fixation","","","","","","","","","","",""
"aa-learning-trial","105","497012","0.0-9.0-2.0-1.16","5977","2","18","Male","approach_avoid_spark_v1","""event"",""trial"",""time""
""fullscreenenter"",""1"",""3168""
""blur"",""2"",""8529""
""focus"",""3"",""13194""
""blur"",""8"",""31169""
""focus"",""8"",""34339""
""blur"",""17"",""109579""
""focus"",""17"",""109772""
","""event"",""trial"",""time""
""blur"",""2"",""8529""
""blur"",""8"",""31169""
""blur"",""17"",""109579""
","""event"",""trial"",""time""
""focus"",""3"",""13194""
""focus"",""8"",""34339""
""focus"",""17"",""109772""
","""event"",""trial"",""time""
""fullscreenenter"",""1"",""3168""
","
","","","","","","933.9000000059605","images/cactus5.png","","","learning","-9","0","0","0","cactus","plants","2","0","","bad","[-3]"
"html-keyboard-response","106","497524","0.0-9.0-2.0-0.17","5977","2","18","Male","approach_avoid_spark_v1","""event"",""trial"",""time""
""fullscreenenter"",""1"",""3168""
""blur"",""2"",""8529""
""focus"",""3"",""13194""
""blur"",""8"",""31169""
""focus"",""8"",""34339""
""blur"",""17"",""109579""
""focus"",""17"",""109772""
","""event"",""trial"",""time""
""blur"",""2"",""8529""
""blur"",""8"",""31169""
""blur"",""17"",""109579""
","""event"",""trial"",""time""
""focus"",""3"",""13194""
""focus"",""8"",""34339""
""focus"",""17"",""109772""
","""event"",""trial"",""time""
""fullscreenenter"",""1"",""3168""
","
","","","","","","null","<div style=""font-size:60px;"">+</div>","null","","fixation","","","","","","","","","","",""
"aa-learning-trial","107","500532","0.0-9.0-2.0-1.17","5977","2","18","Male","approach_avoid_spark_v1","""event"",""trial"",""time""
""fullscreenenter"",""1"",""3168""
""blur"",""2"",""8529""
""focus"",""3"",""13194""
""blur"",""8"",""31169""
""focus"",""8"",""34339""
""blur"",""17"",""109579""
""focus"",""17"",""109772""
","""event"",""trial"",""time""
""blur"",""2"",""8529""
""blur"",""8"",""31169""
""blur"",""17"",""109579""
","""event"",""trial"",""time""
""focus"",""3"",""13194""
""focus"",""8"",""34339""
""focus"",""17"",""109772""
","""event"",""trial"",""time""
""fullscreenenter"",""1"",""3168""
","
","","","","","","570.0999999940395","images/cactus5.png","","","learning","-9","0","0","0","cactus","plants","2","0","","bad","[-3]"
"html-keyboard-response","108","501043","0.0-9.0-2.0-0.18","5977","2","18","Male","approach_avoid_spark_v1","""event"",""trial"",""time""
""fullscreenenter"",""1"",""3168""
""blur"",""2"",""8529""
""focus"",""3"",""13194""
""blur"",""8"",""31169""
""focus"",""8"",""34339""
""blur"",""17"",""109579""
""focus"",""17"",""109772""
","""event"",""trial"",""time""
""blur"",""2"",""8529""
""blur"",""8"",""31169""
""blur"",""17"",""109579""
","""event"",""trial"",""time""
""focus"",""3"",""13194""
""focus"",""8"",""34339""
""focus"",""17"",""109772""
","""event"",""trial"",""time""
""fullscreenenter"",""1"",""3168""
","
","","","","","","null","<div style=""font-size:60px;"">+</div>","null","","fixation","","","","","","","","","","",""
"aa-learning-trial","109","504051","0.0-9.0-2.0-1.18","5977","2","18","Male","approach_avoid_spark_v1","""event"",""trial"",""time""
""fullscreenenter"",""1"",""3168""
""blur"",""2"",""8529""
""focus"",""3"",""13194""
""blur"",""8"",""31169""
""focus"",""8"",""34339""
""blur"",""17"",""109579""
""focus"",""17"",""109772""
","""event"",""trial"",""time""
""blur"",""2"",""8529""
""blur"",""8"",""31169""
""blur"",""17"",""109579""
","""event"",""trial"",""time""
""focus"",""3"",""13194""
""focus"",""8"",""34339""
""focus"",""17"",""109772""
","""event"",""trial"",""time""
""fullscreenenter"",""1"",""3168""
","
","","","","","","689","images/flower3.png","","","learning","8","8","1","1","flower","plants","2","0","","neutral","0"
"html-keyboard-response","110","504561","0.0-9.0-2.0-0.19","5977","2","18","Male","approach_avoid_spark_v1","""event"",""trial"",""time""
""fullscreenenter"",""1"",""3168""
""blur"",""2"",""8529""
""focus"",""3"",""13194""
""blur"",""8"",""31169""
""focus"",""8"",""34339""
""blur"",""17"",""109579""
""focus"",""17"",""109772""
","""event"",""trial"",""time""
""blur"",""2"",""8529""
""blur"",""8"",""31169""
""blur"",""17"",""109579""
","""event"",""trial"",""time""
""focus"",""3"",""13194""
""focus"",""8"",""34339""
""focus"",""17"",""109772""
","""event"",""trial"",""time""
""fullscreenenter"",""1"",""3168""
","
","","","","","","null","<div style=""font-size:60px;"">+</div>","null","","fixation","","","","","","","","","","",""
"aa-learning-trial","111","507570","0.0-9.0-2.0-1.19","5977","2","18","Male","approach_avoid_spark_v1","""event"",""trial"",""time""
""fullscreenenter"",""1"",""3168""
""blur"",""2"",""8529""
""focus"",""3"",""13194""
""blur"",""8"",""31169""
""focus"",""8"",""34339""
""blur"",""17"",""109579""
""focus"",""17"",""109772""
","""event"",""trial"",""time""
""blur"",""2"",""8529""
""blur"",""8"",""31169""
""blur"",""17"",""109579""
","""event"",""trial"",""time""
""focus"",""3"",""13194""
""focus"",""8"",""34339""
""focus"",""17"",""109772""
","""event"",""trial"",""time""
""fullscreenenter"",""1"",""3168""
","
","","","","","","793.3999999910593","images/flower5.png","","","learning","-1","0","0","0","flower","plants","2","0","","neutral","0"
"html-keyboard-response","112","508084","0.0-9.0-2.0-0.20","5977","2","18","Male","approach_avoid_spark_v1","""event"",""trial"",""time""
""fullscreenenter"",""1"",""3168""
""blur"",""2"",""8529""
""focus"",""3"",""13194""
""blur"",""8"",""31169""
""focus"",""8"",""34339""
""blur"",""17"",""109579""
""focus"",""17"",""109772""
","""event"",""trial"",""time""
""blur"",""2"",""8529""
""blur"",""8"",""31169""
""blur"",""17"",""109579""
","""event"",""trial"",""time""
""focus"",""3"",""13194""
""focus"",""8"",""34339""
""focus"",""17"",""109772""
","""event"",""trial"",""time""
""fullscreenenter"",""1"",""3168""
","
","","","","","","null","<div style=""font-size:60px;"">+</div>","null","","fixation","","","","","","","","","","",""
"aa-learning-trial","113","511096","0.0-9.0-2.0-1.20","5977","2","18","Male","approach_avoid_spark_v1","""event"",""trial"",""time""
""fullscreenenter"",""1"",""3168""
""blur"",""2"",""8529""
""focus"",""3"",""13194""
""blur"",""8"",""31169""
""focus"",""8"",""34339""
""blur"",""17"",""109579""
""focus"",""17"",""109772""
","""event"",""trial"",""time""
""blur"",""2"",""8529""
""blur"",""8"",""31169""
""blur"",""17"",""109579""
","""event"",""trial"",""time""
""focus"",""3"",""13194""
""focus"",""8"",""34339""
""focus"",""17"",""109772""
","""event"",""trial"",""time""
""fullscreenenter"",""1"",""3168""
","
","","","","","","594.6000000089407","images/flower6.png","","","learning","-5","0","0","0","flower","plants","2","0","","neutral","0"
"html-keyboard-response","114","511600","0.0-9.0-2.0-0.21","5977","2","18","Male","approach_avoid_spark_v1","""event"",""trial"",""time""
""fullscreenenter"",""1"",""3168""
""blur"",""2"",""8529""
""focus"",""3"",""13194""
""blur"",""8"",""31169""
""focus"",""8"",""34339""
""blur"",""17"",""109579""
""focus"",""17"",""109772""
","""event"",""trial"",""time""
""blur"",""2"",""8529""
""blur"",""8"",""31169""
""blur"",""17"",""109579""
","""event"",""trial"",""time""
""focus"",""3"",""13194""
""focus"",""8"",""34339""
""focus"",""17"",""109772""
","""event"",""trial"",""time""
""fullscreenenter"",""1"",""3168""
","
","","","","","","null","<div style=""font-size:60px;"">+</div>","null","","fixation","","","","","","","","","","",""
"aa-learning-trial","115","514612","0.0-9.0-2.0-1.21","5977","2","18","Male","approach_avoid_spark_v1","""event"",""trial"",""time""
""fullscreenenter"",""1"",""3168""
""blur"",""2"",""8529""
""focus"",""3"",""13194""
""blur"",""8"",""31169""
""focus"",""8"",""34339""
""blur"",""17"",""109579""
""focus"",""17"",""109772""
","""event"",""trial"",""time""
""blur"",""2"",""8529""
""blur"",""8"",""31169""
""blur"",""17"",""109579""
","""event"",""trial"",""time""
""focus"",""3"",""13194""
""focus"",""8"",""34339""
""focus"",""17"",""109772""
","""event"",""trial"",""time""
""fullscreenenter"",""1"",""3168""
","
","","","","","","869.6999999880791","images/tree4.png","","","learning","-8","0","0","0","tree","plants","2","0","","good","[6]"
"html-keyboard-response","116","515124","0.0-9.0-2.0-0.22","5977","2","18","Male","approach_avoid_spark_v1","""event"",""trial"",""time""
""fullscreenenter"",""1"",""3168""
""blur"",""2"",""8529""
""focus"",""3"",""13194""
""blur"",""8"",""31169""
""focus"",""8"",""34339""
""blur"",""17"",""109579""
""focus"",""17"",""109772""
","""event"",""trial"",""time""
""blur"",""2"",""8529""
""blur"",""8"",""31169""
""blur"",""17"",""109579""
","""event"",""trial"",""time""
""focus"",""3"",""13194""
""focus"",""8"",""34339""
""focus"",""17"",""109772""
","""event"",""trial"",""time""
""fullscreenenter"",""1"",""3168""
","
","","","","","","null","<div style=""font-size:60px;"">+</div>","null","","fixation","","","","","","","","","","",""
"aa-learning-trial","117","518140","0.0-9.0-2.0-1.22","5977","2","18","Male","approach_avoid_spark_v1","""event"",""trial"",""time""
""fullscreenenter"",""1"",""3168""
""blur"",""2"",""8529""
""focus"",""3"",""13194""
""blur"",""8"",""31169""
""focus"",""8"",""34339""
""blur"",""17"",""109579""
""focus"",""17"",""109772""
","""event"",""trial"",""time""
""blur"",""2"",""8529""
""blur"",""8"",""31169""
""blur"",""17"",""109579""
","""event"",""trial"",""time""
""focus"",""3"",""13194""
""focus"",""8"",""34339""
""focus"",""17"",""109772""
","""event"",""trial"",""time""
""fullscreenenter"",""1"",""3168""
","
","","","","","","660.6999999880791","images/flower5.png","","","learning","-1","0","0","0","flower","plants","2","0","","neutral","0"
"html-keyboard-response","118","518650","0.0-9.0-2.0-0.23","5977","2","18","Male","approach_avoid_spark_v1","""event"",""trial"",""time""
""fullscreenenter"",""1"",""3168""
""blur"",""2"",""8529""
""focus"",""3"",""13194""
""blur"",""8"",""31169""
""focus"",""8"",""34339""
""blur"",""17"",""109579""
""focus"",""17"",""109772""
","""event"",""trial"",""time""
""blur"",""2"",""8529""
""blur"",""8"",""31169""
""blur"",""17"",""109579""
","""event"",""trial"",""time""
""focus"",""3"",""13194""
""focus"",""8"",""34339""
""focus"",""17"",""109772""
","""event"",""trial"",""time""
""fullscreenenter"",""1"",""3168""
","
","","","","","","null","<div style=""font-size:60px;"">+</div>","null","","fixation","","","","","","","","","","",""
"aa-learning-trial","119","521656","0.0-9.0-2.0-1.23","5977","2","18","Male","approach_avoid_spark_v1","""event"",""trial"",""time""
""fullscreenenter"",""1"",""3168""
""blur"",""2"",""8529""
""focus"",""3"",""13194""
""blur"",""8"",""31169""
""focus"",""8"",""34339""
""blur"",""17"",""109579""
""focus"",""17"",""109772""
","""event"",""trial"",""time""
""blur"",""2"",""8529""
""blur"",""8"",""31169""
""blur"",""17"",""109579""
","""event"",""trial"",""time""
""focus"",""3"",""13194""
""focus"",""8"",""34339""
""focus"",""17"",""109772""
","""event"",""trial"",""time""
""fullscreenenter"",""1"",""3168""
","
","","","","","","1435.7999999970198","images/tree7.png","","","learning","1","1","1","1","tree","plants","2","0","","good","[6]"
"html-keyboard-response","120","522162","0.0-9.0-2.0-0.24","5977","2","18","Male","approach_avoid_spark_v1","""event"",""trial"",""time""
""fullscreenenter"",""1"",""3168""
""blur"",""2"",""8529""
""focus"",""3"",""13194""
""blur"",""8"",""31169""
""focus"",""8"",""34339""
""blur"",""17"",""109579""
""focus"",""17"",""109772""
","""event"",""trial"",""time""
""blur"",""2"",""8529""
""blur"",""8"",""31169""
""blur"",""17"",""109579""
","""event"",""trial"",""time""
""focus"",""3"",""13194""
""focus"",""8"",""34339""
""focus"",""17"",""109772""
","""event"",""trial"",""time""
""fullscreenenter"",""1"",""3168""
","
","","","","","","null","<div style=""font-size:60px;"">+</div>","null","","fixation","","","","","","","","","","",""
"aa-learning-trial","121","525168","0.0-9.0-2.0-1.24","5977","2","18","Male","approach_avoid_spark_v1","""event"",""trial"",""time""
""fullscreenenter"",""1"",""3168""
""blur"",""2"",""8529""
""focus"",""3"",""13194""
""blur"",""8"",""31169""
""focus"",""8"",""34339""
""blur"",""17"",""109579""
""focus"",""17"",""109772""
","""event"",""trial"",""time""
""blur"",""2"",""8529""
""blur"",""8"",""31169""
""blur"",""17"",""109579""
","""event"",""trial"",""time""
""focus"",""3"",""13194""
""focus"",""8"",""34339""
""focus"",""17"",""109772""
","""event"",""trial"",""time""
""fullscreenenter"",""1"",""3168""
","
","","","","","","1298.2000000029802","images/cactus2.png","","","learning","6","6","1","1","cactus","plants","2","0","","bad","[-3]"
"html-keyboard-response","122","525675","0.0-9.0-2.0-0.25","5977","2","18","Male","approach_avoid_spark_v1","""event"",""trial"",""time""
""fullscreenenter"",""1"",""3168""
""blur"",""2"",""8529""
""focus"",""3"",""13194""
""blur"",""8"",""31169""
""focus"",""8"",""34339""
""blur"",""17"",""109579""
""focus"",""17"",""109772""
","""event"",""trial"",""time""
""blur"",""2"",""8529""
""blur"",""8"",""31169""
""blur"",""17"",""109579""
","""event"",""trial"",""time""
""focus"",""3"",""13194""
""focus"",""8"",""34339""
""focus"",""17"",""109772""
","""event"",""trial"",""time""
""fullscreenenter"",""1"",""3168""
","
","","","","","","null","<div style=""font-size:60px;"">+</div>","null","","fixation","","","","","","","","","","",""
"aa-learning-trial","123","528683","0.0-9.0-2.0-1.25","5977","2","18","Male","approach_avoid_spark_v1","""event"",""trial"",""time""
""fullscreenenter"",""1"",""3168""
""blur"",""2"",""8529""
""focus"",""3"",""13194""
""blur"",""8"",""31169""
""focus"",""8"",""34339""
""blur"",""17"",""109579""
""focus"",""17"",""109772""
","""event"",""trial"",""time""
""blur"",""2"",""8529""
""blur"",""8"",""31169""
""blur"",""17"",""109579""
","""event"",""trial"",""time""
""focus"",""3"",""13194""
""focus"",""8"",""34339""
""focus"",""17"",""109772""
","""event"",""trial"",""time""
""fullscreenenter"",""1"",""3168""
","
","","","","","","910.8999999910593","images/cactus1.png","","","learning","-2","-2","1","1","cactus","plants","2","0","","bad","[-3]"
"html-keyboard-response","124","529195","0.0-9.0-2.0-0.26","5977","2","18","Male","approach_avoid_spark_v1","""event"",""trial"",""time""
""fullscreenenter"",""1"",""3168""
""blur"",""2"",""8529""
""focus"",""3"",""13194""
""blur"",""8"",""31169""
""focus"",""8"",""34339""
""blur"",""17"",""109579""
""focus"",""17"",""109772""
","""event"",""trial"",""time""
""blur"",""2"",""8529""
""blur"",""8"",""31169""
""blur"",""17"",""109579""
","""event"",""trial"",""time""
""focus"",""3"",""13194""
""focus"",""8"",""34339""
""focus"",""17"",""109772""
","""event"",""trial"",""time""
""fullscreenenter"",""1"",""3168""
","
","","","","","","null","<div style=""font-size:60px;"">+</div>","null","","fixation","","","","","","","","","","",""
"aa-learning-trial","125","532211","0.0-9.0-2.0-1.26","5977","2","18","Male","approach_avoid_spark_v1","""event"",""trial"",""time""
""fullscreenenter"",""1"",""3168""
""blur"",""2"",""8529""
""focus"",""3"",""13194""
""blur"",""8"",""31169""
""focus"",""8"",""34339""
""blur"",""17"",""109579""
""focus"",""17"",""109772""
","""event"",""trial"",""time""
""blur"",""2"",""8529""
""blur"",""8"",""31169""
""blur"",""17"",""109579""
","""event"",""trial"",""time""
""focus"",""3"",""13194""
""focus"",""8"",""34339""
""focus"",""17"",""109772""
","""event"",""trial"",""time""
""fullscreenenter"",""1"",""3168""
","
","","","","","","674","images/flower3.png","","","learning","8","8","1","1","flower","plants","2","0","","neutral","0"
