"trial_type","trial_index","time_elapsed","internal_node_id","subject_id","task_condition","age","gender","task_version","interactions","blur_events","focus_events","fullscreenenter_events","fullscreenexit_events","success","timeout","failed_images","failed_audio","failed_video","rt","stimulus","response","button_pressed","task_part","approach_reward","points","key_press","option_selected","stim_cat","task_block","block_condition","block_number","correct","cat_type","mean_cat_reward"
"pavlovia","0","3","0.0-0.0","7199","2","11","Female","approach_avoid_spark_v1","""event"",""trial"",""time""
""fullscreenenter"",""1"",""1648""
","
","
","""event"",""trial"",""time""
""fullscreenenter"",""1"",""1648""
","
","","","","","","","","","","","","","","","","","","","","",""
"fullscreen","1","2636","0.0-1.0","7199","2","11","Female","approach_avoid_spark_v1","""event"",""trial"",""time""
""fullscreenenter"",""1"",""1648""
","
","
","""event"",""trial"",""time""
""fullscreenenter"",""1"",""1648""
","
","true","","","","","","","","","","","","","","","","","","","",""
"preload","2","6036","0.0-2.0","7199","2","11","Female","approach_avoid_spark_v1","""event"",""trial"",""time""
""fullscreenenter"",""1"",""1648""
","
","
","""event"",""trial"",""time""
""fullscreenenter"",""1"",""1648""
","
","true","false","[]","[]","[]","","","","","","","","","","","","","","","",""
"audio-keyboard-response","3","10612","0.0-3.0","7199","2","11","Female","approach_avoid_spark_v1","""event"",""trial"",""time""
""fullscreenenter"",""1"",""1648""
","
","
","""event"",""trial"",""time""
""fullscreenenter"",""1"",""1648""
","
","","","","","","4578.666666666667","audio/beep_loop.wav"," ","","","","","","","","","","","","",""
"audio-button-response","4","12666","0.0-4.0","7199","2","11","Female","approach_avoid_spark_v1","""event"",""trial"",""time""
""fullscreenenter"",""1"",""1648""
","
","
","""event"",""trial"",""time""
""fullscreenenter"",""1"",""1648""
","
","","","","","","2051","audio/shark.wav","4","","","","","","","","","","","","",""
"audio-button-response","5","15100","0.0-5.0","7199","2","11","Female","approach_avoid_spark_v1","""event"",""trial"",""time""
""fullscreenenter"",""1"",""1648""
","
","
","""event"",""trial"",""time""
""fullscreenenter"",""1"",""1648""
","
","","","","","","1440","audio/turtle.wav","1","","","","","","","","","","","","",""
"preload","6","17749","0.0-6.0","7199","2","11","Female","approach_avoid_spark_v1","""event"",""trial"",""time""
""fullscreenenter"",""1"",""1648""
","
","
","""event"",""trial"",""time""
""fullscreenenter"",""1"",""1648""
","
","true","false","[]","[]","[]","","","","","","","","","","","","","","","",""
"html-keyboard-response","7","20685","0.0-7.0","7199","2","11","Female","approach_avoid_spark_v1","""event"",""trial"",""time""
""fullscreenenter"",""1"",""1648""
","
","
","""event"",""trial"",""time""
""fullscreenenter"",""1"",""1648""
","
","","","","","","2935.5","Welcome to the experiment. Press any key to begin and to advance the instructions.","e","","","","","","","","","","","","",""
"learning-instructions","8","28879","0.0-8.0-0.0-0.0","7199","2","11","Female","approach_avoid_spark_v1","""event"",""trial"",""time""
""fullscreenenter"",""1"",""1648""
","
","
","""event"",""trial"",""time""
""fullscreenenter"",""1"",""1648""
","
","","","","","","1237.8999999761581","<p> Welcome! Today you are going to play 6 different rounds of a decision-making game. </p><p> Use the mouse to click next to continue. </p>","","0","instructions","","","","","","","","","","",""
"learning-instructions","9","34452","0.0-8.0-0.0-0.1","7199","2","11","Female","approach_avoid_spark_v1","""event"",""trial"",""time""
""fullscreenenter"",""1"",""1648""
","
","
","""event"",""trial"",""time""
""fullscreenenter"",""1"",""1648""
","
","","","","","","2831.5","<p> You will start with a practice round to learn the rules. </p>","","0","instructions","","","","","","","","","","",""
"learning-instructions","10","39284","0.0-8.0-0.0-0.2","7199","2","11","Female","approach_avoid_spark_v1","""event"",""trial"",""time""
""fullscreenenter"",""1"",""1648""
","
","
","""event"",""trial"",""time""
""fullscreenenter"",""1"",""1648""
","
","","","","","","1373.6000000238419","<p> Your goal in this round is to give out sports equipment to kids. </p></div>","","0","instructions","","","","","","","","","","",""
"learning-instructions","11","49382","0.0-8.0-0.0-0.3","7199","2","11","Female","approach_avoid_spark_v1","""event"",""trial"",""time""
""fullscreenenter"",""1"",""1648""
","
","
","""event"",""trial"",""time""
""fullscreenenter"",""1"",""1648""
","
","","","","","","2540.699999988079","<p> The kids only like some of the equipment.  </p><p> On each turn, you will see a piece of sports equipment.   </p><p> You need to decide whether to give it to the kids or not.  </p>","","0","instructions","","","","","","","","","","",""
"learning-instructions","12","55388","0.0-8.0-0.0-0.4","7199","2","11","Female","approach_avoid_spark_v1","""event"",""trial"",""time""
""fullscreenenter"",""1"",""1648""
","
","
","""event"",""trial"",""time""
""fullscreenenter"",""1"",""1648""
","
","","","","","","1247.5","<p> You can give them the equipment by pressing 1 and choose not to give it to them by pressing 0. </p><br><div class=""choice-instructions-grid""> <div class=""choice-option""><img src=""images/approach.png"" class=""choice-option-img"" stage=""instructions"" position=""0"" ><div class=""choice-option-text""> Press ""1."" </div></div><div class=""choice-option""><img src=""images/avoid.png"" class=""choice-option-img"" stage=""instructions"" position=""1"" ><div class=""choice-option-text""> Press ""0."" </div></div>","","0","instructions","","","","","","","","","","",""
"learning-instructions","13","63761","0.0-8.0-0.0-0.5","7199","2","11","Female","approach_avoid_spark_v1","""event"",""trial"",""time""
""fullscreenenter"",""1"",""1648""
","
","
","""event"",""trial"",""time""
""fullscreenenter"",""1"",""1648""
","
","","","","","","981.6999999880791","<p> If you give them a piece of equipment they like, they will be happy! </p><p> But if you give them a piece of equipment they do not like, they will be sad. </p>","","0","instructions","","","","","","","","","","",""
"learning-instructions","14","75210","0.0-8.0-0.0-0.6","7199","2","11","Female","approach_avoid_spark_v1","""event"",""trial"",""time""
""fullscreenenter"",""1"",""1648""
","
","
","""event"",""trial"",""time""
""fullscreenenter"",""1"",""1648""
","
","","","","","","939.9000000357628","<p> You will earn points based on how you make kids feel. </p><p> If you make them happy, you will WIN anywhere from 1 - 9 points, </p><p> but if you make them sad, you will LOSE anywhere from 1 - 9 points. </p>","","0","instructions","","","","","","","","","","",""
"learning-instructions","15","85661","0.0-8.0-0.0-0.7","7199","2","11","Female","approach_avoid_spark_v1","""event"",""trial"",""time""
""fullscreenenter"",""1"",""1648""
","
","
","""event"",""trial"",""time""
""fullscreenenter"",""1"",""1648""
","
","","","","","","891","<p> You will see how many points you won or lost in the center of the screen. </p><p> Here is what you would see if you won 6 points: </p><p style=""color:green;font-size:50px;font-weight:bolder"">6</p><p style=""color:green"">The text is GREEN because you WON points.</p>","","0","instructions","","","","","","","","","","",""
"learning-instructions","16","92077","0.0-8.0-0.0-0.8","7199","2","11","Female","approach_avoid_spark_v1","""event"",""trial"",""time""
""fullscreenenter"",""1"",""1648""
","
","
","""event"",""trial"",""time""
""fullscreenenter"",""1"",""1648""
","
","","","","","","917.8000000119209","<p> And here is what you would see if you lost 4 points: </p><p style=""color:red;font-size:50px;font-weight:bolder"">-4</p><p style=""color:red"">The text is RED because you LOST points. </p>","","0","instructions","","","","","","","","","","",""
"learning-instructions","17","107725","0.0-8.0-0.0-0.9","7199","2","11","Female","approach_avoid_spark_v1","""event"",""trial"",""time""
""fullscreenenter"",""1"",""1648""
","
","
","""event"",""trial"",""time""
""fullscreenenter"",""1"",""1648""
","
","","","","","","926","<p> Some of the equipment will make the kids VERY happy or sad. </p><p> These pieces of equipment will make you win or lose LOTS of points. </p><p> Other pieces of equipment will only make the kids a little happy or sad. </p><p> These pieces of equipment will make you win or lose small amounts of points. </p>","","0","instructions","","","","","","","","","","",""
"learning-instructions","18","119364","0.0-8.0-0.0-0.10","7199","2","11","Female","approach_avoid_spark_v1","""event"",""trial"",""time""
""fullscreenenter"",""1"",""1648""
","
","
","""event"",""trial"",""time""
""fullscreenenter"",""1"",""1648""
","
","","","","","","1004","<p> If you choose not to give them the equipment, you will not win or lose any points. </p><p>  However, in the center of the screen, you will see the number of points you WOULD HAVE won or lost if you had given them the equipment. </p>","","0","instructions","","","","","","","","","","",""
"learning-instructions","19","142087","0.0-8.0-0.0-0.11","7199","2","11","Female","approach_avoid_spark_v1","""event"",""trial"",""time""
""fullscreenenter"",""1"",""1648""
","
","
","""event"",""trial"",""time""
""fullscreenenter"",""1"",""1648""
","
","","","","","","1186.5999999642372","<p> Here is what you might see if you did not give the equipment to the kids but it would have made them happy: </p><p style=""color:grey; font-size:50px; display: inline-block; border-spacing: 15px; border-width:3px; border-style:solid; border-color:red"">  &nbsp; 7 &nbsp; </p><p> Remember, in this case, you would not win or lose ANY points because you did not give them the equipment.  </p><p style=""color:grey"">The text is GREY because you earned ZERO points. </p><p style=""color:red"">However, choosing to give the kids the equipment would have made you win points. The box around the text is RED because you chose the worse option. </p>","","0","instructions","","","","","","","","","","",""
"learning-instructions","20","163980","0.0-8.0-0.0-0.12","7199","2","11","Female","approach_avoid_spark_v1","""event"",""trial"",""time""
""fullscreenenter"",""1"",""1648""
","
","
","""event"",""trial"",""time""
""fullscreenenter"",""1"",""1648""
","
","","","","","","829.8999999761581","<p> Here is what you might see if you did not give the equipment to the kids but it would have made them sad: </p><p style=""color:grey;font-size:50px; display: inline-block; border-spacing: 15px; border-width:3px; border-style:solid; border-color:green"">  &nbsp; -8 &nbsp; </p><p> Remember, in this case, you would not win or lose ANY points because you did not give them the equipment.  </p><p style=""color:grey"">The text is GREY because you earned ZERO points. </p><p  style=""color:green""> Choosing to give the kids the equipment would have made you lose points. The box around the text is GREEN because you chose the better option.</p>","","0","instructions","","","","","","","","","","",""
"learning-instructions","21","174542","0.0-8.0-0.0-0.13","7199","2","11","Female","approach_avoid_spark_v1","""event"",""trial"",""time""
""fullscreenenter"",""1"",""1648""
","
","
","""event"",""trial"",""time""
""fullscreenenter"",""1"",""1648""
","
","","","","","","1522.2000000476837","<p> You will have 3 seconds to make each choice. Try to respond before time runs out! </p><p> You will lose 5 points each time you do not make a response. </p>","","0","instructions","","","","","","","","","","",""
"learning-instructions","22","180815","0.0-8.0-0.0-0.14","7199","2","11","Female","approach_avoid_spark_v1","""event"",""trial"",""time""
""fullscreenenter"",""1"",""1648""
","
","
","""event"",""trial"",""time""
""fullscreenenter"",""1"",""1648""
","
","","","","","","865.1999999880791","<p> This is just a practice round, but in the real game, your bonus payment will depend on your total number of points.","","0","instructions","","","","","","","","","","",""
"learning-instructions","23","188134","0.0-8.0-0.0-0.15","7199","2","11","Female","approach_avoid_spark_v1","""event"",""trial"",""time""
""fullscreenenter"",""1"",""1648""
","
","
","""event"",""trial"",""time""
""fullscreenenter"",""1"",""1648""
","
","","","","","","1563.6000000238419","<p> Remember, you can give them the equipment by pressing 1 and choose not to give it to them by pressing 0. </p><br><div class=""choice-instructions-grid""> <div class=""choice-option""><img src=""images/approach.png"" class=""choice-option-img"" stage=""instructions"" position=""0"" ><div class=""choice-option-text""> Press ""1."" </div></div><div class=""choice-option""><img src=""images/avoid.png"" class=""choice-option-img"" stage=""instructions"" position=""1"" ><div class=""choice-option-text""> Press ""0."" </div></div>","","0","instructions","","","","","","","","","","",""
"html-button-response","24","189628","0.0-8.0-1.0","7199","2","11","Female","approach_avoid_spark_v1","""event"",""trial"",""time""
""fullscreenenter"",""1"",""1648""
","
","
","""event"",""trial"",""time""
""fullscreenenter"",""1"",""1648""
","
","","","","","","1391.5","<p> Ready to practice? </p>","0","","","","","","","","","","","","",""
"html-keyboard-response","25","190253","0.0-8.0-2.0-0.0","7199","2","11","Female","approach_avoid_spark_v1","""event"",""trial"",""time""
""fullscreenenter"",""1"",""1648""
","
","
","""event"",""trial"",""time""
""fullscreenenter"",""1"",""1648""
","
","","","","","","null","<div style=""font-size:60px;"">+</div>","null","","fixation","","","","","","","","","","",""
"aa-learning-trial","26","193263","0.0-8.0-2.0-1.0","7199","2","11","Female","approach_avoid_spark_v1","""event"",""trial"",""time""
""fullscreenenter"",""1"",""1648""
","
","
","""event"",""trial"",""time""
""fullscreenenter"",""1"",""1648""
","
","","","","","","1723.699999988079","images/racket1.png","","","learning","7","7","1","1","practice","practice","practice","-1","","",""
"html-keyboard-response","27","193773","0.0-8.0-2.0-0.1","7199","2","11","Female","approach_avoid_spark_v1","""event"",""trial"",""time""
""fullscreenenter"",""1"",""1648""
","
","
","""event"",""trial"",""time""
""fullscreenenter"",""1"",""1648""
","
","","","","","","null","<div style=""font-size:60px;"">+</div>","null","","fixation","","","","","","","","","","",""
"aa-learning-trial","28","196786","0.0-8.0-2.0-1.1","7199","2","11","Female","approach_avoid_spark_v1","""event"",""trial"",""time""
""fullscreenenter"",""1"",""1648""
","
","
","""event"",""trial"",""time""
""fullscreenenter"",""1"",""1648""
","
","","","","","","1036.199999988079","images/racket1.png","","","learning","-8","-8","1","1","practice","practice","practice","-1","","",""
"html-keyboard-response","29","197299","0.0-8.0-2.0-0.2","7199","2","11","Female","approach_avoid_spark_v1","""event"",""trial"",""time""
""fullscreenenter"",""1"",""1648""
","
","
","""event"",""trial"",""time""
""fullscreenenter"",""1"",""1648""
","
","","","","","","null","<div style=""font-size:60px;"">+</div>","null","","fixation","","","","","","","","","","",""
"aa-learning-trial","30","200315","0.0-8.0-2.0-1.2","7199","2","11","Female","approach_avoid_spark_v1","""event"",""trial"",""time""
""fullscreenenter"",""1"",""1648""
","
","
","""event"",""trial"",""time""
""fullscreenenter"",""1"",""1648""
","
","","","","","","814.7999999523163","images/ball1.png","","","learning","-5","-5","1","1","practice","practice","practice","-1","","",""
"html-keyboard-response","31","200818","0.0-8.0-2.0-0.3","7199","2","11","Female","approach_avoid_spark_v1","""event"",""trial"",""time""
""fullscreenenter"",""1"",""1648""
","
","
","""event"",""trial"",""time""
""fullscreenenter"",""1"",""1648""
","
","","","","","","null","<div style=""font-size:60px;"">+</div>","null","","fixation","","","","","","","","","","",""
"aa-learning-trial","32","203836","0.0-8.0-2.0-1.3","7199","2","11","Female","approach_avoid_spark_v1","""event"",""trial"",""time""
""fullscreenenter"",""1"",""1648""
","
","
","""event"",""trial"",""time""
""fullscreenenter"",""1"",""1648""
","
","","","","","","1495.5","images/racket3.png","","","learning","6","0","0","0","practice","practice","practice","-1","","",""
"html-keyboard-response","33","204350","0.0-8.0-2.0-0.4","7199","2","11","Female","approach_avoid_spark_v1","""event"",""trial"",""time""
""fullscreenenter"",""1"",""1648""
","
","
","""event"",""trial"",""time""
""fullscreenenter"",""1"",""1648""
","
","","","","","","null","<div style=""font-size:60px;"">+</div>","null","","fixation","","","","","","","","","","",""
"aa-learning-trial","34","207361","0.0-8.0-2.0-1.4","7199","2","11","Female","approach_avoid_spark_v1","""event"",""trial"",""time""
""fullscreenenter"",""1"",""1648""
","
","
","""event"",""trial"",""time""
""fullscreenenter"",""1"",""1648""
","
","","","","","","1011.6000000238419","images/ball4.png","","","learning","8","8","1","1","practice","practice","practice","-1","","",""
"html-keyboard-response","35","207877","0.0-8.0-2.0-0.5","7199","2","11","Female","approach_avoid_spark_v1","""event"",""trial"",""time""
""fullscreenenter"",""1"",""1648""
","
","
","""event"",""trial"",""time""
""fullscreenenter"",""1"",""1648""
","
","","","","","","null","<div style=""font-size:60px;"">+</div>","null","","fixation","","","","","","","","","","",""
"aa-learning-trial","36","210889","0.0-8.0-2.0-1.5","7199","2","11","Female","approach_avoid_spark_v1","""event"",""trial"",""time""
""fullscreenenter"",""1"",""1648""
","
","
","""event"",""trial"",""time""
""fullscreenenter"",""1"",""1648""
","
","","","","","","1189.1000000238419","images/racket1.png","","","learning","-2","-2","1","1","practice","practice","practice","-1","","",""
"html-keyboard-response","37","211403","0.0-8.0-2.0-0.6","7199","2","11","Female","approach_avoid_spark_v1","""event"",""trial"",""time""
""fullscreenenter"",""1"",""1648""
","
","
","""event"",""trial"",""time""
""fullscreenenter"",""1"",""1648""
","
","","","","","","null","<div style=""font-size:60px;"">+</div>","null","","fixation","","","","","","","","","","",""
"aa-learning-trial","38","214417","0.0-8.0-2.0-1.6","7199","2","11","Female","approach_avoid_spark_v1","""event"",""trial"",""time""
""fullscreenenter"",""1"",""1648""
","
","
","""event"",""trial"",""time""
""fullscreenenter"",""1"",""1648""
","
","","","","","","973.9000000357628","images/racket4.png","","","learning","4","0","0","0","practice","practice","practice","-1","","",""
"html-keyboard-response","39","214929","0.0-8.0-2.0-0.7","7199","2","11","Female","approach_avoid_spark_v1","""event"",""trial"",""time""
""fullscreenenter"",""1"",""1648""
","
","
","""event"",""trial"",""time""
""fullscreenenter"",""1"",""1648""
","
","","","","","","null","<div style=""font-size:60px;"">+</div>","null","","fixation","","","","","","","","","","",""
"aa-learning-trial","40","217931","0.0-8.0-2.0-1.7","7199","2","11","Female","approach_avoid_spark_v1","""event"",""trial"",""time""
""fullscreenenter"",""1"",""1648""
","
","
","""event"",""trial"",""time""
""fullscreenenter"",""1"",""1648""
","
","","","","","","2152.800000011921","images/racket4.png","","","learning","-8","-8","1","1","practice","practice","practice","-1","","",""
"html-keyboard-response","41","218433","0.0-8.0-2.0-0.8","7199","2","11","Female","approach_avoid_spark_v1","""event"",""trial"",""time""
""fullscreenenter"",""1"",""1648""
","
","
","""event"",""trial"",""time""
""fullscreenenter"",""1"",""1648""
","
","","","","","","null","<div style=""font-size:60px;"">+</div>","null","","fixation","","","","","","","","","","",""
"aa-learning-trial","42","221435","0.0-8.0-2.0-1.8","7199","2","11","Female","approach_avoid_spark_v1","""event"",""trial"",""time""
""fullscreenenter"",""1"",""1648""
","
","
","""event"",""trial"",""time""
""fullscreenenter"",""1"",""1648""
","
","","","","","","1226","images/ball4.png","","","learning","2","2","1","1","practice","practice","practice","-1","","",""
"html-keyboard-response","43","221938","0.0-8.0-2.0-0.9","7199","2","11","Female","approach_avoid_spark_v1","""event"",""trial"",""time""
""fullscreenenter"",""1"",""1648""
","
","
","""event"",""trial"",""time""
""fullscreenenter"",""1"",""1648""
","
","","","","","","null","<div style=""font-size:60px;"">+</div>","null","","fixation","","","","","","","","","","",""
"aa-learning-trial","44","224941","0.0-8.0-2.0-1.9","7199","2","11","Female","approach_avoid_spark_v1","""event"",""trial"",""time""
""fullscreenenter"",""1"",""1648""
","
","
","""event"",""trial"",""time""
""fullscreenenter"",""1"",""1648""
","
","","","","","","1023.2000000476837","images/racket2.png","","","learning","-7","-7","1","1","practice","practice","practice","-1","","",""
"html-keyboard-response","45","225443","0.0-8.0-2.0-0.10","7199","2","11","Female","approach_avoid_spark_v1","""event"",""trial"",""time""
""fullscreenenter"",""1"",""1648""
","
","
","""event"",""trial"",""time""
""fullscreenenter"",""1"",""1648""
","
","","","","","","null","<div style=""font-size:60px;"">+</div>","null","","fixation","","","","","","","","","","",""
"aa-learning-trial","46","228446","0.0-8.0-2.0-1.10","7199","2","11","Female","approach_avoid_spark_v1","""event"",""trial"",""time""
""fullscreenenter"",""1"",""1648""
","
","
","""event"",""trial"",""time""
""fullscreenenter"",""1"",""1648""
","
","","","","","","1086.6000000238419","images/racket4.png","","","learning","3","0","0","0","practice","practice","practice","-1","","",""
"html-keyboard-response","47","228948","0.0-8.0-2.0-0.11","7199","2","11","Female","approach_avoid_spark_v1","""event"",""trial"",""time""
""fullscreenenter"",""1"",""1648""
","
","
","""event"",""trial"",""time""
""fullscreenenter"",""1"",""1648""
","
","","","","","","null","<div style=""font-size:60px;"">+</div>","null","","fixation","","","","","","","","","","",""
"aa-learning-trial","48","231951","0.0-8.0-2.0-1.11","7199","2","11","Female","approach_avoid_spark_v1","""event"",""trial"",""time""
""fullscreenenter"",""1"",""1648""
","
","
","""event"",""trial"",""time""
""fullscreenenter"",""1"",""1648""
","
","","","","","","734.4000000357628","images/racket4.png","","","learning","9","9","1","1","practice","practice","practice","-1","","",""
"html-button-response","49","236146","0.0-8.0-3.0","7199","2","11","Female","approach_avoid_spark_v1","""event"",""trial"",""time""
""fullscreenenter"",""1"",""1648""
","
","
","""event"",""trial"",""time""
""fullscreenenter"",""1"",""1648""
","
","","","","","","4193.900000035763","<p> You earned -4 points in the practice round! </p>","0","","break","","","","","","","","","","",""
"learning-instructions","50","243318","0.0-8.0-4.0-0.0","7199","2","11","Female","approach_avoid_spark_v1","""event"",""trial"",""time""
""fullscreenenter"",""1"",""1648""
","
","
","""event"",""trial"",""time""
""fullscreenenter"",""1"",""1648""
","
","","","","","","1185.8999999761581","<p> It's almost time to start the real game. </p><p> Before you start, we're going to ask you a few questions about how the game works. </p>","","0","instructions","","","","","","","","","","",""
"preload","51","244680","0.0-8.0-5.0","7199","2","11","Female","approach_avoid_spark_v1","""event"",""trial"",""time""
""fullscreenenter"",""1"",""1648""
","
","
","""event"",""trial"",""time""
""fullscreenenter"",""1"",""1648""
","
","true","false","[]","[]","[]","","","","","","","","","","","","","","","",""
"comp-q","52","250692","0.0-8.0-6.0-0.0","7199","2","11","Female","approach_avoid_spark_v1","""event"",""trial"",""time""
""fullscreenenter"",""1"",""1648""
","
","
","""event"",""trial"",""time""
""fullscreenenter"",""1"",""1648""
","
","","","","","","1009.6999999880791","<p> <b> True or False? </b> </p><p> If you see a number in GREY, that means you earned that many points. </p>","","1","comp_question","","","","","","","","","true","",""
"comp-q","53","259971","0.0-8.0-6.0-1.0","7199","2","11","Female","approach_avoid_spark_v1","""event"",""trial"",""time""
""fullscreenenter"",""1"",""1648""
","
","
","""event"",""trial"",""time""
""fullscreenenter"",""1"",""1648""
","
","","","","","","919","<p><b> That's right! </b> If you see a grey number, it means you earned ZERO points. <br> The grey numbers show the points you WOULD HAVE earned if you had made the other choice. </p>","","0","comp_answer","","","","","","","","","","",""
"comp-q","54","265973","0.0-8.0-7.0-0.0","7199","2","11","Female","approach_avoid_spark_v1","""event"",""trial"",""time""
""fullscreenenter"",""1"",""1648""
","
","
","""event"",""trial"",""time""
""fullscreenenter"",""1"",""1648""
","
","","","","","","1310.800000011921","<p> <b> True or False? </b> </p><p> You will have as much time as you want to make each choice. </p>","","1","comp_question","","","","","","","","","true","",""
"comp-q","55","272621","0.0-8.0-7.0-1.0","7199","2","11","Female","approach_avoid_spark_v1","""event"",""trial"",""time""
""fullscreenenter"",""1"",""1648""
","
","
","""event"",""trial"",""time""
""fullscreenenter"",""1"",""1648""
","
","","","","","","2608.7999999523163","<p> <b> That's right! </b> You will only have 3 seconds to make each choice. </p>","","0","comp_answer","","","","","","","","","","",""
"comp-q","56","277892","0.0-8.0-8.0-0.0","7199","2","11","Female","approach_avoid_spark_v1","""event"",""trial"",""time""
""fullscreenenter"",""1"",""1648""
","
","
","""event"",""trial"",""time""
""fullscreenenter"",""1"",""1648""
","
","","","","","","610.1000000238419","<p> <b> True or False? </b> </p><p> You should use the '1' and '0' keys to make your choices. </p>","","0","comp_question","","","","","","","","","true","",""
"comp-q","57","283340","0.0-8.0-8.0-1.0","7199","2","11","Female","approach_avoid_spark_v1","""event"",""trial"",""time""
""fullscreenenter"",""1"",""1648""
","
","
","""event"",""trial"",""time""
""fullscreenenter"",""1"",""1648""
","
","","","","","","837.1000000238419","<p> <b> That's right! </b> You should use the '1' and '0' keys to make each choice. </p>","","0","comp_answer","","","","","","","","","","",""
"learning-instructions","58","292096","0.0-8.0-9.0-0.0","7199","2","11","Female","approach_avoid_spark_v1","""event"",""trial"",""time""
""fullscreenenter"",""1"",""1648""
","
","
","""event"",""trial"",""time""
""fullscreenenter"",""1"",""1648""
","
","","","","","","2483.599999964237","<p> It's now time to start the real game. </p>Do your best, because the points you earn in the next rounds will influence your bonus payment. </p>","","0","instructions","","","","","","","","","","",""
"preload","59","292226","0.0-9.0-0.0","7199","2","11","Female","approach_avoid_spark_v1","""event"",""trial"",""time""
""fullscreenenter"",""1"",""1648""
","
","
","""event"",""trial"",""time""
""fullscreenenter"",""1"",""1648""
","
","true","false","[]","[]","[]","","","","","","","","","","","","","","","",""
"learning-instructions","60","298449","0.0-9.0-1.0-0.0","7199","2","11","Female","approach_avoid_spark_v1","""event"",""trial"",""time""
""fullscreenenter"",""1"",""1648""
","
","
","""event"",""trial"",""time""
""fullscreenenter"",""1"",""1648""
","
","","","","","","2007","<p> Your goal in this round is to take care of lots of farm animals. </p></div>","","0","instructions","","","","","","","","","","",""
"learning-instructions","61","309459","0.0-9.0-1.0-0.1","7199","2","11","Female","approach_avoid_spark_v1","""event"",""trial"",""time""
""fullscreenenter"",""1"",""1648""
","
","
","""event"",""trial"",""time""
""fullscreenenter"",""1"",""1648""
","
","","","","","","1166.800000011921","<p> Some farm animals are hungry, while other farm animals are already full.  </p><p> On each turn, you will see a farm animal.   </p><p> You need to decide whether to feed it or not.  </p>","","0","instructions","","","","","","","","","","",""
"learning-instructions","62","316823","0.0-9.0-1.0-0.2","7199","2","11","Female","approach_avoid_spark_v1","""event"",""trial"",""time""
""fullscreenenter"",""1"",""1648""
","
","
","""event"",""trial"",""time""
""fullscreenenter"",""1"",""1648""
","
","","","","","","1540.6000000238419","<p> You can feed the farm animal by pressing 1 and leave the farm animal alone by pressing 0. </p><br><div class=""choice-instructions-grid""> <div class=""choice-option""><img src=""images/approach.png"" class=""choice-option-img"" stage=""instructions"" position=""0"" ><div class=""choice-option-text""> Press ""1."" </div></div><div class=""choice-option""><img src=""images/avoid.png"" class=""choice-option-img"" stage=""instructions"" position=""1"" ><div class=""choice-option-text""> Press ""0."" </div></div>","","0","instructions","","","","","","","","","","",""
"learning-instructions","63","331229","0.0-9.0-1.0-0.3","7199","2","11","Female","approach_avoid_spark_v1","""event"",""trial"",""time""
""fullscreenenter"",""1"",""1648""
","
","
","""event"",""trial"",""time""
""fullscreenenter"",""1"",""1648""
","
","","","","","","4957.199999988079","<p> If you feed a hungry farm animal, you will make it feel satisfied! </p><p> But if you feed the farm animal and it was already full, you will make it feel sick. </p>","","0","instructions","","","","","","","","","","",""
"learning-instructions","64","344853","0.0-9.0-1.0-0.4","7199","2","11","Female","approach_avoid_spark_v1","""event"",""trial"",""time""
""fullscreenenter"",""1"",""1648""
","
","
","""event"",""trial"",""time""
""fullscreenenter"",""1"",""1648""
","
","","","","","","1381.0999999642372","<p> You will earn points based on how you made the farm animal feel. </p><p> If you made it satisfied, you will WIN anywhere from 1 - 9 points, </p><p> but if you made it sick, you will LOSE anywhere from 1 - 9 points. </p>","","0","instructions","","","","","","","","","","",""
"learning-instructions","65","356052","0.0-9.0-1.0-0.5","7199","2","11","Female","approach_avoid_spark_v1","""event"",""trial"",""time""
""fullscreenenter"",""1"",""1648""
","
","
","""event"",""trial"",""time""
""fullscreenenter"",""1"",""1648""
","
","","","","","","3690.300000011921","<p> You will see how many points you won or lost in the center of the screen. </p><p> Here is what you would see if you won 5 points: </p><p style=""color:green;font-size:50px;font-weight:bolder"">5</p>","","0","instructions","","","","","","","","","","",""
"learning-instructions","66","360493","0.0-9.0-1.0-0.6","7199","2","11","Female","approach_avoid_spark_v1","""event"",""trial"",""time""
""fullscreenenter"",""1"",""1648""
","
","
","""event"",""trial"",""time""
""fullscreenenter"",""1"",""1648""
","
","","","","","","1021.1000000238419","<p> And here is what you would see if you lost 3 points: </p><p style=""color:red;font-size:50px;font-weight:bolder"">-3</p>","","0","instructions","","","","","","","","","","",""
"learning-instructions","67","378247","0.0-9.0-1.0-0.7","7199","2","11","Female","approach_avoid_spark_v1","""event"",""trial"",""time""
""fullscreenenter"",""1"",""1648""
","
","
","""event"",""trial"",""time""
""fullscreenenter"",""1"",""1648""
","
","","","","","","2354.2999999523163","<p> Some farm animals will become very satisfied or very sick. </p><p> These farm animals will make you win or lose LOTS of points. </p><p> Other farm animals have less strong feelings. </p><p> These farm animals will make you win or lose small amounts of points. </p>","","0","instructions","","","","","","","","","","",""
"learning-instructions","68","393363","0.0-9.0-1.0-0.8","7199","2","11","Female","approach_avoid_spark_v1","""event"",""trial"",""time""
""fullscreenenter"",""1"",""1648""
","
","
","""event"",""trial"",""time""
""fullscreenenter"",""1"",""1648""
","
","","","","","","3180.600000023842","<p> If you choose to leave the farm animal alone, you will not win or lose any points. </p><p>  However, in the center of the screen, you will see the number of points you WOULD HAVE won or lost if you had fed the farm animal. </p>","","0","instructions","","","","","","","","","","",""
"learning-instructions","69","405527","0.0-9.0-1.0-0.9","7199","2","11","Female","approach_avoid_spark_v1","""event"",""trial"",""time""
""fullscreenenter"",""1"",""1648""
","
","
","""event"",""trial"",""time""
""fullscreenenter"",""1"",""1648""
","
","","","","","","864.6999999880791","<p> Here is what you might see if you did not feed the farm animal but the animal was hungry: </p><p style=""color:grey; font-size:50px; display: inline-block; border-spacing: 15px; border-width:3px; border-style:solid; border-color:red"">  &nbsp; 6 &nbsp; </p><p> Remember, in this case, you would not win or lose ANY points because you did not feed the farm animal.  </p>","","0","instructions","","","","","","","","","","",""
"learning-instructions","70","414687","0.0-9.0-1.0-0.10","7199","2","11","Female","approach_avoid_spark_v1","""event"",""trial"",""time""
""fullscreenenter"",""1"",""1648""
","
","
","""event"",""trial"",""time""
""fullscreenenter"",""1"",""1648""
","
","","","","","","1395","<p> Try to make the best choice for each farm animal because </p><p> at the end of the game, you will earn bonus money based on how many points you earned. </p>","","0","instructions","","","","","","","","","","",""
"learning-instructions","71","423646","0.0-9.0-1.0-0.11","7199","2","11","Female","approach_avoid_spark_v1","""event"",""trial"",""time""
""fullscreenenter"",""1"",""1648""
","
","
","""event"",""trial"",""time""
""fullscreenenter"",""1"",""1648""
","
","","","","","","753.9000000357628","<p> You will have 3 seconds to make each choice. Try to respond before time runs out! </p><p> You will lose 5 points each time you do not make a response. </p>","","0","instructions","","","","","","","","","","",""
"html-keyboard-response","72","424274","0.0-9.0-2.0-0.0","7199","2","11","Female","approach_avoid_spark_v1","""event"",""trial"",""time""
""fullscreenenter"",""1"",""1648""
","
","
","""event"",""trial"",""time""
""fullscreenenter"",""1"",""1648""
","
","","","","","","null","<div style=""font-size:60px;"">+</div>","null","","fixation","","","","","","","","","","",""
"aa-learning-trial","73","427279","0.0-9.0-2.0-1.0","7199","2","11","Female","approach_avoid_spark_v1","""event"",""trial"",""time""
""fullscreenenter"",""1"",""1648""
","
","
","""event"",""trial"",""time""
""fullscreenenter"",""1"",""1648""
","
","","","","","","2022.6000000238419","images/horse8.png","","","learning","5","5","1","1","horse","animals","2","0","","good","[6]"
"html-keyboard-response","74","427783","0.0-9.0-2.0-0.1","7199","2","11","Female","approach_avoid_spark_v1","""event"",""trial"",""time""
""fullscreenenter"",""1"",""1648""
","
","
","""event"",""trial"",""time""
""fullscreenenter"",""1"",""1648""
","
","","","","","","null","<div style=""font-size:60px;"">+</div>","null","","fixation","","","","","","","","","","",""
"aa-learning-trial","75","430787","0.0-9.0-2.0-1.1","7199","2","11","Female","approach_avoid_spark_v1","""event"",""trial"",""time""
""fullscreenenter"",""1"",""1648""
","
","
","""event"",""trial"",""time""
""fullscreenenter"",""1"",""1648""
","
","","","","","","891.1999999880791","images/horse4.png","","","learning","-8","-8","1","1","horse","animals","2","0","","good","[6]"
"html-keyboard-response","76","431300","0.0-9.0-2.0-0.2","7199","2","11","Female","approach_avoid_spark_v1","""event"",""trial"",""time""
""fullscreenenter"",""1"",""1648""
","
","
","""event"",""trial"",""time""
""fullscreenenter"",""1"",""1648""
","
","","","","","","null","<div style=""font-size:60px;"">+</div>","null","","fixation","","","","","","","","","","",""
"aa-learning-trial","77","434305","0.0-9.0-2.0-1.2","7199","2","11","Female","approach_avoid_spark_v1","""event"",""trial"",""time""
""fullscreenenter"",""1"",""1648""
","
","
","""event"",""trial"",""time""
""fullscreenenter"",""1"",""1648""
","
","","","","","","1069.5","images/cow6.png","","","learning","-3","-3","1","1","cow","animals","2","0","","bad","[-4]"
"html-keyboard-response","78","434821","0.0-9.0-2.0-0.3","7199","2","11","Female","approach_avoid_spark_v1","""event"",""trial"",""time""
""fullscreenenter"",""1"",""1648""
","
","
","""event"",""trial"",""time""
""fullscreenenter"",""1"",""1648""
","
","","","","","","null","<div style=""font-size:60px;"">+</div>","null","","fixation","","","","","","","","","","",""
"aa-learning-trial","79","437829","0.0-9.0-2.0-1.3","7199","2","11","Female","approach_avoid_spark_v1","""event"",""trial"",""time""
""fullscreenenter"",""1"",""1648""
","
","
","""event"",""trial"",""time""
""fullscreenenter"",""1"",""1648""
","
","","","","","","1557.7999999523163","images/cow8.png","","","learning","4","4","1","1","cow","animals","2","0","","bad","[-4]"
"html-keyboard-response","80","438332","0.0-9.0-2.0-0.4","7199","2","11","Female","approach_avoid_spark_v1","""event"",""trial"",""time""
""fullscreenenter"",""1"",""1648""
","
","
","""event"",""trial"",""time""
""fullscreenenter"",""1"",""1648""
","
","","","","","","null","<div style=""font-size:60px;"">+</div>","null","","fixation","","","","","","","","","","",""
"aa-learning-trial","81","441339","0.0-9.0-2.0-1.4","7199","2","11","Female","approach_avoid_spark_v1","""event"",""trial"",""time""
""fullscreenenter"",""1"",""1648""
","
","
","""event"",""trial"",""time""
""fullscreenenter"",""1"",""1648""
","
","","","","","","837.6999999880791","images/horse1.png","","","learning","2","2","1","1","horse","animals","2","0","","good","[6]"
"html-keyboard-response","82","441850","0.0-9.0-2.0-0.5","7199","2","11","Female","approach_avoid_spark_v1","""event"",""trial"",""time""
""fullscreenenter"",""1"",""1648""
","
","
","""event"",""trial"",""time""
""fullscreenenter"",""1"",""1648""
","
","","","","","","null","<div style=""font-size:60px;"">+</div>","null","","fixation","","","","","","","","","","",""
"aa-learning-trial","83","444866","0.0-9.0-2.0-1.5","7199","2","11","Female","approach_avoid_spark_v1","""event"",""trial"",""time""
""fullscreenenter"",""1"",""1648""
","
","
","""event"",""trial"",""time""
""fullscreenenter"",""1"",""1648""
","
","","","","","","615.1000000238419","images/cow8.png","","","learning","4","4","1","1","cow","animals","2","0","","bad","[-4]"
"html-keyboard-response","84","445381","0.0-9.0-2.0-0.6","7199","2","11","Female","approach_avoid_spark_v1","""event"",""trial"",""time""
""fullscreenenter"",""1"",""1648""
","
","
","""event"",""trial"",""time""
""fullscreenenter"",""1"",""1648""
","
","","","","","","null","<div style=""font-size:60px;"">+</div>","null","","fixation","","","","","","","","","","",""
"aa-learning-trial","85","448387","0.0-9.0-2.0-1.6","7199","2","11","Female","approach_avoid_spark_v1","""event"",""trial"",""time""
""fullscreenenter"",""1"",""1648""
","
","
","""event"",""trial"",""time""
""fullscreenenter"",""1"",""1648""
","
","","","","","","844.6000000238419","images/cow3.png","","","learning","-6","-6","1","1","cow","animals","2","0","","bad","[-4]"
"html-keyboard-response","86","448899","0.0-9.0-2.0-0.7","7199","2","11","Female","approach_avoid_spark_v1","""event"",""trial"",""time""
""fullscreenenter"",""1"",""1648""
","
","
","""event"",""trial"",""time""
""fullscreenenter"",""1"",""1648""
","
","","","","","","null","<div style=""font-size:60px;"">+</div>","null","","fixation","","","","","","","","","","",""
"aa-learning-trial","87","451907","0.0-9.0-2.0-1.7","7199","2","11","Female","approach_avoid_spark_v1","""event"",""trial"",""time""
""fullscreenenter"",""1"",""1648""
","
","
","""event"",""trial"",""time""
""fullscreenenter"",""1"",""1648""
","
","","","","","","2126.199999988079","images/cow6.png","","","learning","-3","0","0","0","cow","animals","2","0","","bad","[-4]"
"html-keyboard-response","88","452424","0.0-9.0-2.0-0.8","7199","2","11","Female","approach_avoid_spark_v1","""event"",""trial"",""time""
""fullscreenenter"",""1"",""1648""
","
","
","""event"",""trial"",""time""
""fullscreenenter"",""1"",""1648""
","
","","","","","","null","<div style=""font-size:60px;"">+</div>","null","","fixation","","","","","","","","","","",""
"aa-learning-trial","89","455427","0.0-9.0-2.0-1.8","7199","2","11","Female","approach_avoid_spark_v1","""event"",""trial"",""time""
""fullscreenenter"",""1"",""1648""
","
","
","""event"",""trial"",""time""
""fullscreenenter"",""1"",""1648""
","
","","","","","","1441.5","images/sheep3.png","","","learning","6","6","1","1","sheep","animals","2","0","","neutral","0"
"html-keyboard-response","90","455928","0.0-9.0-2.0-0.9","7199","2","11","Female","approach_avoid_spark_v1","""event"",""trial"",""time""
""fullscreenenter"",""1"",""1648""
","
","
","""event"",""trial"",""time""
""fullscreenenter"",""1"",""1648""
","
","","","","","","null","<div style=""font-size:60px;"">+</div>","null","","fixation","","","","","","","","","","",""
"aa-learning-trial","91","458931","0.0-9.0-2.0-1.9","7199","2","11","Female","approach_avoid_spark_v1","""event"",""trial"",""time""
""fullscreenenter"",""1"",""1648""
","
","
","""event"",""trial"",""time""
""fullscreenenter"",""1"",""1648""
","
","","","","","","914.1000000238419","images/sheep8.png","","","learning","3","3","1","1","sheep","animals","2","0","","neutral","0"
"html-keyboard-response","92","459432","0.0-9.0-2.0-0.10","7199","2","11","Female","approach_avoid_spark_v1","""event"",""trial"",""time""
""fullscreenenter"",""1"",""1648""
","
","
","""event"",""trial"",""time""
""fullscreenenter"",""1"",""1648""
","
","","","","","","null","<div style=""font-size:60px;"">+</div>","null","","fixation","","","","","","","","","","",""
"aa-learning-trial","93","462435","0.0-9.0-2.0-1.10","7199","2","11","Female","approach_avoid_spark_v1","""event"",""trial"",""time""
""fullscreenenter"",""1"",""1648""
","
","
","""event"",""trial"",""time""
""fullscreenenter"",""1"",""1648""
","
","","","","","","1065","images/sheep4.png","","","learning","1","1","1","1","sheep","animals","2","0","","neutral","0"
"html-keyboard-response","94","462936","0.0-9.0-2.0-0.11","7199","2","11","Female","approach_avoid_spark_v1","""event"",""trial"",""time""
""fullscreenenter"",""1"",""1648""
","
","
","""event"",""trial"",""time""
""fullscreenenter"",""1"",""1648""
","
","","","","","","null","<div style=""font-size:60px;"">+</div>","null","","fixation","","","","","","","","","","",""
"aa-learning-trial","95","465939","0.0-9.0-2.0-1.11","7199","2","11","Female","approach_avoid_spark_v1","""event"",""trial"",""time""
""fullscreenenter"",""1"",""1648""
","
","
","""event"",""trial"",""time""
""fullscreenenter"",""1"",""1648""
","
","","","","","","809.1999999880791","images/sheep3.png","","","learning","6","6","1","1","sheep","animals","2","0","","neutral","0"
"html-keyboard-response","96","466441","0.0-9.0-2.0-0.12","7199","2","11","Female","approach_avoid_spark_v1","""event"",""trial"",""time""
""fullscreenenter"",""1"",""1648""
","
","
","""event"",""trial"",""time""
""fullscreenenter"",""1"",""1648""
","
","","","","","","null","<div style=""font-size:60px;"">+</div>","null","","fixation","","","","","","","","","","",""
"aa-learning-trial","97","469443","0.0-9.0-2.0-1.12","7199","2","11","Female","approach_avoid_spark_v1","""event"",""trial"",""time""
""fullscreenenter"",""1"",""1648""
","
","
","""event"",""trial"",""time""
""fullscreenenter"",""1"",""1648""
","
","","","","","","608.9000000357628","images/sheep8.png","","","learning","3","3","1","1","sheep","animals","2","0","","neutral","0"
"html-keyboard-response","98","469944","0.0-9.0-2.0-0.13","7199","2","11","Female","approach_avoid_spark_v1","""event"",""trial"",""time""
""fullscreenenter"",""1"",""1648""
","
","
","""event"",""trial"",""time""
""fullscreenenter"",""1"",""1648""
","
","","","","","","null","<div style=""font-size:60px;"">+</div>","null","","fixation","","","","","","","","","","",""
"aa-learning-trial","99","472946","0.0-9.0-2.0-1.13","7199","2","11","Female","approach_avoid_spark_v1","""event"",""trial"",""time""
""fullscreenenter"",""1"",""1648""
","
","
","""event"",""trial"",""time""
""fullscreenenter"",""1"",""1648""
","
","","","","","","737.6999999880791","images/horse1.png","","","learning","2","2","1","1","horse","animals","2","0","","good","[6]"
"html-keyboard-response","100","473447","0.0-9.0-2.0-0.14","7199","2","11","Female","approach_avoid_spark_v1","""event"",""trial"",""time""
""fullscreenenter"",""1"",""1648""
","
","
","""event"",""trial"",""time""
""fullscreenenter"",""1"",""1648""
","
","","","","","","null","<div style=""font-size:60px;"">+</div>","null","","fixation","","","","","","","","","","",""
"aa-learning-trial","101","476450","0.0-9.0-2.0-1.14","7199","2","11","Female","approach_avoid_spark_v1","""event"",""trial"",""time""
""fullscreenenter"",""1"",""1648""
","
","
","""event"",""trial"",""time""
""fullscreenenter"",""1"",""1648""
","
","","","","","","1043.7000000476837","images/horse4.png","","","learning","-8","0","0","0","horse","animals","2","0","","good","[6]"
"html-keyboard-response","102","476951","0.0-9.0-2.0-0.15","7199","2","11","Female","approach_avoid_spark_v1","""event"",""trial"",""time""
""fullscreenenter"",""1"",""1648""
","
","
","""event"",""trial"",""time""
""fullscreenenter"",""1"",""1648""
","
","","","","","","null","<div style=""font-size:60px;"">+</div>","null","","fixation","","","","","","","","","","",""
"aa-learning-trial","103","479955","0.0-9.0-2.0-1.15","7199","2","11","Female","approach_avoid_spark_v1","""event"",""trial"",""time""
""fullscreenenter"",""1"",""1648""
","
","
","""event"",""trial"",""time""
""fullscreenenter"",""1"",""1648""
","
","","","","","","1009","images/horse7.png","","","learning","-4","-4","1","1","horse","animals","2","0","","good","[6]"
"html-keyboard-response","104","480456","0.0-9.0-2.0-0.16","7199","2","11","Female","approach_avoid_spark_v1","""event"",""trial"",""time""
""fullscreenenter"",""1"",""1648""
","
","
","""event"",""trial"",""time""
""fullscreenenter"",""1"",""1648""
","
","","","","","","null","<div style=""font-size:60px;"">+</div>","null","","fixation","","","","","","","","","","",""
"aa-learning-trial","105","483458","0.0-9.0-2.0-1.16","7199","2","11","Female","approach_avoid_spark_v1","""event"",""trial"",""time""
""fullscreenenter"",""1"",""1648""
","
","
","""event"",""trial"",""time""
""fullscreenenter"",""1"",""1648""
","
","","","","","","793.3000000119209","images/sheep5.png","","","learning","-9","-9","1","1","sheep","animals","2","0","","neutral","0"
"html-keyboard-response","106","483960","0.0-9.0-2.0-0.17","7199","2","11","Female","approach_avoid_spark_v1","""event"",""trial"",""time""
""fullscreenenter"",""1"",""1648""
","
","
","""event"",""trial"",""time""
""fullscreenenter"",""1"",""1648""
","
","","","","","","null","<div style=""font-size:60px;"">+</div>","null","","fixation","","","","","","","","","","",""
"aa-learning-trial","107","486962","0.0-9.0-2.0-1.17","7199","2","11","Female","approach_avoid_spark_v1","""event"",""trial"",""time""
""fullscreenenter"",""1"",""1648""
","
","
","""event"",""trial"",""time""
""fullscreenenter"",""1"",""1648""
","
","","","","","","955","images/horse4.png","","","learning","-8","0","0","0","horse","animals","2","0","","good","[6]"
"html-keyboard-response","108","487464","0.0-9.0-2.0-0.18","7199","2","11","Female","approach_avoid_spark_v1","""event"",""trial"",""time""
""fullscreenenter"",""1"",""1648""
","
","
","""event"",""trial"",""time""
""fullscreenenter"",""1"",""1648""
","
","","","","","","null","<div style=""font-size:60px;"">+</div>","null","","fixation","","","","","","","","","","",""
"aa-learning-trial","109","490467","0.0-9.0-2.0-1.18","7199","2","11","Female","approach_avoid_spark_v1","""event"",""trial"",""time""
""fullscreenenter"",""1"",""1648""
","
","
","""event"",""trial"",""time""
""fullscreenenter"",""1"",""1648""
","
","","","","","","817.3000000119209","images/cow8.png","","","learning","4","4","1","1","cow","animals","2","0","","bad","[-4]"
"html-keyboard-response","110","490968","0.0-9.0-2.0-0.19","7199","2","11","Female","approach_avoid_spark_v1","""event"",""trial"",""time""
""fullscreenenter"",""1"",""1648""
","
","
","""event"",""trial"",""time""
""fullscreenenter"",""1"",""1648""
","
","","","","","","null","<div style=""font-size:60px;"">+</div>","null","","fixation","","","","","","","","","","",""
"aa-learning-trial","111","493971","0.0-9.0-2.0-1.19","7199","2","11","Female","approach_avoid_spark_v1","""event"",""trial"",""time""
""fullscreenenter"",""1"",""1648""
","
","
","""event"",""trial"",""time""
""fullscreenenter"",""1"",""1648""
","
","","","","","","625.3999999761581","images/horse1.png","","","learning","2","2","1","1","horse","animals","2","0","","good","[6]"
"html-keyboard-response","112","494474","0.0-9.0-2.0-0.20","7199","2","11","Female","approach_avoid_spark_v1","""event"",""trial"",""time""
""fullscreenenter"",""1"",""1648""
","
","
","""event"",""trial"",""time""
""fullscreenenter"",""1"",""1648""
","
","","","","","","null","<div style=""font-size:60px;"">+</div>","null","","fixation","","","","","","","","","","",""
"aa-learning-trial","113","497477","0.0-9.0-2.0-1.20","7199","2","11","Female","approach_avoid_spark_v1","""event"",""trial"",""time""
""fullscreenenter"",""1"",""1648""
","
","
","""event"",""trial"",""time""
""fullscreenenter"",""1"",""1648""
","
","","","","","","1119.8999999761581","images/cow6.png","","","learning","-3","0","0","0","cow","animals","2","0","","bad","[-4]"
"html-keyboard-response","114","497979","0.0-9.0-2.0-0.21","7199","2","11","Female","approach_avoid_spark_v1","""event"",""trial"",""time""
""fullscreenenter"",""1"",""1648""
","
","
","""event"",""trial"",""time""
""fullscreenenter"",""1"",""1648""
","
","","","","","","null","<div style=""font-size:60px;"">+</div>","null","","fixation","","","","","","","","","","",""
"aa-learning-trial","115","500981","0.0-9.0-2.0-1.21","7199","2","11","Female","approach_avoid_spark_v1","""event"",""trial"",""time""
""fullscreenenter"",""1"",""1648""
","
","
","""event"",""trial"",""time""
""fullscreenenter"",""1"",""1648""
","
","","","","","","734.6999999880791","images/cow3.png","","","learning","-6","-6","1","1","cow","animals","2","0","","bad","[-4]"
"html-keyboard-response","116","501483","0.0-9.0-2.0-0.22","7199","2","11","Female","approach_avoid_spark_v1","""event"",""trial"",""time""
""fullscreenenter"",""1"",""1648""
","
","
","""event"",""trial"",""time""
""fullscreenenter"",""1"",""1648""
","
","","","","","","null","<div style=""font-size:60px;"">+</div>","null","","fixation","","","","","","","","","","",""
"aa-learning-trial","117","504486","0.0-9.0-2.0-1.22","7199","2","11","Female","approach_avoid_spark_v1","""event"",""trial"",""time""
""fullscreenenter"",""1"",""1648""
","
","
","""event"",""trial"",""time""
""fullscreenenter"",""1"",""1648""
","
","","","","","","694.2999999523163","images/sheep3.png","","","learning","6","6","1","1","sheep","animals","2","0","","neutral","0"
"html-keyboard-response","118","504988","0.0-9.0-2.0-0.23","7199","2","11","Female","approach_avoid_spark_v1","""event"",""trial"",""time""
""fullscreenenter"",""1"",""1648""
","
","
","""event"",""trial"",""time""
""fullscreenenter"",""1"",""1648""
","
","","","","","","null","<div style=""font-size:60px;"">+</div>","null","","fixation","","","","","","","","","","",""
"aa-learning-trial","119","507990","0.0-9.0-2.0-1.23","7199","2","11","Female","approach_avoid_spark_v1","""event"",""trial"",""time""
""fullscreenenter"",""1"",""1648""
","
","
","""event"",""trial"",""time""
""fullscreenenter"",""1"",""1648""
","
","","","","","","774","images/sheep3.png","","","learning","6","6","1","1","sheep","animals","2","0","","neutral","0"
"html-keyboard-response","120","508492","0.0-9.0-2.0-0.24","7199","2","11","Female","approach_avoid_spark_v1","""event"",""trial"",""time""
""fullscreenenter"",""1"",""1648""
","
","
","""event"",""trial"",""time""
""fullscreenenter"",""1"",""1648""
","
","","","","","","null","<div style=""font-size:60px;"">+</div>","null","","fixation","","","","","","","","","","",""
"aa-learning-trial","121","511494","0.0-9.0-2.0-1.24","7199","2","11","Female","approach_avoid_spark_v1","""event"",""trial"",""time""
""fullscreenenter"",""1"",""1648""
","
","
","""event"",""trial"",""time""
""fullscreenenter"",""1"",""1648""
","
","","","","","","965.5","images/cow6.png","","","learning","-3","0","0","0","cow","animals","2","0","","bad","[-4]"
"html-keyboard-response","122","511995","0.0-9.0-2.0-0.25","7199","2","11","Female","approach_avoid_spark_v1","""event"",""trial"",""time""
""fullscreenenter"",""1"",""1648""
","
","
","""event"",""trial"",""time""
""fullscreenenter"",""1"",""1648""
","
","","","","","","null","<div style=""font-size:60px;"">+</div>","null","","fixation","","","","","","","","","","",""
"aa-learning-trial","123","514997","0.0-9.0-2.0-1.25","7199","2","11","Female","approach_avoid_spark_v1","""event"",""trial"",""time""
""fullscreenenter"",""1"",""1648""
","
","
","""event"",""trial"",""time""
""fullscreenenter"",""1"",""1648""
","
","","","","","","782.5999999642372","images/sheep8.png","","","learning","3","3","1","1","sheep","animals","2","0","","neutral","0"
"html-keyboard-response","124","515498","0.0-9.0-2.0-0.26","7199","2","11","Female","approach_avoid_spark_v1","""event"",""trial"",""time""
""fullscreenenter"",""1"",""1648""
","
","
","""event"",""trial"",""time""
""fullscreenenter"",""1"",""1648""
","
","","","","","","null","<div style=""font-size:60px;"">+</div>","null","","fixation","","","","","","","","","","",""
"aa-learning-trial","125","518501","0.0-9.0-2.0-1.26","7199","2","11","Female","approach_avoid_spark_v1","""event"",""trial"",""time""
""fullscreenenter"",""1"",""1648""
","
","
","""event"",""trial"",""time""
""fullscreenenter"",""1"",""1648""
","
","","","","","","583.3000000119209","images/horse1.png","","","learning","2","2","1","1","horse","animals","2","0","","good","[6]"
"html-keyboard-response","126","519003","0.0-9.0-2.0-0.27","7199","2","11","Female","approach_avoid_spark_v1","""event"",""trial"",""time""
""fullscreenenter"",""1"",""1648""
","
","
","""event"",""trial"",""time""
""fullscreenenter"",""1"",""1648""
","
","","","","","","null","<div style=""font-size:60px;"">+</div>","null","","fixation","","","","","","","","","","",""
"aa-learning-trial","127","522006","0.0-9.0-2.0-1.27","7199","2","11","Female","approach_avoid_spark_v1","""event"",""trial"",""time""
""fullscreenenter"",""1"",""1648""
","
","
","""event"",""trial"",""time""
""fullscreenenter"",""1"",""1648""
","
","","","","","","574","images/cow3.png","","","learning","-6","-6","1","1","cow","animals","2","0","","bad","[-4]"
"html-keyboard-response","128","522508","0.0-9.0-2.0-0.28","7199","2","11","Female","approach_avoid_spark_v1","""event"",""trial"",""time""
""fullscreenenter"",""1"",""1648""
","
","
","""event"",""trial"",""time""
""fullscreenenter"",""1"",""1648""
","
","","","","","","null","<div style=""font-size:60px;"">+</div>","null","","fixation","","","","","","","","","","",""
"aa-learning-trial","129","525511","0.0-9.0-2.0-1.28","7199","2","11","Female","approach_avoid_spark_v1","""event"",""trial"",""time""
""fullscreenenter"",""1"",""1648""
","
","
","""event"",""trial"",""time""
""fullscreenenter"",""1"",""1648""
","
","","","","","","685.5","images/sheep3.png","","","learning","6","6","1","1","sheep","animals","2","0","","neutral","0"
"html-keyboard-response","130","526012","0.0-9.0-2.0-0.29","7199","2","11","Female","approach_avoid_spark_v1","""event"",""trial"",""time""
""fullscreenenter"",""1"",""1648""
","
","
","""event"",""trial"",""time""
""fullscreenenter"",""1"",""1648""
","
","","","","","","null","<div style=""font-size:60px;"">+</div>","null","","fixation","","","","","","","","","","",""
"aa-learning-trial","131","529014","0.0-9.0-2.0-1.29","7199","2","11","Female","approach_avoid_spark_v1","""event"",""trial"",""time""
""fullscreenenter"",""1"",""1648""
","
","
","""event"",""trial"",""time""
""fullscreenenter"",""1"",""1648""
","
","","","","","","900.6999999880791","images/sheep8.png","","","learning","3","3","1","1","sheep","animals","2","0","","neutral","0"
"html-keyboard-response","132","529515","0.0-9.0-2.0-0.30","7199","2","11","Female","approach_avoid_spark_v1","""event"",""trial"",""time""
""fullscreenenter"",""1"",""1648""
","
","
","""event"",""trial"",""time""
""fullscreenenter"",""1"",""1648""
","
","","","","","","null","<div style=""font-size:60px;"">+</div>","null","","fixation","","","","","","","","","","",""
"aa-learning-trial","133","532518","0.0-9.0-2.0-1.30","7199","2","11","Female","approach_avoid_spark_v1","""event"",""trial"",""time""
""fullscreenenter"",""1"",""1648""
","
","
","""event"",""trial"",""time""
""fullscreenenter"",""1"",""1648""
","
","","","","","","958.4000000357628","images/cow8.png","","","learning","4","4","1","1","cow","animals","2","0","","bad","[-4]"
"html-keyboard-response","134","533019","0.0-9.0-2.0-0.31","7199","2","11","Female","approach_avoid_spark_v1","""event"",""trial"",""time""
""fullscreenenter"",""1"",""1648""
","
","
","""event"",""trial"",""time""
""fullscreenenter"",""1"",""1648""
","
","","","","","","null","<div style=""font-size:60px;"">+</div>","null","","fixation","","","","","","","","","","",""
"aa-learning-trial","135","536023","0.0-9.0-2.0-1.31","7199","2","11","Female","approach_avoid_spark_v1","""event"",""trial"",""time""
""fullscreenenter"",""1"",""1648""
","
","
","""event"",""trial"",""time""
""fullscreenenter"",""1"",""1648""
","
","","","","","","701.1999999880791","images/sheep8.png","","","learning","3","3","1","1","sheep","animals","2","0","","neutral","0"
"html-keyboard-response","136","536525","0.0-9.0-2.0-0.32","7199","2","11","Female","approach_avoid_spark_v1","""event"",""trial"",""time""
""fullscreenenter"",""1"",""1648""
","
","
","""event"",""trial"",""time""
""fullscreenenter"",""1"",""1648""
","
","","","","","","null","<div style=""font-size:60px;"">+</div>","null","","fixation","","","","","","","","","","",""
"aa-learning-trial","137","539528","0.0-9.0-2.0-1.32","7199","2","11","Female","approach_avoid_spark_v1","""event"",""trial"",""time""
""fullscreenenter"",""1"",""1648""
","
","
","""event"",""trial"",""time""
""fullscreenenter"",""1"",""1648""
","
","","","","","","789.5","images/horse1.png","","","learning","2","2","1","1","horse","animals","2","0","","good","[6]"
"html-keyboard-response","138","540031","0.0-9.0-2.0-0.33","7199","2","11","Female","approach_avoid_spark_v1","""event"",""trial"",""time""
""fullscreenenter"",""1"",""1648""
","
","
","""event"",""trial"",""time""
""fullscreenenter"",""1"",""1648""
","
","","","","","","null","<div style=""font-size:60px;"">+</div>","null","","fixation","","","","","","","","","","",""
"aa-learning-trial","139","543034","0.0-9.0-2.0-1.33","7199","2","11","Female","approach_avoid_spark_v1","""event"",""trial"",""time""
""fullscreenenter"",""1"",""1648""
","
","
","""event"",""trial"",""time""
""fullscreenenter"",""1"",""1648""
","
","","","","","","874.5","images/sheep6.png","","","learning","-5","-5","1","1","sheep","animals","2","0","","neutral","0"
"html-keyboard-response","140","543535","0.0-9.0-2.0-0.34","7199","2","11","Female","approach_avoid_spark_v1","""event"",""trial"",""time""
""fullscreenenter"",""1"",""1648""
","
","
","""event"",""trial"",""time""
""fullscreenenter"",""1"",""1648""
","
","","","","","","null","<div style=""font-size:60px;"">+</div>","null","","fixation","","","","","","","","","","",""
"aa-learning-trial","141","546538","0.0-9.0-2.0-1.34","7199","2","11","Female","approach_avoid_spark_v1","""event"",""trial"",""time""
""fullscreenenter"",""1"",""1648""
","
","
","""event"",""trial"",""time""
""fullscreenenter"",""1"",""1648""
","
","","","","","","971","images/cow8.png","","","learning","4","4","1","1","cow","animals","2","0","","bad","[-4]"
"html-keyboard-response","142","547040","0.0-9.0-2.0-0.35","7199","2","11","Female","approach_avoid_spark_v1","""event"",""trial"",""time""
""fullscreenenter"",""1"",""1648""
","
","
","""event"",""trial"",""time""
""fullscreenenter"",""1"",""1648""
","
","","","","","","null","<div style=""font-size:60px;"">+</div>","null","","fixation","","","","","","","","","","",""
"aa-learning-trial","143","550043","0.0-9.0-2.0-1.35","7199","2","11","Female","approach_avoid_spark_v1","""event"",""trial"",""time""
""fullscreenenter"",""1"",""1648""
","
","
","""event"",""trial"",""time""
""fullscreenenter"",""1"",""1648""
","
","","","","","","689.5999999642372","images/sheep8.png","","","learning","3","3","1","1","sheep","animals","2","0","","neutral","0"
"html-keyboard-response","144","550545","0.0-9.0-2.0-0.36","7199","2","11","Female","approach_avoid_spark_v1","""event"",""trial"",""time""
""fullscreenenter"",""1"",""1648""
","
","
","""event"",""trial"",""time""
""fullscreenenter"",""1"",""1648""
","
","","","","","","null","<div style=""font-size:60px;"">+</div>","null","","fixation","","","","","","","","","","",""
"aa-learning-trial","145","553548","0.0-9.0-2.0-1.36","7199","2","11","Female","approach_avoid_spark_v1","""event"",""trial"",""time""
""fullscreenenter"",""1"",""1648""
","
","
","""event"",""trial"",""time""
""fullscreenenter"",""1"",""1648""
","
","","","","","","1336.3999999761581","images/cow6.png","","","learning","-3","-3","1","1","cow","animals","2","0","","bad","[-4]"
"html-keyboard-response","146","554050","0.0-9.0-2.0-0.37","7199","2","11","Female","approach_avoid_spark_v1","""event"",""trial"",""time""
""fullscreenenter"",""1"",""1648""
","
","
","""event"",""trial"",""time""
""fullscreenenter"",""1"",""1648""
","
","","","","","","null","<div style=""font-size:60px;"">+</div>","null","","fixation","","","","","","","","","","",""
"aa-learning-trial","147","557052","0.0-9.0-2.0-1.37","7199","2","11","Female","approach_avoid_spark_v1","""event"",""trial"",""time""
""fullscreenenter"",""1"",""1648""
","
","
","""event"",""trial"",""time""
""fullscreenenter"",""1"",""1648""
","
","","","","","","776.5","images/cow6.png","","","learning","-3","0","0","0","cow","animals","2","0","","bad","[-4]"
"html-keyboard-response","148","557553","0.0-9.0-2.0-0.38","7199","2","11","Female","approach_avoid_spark_v1","""event"",""trial"",""time""
""fullscreenenter"",""1"",""1648""
","
","
","""event"",""trial"",""time""
""fullscreenenter"",""1"",""1648""
","
","","","","","","null","<div style=""font-size:60px;"">+</div>","null","","fixation","","","","","","","","","","",""
"aa-learning-trial","149","560556","0.0-9.0-2.0-1.38","7199","2","11","Female","approach_avoid_spark_v1","""event"",""trial"",""time""
""fullscreenenter"",""1"",""1648""
","
","
","""event"",""trial"",""time""
""fullscreenenter"",""1"",""1648""
","
","","","","","","904.8000000119209","images/cow8.png","","","learning","4","4","1","1","cow","animals","2","0","","bad","[-4]"
"html-keyboard-response","150","561058","0.0-9.0-2.0-0.39","7199","2","11","Female","approach_avoid_spark_v1","""event"",""trial"",""time""
""fullscreenenter"",""1"",""1648""
","
","
","""event"",""trial"",""time""
""fullscreenenter"",""1"",""1648""
","
","","","","","","null","<div style=""font-size:60px;"">+</div>","null","","fixation","","","","","","","","","","",""
"aa-learning-trial","151","564061","0.0-9.0-2.0-1.39","7199","2","11","Female","approach_avoid_spark_v1","""event"",""trial"",""time""
""fullscreenenter"",""1"",""1648""
","
","
","""event"",""trial"",""time""
""fullscreenenter"",""1"",""1648""
","
","","","","","","1023.7000000476837","images/horse4.png","","","learning","-8","0","0","0","horse","animals","2","0","","good","[6]"
"html-keyboard-response","152","564562","0.0-9.0-2.0-0.40","7199","2","11","Female","approach_avoid_spark_v1","""event"",""trial"",""time""
""fullscreenenter"",""1"",""1648""
","
","
","""event"",""trial"",""time""
""fullscreenenter"",""1"",""1648""
","
","","","","","","null","<div style=""font-size:60px;"">+</div>","null","","fixation","","","","","","","","","","",""
"aa-learning-trial","153","567578","0.0-9.0-2.0-1.40","7199","2","11","Female","approach_avoid_spark_v1","""event"",""trial"",""time""
""fullscreenenter"",""1"",""1648""
","
","
","""event"",""trial"",""time""
""fullscreenenter"",""1"",""1648""
","
","","","","","","815.3999999761581","images/cow7.png","","","learning","9","9","1","1","cow","animals","2","0","","bad","[-4]"
"html-keyboard-response","154","568091","0.0-9.0-2.0-0.41","7199","2","11","Female","approach_avoid_spark_v1","""event"",""trial"",""time""
""fullscreenenter"",""1"",""1648""
","
","
","""event"",""trial"",""time""
""fullscreenenter"",""1"",""1648""
","
","","","","","","null","<div style=""font-size:60px;"">+</div>","null","","fixation","","","","","","","","","","",""
"aa-learning-trial","155","571094","0.0-9.0-2.0-1.41","7199","2","11","Female","approach_avoid_spark_v1","""event"",""trial"",""time""
""fullscreenenter"",""1"",""1648""
","
","
","""event"",""trial"",""time""
""fullscreenenter"",""1"",""1648""
","
","","","","","","1102.5","images/horse8.png","","","learning","5","5","1","1","horse","animals","2","0","","good","[6]"
"html-keyboard-response","156","571597","0.0-9.0-2.0-0.42","7199","2","11","Female","approach_avoid_spark_v1","""event"",""trial"",""time""
""fullscreenenter"",""1"",""1648""
","
","
","""event"",""trial"",""time""
""fullscreenenter"",""1"",""1648""
","
","","","","","","null","<div style=""font-size:60px;"">+</div>","null","","fixation","","","","","","","","","","",""
"aa-learning-trial","157","574599","0.0-9.0-2.0-1.42","7199","2","11","Female","approach_avoid_spark_v1","""event"",""trial"",""time""
""fullscreenenter"",""1"",""1648""
","
","
","""event"",""trial"",""time""
""fullscreenenter"",""1"",""1648""
","
","","","","","","861.3999999761581","images/sheep3.png","","","learning","6","6","1","1","sheep","animals","2","0","","neutral","0"
"html-keyboard-response","158","575101","0.0-9.0-2.0-0.43","7199","2","11","Female","approach_avoid_spark_v1","""event"",""trial"",""time""
""fullscreenenter"",""1"",""1648""
","
","
","""event"",""trial"",""time""
""fullscreenenter"",""1"",""1648""
","
","","","","","","null","<div style=""font-size:60px;"">+</div>","null","","fixation","","","","","","","","","","",""
"aa-learning-trial","159","578105","0.0-9.0-2.0-1.43","7199","2","11","Female","approach_avoid_spark_v1","""event"",""trial"",""time""
""fullscreenenter"",""1"",""1648""
","
","
","""event"",""trial"",""time""
""fullscreenenter"",""1"",""1648""
","
","","","","","","1332.199999988079","images/sheep4.png","","","learning","1","1","1","1","sheep","animals","2","0","","neutral","0"
"html-keyboard-response","160","578607","0.0-9.0-2.0-0.44","7199","2","11","Female","approach_avoid_spark_v1","""event"",""trial"",""time""
""fullscreenenter"",""1"",""1648""
","
","
","""event"",""trial"",""time""
""fullscreenenter"",""1"",""1648""
","
","","","","","","null","<div style=""font-size:60px;"">+</div>","null","","fixation","","","","","","","","","","",""
"aa-learning-trial","161","581610","0.0-9.0-2.0-1.44","7199","2","11","Female","approach_avoid_spark_v1","""event"",""trial"",""time""
""fullscreenenter"",""1"",""1648""
","
","
","""event"",""trial"",""time""
""fullscreenenter"",""1"",""1648""
","
","","","","","","851.6000000238419","images/horse2.png","","","learning","8","8","1","1","horse","animals","2","0","","good","[6]"
"html-keyboard-response","162","582124","0.0-9.0-2.0-0.45","7199","2","11","Female","approach_avoid_spark_v1","""event"",""trial"",""time""
""fullscreenenter"",""1"",""1648""
","
","
","""event"",""trial"",""time""
""fullscreenenter"",""1"",""1648""
","
","","","","","","null","<div style=""font-size:60px;"">+</div>","null","","fixation","","","","","","","","","","",""
"aa-learning-trial","163","585126","0.0-9.0-2.0-1.45","7199","2","11","Female","approach_avoid_spark_v1","""event"",""trial"",""time""
""fullscreenenter"",""1"",""1648""
","
","
","""event"",""trial"",""time""
""fullscreenenter"",""1"",""1648""
","
","","","","","","1029.6000000238419","images/horse4.png","","","learning","-8","0","0","0","horse","animals","2","0","","good","[6]"
"html-keyboard-response","164","585628","0.0-9.0-2.0-0.46","7199","2","11","Female","approach_avoid_spark_v1","""event"",""trial"",""time""
""fullscreenenter"",""1"",""1648""
","
","
","""event"",""trial"",""time""
""fullscreenenter"",""1"",""1648""
","
","","","","","","null","<div style=""font-size:60px;"">+</div>","null","","fixation","","","","","","","","","","",""
"aa-learning-trial","165","588638","0.0-9.0-2.0-1.46","7199","2","11","Female","approach_avoid_spark_v1","""event"",""trial"",""time""
""fullscreenenter"",""1"",""1648""
","
","
","""event"",""trial"",""time""
""fullscreenenter"",""1"",""1648""
","
","","","","","","1014.1000000238419","images/horse1.png","","","learning","2","2","1","1","horse","animals","2","0","","good","[6]"
"html-keyboard-response","166","589140","0.0-9.0-2.0-0.47","7199","2","11","Female","approach_avoid_spark_v1","""event"",""trial"",""time""
""fullscreenenter"",""1"",""1648""
","
","
","""event"",""trial"",""time""
""fullscreenenter"",""1"",""1648""
","
","","","","","","null","<div style=""font-size:60px;"">+</div>","null","","fixation","","","","","","","","","","",""
"aa-learning-trial","167","592143","0.0-9.0-2.0-1.47","7199","2","11","Female","approach_avoid_spark_v1","""event"",""trial"",""time""
""fullscreenenter"",""1"",""1648""
","
","
","""event"",""trial"",""time""
""fullscreenenter"",""1"",""1648""
","
","","","","","","1462.0999999642372","images/sheep4.png","","","learning","1","1","1","1","sheep","animals","2","0","","neutral","0"
"html-keyboard-response","168","592644","0.0-9.0-2.0-0.48","7199","2","11","Female","approach_avoid_spark_v1","""event"",""trial"",""time""
""fullscreenenter"",""1"",""1648""
","
","
","""event"",""trial"",""time""
""fullscreenenter"",""1"",""1648""
","
","","","","","","null","<div style=""font-size:60px;"">+</div>","null","","fixation","","","","","","","","","","",""
"aa-learning-trial","169","595646","0.0-9.0-2.0-1.48","7199","2","11","Female","approach_avoid_spark_v1","""event"",""trial"",""time""
""fullscreenenter"",""1"",""1648""
","
","
","""event"",""trial"",""time""
""fullscreenenter"",""1"",""1648""
","
","","","","","","925.8999999761581","images/horse8.png","","","learning","5","5","1","1","horse","animals","2","0","","good","[6]"
"html-keyboard-response","170","596148","0.0-9.0-2.0-0.49","7199","2","11","Female","approach_avoid_spark_v1","""event"",""trial"",""time""
""fullscreenenter"",""1"",""1648""
","
","
","""event"",""trial"",""time""
""fullscreenenter"",""1"",""1648""
","
","","","","","","null","<div style=""font-size:60px;"">+</div>","null","","fixation","","","","","","","","","","",""
"aa-learning-trial","171","599150","0.0-9.0-2.0-1.49","7199","2","11","Female","approach_avoid_spark_v1","""event"",""trial"",""time""
""fullscreenenter"",""1"",""1648""
","
","
","""event"",""trial"",""time""
""fullscreenenter"",""1"",""1648""
","
","","","","","","878.0999999642372","images/cow4.png","","","learning","-2","0","0","0","cow","animals","2","0","","bad","[-4]"
"html-keyboard-response","172","599652","0.0-9.0-2.0-0.50","7199","2","11","Female","approach_avoid_spark_v1","""event"",""trial"",""time""
""fullscreenenter"",""1"",""1648""
","
","
","""event"",""trial"",""time""
""fullscreenenter"",""1"",""1648""
","
","","","","","","null","<div style=""font-size:60px;"">+</div>","null","","fixation","","","","","","","","","","",""
"aa-learning-trial","173","602654","0.0-9.0-2.0-1.50","7199","2","11","Female","approach_avoid_spark_v1","""event"",""trial"",""time""
""fullscreenenter"",""1"",""1648""
","
","
","""event"",""trial"",""time""
""fullscreenenter"",""1"",""1648""
","
","","","","","","813.3000000119209","images/horse4.png","","","learning","-8","0","0","0","horse","animals","2","0","","good","[6]"
"html-button-response","174","605591","0.0-9.0-3.0","7199","2","11","Female","approach_avoid_spark_v1","""event"",""trial"",""time""
""fullscreenenter"",""1"",""1648""
","
","
","""event"",""trial"",""time""
""fullscreenenter"",""1"",""1648""
","
","","","","","","2935.600000023842","<p> You have completed the round! <p> In this round, you earned 75 points! </p>","0","","break","","","","","","","","","","",""
"html-button-response","175","606637","0.0-10.0","7199","2","11","Female","approach_avoid_spark_v1","""event"",""trial"",""time""
""fullscreenenter"",""1"",""1648""
","
","
","""event"",""trial"",""time""
""fullscreenenter"",""1"",""1648""
","
","","","","","","1044.8999999761581","<p> Now it's time to play another round. </p>","0","","transition_screen","","","","","","","","","","",""
"preload","176","606752","0.0-11.0-0.0","7199","2","11","Female","approach_avoid_spark_v1","""event"",""trial"",""time""
""fullscreenenter"",""1"",""1648""
","
","
","""event"",""trial"",""time""
""fullscreenenter"",""1"",""1648""
","
","true","false","[]","[]","[]","","","","","","","","","","","","","","","",""
"learning-instructions","177","613244","0.0-11.0-1.0-0.0","7199","2","11","Female","approach_avoid_spark_v1","""event"",""trial"",""time""
""fullscreenenter"",""1"",""1648""
","
","
","""event"",""trial"",""time""
""fullscreenenter"",""1"",""1648""
","
","","","","","","2404.300000011921","<p> Your goal in this round is to take care of lots of animals. </p></div>","","0","instructions","","","","","","","","","","",""
"learning-instructions","178","625217","0.0-11.0-1.0-0.1","7199","2","11","Female","approach_avoid_spark_v1","""event"",""trial"",""time""
""fullscreenenter"",""1"",""1648""
","
","
","""event"",""trial"",""time""
""fullscreenenter"",""1"",""1648""
","
","","","","","","2568.399999976158","<p> Some animals want to be pet, while other animals want to be left alone.  </p><p> On each turn, you will see an animal.   </p><p> You need to decide whether to pet it or not.  </p>","","0","instructions","","","","","","","","","","",""
"learning-instructions","179","631991","0.0-11.0-1.0-0.2","7199","2","11","Female","approach_avoid_spark_v1","""event"",""trial"",""time""
""fullscreenenter"",""1"",""1648""
","
","
","""event"",""trial"",""time""
""fullscreenenter"",""1"",""1648""
","
","","","","","","1701.5999999642372","<p> You can pet the animal by pressing 1 and leave the animal alone by pressing 0. </p><br><div class=""choice-instructions-grid""> <div class=""choice-option""><img src=""images/approach.png"" class=""choice-option-img"" stage=""instructions"" position=""0"" ><div class=""choice-option-text""> Press ""1."" </div></div><div class=""choice-option""><img src=""images/avoid.png"" class=""choice-option-img"" stage=""instructions"" position=""1"" ><div class=""choice-option-text""> Press ""0."" </div></div>","","0","instructions","","","","","","","","","","",""
"learning-instructions","180","641781","0.0-11.0-1.0-0.3","7199","2","11","Female","approach_avoid_spark_v1","""event"",""trial"",""time""
""fullscreenenter"",""1"",""1648""
","
","
","""event"",""trial"",""time""
""fullscreenenter"",""1"",""1648""
","
","","","","","","1131.699999988079","<p> If you pet an animal that wants to be pet, you will make it feel happy! </p><p> But if you pet an animal that wants to be left alone, you will make it feel angry. </p>","","0","instructions","","","","","","","","","","",""
"learning-instructions","181","654498","0.0-11.0-1.0-0.4","7199","2","11","Female","approach_avoid_spark_v1","""event"",""trial"",""time""
""fullscreenenter"",""1"",""1648""
","
","
","""event"",""trial"",""time""
""fullscreenenter"",""1"",""1648""
","
","","","","","","567.9000000357628","<p> You will earn points based on how you made the animal feel. </p><p> If you made it feel happy, you will WIN anywhere from 1 - 9 points, </p><p> but if you made it feel angry, you will LOSE anywhere from 1 - 9 points. </p>","","0","instructions","","","","","","","","","","",""
"learning-instructions","182","664282","0.0-11.0-1.0-0.5","7199","2","11","Female","approach_avoid_spark_v1","""event"",""trial"",""time""
""fullscreenenter"",""1"",""1648""
","
","
","""event"",""trial"",""time""
""fullscreenenter"",""1"",""1648""
","
","","","","","","3132.699999988079","<p> You will see how many points you won or lost in the center of the screen. </p><p> Here is what you would see if you won 5 points: </p><p style=""color:green;font-size:50px;font-weight:bolder"">5</p>","","0","instructions","","","","","","","","","","",""
"learning-instructions","183","667822","0.0-11.0-1.0-0.6","7199","2","11","Female","approach_avoid_spark_v1","""event"",""trial"",""time""
""fullscreenenter"",""1"",""1648""
","
","
","""event"",""trial"",""time""
""fullscreenenter"",""1"",""1648""
","
","","","","","","712.0999999642372","<p> And here is what you would see if you lost 3 points: </p><p style=""color:red;font-size:50px;font-weight:bolder"">-3</p>","","0","instructions","","","","","","","","","","",""
"learning-instructions","184","682131","0.0-11.0-1.0-0.7","7199","2","11","Female","approach_avoid_spark_v1","""event"",""trial"",""time""
""fullscreenenter"",""1"",""1648""
","
","
","""event"",""trial"",""time""
""fullscreenenter"",""1"",""1648""
","
","","","","","","762.1999999880791","<p> Some animals will become very happy or very angry. </p><p> These animals will make you win or lose LOTS of points. </p><p> Other animals have less strong feelings. </p><p> These animals will make you win or lose small amounts of points. </p>","","0","instructions","","","","","","","","","","",""
"learning-instructions","185","694040","0.0-11.0-1.0-0.8","7199","2","11","Female","approach_avoid_spark_v1","""event"",""trial"",""time""
""fullscreenenter"",""1"",""1648""
","
","
","""event"",""trial"",""time""
""fullscreenenter"",""1"",""1648""
","
","","","","","","870","<p> If you choose to leave the animal alone, you will not win or lose any points. </p><p>  However, in the center of the screen, you will see the number of points you WOULD HAVE won or lost if you had pet the animal. </p>","","0","instructions","","","","","","","","","","",""
"learning-instructions","186","706869","0.0-11.0-1.0-0.9","7199","2","11","Female","approach_avoid_spark_v1","""event"",""trial"",""time""
""fullscreenenter"",""1"",""1648""
","
","
","""event"",""trial"",""time""
""fullscreenenter"",""1"",""1648""
","
","","","","","","1369.699999988079","<p> Here is what you might see if you did not pet the animal but the animal wanted to be pet: </p><p style=""color:grey; font-size:50px; display: inline-block; border-spacing: 15px; border-width:3px; border-style:solid; border-color:red"">  &nbsp; 6 &nbsp; </p><p> Remember, in this case, you would not win or lose ANY points because you did not pet the animal.  </p>","","0","instructions","","","","","","","","","","",""
"learning-instructions","187","715051","0.0-11.0-1.0-0.10","7199","2","11","Female","approach_avoid_spark_v1","""event"",""trial"",""time""
""fullscreenenter"",""1"",""1648""
","
","
","""event"",""trial"",""time""
""fullscreenenter"",""1"",""1648""
","
","","","","","","1191.699999988079","<p> Try to make the best choice for each animal because </p><p> at the end of the game, you will earn bonus money based on how many points you earned. </p>","","0","instructions","","","","","","","","","","",""
"learning-instructions","188","724003","0.0-11.0-1.0-0.11","7199","2","11","Female","approach_avoid_spark_v1","""event"",""trial"",""time""
""fullscreenenter"",""1"",""1648""
","
","
","""event"",""trial"",""time""
""fullscreenenter"",""1"",""1648""
","
","","","","","","753.3000000119209","<p> You will have 3 seconds to make each choice. Try to respond before time runs out! </p><p> You will lose 5 points each time you do not make a response. </p>","","0","instructions","","","","","","","","","","",""
"html-keyboard-response","189","724606","0.0-11.0-2.0-0.0","7199","2","11","Female","approach_avoid_spark_v1","""event"",""trial"",""time""
""fullscreenenter"",""1"",""1648""
","
","
","""event"",""trial"",""time""
""fullscreenenter"",""1"",""1648""
","
","","","","","","null","<div style=""font-size:60px;"">+</div>","null","","fixation","","","","","","","","","","",""
"aa-learning-trial","190","727613","0.0-11.0-2.0-1.0","7199","2","11","Female","approach_avoid_spark_v1","""event"",""trial"",""time""
""fullscreenenter"",""1"",""1648""
","
","
","""event"",""trial"",""time""
""fullscreenenter"",""1"",""1648""
","
","","","","","","1419.199999988079","images/dog6.png","","","learning","-6","-6","1","1","dog","pets","1","1","","bad","[-5]"
"html-keyboard-response","191","728128","0.0-11.0-2.0-0.1","7199","2","11","Female","approach_avoid_spark_v1","""event"",""trial"",""time""
""fullscreenenter"",""1"",""1648""
","
","
","""event"",""trial"",""time""
""fullscreenenter"",""1"",""1648""
","
","","","","","","null","<div style=""font-size:60px;"">+</div>","null","","fixation","","","","","","","","","","",""
"aa-learning-trial","192","731131","0.0-11.0-2.0-1.1","7199","2","11","Female","approach_avoid_spark_v1","""event"",""trial"",""time""
""fullscreenenter"",""1"",""1648""
","
","
","""event"",""trial"",""time""
""fullscreenenter"",""1"",""1648""
","
","","","","","","880.2999999523163","images/rodent5.png","","","learning","-1","-1","1","1","rodent","pets","1","1","","neutral","0"
"html-keyboard-response","193","731643","0.0-11.0-2.0-0.2","7199","2","11","Female","approach_avoid_spark_v1","""event"",""trial"",""time""
""fullscreenenter"",""1"",""1648""
","
","
","""event"",""trial"",""time""
""fullscreenenter"",""1"",""1648""
","
","","","","","","null","<div style=""font-size:60px;"">+</div>","null","","fixation","","","","","","","","","","",""
"aa-learning-trial","194","734652","0.0-11.0-2.0-1.2","7199","2","11","Female","approach_avoid_spark_v1","""event"",""trial"",""time""
""fullscreenenter"",""1"",""1648""
","
","
","""event"",""trial"",""time""
""fullscreenenter"",""1"",""1648""
","
","","","","","","462.80000001192093","images/rodent1.png","","","learning","-1","-1","1","1","rodent","pets","1","1","","neutral","0"
"html-keyboard-response","195","735168","0.0-11.0-2.0-0.3","7199","2","11","Female","approach_avoid_spark_v1","""event"",""trial"",""time""
""fullscreenenter"",""1"",""1648""
","
","
","""event"",""trial"",""time""
""fullscreenenter"",""1"",""1648""
","
","","","","","","null","<div style=""font-size:60px;"">+</div>","null","","fixation","","","","","","","","","","",""
"aa-learning-trial","196","738175","0.0-11.0-2.0-1.3","7199","2","11","Female","approach_avoid_spark_v1","""event"",""trial"",""time""
""fullscreenenter"",""1"",""1648""
","
","
","""event"",""trial"",""time""
""fullscreenenter"",""1"",""1648""
","
","","","","","","577","images/rodent6.png","","","learning","4","4","1","1","rodent","pets","1","1","","neutral","0"
"html-keyboard-response","197","738687","0.0-11.0-2.0-0.4","7199","2","11","Female","approach_avoid_spark_v1","""event"",""trial"",""time""
""fullscreenenter"",""1"",""1648""
","
","
","""event"",""trial"",""time""
""fullscreenenter"",""1"",""1648""
","
","","","","","","null","<div style=""font-size:60px;"">+</div>","null","","fixation","","","","","","","","","","",""
"aa-learning-trial","198","741696","0.0-11.0-2.0-1.4","7199","2","11","Female","approach_avoid_spark_v1","""event"",""trial"",""time""
""fullscreenenter"",""1"",""1648""
","
","
","""event"",""trial"",""time""
""fullscreenenter"",""1"",""1648""
","
","","","","","","962","images/dog5.png","","","learning","-3","-3","1","1","dog","pets","1","1","","bad","[-5]"
"html-keyboard-response","199","742212","0.0-11.0-2.0-0.5","7199","2","11","Female","approach_avoid_spark_v1","""event"",""trial"",""time""
""fullscreenenter"",""1"",""1648""
","
","
","""event"",""trial"",""time""
""fullscreenenter"",""1"",""1648""
","
","","","","","","null","<div style=""font-size:60px;"">+</div>","null","","fixation","","","","","","","","","","",""
"aa-learning-trial","200","745226","0.0-11.0-2.0-1.5","7199","2","11","Female","approach_avoid_spark_v1","""event"",""trial"",""time""
""fullscreenenter"",""1"",""1648""
","
","
","""event"",""trial"",""time""
""fullscreenenter"",""1"",""1648""
","
","","","","","","1037.199999988079","images/dog2.png","","","learning","-4","0","0","0","dog","pets","1","1","","bad","[-5]"
"html-keyboard-response","201","745739","0.0-11.0-2.0-0.6","7199","2","11","Female","approach_avoid_spark_v1","""event"",""trial"",""time""
""fullscreenenter"",""1"",""1648""
","
","
","""event"",""trial"",""time""
""fullscreenenter"",""1"",""1648""
","
","","","","","","null","<div style=""font-size:60px;"">+</div>","null","","fixation","","","","","","","","","","",""
"aa-learning-trial","202","748744","0.0-11.0-2.0-1.6","7199","2","11","Female","approach_avoid_spark_v1","""event"",""trial"",""time""
""fullscreenenter"",""1"",""1648""
","
","
","""event"",""trial"",""time""
""fullscreenenter"",""1"",""1648""
","
","","","","","","750.8999999761581","images/rabbit5.png","","","learning","5","5","1","1","rabbit","pets","1","1","","good","[5]"
"html-keyboard-response","203","749258","0.0-11.0-2.0-0.7","7199","2","11","Female","approach_avoid_spark_v1","""event"",""trial"",""time""
""fullscreenenter"",""1"",""1648""
","
","
","""event"",""trial"",""time""
""fullscreenenter"",""1"",""1648""
","
","","","","","","null","<div style=""font-size:60px;"">+</div>","null","","fixation","","","","","","","","","","",""
"aa-learning-trial","204","752275","0.0-11.0-2.0-1.7","7199","2","11","Female","approach_avoid_spark_v1","""event"",""trial"",""time""
""fullscreenenter"",""1"",""1648""
","
","
","""event"",""trial"",""time""
""fullscreenenter"",""1"",""1648""
","
","","","","","","967.3000000119209","images/dog2.png","","","learning","-5","0","0","0","dog","pets","1","1","","bad","[-5]"
"html-keyboard-response","205","752787","0.0-11.0-2.0-0.8","7199","2","11","Female","approach_avoid_spark_v1","""event"",""trial"",""time""
""fullscreenenter"",""1"",""1648""
","
","
","""event"",""trial"",""time""
""fullscreenenter"",""1"",""1648""
","
","","","","","","null","<div style=""font-size:60px;"">+</div>","null","","fixation","","","","","","","","","","",""
"aa-learning-trial","206","755790","0.0-11.0-2.0-1.8","7199","2","11","Female","approach_avoid_spark_v1","""event"",""trial"",""time""
""fullscreenenter"",""1"",""1648""
","
","
","""event"",""trial"",""time""
""fullscreenenter"",""1"",""1648""
","
","","","","","","630.0999999642372","images/rabbit3.png","","","learning","9","9","1","1","rabbit","pets","1","1","","good","[5]"
"html-keyboard-response","207","756291","0.0-11.0-2.0-0.9","7199","2","11","Female","approach_avoid_spark_v1","""event"",""trial"",""time""
""fullscreenenter"",""1"",""1648""
","
","
","""event"",""trial"",""time""
""fullscreenenter"",""1"",""1648""
","
","","","","","","null","<div style=""font-size:60px;"">+</div>","null","","fixation","","","","","","","","","","",""
"aa-learning-trial","208","759294","0.0-11.0-2.0-1.9","7199","2","11","Female","approach_avoid_spark_v1","""event"",""trial"",""time""
""fullscreenenter"",""1"",""1648""
","
","
","""event"",""trial"",""time""
""fullscreenenter"",""1"",""1648""
","
","","","","","","630.3999999761581","images/rabbit5.png","","","learning","7","7","1","1","rabbit","pets","1","1","","good","[5]"
"html-keyboard-response","209","759796","0.0-11.0-2.0-0.10","7199","2","11","Female","approach_avoid_spark_v1","""event"",""trial"",""time""
""fullscreenenter"",""1"",""1648""
","
","
","""event"",""trial"",""time""
""fullscreenenter"",""1"",""1648""
","
","","","","","","null","<div style=""font-size:60px;"">+</div>","null","","fixation","","","","","","","","","","",""
"aa-learning-trial","210","762798","0.0-11.0-2.0-1.10","7199","2","11","Female","approach_avoid_spark_v1","""event"",""trial"",""time""
""fullscreenenter"",""1"",""1648""
","
","
","""event"",""trial"",""time""
""fullscreenenter"",""1"",""1648""
","
","","","","","","853.4000000357628","images/dog5.png","","","learning","-6","0","0","0","dog","pets","1","1","","bad","[-5]"
"html-keyboard-response","211","763300","0.0-11.0-2.0-0.11","7199","2","11","Female","approach_avoid_spark_v1","""event"",""trial"",""time""
""fullscreenenter"",""1"",""1648""
","
","
","""event"",""trial"",""time""
""fullscreenenter"",""1"",""1648""
","
","","","","","","null","<div style=""font-size:60px;"">+</div>","null","","fixation","","","","","","","","","","",""
"aa-learning-trial","212","766303","0.0-11.0-2.0-1.11","7199","2","11","Female","approach_avoid_spark_v1","""event"",""trial"",""time""
""fullscreenenter"",""1"",""1648""
","
","
","""event"",""trial"",""time""
""fullscreenenter"",""1"",""1648""
","
","","","","","","1149","images/rodent6.png","","","learning","[1]","0","0","0","rodent","pets","1","1","","neutral","0"
"html-keyboard-response","213","766804","0.0-11.0-2.0-0.12","7199","2","11","Female","approach_avoid_spark_v1","""event"",""trial"",""time""
""fullscreenenter"",""1"",""1648""
","
","
","""event"",""trial"",""time""
""fullscreenenter"",""1"",""1648""
","
","","","","","","null","<div style=""font-size:60px;"">+</div>","null","","fixation","","","","","","","","","","",""
"aa-learning-trial","214","769808","0.0-11.0-2.0-1.12","7199","2","11","Female","approach_avoid_spark_v1","""event"",""trial"",""time""
""fullscreenenter"",""1"",""1648""
","
","
","""event"",""trial"",""time""
""fullscreenenter"",""1"",""1648""
","
","","","","","","894","images/rabbit8.png","","","learning","6","6","1","1","rabbit","pets","1","1","","good","[5]"
"html-keyboard-response","215","770311","0.0-11.0-2.0-0.13","7199","2","11","Female","approach_avoid_spark_v1","""event"",""trial"",""time""
""fullscreenenter"",""1"",""1648""
","
","
","""event"",""trial"",""time""
""fullscreenenter"",""1"",""1648""
","
","","","","","","null","<div style=""font-size:60px;"">+</div>","null","","fixation","","","","","","","","","","",""
"aa-learning-trial","216","773313","0.0-11.0-2.0-1.13","7199","2","11","Female","approach_avoid_spark_v1","""event"",""trial"",""time""
""fullscreenenter"",""1"",""1648""
","
","
","""event"",""trial"",""time""
""fullscreenenter"",""1"",""1648""
","
","","","","","","1042.2000000476837","images/rodent1.png","","","learning","-3","0","0","0","rodent","pets","1","1","","neutral","0"
"html-keyboard-response","217","773815","0.0-11.0-2.0-0.14","7199","2","11","Female","approach_avoid_spark_v1","""event"",""trial"",""time""
""fullscreenenter"",""1"",""1648""
","
","
","""event"",""trial"",""time""
""fullscreenenter"",""1"",""1648""
","
","","","","","","null","<div style=""font-size:60px;"">+</div>","null","","fixation","","","","","","","","","","",""
"aa-learning-trial","218","776825","0.0-11.0-2.0-1.14","7199","2","11","Female","approach_avoid_spark_v1","""event"",""trial"",""time""
""fullscreenenter"",""1"",""1648""
","
","
","""event"",""trial"",""time""
""fullscreenenter"",""1"",""1648""
","
","","","","","","681.8999999761581","images/rabbit3.png","","","learning","6","6","1","1","rabbit","pets","1","1","","good","[5]"
"html-keyboard-response","219","777327","0.0-11.0-2.0-0.15","7199","2","11","Female","approach_avoid_spark_v1","""event"",""trial"",""time""
""fullscreenenter"",""1"",""1648""
","
","
","""event"",""trial"",""time""
""fullscreenenter"",""1"",""1648""
","
","","","","","","null","<div style=""font-size:60px;"">+</div>","null","","fixation","","","","","","","","","","",""
"aa-learning-trial","220","780330","0.0-11.0-2.0-1.15","7199","2","11","Female","approach_avoid_spark_v1","""event"",""trial"",""time""
""fullscreenenter"",""1"",""1648""
","
","
","""event"",""trial"",""time""
""fullscreenenter"",""1"",""1648""
","
","","","","","","1274.1000000238419","images/rodent5.png","","","learning","[-1]","0","0","0","rodent","pets","1","1","","neutral","0"
"html-keyboard-response","221","780832","0.0-11.0-2.0-0.16","7199","2","11","Female","approach_avoid_spark_v1","""event"",""trial"",""time""
""fullscreenenter"",""1"",""1648""
","
","
","""event"",""trial"",""time""
""fullscreenenter"",""1"",""1648""
","
","","","","","","null","<div style=""font-size:60px;"">+</div>","null","","fixation","","","","","","","","","","",""
"aa-learning-trial","222","783834","0.0-11.0-2.0-1.16","7199","2","11","Female","approach_avoid_spark_v1","""event"",""trial"",""time""
""fullscreenenter"",""1"",""1648""
","
","
","""event"",""trial"",""time""
""fullscreenenter"",""1"",""1648""
","
","","","","","","754.3999999761581","images/dog6.png","","","learning","-2","0","0","0","dog","pets","1","1","","bad","[-5]"
"html-keyboard-response","223","784336","0.0-11.0-2.0-0.17","7199","2","11","Female","approach_avoid_spark_v1","""event"",""trial"",""time""
""fullscreenenter"",""1"",""1648""
","
","
","""event"",""trial"",""time""
""fullscreenenter"",""1"",""1648""
","
","","","","","","null","<div style=""font-size:60px;"">+</div>","null","","fixation","","","","","","","","","","",""
"aa-learning-trial","224","787339","0.0-11.0-2.0-1.17","7199","2","11","Female","approach_avoid_spark_v1","""event"",""trial"",""time""
""fullscreenenter"",""1"",""1648""
","
","
","""event"",""trial"",""time""
""fullscreenenter"",""1"",""1648""
","
","","","","","","560.8999999761581","images/dog5.png","","","learning","-5","0","0","0","dog","pets","1","1","","bad","[-5]"
"html-keyboard-response","225","787841","0.0-11.0-2.0-0.18","7199","2","11","Female","approach_avoid_spark_v1","""event"",""trial"",""time""
""fullscreenenter"",""1"",""1648""
","
","
","""event"",""trial"",""time""
""fullscreenenter"",""1"",""1648""
","
","","","","","","null","<div style=""font-size:60px;"">+</div>","null","","fixation","","","","","","","","","","",""
"aa-learning-trial","226","790844","0.0-11.0-2.0-1.18","7199","2","11","Female","approach_avoid_spark_v1","""event"",""trial"",""time""
""fullscreenenter"",""1"",""1648""
","
","
","""event"",""trial"",""time""
""fullscreenenter"",""1"",""1648""
","
","","","","","","576","images/dog2.png","","","learning","-5","0","0","0","dog","pets","1","1","","bad","[-5]"
"html-keyboard-response","227","791347","0.0-11.0-2.0-0.19","7199","2","11","Female","approach_avoid_spark_v1","""event"",""trial"",""time""
""fullscreenenter"",""1"",""1648""
","
","
","""event"",""trial"",""time""
""fullscreenenter"",""1"",""1648""
","
","","","","","","null","<div style=""font-size:60px;"">+</div>","null","","fixation","","","","","","","","","","",""
"aa-learning-trial","228","794350","0.0-11.0-2.0-1.19","7199","2","11","Female","approach_avoid_spark_v1","""event"",""trial"",""time""
""fullscreenenter"",""1"",""1648""
","
","
","""event"",""trial"",""time""
""fullscreenenter"",""1"",""1648""
","
","","","","","","678.5999999642372","images/rabbit3.png","","","learning","4","4","1","1","rabbit","pets","1","1","","good","[5]"
"html-keyboard-response","229","794854","0.0-11.0-2.0-0.20","7199","2","11","Female","approach_avoid_spark_v1","""event"",""trial"",""time""
""fullscreenenter"",""1"",""1648""
","
","
","""event"",""trial"",""time""
""fullscreenenter"",""1"",""1648""
","
","","","","","","null","<div style=""font-size:60px;"">+</div>","null","","fixation","","","","","","","","","","",""
"aa-learning-trial","230","797856","0.0-11.0-2.0-1.20","7199","2","11","Female","approach_avoid_spark_v1","""event"",""trial"",""time""
""fullscreenenter"",""1"",""1648""
","
","
","""event"",""trial"",""time""
""fullscreenenter"",""1"",""1648""
","
","","","","","","603.9000000357628","images/rodent6.png","","","learning","2","0","0","0","rodent","pets","1","1","","neutral","0"
"html-keyboard-response","231","798358","0.0-11.0-2.0-0.21","7199","2","11","Female","approach_avoid_spark_v1","""event"",""trial"",""time""
""fullscreenenter"",""1"",""1648""
","
","
","""event"",""trial"",""time""
""fullscreenenter"",""1"",""1648""
","
","","","","","","null","<div style=""font-size:60px;"">+</div>","null","","fixation","","","","","","","","","","",""
"aa-learning-trial","232","801376","0.0-11.0-2.0-1.21","7199","2","11","Female","approach_avoid_spark_v1","""event"",""trial"",""time""
""fullscreenenter"",""1"",""1648""
","
","
","""event"",""trial"",""time""
""fullscreenenter"",""1"",""1648""
","
","","","","","","866.3999999761581","images/rodent1.png","","","learning","1","0","0","0","rodent","pets","1","1","","neutral","0"
"html-keyboard-response","233","801878","0.0-11.0-2.0-0.22","7199","2","11","Female","approach_avoid_spark_v1","""event"",""trial"",""time""
""fullscreenenter"",""1"",""1648""
","
","
","""event"",""trial"",""time""
""fullscreenenter"",""1"",""1648""
","
","","","","","","null","<div style=""font-size:60px;"">+</div>","null","","fixation","","","","","","","","","","",""
"aa-learning-trial","234","804881","0.0-11.0-2.0-1.22","7199","2","11","Female","approach_avoid_spark_v1","""event"",""trial"",""time""
""fullscreenenter"",""1"",""1648""
","
","
","""event"",""trial"",""time""
""fullscreenenter"",""1"",""1648""
","
","","","","","","739.3000000119209","images/rabbit5.png","","","learning","3","3","1","1","rabbit","pets","1","1","","good","[5]"
"html-keyboard-response","235","805382","0.0-11.0-2.0-0.23","7199","2","11","Female","approach_avoid_spark_v1","""event"",""trial"",""time""
""fullscreenenter"",""1"",""1648""
","
","
","""event"",""trial"",""time""
""fullscreenenter"",""1"",""1648""
","
","","","","","","null","<div style=""font-size:60px;"">+</div>","null","","fixation","","","","","","","","","","",""
"aa-learning-trial","236","808385","0.0-11.0-2.0-1.23","7199","2","11","Female","approach_avoid_spark_v1","""event"",""trial"",""time""
""fullscreenenter"",""1"",""1648""
","
","
","""event"",""trial"",""time""
""fullscreenenter"",""1"",""1648""
","
","","","","","","762.1000000238419","images/dog2.png","","","learning","-5","0","0","0","dog","pets","1","1","","bad","[-5]"
