"trial_type","trial_index","time_elapsed","internal_node_id","subject_id","task_condition","age","gender","task_version","interactions","blur_events","focus_events","fullscreenenter_events","fullscreenexit_events","success","timeout","failed_images","failed_audio","failed_video","rt","stimulus","response","button_pressed","task_part","approach_reward","points","key_press","option_selected","stim_cat","task_block","block_condition","block_number","correct","cat_type","mean_cat_reward"
"pavlovia","0","2","0.0-0.0","4052","1","18","Female","approach_avoid_spark_v1","
","
","
","
","
","","","","","","","","","","","","","","","","","","","","",""
"fullscreen","1","23585","0.0-1.0","4052","1","18","Female","approach_avoid_spark_v1","
","
","
","
","
","true","","","","","","","","","","","","","","","","","","","",""
"preload","2","31789","0.0-2.0","4052","1","18","Female","approach_avoid_spark_v1","
","
","
","
","
","true","false","[]","[]","[]","","","","","","","","","","","","","","","",""
"audio-keyboard-response","3","38805","0.0-3.0","4052","1","18","Female","approach_avoid_spark_v1","
","
","
","
","
","","","","","","7013.333333333334","audio/beep_loop.wav"," ","","","","","","","","","","","","",""
"audio-button-response","4","41265","0.0-4.0","4052","1","18","Female","approach_avoid_spark_v1","
","
","
","
","
","","","","","","2453","audio/shark.wav","4","","","","","","","","","","","","",""
"audio-button-response","5","43627","0.0-5.0","4052","1","18","Female","approach_avoid_spark_v1","
","
","
","
","
","","","","","","1355","audio/turtle.wav","1","","","","","","","","","","","","",""
"preload","6","48322","0.0-6.0","4052","1","18","Female","approach_avoid_spark_v1","
","
","
","
","
","true","false","[]","[]","[]","","","","","","","","","","","","","","","",""
"html-keyboard-response","7","51450","0.0-7.0","4052","1","18","Female","approach_avoid_spark_v1","
","
","
","
","
","","","","","","3125.5","Welcome to the experiment. Press any key to begin and to advance the instructions."," ","","","","","","","","","","","","",""
"learning-instructions","8","59648","0.0-8.0-0.0-0.0","4052","1","18","Female","approach_avoid_spark_v1","
","
","
","
","
","","","","","","1239","<p> Welcome! Today you are going to play 6 different rounds of a decision-making game. </p><p> Use the mouse to click next to continue. </p>","","0","instructions","","","","","","","","","","",""
"learning-instructions","9","65844","0.0-8.0-0.0-0.1","4052","1","18","Female","approach_avoid_spark_v1","
","
","
","
","
","","","","","","3468.2999999523163","<p> You will start with a practice round to learn the rules. </p>","","0","instructions","","","","","","","","","","",""
"learning-instructions","10","70740","0.0-8.0-0.0-0.2","4052","1","18","Female","approach_avoid_spark_v1","
","
","
","
","
","","","","","","1446.9000000953674","<p> Your goal in this round is to give out sports equipment to kids. </p></div>","","0","instructions","","","","","","","","","","",""
"learning-instructions","11","78945","0.0-8.0-0.0-0.3","4052","1","18","Female","approach_avoid_spark_v1","
","
","
","
","
","","","","","","654.5","<p> The kids only like some of the equipment.  </p><p> On each turn, you will see a piece of sports equipment.   </p><p> You need to decide whether to give it to the kids or not.  </p>","","0","instructions","","","","","","","","","","",""
"learning-instructions","12","113646","0.0-8.0-0.0-0.4","4052","1","18","Female","approach_avoid_spark_v1","
","
","
","
","
","","","","","","29953.200000047684","<p> You can give them the equipment by pressing 1 and choose not to give it to them by pressing 0. </p><br><div class=""choice-instructions-grid""> <div class=""choice-option""><img src=""images/approach.png"" class=""choice-option-img"" stage=""instructions"" position=""0"" ><div class=""choice-option-text""> Press ""1."" </div></div><div class=""choice-option""><img src=""images/avoid.png"" class=""choice-option-img"" stage=""instructions"" position=""1"" ><div class=""choice-option-text""> Press ""0."" </div></div>","","0","instructions","","","","","","","","","","",""
"learning-instructions","13","122629","0.0-8.0-0.0-0.5","4052","1","18","Female","approach_avoid_spark_v1","
","
","
","
","
","","","","","","938.7999999523163","<p> If you give them a piece of equipment they like, they will be happy! </p><p> But if you give them a piece of equipment they do not like, they will be sad. </p>","","0","instructions","","","","","","","","","","",""
"learning-instructions","14","134071","0.0-8.0-0.0-0.6","4052","1","18","Female","approach_avoid_spark_v1","
","
","
","
","
","","","","","","936.0999999046326","<p> You will earn points based on how you make kids feel. </p><p> If you make them happy, you will WIN anywhere from 1 - 9 points, </p><p> but if you make them sad, you will LOSE anywhere from 1 - 9 points. </p>","","0","instructions","","","","","","","","","","",""
"learning-instructions","15","144235","0.0-8.0-0.0-0.7","4052","1","18","Female","approach_avoid_spark_v1","
","
","
","
","
","","","","","","610.1999998092651","<p> You will see how many points you won or lost in the center of the screen. </p><p> Here is what you would see if you won 6 points: </p><p style=""color:green;font-size:50px;font-weight:bolder"">6</p><p style=""color:green"">The text is GREEN because you WON points.</p>","","0","instructions","","","","","","","","","","",""
"learning-instructions","16","150452","0.0-8.0-0.0-0.8","4052","1","18","Female","approach_avoid_spark_v1","
","
","
","
","
","","","","","","709.5","<p> And here is what you would see if you lost 4 points: </p><p style=""color:red;font-size:50px;font-weight:bolder"">-4</p><p style=""color:red"">The text is RED because you LOST points. </p>","","0","instructions","","","","","","","","","","",""
"learning-instructions","17","166081","0.0-8.0-0.0-0.9","4052","1","18","Female","approach_avoid_spark_v1","
","
","
","
","
","","","","","","918.5","<p> Some of the equipment will make the kids VERY happy or sad. </p><p> These pieces of equipment will make you win or lose LOTS of points. </p><p> Other pieces of equipment will only make the kids a little happy or sad. </p><p> These pieces of equipment will make you win or lose small amounts of points. </p>","","0","instructions","","","","","","","","","","",""
"learning-instructions","18","190821","0.0-8.0-0.0-0.10","4052","1","18","Female","approach_avoid_spark_v1","
","
","
","
","
","","","","","","14112.900000095367","<p> If you choose not to give them the equipment, you will not win or lose any points. </p><p>  However, in the center of the screen, you will see the number of points you WOULD HAVE won or lost if you had given them the equipment. </p>","","0","instructions","","","","","","","","","","",""
"learning-instructions","19","214040","0.0-8.0-0.0-0.11","4052","1","18","Female","approach_avoid_spark_v1","
","
","
","
","
","","","","","","1689.7999999523163","<p> Here is what you might see if you did not give the equipment to the kids but it would have made them happy: </p><p style=""color:grey; font-size:50px; display: inline-block; border-spacing: 15px; border-width:3px; border-style:solid; border-color:red"">  &nbsp; 7 &nbsp; </p><p> Remember, in this case, you would not win or lose ANY points because you did not give them the equipment.  </p><p style=""color:grey"">The text is GREY because you earned ZERO points. </p><p style=""color:red"">However, choosing to give the kids the equipment would have made you win points. The box around the text is RED because you chose the worse option. </p>","","0","instructions","","","","","","","","","","",""
"learning-instructions","20","235895","0.0-8.0-0.0-0.12","4052","1","18","Female","approach_avoid_spark_v1","
","
","
","
","
","","","","","","783.4000000953674","<p> Here is what you might see if you did not give the equipment to the kids but it would have made them sad: </p><p style=""color:grey;font-size:50px; display: inline-block; border-spacing: 15px; border-width:3px; border-style:solid; border-color:green"">  &nbsp; -8 &nbsp; </p><p> Remember, in this case, you would not win or lose ANY points because you did not give them the equipment.  </p><p style=""color:grey"">The text is GREY because you earned ZERO points. </p><p  style=""color:green""> Choosing to give the kids the equipment would have made you lose points. The box around the text is GREEN because you chose the better option.</p>","","0","instructions","","","","","","","","","","",""
"learning-instructions","21","247937","0.0-8.0-0.0-0.13","4052","1","18","Female","approach_avoid_spark_v1","
","
","
","
","
","","","","","","2984.100000143051","<p> You will have 3 seconds to make each choice. Try to respond before time runs out! </p><p> You will lose 5 points each time you do not make a response. </p>","","0","instructions","","","","","","","","","","",""
"learning-instructions","22","256234","0.0-8.0-0.0-0.14","4052","1","18","Female","approach_avoid_spark_v1","
","
","
","
","
","","","","","","2887.9000000953674","<p> This is just a practice round, but in the real game, your bonus payment will depend on your total number of points.","","0","instructions","","","","","","","","","","",""
"learning-instructions","23","263271","0.0-8.0-0.0-0.15","4052","1","18","Female","approach_avoid_spark_v1","
","
","
","
","
","","","","","","1272.7999999523163","<p> Remember, you can give them the equipment by pressing 1 and choose not to give it to them by pressing 0. </p><br><div class=""choice-instructions-grid""> <div class=""choice-option""><img src=""images/approach.png"" class=""choice-option-img"" stage=""instructions"" position=""0"" ><div class=""choice-option-text""> Press ""1."" </div></div><div class=""choice-option""><img src=""images/avoid.png"" class=""choice-option-img"" stage=""instructions"" position=""1"" ><div class=""choice-option-text""> Press ""0."" </div></div>","","0","instructions","","","","","","","","","","",""
"html-button-response","24","264920","0.0-8.0-1.0","4052","1","18","Female","approach_avoid_spark_v1","
","
","
","
","
","","","","","","1544.4000000953674","<p> Ready to practice? </p>","0","","","","","","","","","","","","",""
"html-keyboard-response","25","265523","0.0-8.0-2.0-0.0","4052","1","18","Female","approach_avoid_spark_v1","
","
","
","
","
","","","","","","null","<div style=""font-size:60px;"">+</div>","null","","fixation","","","","","","","","","","",""
"aa-learning-trial","26","268528","0.0-8.0-2.0-1.0","4052","1","18","Female","approach_avoid_spark_v1","
","
","
","
","
","","","","","","null","images/racket4.png","","","learning","9","-5","","null","practice","practice","practice","-1","","",""
"html-keyboard-response","27","269034","0.0-8.0-2.0-0.1","4052","1","18","Female","approach_avoid_spark_v1","
","
","
","
","
","","","","","","null","<div style=""font-size:60px;"">+</div>","null","","fixation","","","","","","","","","","",""
"aa-learning-trial","28","272041","0.0-8.0-2.0-1.1","4052","1","18","Female","approach_avoid_spark_v1","
","
","
","
","
","","","","","","1790.3999998569489","images/ball1.png","","","learning","-6","-6","1","1","practice","practice","practice","-1","","",""
"html-keyboard-response","29","272548","0.0-8.0-2.0-0.2","4052","1","18","Female","approach_avoid_spark_v1","
","
","
","
","
","","","","","","null","<div style=""font-size:60px;"">+</div>","null","","fixation","","","","","","","","","","",""
"aa-learning-trial","30","275554","0.0-8.0-2.0-1.2","4052","1","18","Female","approach_avoid_spark_v1","
","
","
","
","
","","","","","","2046.5","images/ball1.png","","","learning","1","1","1","1","practice","practice","practice","-1","","",""
"html-keyboard-response","31","276056","0.0-8.0-2.0-0.3","4052","1","18","Female","approach_avoid_spark_v1","
","
","
","
","
","","","","","","null","<div style=""font-size:60px;"">+</div>","null","","fixation","","","","","","","","","","",""
"aa-learning-trial","32","279061","0.0-8.0-2.0-1.3","4052","1","18","Female","approach_avoid_spark_v1","
","
","
","
","
","","","","","","2509.9000000953674","images/ball4.png","","","learning","-3","-3","1","1","practice","practice","practice","-1","","",""
"html-keyboard-response","33","279566","0.0-8.0-2.0-0.4","4052","1","18","Female","approach_avoid_spark_v1","
","
","
","
","
","","","","","","null","<div style=""font-size:60px;"">+</div>","null","","fixation","","","","","","","","","","",""
"aa-learning-trial","34","282573","0.0-8.0-2.0-1.4","4052","1","18","Female","approach_avoid_spark_v1","
","
","
","
","
","","","","","","2166","images/ball1.png","","","learning","2","0","0","0","practice","practice","practice","-1","","",""
"html-keyboard-response","35","283075","0.0-8.0-2.0-0.5","4052","1","18","Female","approach_avoid_spark_v1","
","
","
","
","
","","","","","","null","<div style=""font-size:60px;"">+</div>","null","","fixation","","","","","","","","","","",""
"aa-learning-trial","36","286079","0.0-8.0-2.0-1.5","4052","1","18","Female","approach_avoid_spark_v1","
","
","
","
","
","","","","","","1086.7999999523163","images/racket1.png","","","learning","3","3","1","1","practice","practice","practice","-1","","",""
"html-keyboard-response","37","286584","0.0-8.0-2.0-0.6","4052","1","18","Female","approach_avoid_spark_v1","
","
","
","
","
","","","","","","null","<div style=""font-size:60px;"">+</div>","null","","fixation","","","","","","","","","","",""
"aa-learning-trial","38","289588","0.0-8.0-2.0-1.6","4052","1","18","Female","approach_avoid_spark_v1","
","
","
","
","
","","","","","","2278.2999999523163","images/ball2.png","","","learning","-9","-9","1","1","practice","practice","practice","-1","","",""
"html-keyboard-response","39","290090","0.0-8.0-2.0-0.7","4052","1","18","Female","approach_avoid_spark_v1","
","
","
","
","
","","","","","","null","<div style=""font-size:60px;"">+</div>","null","","fixation","","","","","","","","","","",""
"aa-learning-trial","40","293096","0.0-8.0-2.0-1.7","4052","1","18","Female","approach_avoid_spark_v1","
","
","
","
","
","","","","","","823.1000001430511","images/racket1.png","","","learning","5","5","1","1","practice","practice","practice","-1","","",""
"html-keyboard-response","41","293603","0.0-8.0-2.0-0.8","4052","1","18","Female","approach_avoid_spark_v1","
","
","
","
","
","","","","","","null","<div style=""font-size:60px;"">+</div>","null","","fixation","","","","","","","","","","",""
"aa-learning-trial","42","296606","0.0-8.0-2.0-1.8","4052","1","18","Female","approach_avoid_spark_v1","
","
","
","
","
","","","","","","1484.0999999046326","images/racket2.png","","","learning","4","4","1","1","practice","practice","practice","-1","","",""
"html-keyboard-response","43","297111","0.0-8.0-2.0-0.9","4052","1","18","Female","approach_avoid_spark_v1","
","
","
","
","
","","","","","","null","<div style=""font-size:60px;"">+</div>","null","","fixation","","","","","","","","","","",""
"aa-learning-trial","44","300115","0.0-8.0-2.0-1.9","4052","1","18","Female","approach_avoid_spark_v1","
","
","
","
","
","","","","","","1323.1999998092651","images/ball2.png","","","learning","-7","-7","1","1","practice","practice","practice","-1","","",""
"html-keyboard-response","45","300621","0.0-8.0-2.0-0.10","4052","1","18","Female","approach_avoid_spark_v1","
","
","
","
","
","","","","","","null","<div style=""font-size:60px;"">+</div>","null","","fixation","","","","","","","","","","",""
"aa-learning-trial","46","303630","0.0-8.0-2.0-1.10","4052","1","18","Female","approach_avoid_spark_v1","
","
","
","
","
","","","","","","1564.2999999523163","images/ball2.png","","","learning","7","0","0","0","practice","practice","practice","-1","","",""
"html-keyboard-response","47","304136","0.0-8.0-2.0-0.11","4052","1","18","Female","approach_avoid_spark_v1","
","
","
","
","
","","","","","","null","<div style=""font-size:60px;"">+</div>","null","","fixation","","","","","","","","","","",""
"aa-learning-trial","48","307144","0.0-8.0-2.0-1.11","4052","1","18","Female","approach_avoid_spark_v1","
","
","
","
","
","","","","","","1148.8999998569489","images/ball4.png","","","learning","-3","-3","1","1","practice","practice","practice","-1","","",""
"html-button-response","49","310240","0.0-8.0-3.0","4052","1","18","Female","approach_avoid_spark_v1","
","
","
","
","
","","","","","","3092.800000190735","<p> You earned -20 points in the practice round! </p>","0","","break","","","","","","","","","","",""
"learning-instructions","50","317514","0.0-8.0-4.0-0.0","4052","1","18","Female","approach_avoid_spark_v1","
","
","
","
","
","","","","","","913.7999999523163","<p> It's almost time to start the real game. </p><p> Before you start, we're going to ask you a few questions about how the game works. </p>","","0","instructions","","","","","","","","","","",""
"preload","51","319177","0.0-8.0-5.0","4052","1","18","Female","approach_avoid_spark_v1","
","
","
","
","
","true","false","[]","[]","[]","","","","","","","","","","","","","","","",""
"comp-q","52","326006","0.0-8.0-6.0-0.0","4052","1","18","Female","approach_avoid_spark_v1","
","
","
","
","
","","","","","","1831.2000000476837","<p> <b> True or False? </b> </p><p> If you see a number in GREY, that means you earned that many points. </p>","","1","comp_question","","","","","","","","","true","",""
"comp-q","53","335319","0.0-8.0-6.0-1.0","4052","1","18","Female","approach_avoid_spark_v1","
","
","
","
","
","","","","","","953.0999999046326","<p><b> That's right! </b> If you see a grey number, it means you earned ZERO points. <br> The grey numbers show the points you WOULD HAVE earned if you had made the other choice. </p>","","0","comp_answer","","","","","","","","","","",""
"comp-q","54","341031","0.0-8.0-7.0-0.0","4052","1","18","Female","approach_avoid_spark_v1","
","
","
","
","
","","","","","","1022.2999999523163","<p> <b> True or False? </b> </p><p> You will have as much time as you want to make each choice. </p>","","1","comp_question","","","","","","","","","true","",""
"comp-q","55","346118","0.0-8.0-7.0-1.0","4052","1","18","Female","approach_avoid_spark_v1","
","
","
","
","
","","","","","","1049.3999998569489","<p> <b> That's right! </b> You will only have 3 seconds to make each choice. </p>","","0","comp_answer","","","","","","","","","","",""
"comp-q","56","351672","0.0-8.0-8.0-0.0","4052","1","18","Female","approach_avoid_spark_v1","
","
","
","
","
","","","","","","895.6000001430511","<p> <b> True or False? </b> </p><p> You should use the '1' and '0' keys to make your choices. </p>","","0","comp_question","","","","","","","","","true","",""
"comp-q","57","375745","0.0-8.0-8.0-1.0","4052","1","18","Female","approach_avoid_spark_v1","
","
","
","
","
","","","","","","19465.699999809265","<p> <b> That's right! </b> You should use the '1' and '0' keys to make each choice. </p>","","0","comp_answer","","","","","","","","","","",""
"learning-instructions","58","385481","0.0-8.0-9.0-0.0","4052","1","18","Female","approach_avoid_spark_v1","
","
","
","
","
","","","","","","3466.9000000953674","<p> It's now time to start the real game. </p>Do your best, because the points you earn in the next rounds will influence your bonus payment. </p>","","0","instructions","","","","","","","","","","",""
"preload","59","385600","0.0-9.0-0.0","4052","1","18","Female","approach_avoid_spark_v1","
","
","
","
","
","true","false","[]","[]","[]","","","","","","","","","","","","","","","",""
"learning-instructions","60","389805","0.0-9.0-1.0-0.0","4052","1","18","Female","approach_avoid_spark_v1","
","
","
","
","
","","","","","","1049.9000000953674","<p> Your goal in this round is to eat tasty fruit. </p></div>","","0","instructions","","","","","","","","","","",""
"learning-instructions","61","400188","0.0-9.0-1.0-0.1","4052","1","18","Female","approach_avoid_spark_v1","
","
","
","
","
","","","","","","986.2000000476837","<p> Some of the fruits you will see are tasty. Others are rotten on the inside.  </p><p> On each turn, you will see a fruit.   </p><p> You need to decide whether to eat it or not.  </p>","","0","instructions","","","","","","","","","","",""
"learning-instructions","62","405476","0.0-9.0-1.0-0.2","4052","1","18","Female","approach_avoid_spark_v1","
","
","
","
","
","","","","","","647.2000000476837","<p> You can eat the fruit by pressing 1 and choose not to eat it by pressing 0. </p><br><div class=""choice-instructions-grid""> <div class=""choice-option""><img src=""images/approach.png"" class=""choice-option-img"" stage=""instructions"" position=""0"" ><div class=""choice-option-text""> Press ""1."" </div></div><div class=""choice-option""><img src=""images/avoid.png"" class=""choice-option-img"" stage=""instructions"" position=""1"" ><div class=""choice-option-text""> Press ""0."" </div></div>","","0","instructions","","","","","","","","","","",""
"learning-instructions","63","413984","0.0-9.0-1.0-0.3","4052","1","18","Female","approach_avoid_spark_v1","
","
","
","
","
","","","","","","1422.4000000953674","<p> If you eat the fruit and it was tasty, you will win points! </p><p> But if you eat the fruit and it was rotten, you will lose points. </p>","","0","instructions","","","","","","","","","","",""
"learning-instructions","64","426523","0.0-9.0-1.0-0.4","4052","1","18","Female","approach_avoid_spark_v1","
","
","
","
","
","","","","","","1608.7000000476837","<p> You will earn points based on how tasty or rotten the fruit was. </p><p> If it was tasty, you will WIN anywhere from 1 - 9 points, </p><p> but if it was rotten, you will LOSE anywhere from 1 - 9 points. </p>","","0","instructions","","","","","","","","","","",""
"learning-instructions","65","434267","0.0-9.0-1.0-0.5","4052","1","18","Female","approach_avoid_spark_v1","
","
","
","
","
","","","","","","453","<p> You will see how many points you won or lost in the center of the screen. </p><p> Here is what you would see if you earned 5 points: </p><p style=""color:green;font-size:50px;font-weight:bolder"">5</p>","","0","instructions","","","","","","","","","","",""
"learning-instructions","66","438628","0.0-9.0-1.0-0.6","4052","1","18","Female","approach_avoid_spark_v1","
","
","
","
","
","","","","","","562.2000000476837","<p> And here is what you would see if you lost 3 points: </p><p style=""color:red;font-size:50px;font-weight:bolder"">-3</p>","","0","instructions","","","","","","","","","","",""
"learning-instructions","67","453692","0.0-9.0-1.0-0.7","4052","1","18","Female","approach_avoid_spark_v1","
","
","
","
","
","","","","","","495.80000019073486","<p> Some fruit is very tasty or very rotten. </p><p> These fruits will make you win or lose LOTS of points. </p><p> Other fruits are only kind of tasty or kind of rotten. </p><p> These fruits will make you win or lose small amounts of points. </p>","","0","instructions","","","","","","","","","","",""
"learning-instructions","68","464977","0.0-9.0-1.0-0.8","4052","1","18","Female","approach_avoid_spark_v1","
","
","
","
","
","","","","","","554.2000000476837","<p> If you choose to not eat the fruit, you will not win or lose any points. </p><p>  However, in the center of the screen, you will see the number of points you WOULD HAVE earned if you had eaten the fruit. </p>","","0","instructions","","","","","","","","","","",""
"learning-instructions","69","475757","0.0-9.0-1.0-0.9","4052","1","18","Female","approach_avoid_spark_v1","
","
","
","
","
","","","","","","491.5","<p> Here is what you might see if you did not eat the fruit but the fruit was tasty: </p><p style=""color:grey; font-size:50px; display: inline-block; border-spacing: 15px; border-width:3px; border-style:solid; border-color:red"">  &nbsp; 6 &nbsp; </p><p> Remember, in this case, you would not win or lose ANY points because you did not eat the fruit.  </p>","","0","instructions","","","","","","","","","","",""
"learning-instructions","70","489415","0.0-9.0-1.0-0.10","4052","1","18","Female","approach_avoid_spark_v1","
","
","
","
","
","","","","","","5626.899999856949","<p> Try to make the best choice for each fruit because </p><p> at the end of the game, you will earn bonus money based on how many points you earned. </p>","","0","instructions","","","","","","","","","","",""
"learning-instructions","71","498112","0.0-9.0-1.0-0.11","4052","1","18","Female","approach_avoid_spark_v1","
","
","
","
","
","","","","","","511.2999999523163","<p> You will have 3 seconds to make each choice. Try to respond before time runs out! </p><p> You will lose 5 points each time you do not make a response. </p>","","0","instructions","","","","","","","","","","",""
"html-keyboard-response","72","498716","0.0-9.0-2.0-0.0","4052","1","18","Female","approach_avoid_spark_v1","
","
","
","
","
","","","","","","null","<div style=""font-size:60px;"">+</div>","null","","fixation","","","","","","","","","","",""
"aa-learning-trial","73","501723","0.0-9.0-2.0-1.0","4052","1","18","Female","approach_avoid_spark_v1","
","
","
","
","
","","","","","","1461.7000000476837","images/orange2.png","","","learning","-2","-2","1","1","orange","fruit","1","0","","neutral","0"
"html-keyboard-response","74","502230","0.0-9.0-2.0-0.1","4052","1","18","Female","approach_avoid_spark_v1","
","
","
","
","
","","","","","","null","<div style=""font-size:60px;"">+</div>","null","","fixation","","","","","","","","","","",""
"aa-learning-trial","75","505238","0.0-9.0-2.0-1.1","4052","1","18","Female","approach_avoid_spark_v1","
","
","
","
","
","","","","","","818","images/banana2.png","","","learning","-7","-7","1","1","banana","fruit","1","0","","bad","[-5]"
"html-keyboard-response","76","505745","0.0-9.0-2.0-0.2","4052","1","18","Female","approach_avoid_spark_v1","
","
","
","
","
","","","","","","null","<div style=""font-size:60px;"">+</div>","null","","fixation","","","","","","","","","","",""
"aa-learning-trial","77","508753","0.0-9.0-2.0-1.2","4052","1","18","Female","approach_avoid_spark_v1","
","
","
","
","
","","","","","","893","images/apple4.png","","","learning","4","4","1","1","apple","fruit","1","0","","good","[5]"
"html-keyboard-response","78","509259","0.0-9.0-2.0-0.3","4052","1","18","Female","approach_avoid_spark_v1","
","
","
","
","
","","","","","","null","<div style=""font-size:60px;"">+</div>","null","","fixation","","","","","","","","","","",""
"aa-learning-trial","79","512267","0.0-9.0-2.0-1.3","4052","1","18","Female","approach_avoid_spark_v1","
","
","
","
","
","","","","","","1413.7999999523163","images/orange8.png","","","learning","2","2","1","1","orange","fruit","1","0","","neutral","0"
"html-keyboard-response","80","512774","0.0-9.0-2.0-0.4","4052","1","18","Female","approach_avoid_spark_v1","
","
","
","
","
","","","","","","null","<div style=""font-size:60px;"">+</div>","null","","fixation","","","","","","","","","","",""
"aa-learning-trial","81","515782","0.0-9.0-2.0-1.4","4052","1","18","Female","approach_avoid_spark_v1","
","
","
","
","
","","","","","","1000.2000000476837","images/banana5.png","","","learning","-3","0","0","0","banana","fruit","1","0","","bad","[-5]"
"html-keyboard-response","82","516288","0.0-9.0-2.0-0.5","4052","1","18","Female","approach_avoid_spark_v1","
","
","
","
","
","","","","","","null","<div style=""font-size:60px;"">+</div>","null","","fixation","","","","","","","","","","",""
"aa-learning-trial","83","519297","0.0-9.0-2.0-1.5","4052","1","18","Female","approach_avoid_spark_v1","
","
","
","
","
","","","","","","983.7000000476837","images/orange6.png","","","learning","-1","-1","1","1","orange","fruit","1","0","","neutral","0"
"html-keyboard-response","84","519798","0.0-9.0-2.0-0.6","4052","1","18","Female","approach_avoid_spark_v1","
","
","
","
","
","","","","","","null","<div style=""font-size:60px;"">+</div>","null","","fixation","","","","","","","","","","",""
"aa-learning-trial","85","522806","0.0-9.0-2.0-1.6","4052","1","18","Female","approach_avoid_spark_v1","
","
","
","
","
","","","","","","1504","images/orange8.png","","","learning","-1","0","0","0","orange","fruit","1","0","","neutral","0"
"html-keyboard-response","86","523312","0.0-9.0-2.0-0.7","4052","1","18","Female","approach_avoid_spark_v1","
","
","
","
","
","","","","","","null","<div style=""font-size:60px;"">+</div>","null","","fixation","","","","","","","","","","",""
"aa-learning-trial","87","526321","0.0-9.0-2.0-1.7","4052","1","18","Female","approach_avoid_spark_v1","
","
","
","
","
","","","","","","1364.6999998092651","images/apple8.png","","","learning","4","4","1","1","apple","fruit","1","0","","good","[5]"
"html-keyboard-response","88","526823","0.0-9.0-2.0-0.8","4052","1","18","Female","approach_avoid_spark_v1","
","
","
","
","
","","","","","","null","<div style=""font-size:60px;"">+</div>","null","","fixation","","","","","","","","","","",""
"aa-learning-trial","89","529830","0.0-9.0-2.0-1.8","4052","1","18","Female","approach_avoid_spark_v1","
","
","
","
","
","","","","","","2011.7999999523163","images/orange6.png","","","learning","3","0","0","0","orange","fruit","1","0","","neutral","0"
"html-keyboard-response","90","530336","0.0-9.0-2.0-0.9","4052","1","18","Female","approach_avoid_spark_v1","
","
","
","
","
","","","","","","null","<div style=""font-size:60px;"">+</div>","null","","fixation","","","","","","","","","","",""
"aa-learning-trial","91","533344","0.0-9.0-2.0-1.9","4052","1","18","Female","approach_avoid_spark_v1","
","
","
","
","
","","","","","","1435.1000001430511","images/banana7.png","","","learning","-7","-7","1","1","banana","fruit","1","0","","bad","[-5]"
"html-keyboard-response","92","533851","0.0-9.0-2.0-0.10","4052","1","18","Female","approach_avoid_spark_v1","
","
","
","
","
","","","","","","null","<div style=""font-size:60px;"">+</div>","null","","fixation","","","","","","","","","","",""
"aa-learning-trial","93","536859","0.0-9.0-2.0-1.10","4052","1","18","Female","approach_avoid_spark_v1","
","
","
","
","
","","","","","","1130.3000001907349","images/apple7.png","","","learning","3","3","1","1","apple","fruit","1","0","","good","[5]"
"html-keyboard-response","94","537365","0.0-9.0-2.0-0.11","4052","1","18","Female","approach_avoid_spark_v1","
","
","
","
","
","","","","","","null","<div style=""font-size:60px;"">+</div>","null","","fixation","","","","","","","","","","",""
"aa-learning-trial","95","540374","0.0-9.0-2.0-1.11","4052","1","18","Female","approach_avoid_spark_v1","
","
","
","
","
","","","","","","1053.2999999523163","images/apple7.png","","","learning","4","0","0","0","apple","fruit","1","0","","good","[5]"
"html-keyboard-response","96","540875","0.0-9.0-2.0-0.12","4052","1","18","Female","approach_avoid_spark_v1","
","
","
","
","
","","","","","","null","<div style=""font-size:60px;"">+</div>","null","","fixation","","","","","","","","","","",""
"aa-learning-trial","97","543883","0.0-9.0-2.0-1.12","4052","1","18","Female","approach_avoid_spark_v1","
","
","
","
","
","","","","","","1563.7999999523163","images/apple8.png","","","learning","8","8","1","1","apple","fruit","1","0","","good","[5]"
"html-keyboard-response","98","544388","0.0-9.0-2.0-0.13","4052","1","18","Female","approach_avoid_spark_v1","
","
","
","
","
","","","","","","null","<div style=""font-size:60px;"">+</div>","null","","fixation","","","","","","","","","","",""
"aa-learning-trial","99","547393","0.0-9.0-2.0-1.13","4052","1","18","Female","approach_avoid_spark_v1","
","
","
","
","
","","","","","","715.6000001430511","images/banana7.png","","","learning","-5","0","0","0","banana","fruit","1","0","","bad","[-5]"
"html-keyboard-response","100","547899","0.0-9.0-2.0-0.14","4052","1","18","Female","approach_avoid_spark_v1","
","
","
","
","
","","","","","","null","<div style=""font-size:60px;"">+</div>","null","","fixation","","","","","","","","","","",""
"aa-learning-trial","101","550906","0.0-9.0-2.0-1.14","4052","1","18","Female","approach_avoid_spark_v1","
","
","
","
","
","","","","","","1219.5999999046326","images/banana2.png","","","learning","-6","0","0","0","banana","fruit","1","0","","bad","[-5]"
"html-keyboard-response","102","551408","0.0-9.0-2.0-0.15","4052","1","18","Female","approach_avoid_spark_v1","
","
","
","
","
","","","","","","null","<div style=""font-size:60px;"">+</div>","null","","fixation","","","","","","","","","","",""
"aa-learning-trial","103","554415","0.0-9.0-2.0-1.15","4052","1","18","Female","approach_avoid_spark_v1","
","
","
","
","
","","","","","","1324.2999999523163","images/orange6.png","","","learning","[-1]","0","0","0","orange","fruit","1","0","","neutral","0"
"html-keyboard-response","104","554917","0.0-9.0-2.0-0.16","4052","1","18","Female","approach_avoid_spark_v1","
","
","
","
","
","","","","","","null","<div style=""font-size:60px;"">+</div>","null","","fixation","","","","","","","","","","",""
"aa-learning-trial","105","557925","0.0-9.0-2.0-1.16","4052","1","18","Female","approach_avoid_spark_v1","
","
","
","
","
","","","","","","541.2999999523163","images/apple7.png","","","learning","4","4","1","1","apple","fruit","1","0","","good","[5]"
"html-keyboard-response","106","558428","0.0-9.0-2.0-0.17","4052","1","18","Female","approach_avoid_spark_v1","
","
","
","
","
","","","","","","null","<div style=""font-size:60px;"">+</div>","null","","fixation","","","","","","","","","","",""
"aa-learning-trial","107","561435","0.0-9.0-2.0-1.17","4052","1","18","Female","approach_avoid_spark_v1","
","
","
","
","
","","","","","","607.4000000953674","images/banana7.png","","","learning","-5","0","0","0","banana","fruit","1","0","","bad","[-5]"
"html-keyboard-response","108","561941","0.0-9.0-2.0-0.18","4052","1","18","Female","approach_avoid_spark_v1","
","
","
","
","
","","","","","","null","<div style=""font-size:60px;"">+</div>","null","","fixation","","","","","","","","","","",""
"aa-learning-trial","109","564949","0.0-9.0-2.0-1.18","4052","1","18","Female","approach_avoid_spark_v1","
","
","
","
","
","","","","","","1094.7000000476837","images/orange2.png","","","learning","[-1]","0","0","0","orange","fruit","1","0","","neutral","0"
"html-keyboard-response","110","565451","0.0-9.0-2.0-0.19","4052","1","18","Female","approach_avoid_spark_v1","
","
","
","
","
","","","","","","null","<div style=""font-size:60px;"">+</div>","null","","fixation","","","","","","","","","","",""
"aa-learning-trial","111","568455","0.0-9.0-2.0-1.19","4052","1","18","Female","approach_avoid_spark_v1","
","
","
","
","
","","","","","","526.2000000476837","images/apple4.png","","","learning","5","5","1","1","apple","fruit","1","0","","good","[5]"
"html-keyboard-response","112","568959","0.0-9.0-2.0-0.20","4052","1","18","Female","approach_avoid_spark_v1","
","
","
","
","
","","","","","","null","<div style=""font-size:60px;"">+</div>","null","","fixation","","","","","","","","","","",""
"aa-learning-trial","113","571962","0.0-9.0-2.0-1.20","4052","1","18","Female","approach_avoid_spark_v1","
","
","
","
","
","","","","","","901.2999999523163","images/apple8.png","","","learning","6","0","0","0","apple","fruit","1","0","","good","[5]"
"html-keyboard-response","114","572469","0.0-9.0-2.0-0.21","4052","1","18","Female","approach_avoid_spark_v1","
","
","
","
","
","","","","","","null","<div style=""font-size:60px;"">+</div>","null","","fixation","","","","","","","","","","",""
"aa-learning-trial","115","575477","0.0-9.0-2.0-1.21","4052","1","18","Female","approach_avoid_spark_v1","
","
","
","
","
","","","","","","1283.4000000953674","images/orange8.png","","","learning","2","2","1","1","orange","fruit","1","0","","neutral","0"
"html-keyboard-response","116","575979","0.0-9.0-2.0-0.22","4052","1","18","Female","approach_avoid_spark_v1","
","
","
","
","
","","","","","","null","<div style=""font-size:60px;"">+</div>","null","","fixation","","","","","","","","","","",""
"aa-learning-trial","117","578986","0.0-9.0-2.0-1.22","4052","1","18","Female","approach_avoid_spark_v1","
","
","
","
","
","","","","","","798.5","images/orange6.png","","","learning","[1]","0","0","0","orange","fruit","1","0","","neutral","0"
"html-keyboard-response","118","579493","0.0-9.0-2.0-0.23","4052","1","18","Female","approach_avoid_spark_v1","
","
","
","
","
","","","","","","null","<div style=""font-size:60px;"">+</div>","null","","fixation","","","","","","","","","","",""
"aa-learning-trial","119","582495","0.0-9.0-2.0-1.23","4052","1","18","Female","approach_avoid_spark_v1","
","
","
","
","
","","","","","","594.4000000953674","images/orange6.png","","","learning","[1]","0","0","0","orange","fruit","1","0","","neutral","0"
"html-keyboard-response","120","582998","0.0-9.0-2.0-0.24","4052","1","18","Female","approach_avoid_spark_v1","
","
","
","
","
","","","","","","null","<div style=""font-size:60px;"">+</div>","null","","fixation","","","","","","","","","","",""
"aa-learning-trial","121","586004","0.0-9.0-2.0-1.24","4052","1","18","Female","approach_avoid_spark_v1","
","
","
","
","
","","","","","","468.2999999523163","images/banana5.png","","","learning","-6","0","0","0","banana","fruit","1","0","","bad","[-5]"
"html-keyboard-response","122","586506","0.0-9.0-2.0-0.25","4052","1","18","Female","approach_avoid_spark_v1","
","
","
","
","
","","","","","","null","<div style=""font-size:60px;"">+</div>","null","","fixation","","","","","","","","","","",""
"aa-learning-trial","123","589514","0.0-9.0-2.0-1.25","4052","1","18","Female","approach_avoid_spark_v1","
","
","
","
","
","","","","","","574.5","images/apple7.png","","","learning","6","6","1","1","apple","fruit","1","0","","good","[5]"
"html-keyboard-response","124","590021","0.0-9.0-2.0-0.26","4052","1","18","Female","approach_avoid_spark_v1","
","
","
","
","
","","","","","","null","<div style=""font-size:60px;"">+</div>","null","","fixation","","","","","","","","","","",""
"aa-learning-trial","125","593029","0.0-9.0-2.0-1.26","4052","1","18","Female","approach_avoid_spark_v1","
","
","
","
","
","","","","","","875.0999999046326","images/banana7.png","","","learning","-5","0","0","0","banana","fruit","1","0","","bad","[-5]"
"html-keyboard-response","126","593535","0.0-9.0-2.0-0.27","4052","1","18","Female","approach_avoid_spark_v1","
","
","
","
","
","","","","","","null","<div style=""font-size:60px;"">+</div>","null","","fixation","","","","","","","","","","",""
"aa-learning-trial","127","596543","0.0-9.0-2.0-1.27","4052","1","18","Female","approach_avoid_spark_v1","
","
","
","
","
","","","","","","829.0999999046326","images/banana3.png","","","learning","-2","0","0","0","banana","fruit","1","0","","bad","[-5]"
"html-keyboard-response","128","597050","0.0-9.0-2.0-0.28","4052","1","18","Female","approach_avoid_spark_v1","
","
","
","
","
","","","","","","null","<div style=""font-size:60px;"">+</div>","null","","fixation","","","","","","","","","","",""
"aa-learning-trial","129","600058","0.0-9.0-2.0-1.28","4052","1","18","Female","approach_avoid_spark_v1","
","
","
","
","
","","","","","","484.89999985694885","images/banana8.png","","","learning","-4","0","0","0","banana","fruit","1","0","","bad","[-5]"
"html-keyboard-response","130","600564","0.0-9.0-2.0-0.29","4052","1","18","Female","approach_avoid_spark_v1","
","
","
","
","
","","","","","","null","<div style=""font-size:60px;"">+</div>","null","","fixation","","","","","","","","","","",""
"aa-learning-trial","131","603568","0.0-9.0-2.0-1.29","4052","1","18","Female","approach_avoid_spark_v1","
","
","
","
","
","","","","","","670.0999999046326","images/orange6.png","","","learning","-2","-2","1","1","orange","fruit","1","0","","neutral","0"
"html-keyboard-response","132","604070","0.0-9.0-2.0-0.30","4052","1","18","Female","approach_avoid_spark_v1","
","
","
","
","
","","","","","","null","<div style=""font-size:60px;"">+</div>","null","","fixation","","","","","","","","","","",""
"aa-learning-trial","133","607076","0.0-9.0-2.0-1.30","4052","1","18","Female","approach_avoid_spark_v1","
","
","
","
","
","","","","","","2094.7000000476837","images/orange7.png","","","learning","2","0","0","0","orange","fruit","1","0","","neutral","0"
"html-keyboard-response","134","607583","0.0-9.0-2.0-0.31","4052","1","18","Female","approach_avoid_spark_v1","
","
","
","
","
","","","","","","null","<div style=""font-size:60px;"">+</div>","null","","fixation","","","","","","","","","","",""
"aa-learning-trial","135","610590","0.0-9.0-2.0-1.31","4052","1","18","Female","approach_avoid_spark_v1","
","
","
","
","
","","","","","","1688.5999999046326","images/banana2.png","","","learning","-6","0","0","0","banana","fruit","1","0","","bad","[-5]"
"html-keyboard-response","136","611095","0.0-9.0-2.0-0.32","4052","1","18","Female","approach_avoid_spark_v1","
","
","
","
","
","","","","","","null","<div style=""font-size:60px;"">+</div>","null","","fixation","","","","","","","","","","",""
"aa-learning-trial","137","614100","0.0-9.0-2.0-1.32","4052","1","18","Female","approach_avoid_spark_v1","
","
","
","
","
","","","","","","716.2000000476837","images/apple7.png","","","learning","6","6","1","1","apple","fruit","1","0","","good","[5]"
"html-keyboard-response","138","614607","0.0-9.0-2.0-0.33","4052","1","18","Female","approach_avoid_spark_v1","
","
","
","
","
","","","","","","null","<div style=""font-size:60px;"">+</div>","null","","fixation","","","","","","","","","","",""
"aa-learning-trial","139","617615","0.0-9.0-2.0-1.33","4052","1","18","Female","approach_avoid_spark_v1","
","
","
","
","
","","","","","","647.7000000476837","images/banana7.png","","","learning","-6","0","0","0","banana","fruit","1","0","","bad","[-5]"
"html-keyboard-response","140","618118","0.0-9.0-2.0-0.34","4052","1","18","Female","approach_avoid_spark_v1","
","
","
","
","
","","","","","","null","<div style=""font-size:60px;"">+</div>","null","","fixation","","","","","","","","","","",""
"aa-learning-trial","141","621124","0.0-9.0-2.0-1.34","4052","1","18","Female","approach_avoid_spark_v1","
","
","
","
","
","","","","","","533","images/banana7.png","","","learning","-7","0","0","0","banana","fruit","1","0","","bad","[-5]"
"html-keyboard-response","142","621631","0.0-9.0-2.0-0.35","4052","1","18","Female","approach_avoid_spark_v1","
","
","
","
","
","","","","","","null","<div style=""font-size:60px;"">+</div>","null","","fixation","","","","","","","","","","",""
"aa-learning-trial","143","624639","0.0-9.0-2.0-1.35","4052","1","18","Female","approach_avoid_spark_v1","
","
","
","
","
","","","","","","787.7000000476837","images/orange8.png","","","learning","[-1]","-1","1","1","orange","fruit","1","0","","neutral","0"
"html-keyboard-response","144","625141","0.0-9.0-2.0-0.36","4052","1","18","Female","approach_avoid_spark_v1","
","
","
","
","
","","","","","","null","<div style=""font-size:60px;"">+</div>","null","","fixation","","","","","","","","","","",""
"aa-learning-trial","145","628148","0.0-9.0-2.0-1.36","4052","1","18","Female","approach_avoid_spark_v1","
","
","
","
","
","","","","","","660.2999999523163","images/banana2.png","","","learning","-6","0","0","0","banana","fruit","1","0","","bad","[-5]"
"html-keyboard-response","146","628655","0.0-9.0-2.0-0.37","4052","1","18","Female","approach_avoid_spark_v1","
","
","
","
","
","","","","","","null","<div style=""font-size:60px;"">+</div>","null","","fixation","","","","","","","","","","",""
"aa-learning-trial","147","631663","0.0-9.0-2.0-1.37","4052","1","18","Female","approach_avoid_spark_v1","
","
","
","
","
","","","","","","1579","images/orange8.png","","","learning","-2","-2","1","1","orange","fruit","1","0","","neutral","0"
"html-keyboard-response","148","632169","0.0-9.0-2.0-0.38","4052","1","18","Female","approach_avoid_spark_v1","
","
","
","
","
","","","","","","null","<div style=""font-size:60px;"">+</div>","null","","fixation","","","","","","","","","","",""
"aa-learning-trial","149","635178","0.0-9.0-2.0-1.38","4052","1","18","Female","approach_avoid_spark_v1","
","
","
","
","
","","","","","","887.0999999046326","images/apple8.png","","","learning","7","0","0","0","apple","fruit","1","0","","good","[5]"
"html-keyboard-response","150","635684","0.0-9.0-2.0-0.39","4052","1","18","Female","approach_avoid_spark_v1","
","
","
","
","
","","","","","","null","<div style=""font-size:60px;"">+</div>","null","","fixation","","","","","","","","","","",""
"aa-learning-trial","151","638692","0.0-9.0-2.0-1.39","4052","1","18","Female","approach_avoid_spark_v1","
","
","
","
","
","","","","","","849.5999999046326","images/banana5.png","","","learning","-5","0","0","0","banana","fruit","1","0","","bad","[-5]"
"html-keyboard-response","152","639199","0.0-9.0-2.0-0.40","4052","1","18","Female","approach_avoid_spark_v1","
","
","
","
","
","","","","","","null","<div style=""font-size:60px;"">+</div>","null","","fixation","","","","","","","","","","",""
"aa-learning-trial","153","642207","0.0-9.0-2.0-1.40","4052","1","18","Female","approach_avoid_spark_v1","
","
","
","
","
","","","","","","784.0999999046326","images/apple8.png","","","learning","5","5","1","1","apple","fruit","1","0","","good","[5]"
"html-keyboard-response","154","642709","0.0-9.0-2.0-0.41","4052","1","18","Female","approach_avoid_spark_v1","
","
","
","
","
","","","","","","null","<div style=""font-size:60px;"">+</div>","null","","fixation","","","","","","","","","","",""
"aa-learning-trial","155","645716","0.0-9.0-2.0-1.41","4052","1","18","Female","approach_avoid_spark_v1","
","
","
","
","
","","","","","","1867.7999999523163","images/orange2.png","","","learning","-3","0","0","0","orange","fruit","1","0","","neutral","0"
"html-keyboard-response","156","646223","0.0-9.0-2.0-0.42","4052","1","18","Female","approach_avoid_spark_v1","
","
","
","
","
","","","","","","null","<div style=""font-size:60px;"">+</div>","null","","fixation","","","","","","","","","","",""
"aa-learning-trial","157","649231","0.0-9.0-2.0-1.42","4052","1","18","Female","approach_avoid_spark_v1","
","
","
","
","
","","","","","","1375.1000001430511","images/apple7.png","","","learning","3","0","0","0","apple","fruit","1","0","","good","[5]"
"html-keyboard-response","158","649733","0.0-9.0-2.0-0.43","4052","1","18","Female","approach_avoid_spark_v1","
","
","
","
","
","","","","","","null","<div style=""font-size:60px;"">+</div>","null","","fixation","","","","","","","","","","",""
"aa-learning-trial","159","652738","0.0-9.0-2.0-1.43","4052","1","18","Female","approach_avoid_spark_v1","
","
","
","
","
","","","","","","713.0999999046326","images/apple2.png","","","learning","5","5","1","1","apple","fruit","1","0","","good","[5]"
"html-keyboard-response","160","653241","0.0-9.0-2.0-0.44","4052","1","18","Female","approach_avoid_spark_v1","
","
","
","
","
","","","","","","null","<div style=""font-size:60px;"">+</div>","null","","fixation","","","","","","","","","","",""
"aa-learning-trial","161","656249","0.0-9.0-2.0-1.44","4052","1","18","Female","approach_avoid_spark_v1","
","
","
","
","
","","","","","","513.4000000953674","images/banana2.png","","","learning","-5","0","0","0","banana","fruit","1","0","","bad","[-5]"
"html-keyboard-response","162","656756","0.0-9.0-2.0-0.45","4052","1","18","Female","approach_avoid_spark_v1","
","
","
","
","
","","","","","","null","<div style=""font-size:60px;"">+</div>","null","","fixation","","","","","","","","","","",""
"aa-learning-trial","163","659764","0.0-9.0-2.0-1.45","4052","1","18","Female","approach_avoid_spark_v1","
","
","
","
","
","","","","","","1516.1000001430511","images/apple8.png","","","learning","4","0","0","0","apple","fruit","1","0","","good","[5]"
"html-keyboard-response","164","660270","0.0-9.0-2.0-0.46","4052","1","18","Female","approach_avoid_spark_v1","
","
","
","
","
","","","","","","null","<div style=""font-size:60px;"">+</div>","null","","fixation","","","","","","","","","","",""
"aa-learning-trial","165","663279","0.0-9.0-2.0-1.46","4052","1","18","Female","approach_avoid_spark_v1","
","
","
","
","
","","","","","","1603","images/orange4.png","","","learning","-1","0","0","0","orange","fruit","1","0","","neutral","0"
"html-keyboard-response","166","663785","0.0-9.0-2.0-0.47","4052","1","18","Female","approach_avoid_spark_v1","
","
","
","
","
","","","","","","null","<div style=""font-size:60px;"">+</div>","null","","fixation","","","","","","","","","","",""
"aa-learning-trial","167","666793","0.0-9.0-2.0-1.47","4052","1","18","Female","approach_avoid_spark_v1","
","
","
","
","
","","","","","","582.2000000476837","images/banana2.png","","","learning","-5","0","0","0","banana","fruit","1","0","","bad","[-5]"
"html-keyboard-response","168","667295","0.0-9.0-2.0-0.48","4052","1","18","Female","approach_avoid_spark_v1","
","
","
","
","
","","","","","","null","<div style=""font-size:60px;"">+</div>","null","","fixation","","","","","","","","","","",""
"aa-learning-trial","169","670299","0.0-9.0-2.0-1.48","4052","1","18","Female","approach_avoid_spark_v1","
","
","
","
","
","","","","","","2235.699999809265","images/orange8.png","","","learning","2","2","1","1","orange","fruit","1","0","","neutral","0"
"html-keyboard-response","170","670804","0.0-9.0-2.0-0.49","4052","1","18","Female","approach_avoid_spark_v1","
","
","
","
","
","","","","","","null","<div style=""font-size:60px;"">+</div>","null","","fixation","","","","","","","","","","",""
"aa-learning-trial","171","673812","0.0-9.0-2.0-1.49","4052","1","18","Female","approach_avoid_spark_v1","
","
","
","
","
","","","","","","1195","images/apple4.png","","","learning","4","4","1","1","apple","fruit","1","0","","good","[5]"
"html-keyboard-response","172","674318","0.0-9.0-2.0-0.50","4052","1","18","Female","approach_avoid_spark_v1","
","
","
","
","
","","","","","","null","<div style=""font-size:60px;"">+</div>","null","","fixation","","","","","","","","","","",""
"aa-learning-trial","173","677321","0.0-9.0-2.0-1.50","4052","1","18","Female","approach_avoid_spark_v1","
","
","
","
","
","","","","","","1615.1999998092651","images/apple3.png","","","learning","7","0","0","0","apple","fruit","1","0","","good","[5]"
"html-button-response","174","679173","0.0-9.0-3.0","4052","1","18","Female","approach_avoid_spark_v1","
","
","
","
","
","","","","","","1848.5","<p> You have completed the round! <p> In this round, you earned 38 points! </p>","0","","break","","","","","","","","","","",""
"html-button-response","175","680318","0.0-10.0","4052","1","18","Female","approach_avoid_spark_v1","
","
","
","
","
","","","","","","1143.4000000953674","<p> Now it's time to play another round. </p>","0","","transition_screen","","","","","","","","","","",""
"preload","176","680437","0.0-11.0-0.0","4052","1","18","Female","approach_avoid_spark_v1","
","
","
","
","
","true","false","[]","[]","[]","","","","","","","","","","","","","","","",""
"learning-instructions","177","686090","0.0-11.0-1.0-0.0","4052","1","18","Female","approach_avoid_spark_v1","
","
","
","
","
","","","","","","906.5","<p> Your goal in this round is to take care of lots of farm animals. </p></div>","","0","instructions","","","","","","","","","","",""
"learning-instructions","178","696149","0.0-11.0-1.0-0.1","4052","1","18","Female","approach_avoid_spark_v1","
","
","
","
","
","","","","","","438.7000000476837","<p> Some farm animals are hungry, while other farm animals are already full.  </p><p> On each turn, you will see a farm animal.   </p><p> You need to decide whether to feed it or not.  </p>","","0","instructions","","","","","","","","","","",""
"learning-instructions","179","702310","0.0-11.0-1.0-0.2","4052","1","18","Female","approach_avoid_spark_v1","
","
","
","
","
","","","","","","503.19999980926514","<p> You can feed the farm animal by pressing 1 and leave the farm animal alone by pressing 0. </p><br><div class=""choice-instructions-grid""> <div class=""choice-option""><img src=""images/approach.png"" class=""choice-option-img"" stage=""instructions"" position=""0"" ><div class=""choice-option-text""> Press ""1."" </div></div><div class=""choice-option""><img src=""images/avoid.png"" class=""choice-option-img"" stage=""instructions"" position=""1"" ><div class=""choice-option-text""> Press ""0."" </div></div>","","0","instructions","","","","","","","","","","",""
"learning-instructions","180","712086","0.0-11.0-1.0-0.3","4052","1","18","Female","approach_avoid_spark_v1","
","
","
","
","
","","","","","","530.2999999523163","<p> If you feed a hungry farm animal, you will make it feel satisfied! </p><p> But if you feed the farm animal and it was already full, you will make it feel sick. </p>","","0","instructions","","","","","","","","","","",""
"learning-instructions","181","725567","0.0-11.0-1.0-0.4","4052","1","18","Female","approach_avoid_spark_v1","
","
","
","
","
","","","","","","1382.2999999523163","<p> You will earn points based on how you made the farm animal feel. </p><p> If you made it satisfied, you will WIN anywhere from 1 - 9 points, </p><p> but if you made it sick, you will LOSE anywhere from 1 - 9 points. </p>","","0","instructions","","","","","","","","","","",""
"learning-instructions","182","732780","0.0-11.0-1.0-0.5","4052","1","18","Female","approach_avoid_spark_v1","
","
","
","
","
","","","","","","557.1999998092651","<p> You will see how many points you won or lost in the center of the screen. </p><p> Here is what you would see if you won 5 points: </p><p style=""color:green;font-size:50px;font-weight:bolder"">5</p>","","0","instructions","","","","","","","","","","",""
"learning-instructions","183","736059","0.0-11.0-1.0-0.6","4052","1","18","Female","approach_avoid_spark_v1","
","
","
","
","
","","","","","","444.90000009536743","<p> And here is what you would see if you lost 3 points: </p><p style=""color:red;font-size:50px;font-weight:bolder"">-3</p>","","0","instructions","","","","","","","","","","",""
"learning-instructions","184","751903","0.0-11.0-1.0-0.7","4052","1","18","Female","approach_avoid_spark_v1","
","
","
","
","
","","","","","","662.2999999523163","<p> Some farm animals will become very satisfied or very sick. </p><p> These farm animals will make you win or lose LOTS of points. </p><p> Other farm animals have less strong feelings. </p><p> These farm animals will make you win or lose small amounts of points. </p>","","0","instructions","","","","","","","","","","",""
"learning-instructions","185","764037","0.0-11.0-1.0-0.8","4052","1","18","Female","approach_avoid_spark_v1","
","
","
","
","
","","","","","","342.60000014305115","<p> If you choose to leave the farm animal alone, you will not win or lose any points. </p><p>  However, in the center of the screen, you will see the number of points you WOULD HAVE won or lost if you had fed the farm animal. </p>","","0","instructions","","","","","","","","","","",""
"learning-instructions","186","776093","0.0-11.0-1.0-0.9","4052","1","18","Female","approach_avoid_spark_v1","
","
","
","
","
","","","","","","975.6000001430511","<p> Here is what you might see if you did not feed the farm animal but the animal was hungry: </p><p style=""color:grey; font-size:50px; display: inline-block; border-spacing: 15px; border-width:3px; border-style:solid; border-color:red"">  &nbsp; 6 &nbsp; </p><p> Remember, in this case, you would not win or lose ANY points because you did not feed the farm animal.  </p>","","0","instructions","","","","","","","","","","",""
"learning-instructions","187","784263","0.0-11.0-1.0-0.10","4052","1","18","Female","approach_avoid_spark_v1","
","
","
","
","
","","","","","","446.7000000476837","<p> Try to make the best choice for each farm animal because </p><p> at the end of the game, you will earn bonus money based on how many points you earned. </p>","","0","instructions","","","","","","","","","","",""
"learning-instructions","188","792904","0.0-11.0-1.0-0.11","4052","1","18","Female","approach_avoid_spark_v1","
","
","
","
","
","","","","","","452.59999990463257","<p> You will have 3 seconds to make each choice. Try to respond before time runs out! </p><p> You will lose 5 points each time you do not make a response. </p>","","0","instructions","","","","","","","","","","",""
"html-keyboard-response","189","793506","0.0-11.0-2.0-0.0","4052","1","18","Female","approach_avoid_spark_v1","
","
","
","
","
","","","","","","null","<div style=""font-size:60px;"">+</div>","null","","fixation","","","","","","","","","","",""
"aa-learning-trial","190","796512","0.0-11.0-2.0-1.0","4052","1","18","Female","approach_avoid_spark_v1","
","
","
","
","
","","","","","","1563.6000001430511","images/goat7.png","","","learning","9","9","1","1","goat","animals","2","1","","good","[4]"
"html-keyboard-response","191","797015","0.0-11.0-2.0-0.1","4052","1","18","Female","approach_avoid_spark_v1","
","
","
","
","
","","","","","","null","<div style=""font-size:60px;"">+</div>","null","","fixation","","","","","","","","","","",""
"aa-learning-trial","192","800024","0.0-11.0-2.0-1.1","4052","1","18","Female","approach_avoid_spark_v1","
","
","
","
","
","","","","","","796.5999999046326","images/horse8.png","","","learning","2","0","0","0","horse","animals","2","1","","bad","[-4]"
"html-keyboard-response","193","800530","0.0-11.0-2.0-0.2","4052","1","18","Female","approach_avoid_spark_v1","
","
","
","
","
","","","","","","null","<div style=""font-size:60px;"">+</div>","null","","fixation","","","","","","","","","","",""
"aa-learning-trial","194","803538","0.0-11.0-2.0-1.2","4052","1","18","Female","approach_avoid_spark_v1","
","
","
","
","
","","","","","","1567.7999999523163","images/goat3.png","","","learning","1","0","0","0","goat","animals","2","1","","good","[4]"
"html-keyboard-response","195","804045","0.0-11.0-2.0-0.3","4052","1","18","Female","approach_avoid_spark_v1","
","
","
","
","
","","","","","","null","<div style=""font-size:60px;"">+</div>","null","","fixation","","","","","","","","","","",""
"aa-learning-trial","196","807048","0.0-11.0-2.0-1.3","4052","1","18","Female","approach_avoid_spark_v1","
","
","
","
","
","","","","","","1148.2000000476837","images/horse1.png","","","learning","3","0","0","0","horse","animals","2","1","","bad","[-4]"
"html-keyboard-response","197","807554","0.0-11.0-2.0-0.4","4052","1","18","Female","approach_avoid_spark_v1","
","
","
","
","
","","","","","","null","<div style=""font-size:60px;"">+</div>","null","","fixation","","","","","","","","","","",""
"aa-learning-trial","198","810562","0.0-11.0-2.0-1.4","4052","1","18","Female","approach_avoid_spark_v1","
","
","
","
","
","","","","","","534.6000001430511","images/sheep4.png","","","learning","-7","0","0","0","sheep","animals","2","1","","neutral","0"
"html-keyboard-response","199","811069","0.0-11.0-2.0-0.5","4052","1","18","Female","approach_avoid_spark_v1","
","
","
","
","
","","","","","","null","<div style=""font-size:60px;"">+</div>","null","","fixation","","","","","","","","","","",""
"aa-learning-trial","200","814077","0.0-11.0-2.0-1.5","4052","1","18","Female","approach_avoid_spark_v1","
","
","
","
","
","","","","","","638.7999999523163","images/sheep2.png","","","learning","7","7","1","1","sheep","animals","2","1","","neutral","0"
"html-keyboard-response","201","814579","0.0-11.0-2.0-0.6","4052","1","18","Female","approach_avoid_spark_v1","
","
","
","
","
","","","","","","null","<div style=""font-size:60px;"">+</div>","null","","fixation","","","","","","","","","","",""
"aa-learning-trial","202","817586","0.0-11.0-2.0-1.6","4052","1","18","Female","approach_avoid_spark_v1","
","
","
","
","
","","","","","","1106.7999999523163","images/horse5.png","","","learning","8","8","1","1","horse","animals","2","1","","bad","[-4]"
"html-keyboard-response","203","818093","0.0-11.0-2.0-0.7","4052","1","18","Female","approach_avoid_spark_v1","
","
","
","
","
","","","","","","null","<div style=""font-size:60px;"">+</div>","null","","fixation","","","","","","","","","","",""
"aa-learning-trial","204","821101","0.0-11.0-2.0-1.7","4052","1","18","Female","approach_avoid_spark_v1","
","
","
","
","
","","","","","","795.4000000953674","images/goat7.png","","","learning","9","0","0","0","goat","animals","2","1","","good","[4]"
"html-keyboard-response","205","821607","0.0-11.0-2.0-0.8","4052","1","18","Female","approach_avoid_spark_v1","
","
","
","
","
","","","","","","null","<div style=""font-size:60px;"">+</div>","null","","fixation","","","","","","","","","","",""
"aa-learning-trial","206","824615","0.0-11.0-2.0-1.8","4052","1","18","Female","approach_avoid_spark_v1","
","
","
","
","
","","","","","","848.3999998569489","images/goat3.png","","","learning","1","0","0","0","goat","animals","2","1","","good","[4]"
"html-keyboard-response","207","825122","0.0-11.0-2.0-0.9","4052","1","18","Female","approach_avoid_spark_v1","
","
","
","
","
","","","","","","null","<div style=""font-size:60px;"">+</div>","null","","fixation","","","","","","","","","","",""
"aa-learning-trial","208","828130","0.0-11.0-2.0-1.9","4052","1","18","Female","approach_avoid_spark_v1","
","
","
","
","
","","","","","","1039.2000000476837","images/goat4.png","","","learning","4","0","0","0","goat","animals","2","1","","good","[4]"
"html-keyboard-response","209","828632","0.0-11.0-2.0-0.10","4052","1","18","Female","approach_avoid_spark_v1","
","
","
","
","
","","","","","","null","<div style=""font-size:60px;"">+</div>","null","","fixation","","","","","","","","","","",""
"aa-learning-trial","210","831639","0.0-11.0-2.0-1.10","4052","1","18","Female","approach_avoid_spark_v1","
","
","
","
","
","","","","","","867.7000000476837","images/horse5.png","","","learning","8","8","1","1","horse","animals","2","1","","bad","[-4]"
"html-keyboard-response","211","832146","0.0-11.0-2.0-0.11","4052","1","18","Female","approach_avoid_spark_v1","
","
","
","
","
","","","","","","null","<div style=""font-size:60px;"">+</div>","null","","fixation","","","","","","","","","","",""
"aa-learning-trial","212","835154","0.0-11.0-2.0-1.11","4052","1","18","Female","approach_avoid_spark_v1","
","
","
","
","
","","","","","","843.7999999523163","images/sheep4.png","","","learning","-7","0","0","0","sheep","animals","2","1","","neutral","0"
"html-keyboard-response","213","835661","0.0-11.0-2.0-0.12","4052","1","18","Female","approach_avoid_spark_v1","
","
","
","
","
","","","","","","null","<div style=""font-size:60px;"">+</div>","null","","fixation","","","","","","","","","","",""
"aa-learning-trial","214","838669","0.0-11.0-2.0-1.12","4052","1","18","Female","approach_avoid_spark_v1","
","
","
","
","
","","","","","","1108.2000000476837","images/sheep7.png","","","learning","5","0","0","0","sheep","animals","2","1","","neutral","0"
"html-keyboard-response","215","839171","0.0-11.0-2.0-0.13","4052","1","18","Female","approach_avoid_spark_v1","
","
","
","
","
","","","","","","null","<div style=""font-size:60px;"">+</div>","null","","fixation","","","","","","","","","","",""
"aa-learning-trial","216","842174","0.0-11.0-2.0-1.13","4052","1","18","Female","approach_avoid_spark_v1","
","
","
","
","
","","","","","","646.5999999046326","images/horse8.png","","","learning","2","2","1","1","horse","animals","2","1","","bad","[-4]"
"html-keyboard-response","217","842679","0.0-11.0-2.0-0.14","4052","1","18","Female","approach_avoid_spark_v1","
","
","
","
","
","","","","","","null","<div style=""font-size:60px;"">+</div>","null","","fixation","","","","","","","","","","",""
"aa-learning-trial","218","845687","0.0-11.0-2.0-1.14","4052","1","18","Female","approach_avoid_spark_v1","
","
","
","
","
","","","","","","1168.3000001907349","images/sheep7.png","","","learning","5","5","1","1","sheep","animals","2","1","","neutral","0"
"html-keyboard-response","219","846190","0.0-11.0-2.0-0.15","4052","1","18","Female","approach_avoid_spark_v1","
","
","
","
","
","","","","","","null","<div style=""font-size:60px;"">+</div>","null","","fixation","","","","","","","","","","",""
"aa-learning-trial","220","849194","0.0-11.0-2.0-1.15","4052","1","18","Female","approach_avoid_spark_v1","
","
","
","
","
","","","","","","1701.2999999523163","images/sheep7.png","","","learning","5","0","0","0","sheep","animals","2","1","","neutral","0"
"html-keyboard-response","221","849698","0.0-11.0-2.0-0.16","4052","1","18","Female","approach_avoid_spark_v1","
","
","
","
","
","","","","","","null","<div style=""font-size:60px;"">+</div>","null","","fixation","","","","","","","","","","",""
"aa-learning-trial","222","852706","0.0-11.0-2.0-1.16","4052","1","18","Female","approach_avoid_spark_v1","
","
","
","
","
","","","","","","1382.0999999046326","images/goat7.png","","","learning","9","9","1","1","goat","animals","2","1","","good","[4]"
"html-keyboard-response","223","853209","0.0-11.0-2.0-0.17","4052","1","18","Female","approach_avoid_spark_v1","
","
","
","
","
","","","","","","null","<div style=""font-size:60px;"">+</div>","null","","fixation","","","","","","","","","","",""
"aa-learning-trial","224","856213","0.0-11.0-2.0-1.17","4052","1","18","Female","approach_avoid_spark_v1","
","
","
","
","
","","","","","","708","images/horse8.png","","","learning","2","2","1","1","horse","animals","2","1","","bad","[-4]"
"html-keyboard-response","225","856717","0.0-11.0-2.0-0.18","4052","1","18","Female","approach_avoid_spark_v1","
","
","
","
","
","","","","","","null","<div style=""font-size:60px;"">+</div>","null","","fixation","","","","","","","","","","",""
"aa-learning-trial","226","859719","0.0-11.0-2.0-1.18","4052","1","18","Female","approach_avoid_spark_v1","
","
","
","
","
","","","","","","1312","images/sheep4.png","","","learning","-7","-7","1","1","sheep","animals","2","1","","neutral","0"
"html-keyboard-response","227","860221","0.0-11.0-2.0-0.19","4052","1","18","Female","approach_avoid_spark_v1","
","
","
","
","
","","","","","","null","<div style=""font-size:60px;"">+</div>","null","","fixation","","","","","","","","","","",""
"aa-learning-trial","228","863228","0.0-11.0-2.0-1.19","4052","1","18","Female","approach_avoid_spark_v1","
","
","
","
","
","","","","","","1042.9000000953674","images/sheep7.png","","","learning","5","0","0","0","sheep","animals","2","1","","neutral","0"
"html-keyboard-response","229","863735","0.0-11.0-2.0-0.20","4052","1","18","Female","approach_avoid_spark_v1","
","
","
","
","
","","","","","","null","<div style=""font-size:60px;"">+</div>","null","","fixation","","","","","","","","","","",""
"aa-learning-trial","230","866743","0.0-11.0-2.0-1.20","4052","1","18","Female","approach_avoid_spark_v1","
","
","
","
","
","","","","","","749.5999999046326","images/goat7.png","","","learning","9","9","1","1","goat","animals","2","1","","good","[4]"
"html-keyboard-response","231","867245","0.0-11.0-2.0-0.21","4052","1","18","Female","approach_avoid_spark_v1","
","
","
","
","
","","","","","","null","<div style=""font-size:60px;"">+</div>","null","","fixation","","","","","","","","","","",""
"aa-learning-trial","232","870249","0.0-11.0-2.0-1.21","4052","1","18","Female","approach_avoid_spark_v1","
","
","
","
","
","","","","","","898.2000000476837","images/goat3.png","","","learning","1","1","1","1","goat","animals","2","1","","good","[4]"
"html-keyboard-response","233","870754","0.0-11.0-2.0-0.22","4052","1","18","Female","approach_avoid_spark_v1","
","
","
","
","
","","","","","","null","<div style=""font-size:60px;"">+</div>","null","","fixation","","","","","","","","","","",""
"aa-learning-trial","234","873762","0.0-11.0-2.0-1.22","4052","1","18","Female","approach_avoid_spark_v1","
","
","
","
","
","","","","","","1237.6000001430511","images/goat4.png","","","learning","4","4","1","1","goat","animals","2","1","","good","[4]"
"html-keyboard-response","235","874266","0.0-11.0-2.0-0.23","4052","1","18","Female","approach_avoid_spark_v1","
","
","
","
","
","","","","","","null","<div style=""font-size:60px;"">+</div>","null","","fixation","","","","","","","","","","",""
"aa-learning-trial","236","877272","0.0-11.0-2.0-1.23","4052","1","18","Female","approach_avoid_spark_v1","
","
","
","
","
","","","","","","1440.2000000476837","images/horse6.png","","","learning","-9","0","0","0","horse","animals","2","1","","bad","[-4]"
"html-keyboard-response","237","877777","0.0-11.0-2.0-0.24","4052","1","18","Female","approach_avoid_spark_v1","
","
","
","
","
","","","","","","null","<div style=""font-size:60px;"">+</div>","null","","fixation","","","","","","","","","","",""
"aa-learning-trial","238","880786","0.0-11.0-2.0-1.24","4052","1","18","Female","approach_avoid_spark_v1","
","
","
","
","
","","","","","","795.6999998092651","images/goat7.png","","","learning","9","9","1","1","goat","animals","2","1","","good","[4]"
"html-keyboard-response","239","881288","0.0-11.0-2.0-0.25","4052","1","18","Female","approach_avoid_spark_v1","
","
","
","
","
","","","","","","null","<div style=""font-size:60px;"">+</div>","null","","fixation","","","","","","","","","","",""
"aa-learning-trial","240","884295","0.0-11.0-2.0-1.25","4052","1","18","Female","approach_avoid_spark_v1","
","
","
","
","
","","","","","","998.7000000476837","images/goat4.png","","","learning","4","4","1","1","goat","animals","2","1","","good","[4]"
"html-keyboard-response","241","884801","0.0-11.0-2.0-0.26","4052","1","18","Female","approach_avoid_spark_v1","
","
","
","
","
","","","","","","null","<div style=""font-size:60px;"">+</div>","null","","fixation","","","","","","","","","","",""
"aa-learning-trial","242","887807","0.0-11.0-2.0-1.26","4052","1","18","Female","approach_avoid_spark_v1","
","
","
","
","
","","","","","","1525.3999998569489","images/sheep4.png","","","learning","-7","0","0","0","sheep","animals","2","1","","neutral","0"
"html-keyboard-response","243","888311","0.0-11.0-2.0-0.27","4052","1","18","Female","approach_avoid_spark_v1","
","
","
","
","
","","","","","","null","<div style=""font-size:60px;"">+</div>","null","","fixation","","","","","","","","","","",""
"aa-learning-trial","244","891319","0.0-11.0-2.0-1.27","4052","1","18","Female","approach_avoid_spark_v1","
","
","
","
","
","","","","","","1252.1000001430511","images/horse1.png","","","learning","3","0","0","0","horse","animals","2","1","","bad","[-4]"
"html-keyboard-response","245","891825","0.0-11.0-2.0-0.28","4052","1","18","Female","approach_avoid_spark_v1","
","
","
","
","
","","","","","","null","<div style=""font-size:60px;"">+</div>","null","","fixation","","","","","","","","","","",""
"aa-learning-trial","246","894833","0.0-11.0-2.0-1.28","4052","1","18","Female","approach_avoid_spark_v1","
","
","
","
","
","","","","","","749.5999999046326","images/goat3.png","","","learning","1","1","1","1","goat","animals","2","1","","good","[4]"
"html-keyboard-response","247","895340","0.0-11.0-2.0-0.29","4052","1","18","Female","approach_avoid_spark_v1","
","
","
","
","
","","","","","","null","<div style=""font-size:60px;"">+</div>","null","","fixation","","","","","","","","","","",""
"aa-learning-trial","248","898345","0.0-11.0-2.0-1.29","4052","1","18","Female","approach_avoid_spark_v1","
","
","
","
","
","","","","","","1629.3999998569489","images/horse3.png","","","learning","-3","0","0","0","horse","animals","2","1","","bad","[-4]"
"html-keyboard-response","249","898849","0.0-11.0-2.0-0.30","4052","1","18","Female","approach_avoid_spark_v1","
","
","
","
","
","","","","","","null","<div style=""font-size:60px;"">+</div>","null","","fixation","","","","","","","","","","",""
"aa-learning-trial","250","901858","0.0-11.0-2.0-1.30","4052","1","18","Female","approach_avoid_spark_v1","
","
","
","
","
","","","","","","1804.1000001430511","images/sheep5.png","","","learning","-5","-5","1","1","sheep","animals","2","1","","neutral","0"
"html-keyboard-response","251","902362","0.0-11.0-2.0-0.31","4052","1","18","Female","approach_avoid_spark_v1","
","
","
","
","
","","","","","","null","<div style=""font-size:60px;"">+</div>","null","","fixation","","","","","","","","","","",""
"aa-learning-trial","252","905367","0.0-11.0-2.0-1.31","4052","1","18","Female","approach_avoid_spark_v1","
","
","
","
","
","","","","","","760.5","images/goat7.png","","","learning","9","9","1","1","goat","animals","2","1","","good","[4]"
"html-keyboard-response","253","905873","0.0-11.0-2.0-0.32","4052","1","18","Female","approach_avoid_spark_v1","
","
","
","
","
","","","","","","null","<div style=""font-size:60px;"">+</div>","null","","fixation","","","","","","","","","","",""
"aa-learning-trial","254","908876","0.0-11.0-2.0-1.32","4052","1","18","Female","approach_avoid_spark_v1","
","
","
","
","
","","","","","","880.0999999046326","images/goat3.png","","","learning","1","1","1","1","goat","animals","2","1","","good","[4]"
"html-keyboard-response","255","909383","0.0-11.0-2.0-0.33","4052","1","18","Female","approach_avoid_spark_v1","
","
","
","
","
","","","","","","null","<div style=""font-size:60px;"">+</div>","null","","fixation","","","","","","","","","","",""
"aa-learning-trial","256","912390","0.0-11.0-2.0-1.33","4052","1","18","Female","approach_avoid_spark_v1","
","
","
","
","
","","","","","","1051.8999998569489","images/sheep2.png","","","learning","7","0","0","0","sheep","animals","2","1","","neutral","0"
"html-keyboard-response","257","912897","0.0-11.0-2.0-0.34","4052","1","18","Female","approach_avoid_spark_v1","
","
","
","
","
","","","","","","null","<div style=""font-size:60px;"">+</div>","null","","fixation","","","","","","","","","","",""
"aa-learning-trial","258","915905","0.0-11.0-2.0-1.34","4052","1","18","Female","approach_avoid_spark_v1","
","
","
","
","
","","","","","","1147.7999999523163","images/horse5.png","","","learning","8","8","1","1","horse","animals","2","1","","bad","[-4]"
"html-keyboard-response","259","916411","0.0-11.0-2.0-0.35","4052","1","18","Female","approach_avoid_spark_v1","
","
","
","
","
","","","","","","null","<div style=""font-size:60px;"">+</div>","null","","fixation","","","","","","","","","","",""
"aa-learning-trial","260","919420","0.0-11.0-2.0-1.35","4052","1","18","Female","approach_avoid_spark_v1","
","
","
","
","
","","","","","","1118.2000000476837","images/sheep6.png","","","learning","-2","0","0","0","sheep","animals","2","1","","neutral","0"
"html-keyboard-response","261","919926","0.0-11.0-2.0-0.36","4052","1","18","Female","approach_avoid_spark_v1","
","
","
","
","
","","","","","","null","<div style=""font-size:60px;"">+</div>","null","","fixation","","","","","","","","","","",""
"aa-learning-trial","262","922933","0.0-11.0-2.0-1.36","4052","1","18","Female","approach_avoid_spark_v1","
","
","
","
","
","","","","","","1651.6000001430511","images/horse8.png","","","learning","2","0","0","0","horse","animals","2","1","","bad","[-4]"
"html-keyboard-response","263","923436","0.0-11.0-2.0-0.37","4052","1","18","Female","approach_avoid_spark_v1","
","
","
","
","
","","","","","","null","<div style=""font-size:60px;"">+</div>","null","","fixation","","","","","","","","","","",""
"aa-learning-trial","264","926444","0.0-11.0-2.0-1.37","4052","1","18","Female","approach_avoid_spark_v1","
","
","
","
","
","","","","","","1227.2000000476837","images/sheep7.png","","","learning","5","5","1","1","sheep","animals","2","1","","neutral","0"
"html-keyboard-response","265","926950","0.0-11.0-2.0-0.38","4052","1","18","Female","approach_avoid_spark_v1","
","
","
","
","
","","","","","","null","<div style=""font-size:60px;"">+</div>","null","","fixation","","","","","","","","","","",""
"aa-learning-trial","266","929958","0.0-11.0-2.0-1.38","4052","1","18","Female","approach_avoid_spark_v1","
","
","
","
","
","","","","","","983.3999998569489","images/horse5.png","","","learning","8","8","1","1","horse","animals","2","1","","bad","[-4]"
"html-keyboard-response","267","930465","0.0-11.0-2.0-0.39","4052","1","18","Female","approach_avoid_spark_v1","
","
","
","
","
","","","","","","null","<div style=""font-size:60px;"">+</div>","null","","fixation","","","","","","","","","","",""
"aa-learning-trial","268","933473","0.0-11.0-2.0-1.39","4052","1","18","Female","approach_avoid_spark_v1","
","
","
","
","
","","","","","","1243","images/goat2.png","","","learning","-4","-4","1","1","goat","animals","2","1","","good","[4]"
"html-keyboard-response","269","933980","0.0-11.0-2.0-0.40","4052","1","18","Female","approach_avoid_spark_v1","
","
","
","
","
","","","","","","null","<div style=""font-size:60px;"">+</div>","null","","fixation","","","","","","","","","","",""
"aa-learning-trial","270","936987","0.0-11.0-2.0-1.40","4052","1","18","Female","approach_avoid_spark_v1","
","
","
","
","
","","","","","","966.4000000953674","images/horse8.png","","","learning","2","2","1","1","horse","animals","2","1","","bad","[-4]"
"html-keyboard-response","271","937494","0.0-11.0-2.0-0.41","4052","1","18","Female","approach_avoid_spark_v1","
","
","
","
","
","","","","","","null","<div style=""font-size:60px;"">+</div>","null","","fixation","","","","","","","","","","",""
"aa-learning-trial","272","940503","0.0-11.0-2.0-1.41","4052","1","18","Female","approach_avoid_spark_v1","
","
","
","
","
","","","","","","748.3000001907349","images/goat3.png","","","learning","1","1","1","1","goat","animals","2","1","","good","[4]"
"html-keyboard-response","273","941009","0.0-11.0-2.0-0.42","4052","1","18","Female","approach_avoid_spark_v1","
","
","
","
","
","","","","","","null","<div style=""font-size:60px;"">+</div>","null","","fixation","","","","","","","","","","",""
"aa-learning-trial","274","944017","0.0-11.0-2.0-1.42","4052","1","18","Female","approach_avoid_spark_v1","
","
","
","
","
","","","","","","975.4000000953674","images/sheep2.png","","","learning","7","7","1","1","sheep","animals","2","1","","neutral","0"
"html-keyboard-response","275","944523","0.0-11.0-2.0-0.43","4052","1","18","Female","approach_avoid_spark_v1","
","
","
","
","
","","","","","","null","<div style=""font-size:60px;"">+</div>","null","","fixation","","","","","","","","","","",""
"aa-learning-trial","276","947531","0.0-11.0-2.0-1.43","4052","1","18","Female","approach_avoid_spark_v1","
","
","
","
","
","","","","","","1772.5","images/horse5.png","","","learning","8","0","0","0","horse","animals","2","1","","bad","[-4]"
"html-keyboard-response","277","948038","0.0-11.0-2.0-0.44","4052","1","18","Female","approach_avoid_spark_v1","
","
","
","
","
","","","","","","null","<div style=""font-size:60px;"">+</div>","null","","fixation","","","","","","","","","","",""
"aa-learning-trial","278","951046","0.0-11.0-2.0-1.44","4052","1","18","Female","approach_avoid_spark_v1","
","
","
","
","
","","","","","","1280.5","images/goat1.png","","","learning","-6","0","0","0","goat","animals","2","1","","good","[4]"
"html-keyboard-response","279","951552","0.0-11.0-2.0-0.45","4052","1","18","Female","approach_avoid_spark_v1","
","
","
","
","
","","","","","","null","<div style=""font-size:60px;"">+</div>","null","","fixation","","","","","","","","","","",""
"aa-learning-trial","280","954561","0.0-11.0-2.0-1.45","4052","1","18","Female","approach_avoid_spark_v1","
","
","
","
","
","","","","","","673.7999999523163","images/sheep4.png","","","learning","-7","-7","1","1","sheep","animals","2","1","","neutral","0"
"html-keyboard-response","281","955067","0.0-11.0-2.0-0.46","4052","1","18","Female","approach_avoid_spark_v1","
","
","
","
","
","","","","","","null","<div style=""font-size:60px;"">+</div>","null","","fixation","","","","","","","","","","",""
"aa-learning-trial","282","958075","0.0-11.0-2.0-1.46","4052","1","18","Female","approach_avoid_spark_v1","
","
","
","
","
","","","","","","1073","images/horse8.png","","","learning","2","2","1","1","horse","animals","2","1","","bad","[-4]"
"html-keyboard-response","283","958577","0.0-11.0-2.0-0.47","4052","1","18","Female","approach_avoid_spark_v1","
","
","
","
","
","","","","","","null","<div style=""font-size:60px;"">+</div>","null","","fixation","","","","","","","","","","",""
"aa-learning-trial","284","961585","0.0-11.0-2.0-1.47","4052","1","18","Female","approach_avoid_spark_v1","
","
","
","
","
","","","","","","1891.8999998569489","images/sheep4.png","","","learning","-7","-7","1","1","sheep","animals","2","1","","neutral","0"
"html-keyboard-response","285","962091","0.0-11.0-2.0-0.48","4052","1","18","Female","approach_avoid_spark_v1","
","
","
","
","
","","","","","","null","<div style=""font-size:60px;"">+</div>","null","","fixation","","","","","","","","","","",""
"aa-learning-trial","286","965099","0.0-11.0-2.0-1.48","4052","1","18","Female","approach_avoid_spark_v1","
","
","
","
","
","","","","","","1414.7000000476837","images/horse1.png","","","learning","3","0","0","0","horse","animals","2","1","","bad","[-4]"
"html-keyboard-response","287","965602","0.0-11.0-2.0-0.49","4052","1","18","Female","approach_avoid_spark_v1","
","
","
","
","
","","","","","","null","<div style=""font-size:60px;"">+</div>","null","","fixation","","","","","","","","","","",""
"aa-learning-trial","288","968606","0.0-11.0-2.0-1.49","4052","1","18","Female","approach_avoid_spark_v1","
","
","
","
","
","","","","","","1857.4000000953674","images/horse5.png","","","learning","8","0","0","0","horse","animals","2","1","","bad","[-4]"
"html-keyboard-response","289","969110","0.0-11.0-2.0-0.50","4052","1","18","Female","approach_avoid_spark_v1","
","
","
","
","
","","","","","","null","<div style=""font-size:60px;"">+</div>","null","","fixation","","","","","","","","","","",""
"aa-learning-trial","290","972119","0.0-11.0-2.0-1.50","4052","1","18","Female","approach_avoid_spark_v1","
","
","
","
","
","","","","","","703.2999999523163","images/sheep7.png","","","learning","5","5","1","1","sheep","animals","2","1","","neutral","0"
"html-button-response","291","974575","0.0-11.0-3.0","4052","1","18","Female","approach_avoid_spark_v1","
","
","
","
","
","","","","","","2452.7999999523163","<p> You have completed the round! <p> In this round, you earned 96 points! </p>","0","","break","","","","","","","","","","",""
"html-button-response","292","975567","0.0-12.0","4052","1","18","Female","approach_avoid_spark_v1","
","
","
","
","
","","","","","","990.2999999523163","<p> Now it's time to play another round. </p>","0","","transition_screen","","","","","","","","","","",""
"preload","293","975690","0.0-13.0-0.0","4052","1","18","Female","approach_avoid_spark_v1","
","
","
","
","
","true","false","[]","[]","[]","","","","","","","","","","","","","","","",""
"learning-instructions","294","982954","0.0-13.0-1.0-0.0","4052","1","18","Female","approach_avoid_spark_v1","
","
","
","
","
","","","","","","2570.4000000953674","<p> Your goal in this round is to take care of lots of animals. </p></div>","","0","instructions","","","","","","","","","","",""
"learning-instructions","295","992608","0.0-13.0-1.0-0.1","4052","1","18","Female","approach_avoid_spark_v1","
","
","
","
","
","","","","","","511.7000000476837","<p> Some animals want to be pet, while other animals want to be left alone.  </p><p> On each turn, you will see an animal.   </p><p> You need to decide whether to pet it or not.  </p>","","0","instructions","","","","","","","","","","",""
"learning-instructions","296","997956","0.0-13.0-1.0-0.2","4052","1","18","Female","approach_avoid_spark_v1","
","
","
","
","
","","","","","","499.39999985694885","<p> You can pet the animal by pressing 1 and leave the animal alone by pressing 0. </p><br><div class=""choice-instructions-grid""> <div class=""choice-option""><img src=""images/approach.png"" class=""choice-option-img"" stage=""instructions"" position=""0"" ><div class=""choice-option-text""> Press ""1."" </div></div><div class=""choice-option""><img src=""images/avoid.png"" class=""choice-option-img"" stage=""instructions"" position=""1"" ><div class=""choice-option-text""> Press ""0."" </div></div>","","0","instructions","","","","","","","","","","",""
"learning-instructions","297","1006807","0.0-13.0-1.0-0.3","4052","1","18","Female","approach_avoid_spark_v1","
","
","
","
","
","","","","","","444.5","<p> If you pet an animal that wants to be pet, you will make it feel happy! </p><p> But if you pet an animal that wants to be left alone, you will make it feel angry. </p>","","0","instructions","","","","","","","","","","",""
"learning-instructions","298","1020366","0.0-13.0-1.0-0.4","4052","1","18","Female","approach_avoid_spark_v1","
","
","
","
","
","","","","","","814.1000001430511","<p> You will earn points based on how you made the animal feel. </p><p> If you made it feel happy, you will WIN anywhere from 1 - 9 points, </p><p> but if you made it feel angry, you will LOSE anywhere from 1 - 9 points. </p>","","0","instructions","","","","","","","","","","",""
"learning-instructions","299","1028397","0.0-13.0-1.0-0.5","4052","1","18","Female","approach_avoid_spark_v1","
","
","
","
","
","","","","","","1379.3000001907349","<p> You will see how many points you won or lost in the center of the screen. </p><p> Here is what you would see if you won 5 points: </p><p style=""color:green;font-size:50px;font-weight:bolder"">5</p>","","0","instructions","","","","","","","","","","",""
"learning-instructions","300","1032301","0.0-13.0-1.0-0.6","4052","1","18","Female","approach_avoid_spark_v1","
","
","
","
","
","","","","","","1069.5","<p> And here is what you would see if you lost 3 points: </p><p style=""color:red;font-size:50px;font-weight:bolder"">-3</p>","","0","instructions","","","","","","","","","","",""
"learning-instructions","301","1046339","0.0-13.0-1.0-0.7","4052","1","18","Female","approach_avoid_spark_v1","
","
","
","
","
","","","","","","323.69999980926514","<p> Some animals will become very happy or very angry. </p><p> These animals will make you win or lose LOTS of points. </p><p> Other animals have less strong feelings. </p><p> These animals will make you win or lose small amounts of points. </p>","","0","instructions","","","","","","","","","","",""
"learning-instructions","302","1058155","0.0-13.0-1.0-0.8","4052","1","18","Female","approach_avoid_spark_v1","
","
","
","
","
","","","","","","832.7999999523163","<p> If you choose to leave the animal alone, you will not win or lose any points. </p><p>  However, in the center of the screen, you will see the number of points you WOULD HAVE won or lost if you had pet the animal. </p>","","0","instructions","","","","","","","","","","",""
"learning-instructions","303","1070215","0.0-13.0-1.0-0.9","4052","1","18","Female","approach_avoid_spark_v1","
","
","
","
","
","","","","","","663.8999998569489","<p> Here is what you might see if you did not pet the animal but the animal wanted to be pet: </p><p style=""color:grey; font-size:50px; display: inline-block; border-spacing: 15px; border-width:3px; border-style:solid; border-color:red"">  &nbsp; 6 &nbsp; </p><p> Remember, in this case, you would not win or lose ANY points because you did not pet the animal.  </p>","","0","instructions","","","","","","","","","","",""
"learning-instructions","304","1077775","0.0-13.0-1.0-0.10","4052","1","18","Female","approach_avoid_spark_v1","
","
","
","
","
","","","","","","688.6000001430511","<p> Try to make the best choice for each animal because </p><p> at the end of the game, you will earn bonus money based on how many points you earned. </p>","","0","instructions","","","","","","","","","","",""
"learning-instructions","305","1087126","0.0-13.0-1.0-0.11","4052","1","18","Female","approach_avoid_spark_v1","
","
","
","
","
","","","","","","1165.4000000953674","<p> You will have 3 seconds to make each choice. Try to respond before time runs out! </p><p> You will lose 5 points each time you do not make a response. </p>","","0","instructions","","","","","","","","","","",""
"html-keyboard-response","306","1087732","0.0-13.0-2.0-0.0","4052","1","18","Female","approach_avoid_spark_v1","
","
","
","
","
","","","","","","null","<div style=""font-size:60px;"">+</div>","null","","fixation","","","","","","","","","","",""
"aa-learning-trial","307","1090737","0.0-13.0-2.0-1.0","4052","1","18","Female","approach_avoid_spark_v1","
","
","
","
","
","","","","","","2456.5","images/rodent3.png","","","learning","-4","-4","1","1","rodent","pets","1","2","","bad","[-3]"
"html-keyboard-response","308","1091241","0.0-13.0-2.0-0.1","4052","1","18","Female","approach_avoid_spark_v1","
","
","
","
","
","","","","","","null","<div style=""font-size:60px;"">+</div>","null","","fixation","","","","","","","","","","",""
"aa-learning-trial","309","1094246","0.0-13.0-2.0-1.1","4052","1","18","Female","approach_avoid_spark_v1","
","
","
","
","
","","","","","","1157.0999999046326","images/rodent5.png","","","learning","-5","-5","1","1","rodent","pets","1","2","","bad","[-3]"
"html-keyboard-response","310","1094751","0.0-13.0-2.0-0.2","4052","1","18","Female","approach_avoid_spark_v1","
","
","
","
","
","","","","","","null","<div style=""font-size:60px;"">+</div>","null","","fixation","","","","","","","","","","",""
"aa-learning-trial","311","1097755","0.0-13.0-2.0-1.2","4052","1","18","Female","approach_avoid_spark_v1","
","
","
","
","
","","","","","","579.1000001430511","images/rabbit4.png","","","learning","5","5","1","1","rabbit","pets","1","2","","good","[5]"
"html-keyboard-response","312","1098260","0.0-13.0-2.0-0.3","4052","1","18","Female","approach_avoid_spark_v1","
","
","
","
","
","","","","","","null","<div style=""font-size:60px;"">+</div>","null","","fixation","","","","","","","","","","",""
"aa-learning-trial","313","1101268","0.0-13.0-2.0-1.3","4052","1","18","Female","approach_avoid_spark_v1","
","
","
","
","
","","","","","","577.1000001430511","images/rabbit3.png","","","learning","4","4","1","1","rabbit","pets","1","2","","good","[5]"
"html-keyboard-response","314","1101773","0.0-13.0-2.0-0.4","4052","1","18","Female","approach_avoid_spark_v1","
","
","
","
","
","","","","","","null","<div style=""font-size:60px;"">+</div>","null","","fixation","","","","","","","","","","",""
"aa-learning-trial","315","1104777","0.0-13.0-2.0-1.4","4052","1","18","Female","approach_avoid_spark_v1","
","
","
","
","
","","","","","","651.5","images/rodent4.png","","","learning","-3","0","0","0","rodent","pets","1","2","","bad","[-3]"
"html-keyboard-response","316","1105284","0.0-13.0-2.0-0.5","4052","1","18","Female","approach_avoid_spark_v1","
","
","
","
","
","","","","","","null","<div style=""font-size:60px;"">+</div>","null","","fixation","","","","","","","","","","",""
"aa-learning-trial","317","1108292","0.0-13.0-2.0-1.5","4052","1","18","Female","approach_avoid_spark_v1","
","
","
","
","
","","","","","","533.2999999523163","images/rabbit4.png","","","learning","4","4","1","1","rabbit","pets","1","2","","good","[5]"
"html-keyboard-response","318","1108794","0.0-13.0-2.0-0.6","4052","1","18","Female","approach_avoid_spark_v1","
","
","
","
","
","","","","","","null","<div style=""font-size:60px;"">+</div>","null","","fixation","","","","","","","","","","",""
"aa-learning-trial","319","1111798","0.0-13.0-2.0-1.6","4052","1","18","Female","approach_avoid_spark_v1","
","
","
","
","
","","","","","","1007.2999999523163","images/dog7.png","","","learning","-2","-2","1","1","dog","pets","1","2","","neutral","0"
"html-keyboard-response","320","1112303","0.0-13.0-2.0-0.7","4052","1","18","Female","approach_avoid_spark_v1","
","
","
","
","
","","","","","","null","<div style=""font-size:60px;"">+</div>","null","","fixation","","","","","","","","","","",""
"aa-learning-trial","321","1115311","0.0-13.0-2.0-1.7","4052","1","18","Female","approach_avoid_spark_v1","
","
","
","
","
","","","","","","588.6999998092651","images/rabbit6.png","","","learning","6","6","1","1","rabbit","pets","1","2","","good","[5]"
"html-keyboard-response","322","1115814","0.0-13.0-2.0-0.8","4052","1","18","Female","approach_avoid_spark_v1","
","
","
","
","
","","","","","","null","<div style=""font-size:60px;"">+</div>","null","","fixation","","","","","","","","","","",""
"aa-learning-trial","323","1118818","0.0-13.0-2.0-1.8","4052","1","18","Female","approach_avoid_spark_v1","
","
","
","
","
","","","","","","1218.4000000953674","images/dog6.png","","","learning","1","1","1","1","dog","pets","1","2","","neutral","0"
"html-keyboard-response","324","1119321","0.0-13.0-2.0-0.9","4052","1","18","Female","approach_avoid_spark_v1","
","
","
","
","
","","","","","","null","<div style=""font-size:60px;"">+</div>","null","","fixation","","","","","","","","","","",""
"aa-learning-trial","325","1122329","0.0-13.0-2.0-1.9","4052","1","18","Female","approach_avoid_spark_v1","
","
","
","
","
","","","","","","628","images/dog6.png","","","learning","-2","-2","1","1","dog","pets","1","2","","neutral","0"
"html-keyboard-response","326","1122832","0.0-13.0-2.0-0.10","4052","1","18","Female","approach_avoid_spark_v1","
","
","
","
","
","","","","","","null","<div style=""font-size:60px;"">+</div>","null","","fixation","","","","","","","","","","",""
"aa-learning-trial","327","1125836","0.0-13.0-2.0-1.10","4052","1","18","Female","approach_avoid_spark_v1","
","
","
","
","
","","","","","","690.2999999523163","images/rodent4.png","","","learning","-3","0","0","0","rodent","pets","1","2","","bad","[-3]"
"html-keyboard-response","328","1126340","0.0-13.0-2.0-0.11","4052","1","18","Female","approach_avoid_spark_v1","
","
","
","
","
","","","","","","null","<div style=""font-size:60px;"">+</div>","null","","fixation","","","","","","","","","","",""
"aa-learning-trial","329","1129348","0.0-13.0-2.0-1.11","4052","1","18","Female","approach_avoid_spark_v1","
","
","
","
","
","","","","","","1072.9000000953674","images/dog7.png","","","learning","[1]","0","0","0","dog","pets","1","2","","neutral","0"
"html-keyboard-response","330","1129851","0.0-13.0-2.0-0.12","4052","1","18","Female","approach_avoid_spark_v1","
","
","
","
","
","","","","","","null","<div style=""font-size:60px;"">+</div>","null","","fixation","","","","","","","","","","",""
"aa-learning-trial","331","1132857","0.0-13.0-2.0-1.12","4052","1","18","Female","approach_avoid_spark_v1","
","
","
","
","
","","","","","","620.8999998569489","images/rodent5.png","","","learning","-4","0","0","0","rodent","pets","1","2","","bad","[-3]"
"html-keyboard-response","332","1133364","0.0-13.0-2.0-0.13","4052","1","18","Female","approach_avoid_spark_v1","
","
","
","
","
","","","","","","null","<div style=""font-size:60px;"">+</div>","null","","fixation","","","","","","","","","","",""
"aa-learning-trial","333","1136372","0.0-13.0-2.0-1.13","4052","1","18","Female","approach_avoid_spark_v1","
","
","
","
","
","","","","","","522.5","images/rabbit3.png","","","learning","5","5","1","1","rabbit","pets","1","2","","good","[5]"
"html-keyboard-response","334","1136874","0.0-13.0-2.0-0.14","4052","1","18","Female","approach_avoid_spark_v1","
","
","
","
","
","","","","","","null","<div style=""font-size:60px;"">+</div>","null","","fixation","","","","","","","","","","",""
"aa-learning-trial","335","1139881","0.0-13.0-2.0-1.14","4052","1","18","Female","approach_avoid_spark_v1","
","
","
","
","
","","","","","","803.5","images/dog5.png","","","learning","-1","0","0","0","dog","pets","1","2","","neutral","0"
"html-keyboard-response","336","1140388","0.0-13.0-2.0-0.15","4052","1","18","Female","approach_avoid_spark_v1","
","
","
","
","
","","","","","","null","<div style=""font-size:60px;"">+</div>","null","","fixation","","","","","","","","","","",""
"aa-learning-trial","337","1143396","0.0-13.0-2.0-1.15","4052","1","18","Female","approach_avoid_spark_v1","
","
","
","
","
","","","","","","646.5","images/rodent7.png","","","learning","-2","0","0","0","rodent","pets","1","2","","bad","[-3]"
"html-keyboard-response","338","1143902","0.0-13.0-2.0-0.16","4052","1","18","Female","approach_avoid_spark_v1","
","
","
","
","
","","","","","","null","<div style=""font-size:60px;"">+</div>","null","","fixation","","","","","","","","","","",""
"aa-learning-trial","339","1146910","0.0-13.0-2.0-1.16","4052","1","18","Female","approach_avoid_spark_v1","
","
","
","
","
","","","","","","666","images/rodent3.png","","","learning","-3","0","0","0","rodent","pets","1","2","","bad","[-3]"
"html-keyboard-response","340","1147417","0.0-13.0-2.0-0.17","4052","1","18","Female","approach_avoid_spark_v1","
","
","
","
","
","","","","","","null","<div style=""font-size:60px;"">+</div>","null","","fixation","","","","","","","","","","",""
"aa-learning-trial","341","1150425","0.0-13.0-2.0-1.17","4052","1","18","Female","approach_avoid_spark_v1","
","
","
","
","
","","","","","","1037.6999998092651","images/dog8.png","","","learning","[-1]","0","0","0","dog","pets","1","2","","neutral","0"
"html-keyboard-response","342","1150926","0.0-13.0-2.0-0.18","4052","1","18","Female","approach_avoid_spark_v1","
","
","
","
","
","","","","","","null","<div style=""font-size:60px;"">+</div>","null","","fixation","","","","","","","","","","",""
"aa-learning-trial","343","1153934","0.0-13.0-2.0-1.18","4052","1","18","Female","approach_avoid_spark_v1","
","
","
","
","
","","","","","","631","images/rodent5.png","","","learning","-5","0","0","0","rodent","pets","1","2","","bad","[-3]"
"html-keyboard-response","344","1154440","0.0-13.0-2.0-0.19","4052","1","18","Female","approach_avoid_spark_v1","
","
","
","
","
","","","","","","null","<div style=""font-size:60px;"">+</div>","null","","fixation","","","","","","","","","","",""
"aa-learning-trial","345","1157449","0.0-13.0-2.0-1.19","4052","1","18","Female","approach_avoid_spark_v1","
","
","
","
","
","","","","","","491.2999999523163","images/rabbit3.png","","","learning","5","5","1","1","rabbit","pets","1","2","","good","[5]"
