"trial_type","trial_index","time_elapsed","internal_node_id","subject_id","task_condition","age","gender","task_version","interactions","blur_events","focus_events","fullscreenenter_events","fullscreenexit_events","success","timeout","failed_images","failed_audio","failed_video","rt","stimulus","response","button_pressed","task_part","approach_reward","points","key_press","option_selected","stim_cat","task_block","block_condition","block_number","correct","cat_type","mean_cat_reward"
"pavlovia","0","29","0.0-0.0","5723","1","12","Male","approach_avoid_spark_v1","""event"",""trial"",""time""
""fullscreenenter"",""1"",""9679""
","
","
","""event"",""trial"",""time""
""fullscreenenter"",""1"",""9679""
","
","","","","","","","","","","","","","","","","","","","","",""
"fullscreen","1","10584","0.0-1.0","5723","1","12","Male","approach_avoid_spark_v1","""event"",""trial"",""time""
""fullscreenenter"",""1"",""9679""
","
","
","""event"",""trial"",""time""
""fullscreenenter"",""1"",""9679""
","
","true","","","","","","","","","","","","","","","","","","","",""
"preload","2","15155","0.0-2.0","5723","1","12","Male","approach_avoid_spark_v1","""event"",""trial"",""time""
""fullscreenenter"",""1"",""9679""
","
","
","""event"",""trial"",""time""
""fullscreenenter"",""1"",""9679""
","
","true","false","[]","[]","[]","","","","","","","","","","","","","","","",""
"audio-keyboard-response","3","17540","0.0-3.0","5723","1","12","Male","approach_avoid_spark_v1","""event"",""trial"",""time""
""fullscreenenter"",""1"",""9679""
","
","
","""event"",""trial"",""time""
""fullscreenenter"",""1"",""9679""
","
","","","","","","2381.333333333333","audio/beep_loop.wav"," ","","","","","","","","","","","","",""
"audio-button-response","4","19882","0.0-4.0","5723","1","12","Male","approach_avoid_spark_v1","""event"",""trial"",""time""
""fullscreenenter"",""1"",""9679""
","
","
","""event"",""trial"",""time""
""fullscreenenter"",""1"",""9679""
","
","","","","","","2328","audio/shark.wav","4","","","","","","","","","","","","",""
"audio-button-response","5","22915","0.0-5.0","5723","1","12","Male","approach_avoid_spark_v1","""event"",""trial"",""time""
""fullscreenenter"",""1"",""9679""
","
","
","""event"",""trial"",""time""
""fullscreenenter"",""1"",""9679""
","
","","","","","","2019","audio/turtle.wav","1","","","","","","","","","","","","",""
"preload","6","25477","0.0-6.0","5723","1","12","Male","approach_avoid_spark_v1","""event"",""trial"",""time""
""fullscreenenter"",""1"",""9679""
","
","
","""event"",""trial"",""time""
""fullscreenenter"",""1"",""9679""
","
","true","false","[]","[]","[]","","","","","","","","","","","","","","","",""
"html-keyboard-response","7","28687","0.0-7.0","5723","1","12","Male","approach_avoid_spark_v1","""event"",""trial"",""time""
""fullscreenenter"",""1"",""9679""
","
","
","""event"",""trial"",""time""
""fullscreenenter"",""1"",""9679""
","
","","","","","","3206","Welcome to the experiment. Press any key to begin and to advance the instructions."," ","","","","","","","","","","","","",""
"learning-instructions","8","37066","0.0-8.0-0.0-0.0","5723","1","12","Male","approach_avoid_spark_v1","""event"",""trial"",""time""
""fullscreenenter"",""1"",""9679""
","
","
","""event"",""trial"",""time""
""fullscreenenter"",""1"",""9679""
","
","","","","","","1422.9000000003725","<p> Welcome! Today you are going to play 6 different rounds of a decision-making game. </p><p> Use the mouse to click next to continue. </p>","","0","instructions","","","","","","","","","","",""
"learning-instructions","9","41238","0.0-8.0-0.0-0.1","5723","1","12","Male","approach_avoid_spark_v1","""event"",""trial"",""time""
""fullscreenenter"",""1"",""9679""
","
","
","""event"",""trial"",""time""
""fullscreenenter"",""1"",""9679""
","
","","","","","","1434.199999999255","<p> You will start with a practice round to learn the rules. </p>","","0","instructions","","","","","","","","","","",""
"learning-instructions","10","48106","0.0-8.0-0.0-0.2","5723","1","12","Male","approach_avoid_spark_v1","""event"",""trial"",""time""
""fullscreenenter"",""1"",""9679""
","
","
","""event"",""trial"",""time""
""fullscreenenter"",""1"",""9679""
","
","","","","","","3403.7000000001863","<p> Your goal in this round is to give out sports equipment to kids. </p></div>","","0","instructions","","","","","","","","","","",""
"learning-instructions","11","56694","0.0-8.0-0.0-0.3","5723","1","12","Male","approach_avoid_spark_v1","""event"",""trial"",""time""
""fullscreenenter"",""1"",""9679""
","
","
","""event"",""trial"",""time""
""fullscreenenter"",""1"",""9679""
","
","","","","","","1019.7999999998137","<p> The kids only like some of the equipment.  </p><p> On each turn, you will see a piece of sports equipment.   </p><p> You need to decide whether to give it to the kids or not.  </p>","","0","instructions","","","","","","","","","","",""
"learning-instructions","12","64078","0.0-8.0-0.0-0.4","5723","1","12","Male","approach_avoid_spark_v1","""event"",""trial"",""time""
""fullscreenenter"",""1"",""9679""
","
","
","""event"",""trial"",""time""
""fullscreenenter"",""1"",""9679""
","
","","","","","","2621.0999999996275","<p> You can give them the equipment by pressing 1 and choose not to give it to them by pressing 0. </p><br><div class=""choice-instructions-grid""> <div class=""choice-option""><img src=""images/approach.png"" class=""choice-option-img"" stage=""instructions"" position=""0"" ><div class=""choice-option-text""> Press ""1."" </div></div><div class=""choice-option""><img src=""images/avoid.png"" class=""choice-option-img"" stage=""instructions"" position=""1"" ><div class=""choice-option-text""> Press ""0."" </div></div>","","0","instructions","","","","","","","","","","",""
"learning-instructions","13","72678","0.0-8.0-0.0-0.5","5723","1","12","Male","approach_avoid_spark_v1","""event"",""trial"",""time""
""fullscreenenter"",""1"",""9679""
","
","
","""event"",""trial"",""time""
""fullscreenenter"",""1"",""9679""
","
","","","","","","1220.5999999996275","<p> If you give them a piece of equipment they like, they will be happy! </p><p> But if you give them a piece of equipment they do not like, they will be sad. </p>","","0","instructions","","","","","","","","","","",""
"learning-instructions","14","84636","0.0-8.0-0.0-0.6","5723","1","12","Male","approach_avoid_spark_v1","""event"",""trial"",""time""
""fullscreenenter"",""1"",""9679""
","
","
","""event"",""trial"",""time""
""fullscreenenter"",""1"",""9679""
","
","","","","","","1424","<p> You will earn points based on how you make kids feel. </p><p> If you make them happy, you will WIN anywhere from 1 - 9 points, </p><p> but if you make them sad, you will LOSE anywhere from 1 - 9 points. </p>","","0","instructions","","","","","","","","","","",""
"learning-instructions","15","96226","0.0-8.0-0.0-0.7","5723","1","12","Male","approach_avoid_spark_v1","""event"",""trial"",""time""
""fullscreenenter"",""1"",""9679""
","
","
","""event"",""trial"",""time""
""fullscreenenter"",""1"",""9679""
","
","","","","","","2006.5","<p> You will see how many points you won or lost in the center of the screen. </p><p> Here is what you would see if you won 6 points: </p><p style=""color:green;font-size:50px;font-weight:bolder"">6</p><p style=""color:green"">The text is GREEN because you WON points.</p>","","0","instructions","","","","","","","","","","",""
"learning-instructions","16","102969","0.0-8.0-0.0-0.8","5723","1","12","Male","approach_avoid_spark_v1","""event"",""trial"",""time""
""fullscreenenter"",""1"",""9679""
","
","
","""event"",""trial"",""time""
""fullscreenenter"",""1"",""9679""
","
","","","","","","1221.8999999994412","<p> And here is what you would see if you lost 4 points: </p><p style=""color:red;font-size:50px;font-weight:bolder"">-4</p><p style=""color:red"">The text is RED because you LOST points. </p>","","0","instructions","","","","","","","","","","",""
"learning-instructions","17","119185","0.0-8.0-0.0-0.9","5723","1","12","Male","approach_avoid_spark_v1","""event"",""trial"",""time""
""fullscreenenter"",""1"",""9679""
","
","
","""event"",""trial"",""time""
""fullscreenenter"",""1"",""9679""
","
","","","","","","1486.4000000003725","<p> Some of the equipment will make the kids VERY happy or sad. </p><p> These pieces of equipment will make you win or lose LOTS of points. </p><p> Other pieces of equipment will only make the kids a little happy or sad. </p><p> These pieces of equipment will make you win or lose small amounts of points. </p>","","0","instructions","","","","","","","","","","",""
"learning-instructions","18","130812","0.0-8.0-0.0-0.10","5723","1","12","Male","approach_avoid_spark_v1","""event"",""trial"",""time""
""fullscreenenter"",""1"",""9679""
","
","
","""event"",""trial"",""time""
""fullscreenenter"",""1"",""9679""
","
","","","","","","994.5999999996275","<p> If you choose not to give them the equipment, you will not win or lose any points. </p><p>  However, in the center of the screen, you will see the number of points you WOULD HAVE won or lost if you had given them the equipment. </p>","","0","instructions","","","","","","","","","","",""
"learning-instructions","19","153939","0.0-8.0-0.0-0.11","5723","1","12","Male","approach_avoid_spark_v1","""event"",""trial"",""time""
""fullscreenenter"",""1"",""9679""
","
","
","""event"",""trial"",""time""
""fullscreenenter"",""1"",""9679""
","
","","","","","","1589.4000000003725","<p> Here is what you might see if you did not give the equipment to the kids but it would have made them happy: </p><p style=""color:grey; font-size:50px; display: inline-block; border-spacing: 15px; border-width:3px; border-style:solid; border-color:red"">  &nbsp; 7 &nbsp; </p><p> Remember, in this case, you would not win or lose ANY points because you did not give them the equipment.  </p><p style=""color:grey"">The text is GREY because you earned ZERO points. </p><p style=""color:red"">However, choosing to give the kids the equipment would have made you win points. The box around the text is RED because you chose the worse option. </p>","","0","instructions","","","","","","","","","","",""
"learning-instructions","20","176193","0.0-8.0-0.0-0.12","5723","1","12","Male","approach_avoid_spark_v1","""event"",""trial"",""time""
""fullscreenenter"",""1"",""9679""
","
","
","""event"",""trial"",""time""
""fullscreenenter"",""1"",""9679""
","
","","","","","","1175.5","<p> Here is what you might see if you did not give the equipment to the kids but it would have made them sad: </p><p style=""color:grey;font-size:50px; display: inline-block; border-spacing: 15px; border-width:3px; border-style:solid; border-color:green"">  &nbsp; -8 &nbsp; </p><p> Remember, in this case, you would not win or lose ANY points because you did not give them the equipment.  </p><p style=""color:grey"">The text is GREY because you earned ZERO points. </p><p  style=""color:green""> Choosing to give the kids the equipment would have made you lose points. The box around the text is GREEN because you chose the better option.</p>","","0","instructions","","","","","","","","","","",""
"learning-instructions","21","191543","0.0-8.0-0.0-0.13","5723","1","12","Male","approach_avoid_spark_v1","""event"",""trial"",""time""
""fullscreenenter"",""1"",""9679""
","
","
","""event"",""trial"",""time""
""fullscreenenter"",""1"",""9679""
","
","","","","","","6955.4000000003725","<p> You will have 3 seconds to make each choice. Try to respond before time runs out! </p><p> You will lose 5 points each time you do not make a response. </p>","","0","instructions","","","","","","","","","","",""
"learning-instructions","22","198100","0.0-8.0-0.0-0.14","5723","1","12","Male","approach_avoid_spark_v1","""event"",""trial"",""time""
""fullscreenenter"",""1"",""9679""
","
","
","""event"",""trial"",""time""
""fullscreenenter"",""1"",""9679""
","
","","","","","","1120.5999999996275","<p> This is just a practice round, but in the real game, your bonus payment will depend on your total number of points.","","0","instructions","","","","","","","","","","",""
"learning-instructions","23","204689","0.0-8.0-0.0-0.15","5723","1","12","Male","approach_avoid_spark_v1","""event"",""trial"",""time""
""fullscreenenter"",""1"",""9679""
","
","
","""event"",""trial"",""time""
""fullscreenenter"",""1"",""9679""
","
","","","","","","820","<p> Remember, you can give them the equipment by pressing 1 and choose not to give it to them by pressing 0. </p><br><div class=""choice-instructions-grid""> <div class=""choice-option""><img src=""images/approach.png"" class=""choice-option-img"" stage=""instructions"" position=""0"" ><div class=""choice-option-text""> Press ""1."" </div></div><div class=""choice-option""><img src=""images/avoid.png"" class=""choice-option-img"" stage=""instructions"" position=""1"" ><div class=""choice-option-text""> Press ""0."" </div></div>","","0","instructions","","","","","","","","","","",""
"html-button-response","24","207821","0.0-8.0-1.0","5723","1","12","Male","approach_avoid_spark_v1","""event"",""trial"",""time""
""fullscreenenter"",""1"",""9679""
","
","
","""event"",""trial"",""time""
""fullscreenenter"",""1"",""9679""
","
","","","","","","3021","<p> Ready to practice? </p>","0","","","","","","","","","","","","",""
"html-keyboard-response","25","208434","0.0-8.0-2.0-0.0","5723","1","12","Male","approach_avoid_spark_v1","""event"",""trial"",""time""
""fullscreenenter"",""1"",""9679""
","
","
","""event"",""trial"",""time""
""fullscreenenter"",""1"",""9679""
","
","","","","","","null","<div style=""font-size:60px;"">+</div>","null","","fixation","","","","","","","","","","",""
"aa-learning-trial","26","211446","0.0-8.0-2.0-1.0","5723","1","12","Male","approach_avoid_spark_v1","""event"",""trial"",""time""
""fullscreenenter"",""1"",""9679""
","
","
","""event"",""trial"",""time""
""fullscreenenter"",""1"",""9679""
","
","","","","","","1499.0999999996275","images/racket3.png","","","learning","8","-5","end","","practice","practice","practice","-1","","",""
"html-keyboard-response","27","211957","0.0-8.0-2.0-0.1","5723","1","12","Male","approach_avoid_spark_v1","""event"",""trial"",""time""
""fullscreenenter"",""1"",""9679""
","
","
","""event"",""trial"",""time""
""fullscreenenter"",""1"",""9679""
","
","","","","","","null","<div style=""font-size:60px;"">+</div>","null","","fixation","","","","","","","","","","",""
"aa-learning-trial","28","214966","0.0-8.0-2.0-1.1","5723","1","12","Male","approach_avoid_spark_v1","""event"",""trial"",""time""
""fullscreenenter"",""1"",""9679""
","
","
","""event"",""trial"",""time""
""fullscreenenter"",""1"",""9679""
","
","","","","","","2035","images/racket4.png","","","learning","4","-5","insert","","practice","practice","practice","-1","","",""
"html-keyboard-response","29","215485","0.0-8.0-2.0-0.2","5723","1","12","Male","approach_avoid_spark_v1","""event"",""trial"",""time""
""fullscreenenter"",""1"",""9679""
","
","
","""event"",""trial"",""time""
""fullscreenenter"",""1"",""9679""
","
","","","","","","null","<div style=""font-size:60px;"">+</div>","null","","fixation","","","","","","","","","","",""
"aa-learning-trial","30","218499","0.0-8.0-2.0-1.2","5723","1","12","Male","approach_avoid_spark_v1","""event"",""trial"",""time""
""fullscreenenter"",""1"",""9679""
","
","
","""event"",""trial"",""time""
""fullscreenenter"",""1"",""9679""
","
","","","","","","2084.699999999255","images/racket2.png","","","learning","-4","-5","end","","practice","practice","practice","-1","","",""
"html-keyboard-response","31","219025","0.0-8.0-2.0-0.3","5723","1","12","Male","approach_avoid_spark_v1","""event"",""trial"",""time""
""fullscreenenter"",""1"",""9679""
","
","
","""event"",""trial"",""time""
""fullscreenenter"",""1"",""9679""
","
","","","","","","null","<div style=""font-size:60px;"">+</div>","null","","fixation","","","","","","","","","","",""
"aa-learning-trial","32","222035","0.0-8.0-2.0-1.3","5723","1","12","Male","approach_avoid_spark_v1","""event"",""trial"",""time""
""fullscreenenter"",""1"",""9679""
","
","
","""event"",""trial"",""time""
""fullscreenenter"",""1"",""9679""
","
","","","","","","null","images/ball2.png","","","learning","2","-5","","null","practice","practice","practice","-1","","",""
"html-keyboard-response","33","222555","0.0-8.0-2.0-0.4","5723","1","12","Male","approach_avoid_spark_v1","""event"",""trial"",""time""
""fullscreenenter"",""1"",""9679""
","
","
","""event"",""trial"",""time""
""fullscreenenter"",""1"",""9679""
","
","","","","","","null","<div style=""font-size:60px;"">+</div>","null","","fixation","","","","","","","","","","",""
"aa-learning-trial","34","225576","0.0-8.0-2.0-1.4","5723","1","12","Male","approach_avoid_spark_v1","""event"",""trial"",""time""
""fullscreenenter"",""1"",""9679""
","
","
","""event"",""trial"",""time""
""fullscreenenter"",""1"",""9679""
","
","","","","","","1780.5","images/ball3.png","","","learning","-2","-5","end","","practice","practice","practice","-1","","",""
"html-keyboard-response","35","226086","0.0-8.0-2.0-0.5","5723","1","12","Male","approach_avoid_spark_v1","""event"",""trial"",""time""
""fullscreenenter"",""1"",""9679""
","
","
","""event"",""trial"",""time""
""fullscreenenter"",""1"",""9679""
","
","","","","","","null","<div style=""font-size:60px;"">+</div>","null","","fixation","","","","","","","","","","",""
"aa-learning-trial","36","229095","0.0-8.0-2.0-1.5","5723","1","12","Male","approach_avoid_spark_v1","""event"",""trial"",""time""
""fullscreenenter"",""1"",""9679""
","
","
","""event"",""trial"",""time""
""fullscreenenter"",""1"",""9679""
","
","","","","","","1267.7999999998137","images/racket3.png","","","learning","-2","-5","insert","","practice","practice","practice","-1","","",""
"html-keyboard-response","37","229616","0.0-8.0-2.0-0.6","5723","1","12","Male","approach_avoid_spark_v1","""event"",""trial"",""time""
""fullscreenenter"",""1"",""9679""
","
","
","""event"",""trial"",""time""
""fullscreenenter"",""1"",""9679""
","
","","","","","","null","<div style=""font-size:60px;"">+</div>","null","","fixation","","","","","","","","","","",""
"aa-learning-trial","38","232636","0.0-8.0-2.0-1.6","5723","1","12","Male","approach_avoid_spark_v1","""event"",""trial"",""time""
""fullscreenenter"",""1"",""9679""
","
","
","""event"",""trial"",""time""
""fullscreenenter"",""1"",""9679""
","
","","","","","","1675.7999999998137","images/ball1.png","","","learning","-2","-5","insert","","practice","practice","practice","-1","","",""
"html-keyboard-response","39","233159","0.0-8.0-2.0-0.7","5723","1","12","Male","approach_avoid_spark_v1","""event"",""trial"",""time""
""fullscreenenter"",""1"",""9679""
","
","
","""event"",""trial"",""time""
""fullscreenenter"",""1"",""9679""
","
","","","","","","null","<div style=""font-size:60px;"">+</div>","null","","fixation","","","","","","","","","","",""
"aa-learning-trial","40","236171","0.0-8.0-2.0-1.7","5723","1","12","Male","approach_avoid_spark_v1","""event"",""trial"",""time""
""fullscreenenter"",""1"",""9679""
","
","
","""event"",""trial"",""time""
""fullscreenenter"",""1"",""9679""
","
","","","","","","846.7999999998137","images/ball4.png","","","learning","-4","-5","end","","practice","practice","practice","-1","","",""
"html-keyboard-response","41","236676","0.0-8.0-2.0-0.8","5723","1","12","Male","approach_avoid_spark_v1","""event"",""trial"",""time""
""fullscreenenter"",""1"",""9679""
","
","
","""event"",""trial"",""time""
""fullscreenenter"",""1"",""9679""
","
","","","","","","null","<div style=""font-size:60px;"">+</div>","null","","fixation","","","","","","","","","","",""
"aa-learning-trial","42","239683","0.0-8.0-2.0-1.8","5723","1","12","Male","approach_avoid_spark_v1","""event"",""trial"",""time""
""fullscreenenter"",""1"",""9679""
","
","
","""event"",""trial"",""time""
""fullscreenenter"",""1"",""9679""
","
","","","","","","784.0999999996275","images/racket1.png","","","learning","-5","-5","end","","practice","practice","practice","-1","","",""
"html-keyboard-response","43","240193","0.0-8.0-2.0-0.9","5723","1","12","Male","approach_avoid_spark_v1","""event"",""trial"",""time""
""fullscreenenter"",""1"",""9679""
","
","
","""event"",""trial"",""time""
""fullscreenenter"",""1"",""9679""
","
","","","","","","null","<div style=""font-size:60px;"">+</div>","null","","fixation","","","","","","","","","","",""
"aa-learning-trial","44","243201","0.0-8.0-2.0-1.9","5723","1","12","Male","approach_avoid_spark_v1","""event"",""trial"",""time""
""fullscreenenter"",""1"",""9679""
","
","
","""event"",""trial"",""time""
""fullscreenenter"",""1"",""9679""
","
","","","","","","165.59999999962747","images/ball3.png","","","learning","5","-5","insert","","practice","practice","practice","-1","","",""
"html-keyboard-response","45","243705","0.0-8.0-2.0-0.10","5723","1","12","Male","approach_avoid_spark_v1","""event"",""trial"",""time""
""fullscreenenter"",""1"",""9679""
","
","
","""event"",""trial"",""time""
""fullscreenenter"",""1"",""9679""
","
","","","","","","null","<div style=""font-size:60px;"">+</div>","null","","fixation","","","","","","","","","","",""
"aa-learning-trial","46","246730","0.0-8.0-2.0-1.10","5723","1","12","Male","approach_avoid_spark_v1","""event"",""trial"",""time""
""fullscreenenter"",""1"",""9679""
","
","
","""event"",""trial"",""time""
""fullscreenenter"",""1"",""9679""
","
","","","","","","2800.2000000001863","images/ball1.png","","","learning","5","-5","end","","practice","practice","practice","-1","","",""
"html-keyboard-response","47","247234","0.0-8.0-2.0-0.11","5723","1","12","Male","approach_avoid_spark_v1","""event"",""trial"",""time""
""fullscreenenter"",""1"",""9679""
","
","
","""event"",""trial"",""time""
""fullscreenenter"",""1"",""9679""
","
","","","","","","null","<div style=""font-size:60px;"">+</div>","null","","fixation","","","","","","","","","","",""
"aa-learning-trial","48","250243","0.0-8.0-2.0-1.11","5723","1","12","Male","approach_avoid_spark_v1","""event"",""trial"",""time""
""fullscreenenter"",""1"",""9679""
","
","
","""event"",""trial"",""time""
""fullscreenenter"",""1"",""9679""
","
","","","","","","1199.0999999996275","images/ball4.png","","","learning","3","-5","end","","practice","practice","practice","-1","","",""
"html-button-response","49","252369","0.0-8.0-3.0","5723","1","12","Male","approach_avoid_spark_v1","""event"",""trial"",""time""
""fullscreenenter"",""1"",""9679""
","
","
","""event"",""trial"",""time""
""fullscreenenter"",""1"",""9679""
","
","","","","","","2122.7000000001863","<p> You earned -60 points in the practice round! </p>","0","","break","","","","","","","","","","",""
"learning-instructions","50","268097","0.0-8.0-4.0-0.0","5723","1","12","Male","approach_avoid_spark_v1","""event"",""trial"",""time""
""fullscreenenter"",""1"",""9679""
","
","
","""event"",""trial"",""time""
""fullscreenenter"",""1"",""9679""
","
","","","","","","9370.5","<p> It's almost time to start the real game. </p><p> Before you start, we're going to ask you a few questions about how the game works. </p>","","0","instructions","","","","","","","","","","",""
"preload","51","268938","0.0-8.0-5.0","5723","1","12","Male","approach_avoid_spark_v1","""event"",""trial"",""time""
""fullscreenenter"",""1"",""9679""
","
","
","""event"",""trial"",""time""
""fullscreenenter"",""1"",""9679""
","
","true","false","[]","[]","[]","","","","","","","","","","","","","","","",""
"comp-q","52","276081","0.0-8.0-6.0-0.0","5723","1","12","Male","approach_avoid_spark_v1","""event"",""trial"",""time""
""fullscreenenter"",""1"",""9679""
","
","
","""event"",""trial"",""time""
""fullscreenenter"",""1"",""9679""
","
","","","","","","2144.2999999998137","<p> <b> True or False? </b> </p><p> If you see a number in GREY, that means you earned that many points. </p>","","1","comp_question","","","","","","","","","true","",""
"comp-q","53","286632","0.0-8.0-6.0-1.0","5723","1","12","Male","approach_avoid_spark_v1","""event"",""trial"",""time""
""fullscreenenter"",""1"",""9679""
","
","
","""event"",""trial"",""time""
""fullscreenenter"",""1"",""9679""
","
","","","","","","2185.7000000001863","<p><b> That's right! </b> If you see a grey number, it means you earned ZERO points. <br> The grey numbers show the points you WOULD HAVE earned if you had made the other choice. </p>","","0","comp_answer","","","","","","","","","","",""
"comp-q","54","293840","0.0-8.0-7.0-0.0","5723","1","12","Male","approach_avoid_spark_v1","""event"",""trial"",""time""
""fullscreenenter"",""1"",""9679""
","
","
","""event"",""trial"",""time""
""fullscreenenter"",""1"",""9679""
","
","","","","","","2513.2999999998137","<p> <b> True or False? </b> </p><p> You will have as much time as you want to make each choice. </p>","","1","comp_question","","","","","","","","","true","",""
"comp-q","55","299828","0.0-8.0-7.0-1.0","5723","1","12","Male","approach_avoid_spark_v1","""event"",""trial"",""time""
""fullscreenenter"",""1"",""9679""
","
","
","""event"",""trial"",""time""
""fullscreenenter"",""1"",""9679""
","
","","","","","","1931.5","<p> <b> That's right! </b> You will only have 3 seconds to make each choice. </p>","","0","comp_answer","","","","","","","","","","",""
"comp-q","56","306234","0.0-8.0-8.0-0.0","5723","1","12","Male","approach_avoid_spark_v1","""event"",""trial"",""time""
""fullscreenenter"",""1"",""9679""
","
","
","""event"",""trial"",""time""
""fullscreenenter"",""1"",""9679""
","
","","","","","","1726.2000000001863","<p> <b> True or False? </b> </p><p> You should use the '1' and '0' keys to make your choices. </p>","","0","comp_question","","","","","","","","","true","",""
"comp-q","57","313219","0.0-8.0-8.0-1.0","5723","1","12","Male","approach_avoid_spark_v1","""event"",""trial"",""time""
""fullscreenenter"",""1"",""9679""
","
","
","""event"",""trial"",""time""
""fullscreenenter"",""1"",""9679""
","
","","","","","","2357","<p> <b> That's right! </b> You should use the '1' and '0' keys to make each choice. </p>","","0","comp_answer","","","","","","","","","","",""
"learning-instructions","58","336877","0.0-8.0-9.0-0.0","5723","1","12","Male","approach_avoid_spark_v1","""event"",""trial"",""time""
""fullscreenenter"",""1"",""9679""
","
","
","""event"",""trial"",""time""
""fullscreenenter"",""1"",""9679""
","
","","","","","","17376.099999999627","<p> It's now time to start the real game. </p>Do your best, because the points you earn in the next rounds will influence your bonus payment. </p>","","0","instructions","","","","","","","","","","",""
"preload","59","337049","0.0-9.0-0.0","5723","1","12","Male","approach_avoid_spark_v1","""event"",""trial"",""time""
""fullscreenenter"",""1"",""9679""
","
","
","""event"",""trial"",""time""
""fullscreenenter"",""1"",""9679""
","
","true","false","[]","[]","[]","","","","","","","","","","","","","","","",""
"learning-instructions","60","342013","0.0-9.0-1.0-0.0","5723","1","12","Male","approach_avoid_spark_v1","""event"",""trial"",""time""
""fullscreenenter"",""1"",""9679""
","
","
","""event"",""trial"",""time""
""fullscreenenter"",""1"",""9679""
","
","","","","","","2130.7000000001863","<p> Your goal in this round is to eat tasty fruit. </p></div>","","0","instructions","","","","","","","","","","",""
"learning-instructions","61","353555","0.0-9.0-1.0-0.1","5723","1","12","Male","approach_avoid_spark_v1","""event"",""trial"",""time""
""fullscreenenter"",""1"",""9679""
","
","
","""event"",""trial"",""time""
""fullscreenenter"",""1"",""9679""
","
","","","","","","2573","<p> Some of the fruits you will see are tasty. Others are rotten on the inside.  </p><p> On each turn, you will see a fruit.   </p><p> You need to decide whether to eat it or not.  </p>","","0","instructions","","","","","","","","","","",""
"learning-instructions","62","358994","0.0-9.0-1.0-0.2","5723","1","12","Male","approach_avoid_spark_v1","""event"",""trial"",""time""
""fullscreenenter"",""1"",""9679""
","
","
","""event"",""trial"",""time""
""fullscreenenter"",""1"",""9679""
","
","","","","","","1150.800000000745","<p> You can eat the fruit by pressing 1 and choose not to eat it by pressing 0. </p><br><div class=""choice-instructions-grid""> <div class=""choice-option""><img src=""images/approach.png"" class=""choice-option-img"" stage=""instructions"" position=""0"" ><div class=""choice-option-text""> Press ""1."" </div></div><div class=""choice-option""><img src=""images/avoid.png"" class=""choice-option-img"" stage=""instructions"" position=""1"" ><div class=""choice-option-text""> Press ""0."" </div></div>","","0","instructions","","","","","","","","","","",""
"learning-instructions","63","366625","0.0-9.0-1.0-0.3","5723","1","12","Male","approach_avoid_spark_v1","""event"",""trial"",""time""
""fullscreenenter"",""1"",""9679""
","
","
","""event"",""trial"",""time""
""fullscreenenter"",""1"",""9679""
","
","","","","","","864","<p> If you eat the fruit and it was tasty, you will win points! </p><p> But if you eat the fruit and it was rotten, you will lose points. </p>","","0","instructions","","","","","","","","","","",""
"learning-instructions","64","378493","0.0-9.0-1.0-0.4","5723","1","12","Male","approach_avoid_spark_v1","""event"",""trial"",""time""
""fullscreenenter"",""1"",""9679""
","
","
","""event"",""trial"",""time""
""fullscreenenter"",""1"",""9679""
","
","","","","","","1386.7999999998137","<p> You will earn points based on how tasty or rotten the fruit was. </p><p> If it was tasty, you will WIN anywhere from 1 - 9 points, </p><p> but if it was rotten, you will LOSE anywhere from 1 - 9 points. </p>","","0","instructions","","","","","","","","","","",""
"learning-instructions","65","388710","0.0-9.0-1.0-0.5","5723","1","12","Male","approach_avoid_spark_v1","""event"",""trial"",""time""
""fullscreenenter"",""1"",""9679""
","
","
","""event"",""trial"",""time""
""fullscreenenter"",""1"",""9679""
","
","","","","","","3279.0999999996275","<p> You will see how many points you won or lost in the center of the screen. </p><p> Here is what you would see if you earned 5 points: </p><p style=""color:green;font-size:50px;font-weight:bolder"">5</p>","","0","instructions","","","","","","","","","","",""
"learning-instructions","66","392818","0.0-9.0-1.0-0.6","5723","1","12","Male","approach_avoid_spark_v1","""event"",""trial"",""time""
""fullscreenenter"",""1"",""9679""
","
","
","""event"",""trial"",""time""
""fullscreenenter"",""1"",""9679""
","
","","","","","","1056.6000000005588","<p> And here is what you would see if you lost 3 points: </p><p style=""color:red;font-size:50px;font-weight:bolder"">-3</p>","","0","instructions","","","","","","","","","","",""
"learning-instructions","67","408072","0.0-9.0-1.0-0.7","5723","1","12","Male","approach_avoid_spark_v1","""event"",""trial"",""time""
""fullscreenenter"",""1"",""9679""
","
","
","""event"",""trial"",""time""
""fullscreenenter"",""1"",""9679""
","
","","","","","","2259.4000000003725","<p> Some fruit is very tasty or very rotten. </p><p> These fruits will make you win or lose LOTS of points. </p><p> Other fruits are only kind of tasty or kind of rotten. </p><p> These fruits will make you win or lose small amounts of points. </p>","","0","instructions","","","","","","","","","","",""
"learning-instructions","68","418662","0.0-9.0-1.0-0.8","5723","1","12","Male","approach_avoid_spark_v1","""event"",""trial"",""time""
""fullscreenenter"",""1"",""9679""
","
","
","""event"",""trial"",""time""
""fullscreenenter"",""1"",""9679""
","
","","","","","","965.7000000001863","<p> If you choose to not eat the fruit, you will not win or lose any points. </p><p>  However, in the center of the screen, you will see the number of points you WOULD HAVE earned if you had eaten the fruit. </p>","","0","instructions","","","","","","","","","","",""
"learning-instructions","69","429701","0.0-9.0-1.0-0.9","5723","1","12","Male","approach_avoid_spark_v1","""event"",""trial"",""time""
""fullscreenenter"",""1"",""9679""
","
","
","""event"",""trial"",""time""
""fullscreenenter"",""1"",""9679""
","
","","","","","","1918.5","<p> Here is what you might see if you did not eat the fruit but the fruit was tasty: </p><p style=""color:grey; font-size:50px; display: inline-block; border-spacing: 15px; border-width:3px; border-style:solid; border-color:red"">  &nbsp; 6 &nbsp; </p><p> Remember, in this case, you would not win or lose ANY points because you did not eat the fruit.  </p>","","0","instructions","","","","","","","","","","",""
"learning-instructions","70","437474","0.0-9.0-1.0-0.10","5723","1","12","Male","approach_avoid_spark_v1","""event"",""trial"",""time""
""fullscreenenter"",""1"",""9679""
","
","
","""event"",""trial"",""time""
""fullscreenenter"",""1"",""9679""
","
","","","","","","642.0999999996275","<p> Try to make the best choice for each fruit because </p><p> at the end of the game, you will earn bonus money based on how many points you earned. </p>","","0","instructions","","","","","","","","","","",""
"learning-instructions","71","447511","0.0-9.0-1.0-0.11","5723","1","12","Male","approach_avoid_spark_v1","""event"",""trial"",""time""
""fullscreenenter"",""1"",""9679""
","
","
","""event"",""trial"",""time""
""fullscreenenter"",""1"",""9679""
","
","","","","","","1835.6000000005588","<p> You will have 3 seconds to make each choice. Try to respond before time runs out! </p><p> You will lose 5 points each time you do not make a response. </p>","","0","instructions","","","","","","","","","","",""
"html-keyboard-response","72","448139","0.0-9.0-2.0-0.0","5723","1","12","Male","approach_avoid_spark_v1","""event"",""trial"",""time""
""fullscreenenter"",""1"",""9679""
","
","
","""event"",""trial"",""time""
""fullscreenenter"",""1"",""9679""
","
","","","","","","null","<div style=""font-size:60px;"">+</div>","null","","fixation","","","","","","","","","","",""
"aa-learning-trial","73","451159","0.0-9.0-2.0-1.0","5723","1","12","Male","approach_avoid_spark_v1","""event"",""trial"",""time""
""fullscreenenter"",""1"",""9679""
","
","
","""event"",""trial"",""time""
""fullscreenenter"",""1"",""9679""
","
","","","","","","1805.7999999998137","images/straw1.png","","","learning","-4","-4","1","1","straw","fruit","1","0","","bad","[-5]"
"html-keyboard-response","74","451682","0.0-9.0-2.0-0.1","5723","1","12","Male","approach_avoid_spark_v1","""event"",""trial"",""time""
""fullscreenenter"",""1"",""9679""
","
","
","""event"",""trial"",""time""
""fullscreenenter"",""1"",""9679""
","
","","","","","","null","<div style=""font-size:60px;"">+</div>","null","","fixation","","","","","","","","","","",""
"aa-learning-trial","75","454701","0.0-9.0-2.0-1.1","5723","1","12","Male","approach_avoid_spark_v1","""event"",""trial"",""time""
""fullscreenenter"",""1"",""9679""
","
","
","""event"",""trial"",""time""
""fullscreenenter"",""1"",""9679""
","
","","","","","","1478.5","images/straw6.png","","","learning","-7","0","0","0","straw","fruit","1","0","","bad","[-5]"
"html-keyboard-response","76","455205","0.0-9.0-2.0-0.2","5723","1","12","Male","approach_avoid_spark_v1","""event"",""trial"",""time""
""fullscreenenter"",""1"",""9679""
","
","
","""event"",""trial"",""time""
""fullscreenenter"",""1"",""9679""
","
","","","","","","null","<div style=""font-size:60px;"">+</div>","null","","fixation","","","","","","","","","","",""
"aa-learning-trial","77","458220","0.0-9.0-2.0-1.2","5723","1","12","Male","approach_avoid_spark_v1","""event"",""trial"",""time""
""fullscreenenter"",""1"",""9679""
","
","
","""event"",""trial"",""time""
""fullscreenenter"",""1"",""9679""
","
","","","","","","1795.7000000001863","images/banana8.png","","","learning","5","5","1","1","banana","fruit","1","0","","good","[6]"
"html-keyboard-response","78","458729","0.0-9.0-2.0-0.3","5723","1","12","Male","approach_avoid_spark_v1","""event"",""trial"",""time""
""fullscreenenter"",""1"",""9679""
","
","
","""event"",""trial"",""time""
""fullscreenenter"",""1"",""9679""
","
","","","","","","null","<div style=""font-size:60px;"">+</div>","null","","fixation","","","","","","","","","","",""
"aa-learning-trial","79","461739","0.0-9.0-2.0-1.3","5723","1","12","Male","approach_avoid_spark_v1","""event"",""trial"",""time""
""fullscreenenter"",""1"",""9679""
","
","
","""event"",""trial"",""time""
""fullscreenenter"",""1"",""9679""
","
","","","","","","1327.7000000001863","images/orange1.png","","","learning","[1]","1","1","1","orange","fruit","1","0","","neutral","0"
"html-keyboard-response","80","462259","0.0-9.0-2.0-0.4","5723","1","12","Male","approach_avoid_spark_v1","""event"",""trial"",""time""
""fullscreenenter"",""1"",""9679""
","
","
","""event"",""trial"",""time""
""fullscreenenter"",""1"",""9679""
","
","","","","","","null","<div style=""font-size:60px;"">+</div>","null","","fixation","","","","","","","","","","",""
"aa-learning-trial","81","465279","0.0-9.0-2.0-1.4","5723","1","12","Male","approach_avoid_spark_v1","""event"",""trial"",""time""
""fullscreenenter"",""1"",""9679""
","
","
","""event"",""trial"",""time""
""fullscreenenter"",""1"",""9679""
","
","","","","","","2423.5999999996275","images/banana6.png","","","learning","5","0","0","0","banana","fruit","1","0","","good","[6]"
"html-keyboard-response","82","465804","0.0-9.0-2.0-0.5","5723","1","12","Male","approach_avoid_spark_v1","""event"",""trial"",""time""
""fullscreenenter"",""1"",""9679""
","
","
","""event"",""trial"",""time""
""fullscreenenter"",""1"",""9679""
","
","","","","","","null","<div style=""font-size:60px;"">+</div>","null","","fixation","","","","","","","","","","",""
"aa-learning-trial","83","468824","0.0-9.0-2.0-1.5","5723","1","12","Male","approach_avoid_spark_v1","""event"",""trial"",""time""
""fullscreenenter"",""1"",""9679""
","
","
","""event"",""trial"",""time""
""fullscreenenter"",""1"",""9679""
","
","","","","","","1436.7999999998137","images/orange4.png","","","learning","3","3","1","1","orange","fruit","1","0","","neutral","0"
"html-keyboard-response","84","469333","0.0-9.0-2.0-0.6","5723","1","12","Male","approach_avoid_spark_v1","""event"",""trial"",""time""
""fullscreenenter"",""1"",""9679""
","
","
","""event"",""trial"",""time""
""fullscreenenter"",""1"",""9679""
","
","","","","","","null","<div style=""font-size:60px;"">+</div>","null","","fixation","","","","","","","","","","",""
"aa-learning-trial","85","472354","0.0-9.0-2.0-1.6","5723","1","12","Male","approach_avoid_spark_v1","""event"",""trial"",""time""
""fullscreenenter"",""1"",""9679""
","
","
","""event"",""trial"",""time""
""fullscreenenter"",""1"",""9679""
","
","","","","","","734.2999999998137","images/banana6.png","","","learning","7","7","1","1","banana","fruit","1","0","","good","[6]"
"html-keyboard-response","86","472869","0.0-9.0-2.0-0.7","5723","1","12","Male","approach_avoid_spark_v1","""event"",""trial"",""time""
""fullscreenenter"",""1"",""9679""
","
","
","""event"",""trial"",""time""
""fullscreenenter"",""1"",""9679""
","
","","","","","","null","<div style=""font-size:60px;"">+</div>","null","","fixation","","","","","","","","","","",""
"aa-learning-trial","87","475879","0.0-9.0-2.0-1.7","5723","1","12","Male","approach_avoid_spark_v1","""event"",""trial"",""time""
""fullscreenenter"",""1"",""9679""
","
","
","""event"",""trial"",""time""
""fullscreenenter"",""1"",""9679""
","
","","","","","","879.2999999998137","images/straw6.png","","","learning","-5","0","0","0","straw","fruit","1","0","","bad","[-5]"
"html-keyboard-response","88","476385","0.0-9.0-2.0-0.8","5723","1","12","Male","approach_avoid_spark_v1","""event"",""trial"",""time""
""fullscreenenter"",""1"",""9679""
","
","
","""event"",""trial"",""time""
""fullscreenenter"",""1"",""9679""
","
","","","","","","null","<div style=""font-size:60px;"">+</div>","null","","fixation","","","","","","","","","","",""
"aa-learning-trial","89","479425","0.0-9.0-2.0-1.8","5723","1","12","Male","approach_avoid_spark_v1","""event"",""trial"",""time""
""fullscreenenter"",""1"",""9679""
","
","
","""event"",""trial"",""time""
""fullscreenenter"",""1"",""9679""
","
","","","","","","1114.7999999998137","images/banana8.png","","","learning","5","5","1","1","banana","fruit","1","0","","good","[6]"
"html-keyboard-response","90","479936","0.0-9.0-2.0-0.9","5723","1","12","Male","approach_avoid_spark_v1","""event"",""trial"",""time""
""fullscreenenter"",""1"",""9679""
","
","
","""event"",""trial"",""time""
""fullscreenenter"",""1"",""9679""
","
","","","","","","null","<div style=""font-size:60px;"">+</div>","null","","fixation","","","","","","","","","","",""
"aa-learning-trial","91","482956","0.0-9.0-2.0-1.9","5723","1","12","Male","approach_avoid_spark_v1","""event"",""trial"",""time""
""fullscreenenter"",""1"",""9679""
","
","
","""event"",""trial"",""time""
""fullscreenenter"",""1"",""9679""
","
","","","","","","967.5","images/orange4.png","","","learning","-1","-1","1","1","orange","fruit","1","0","","neutral","0"
"html-keyboard-response","92","483461","0.0-9.0-2.0-0.10","5723","1","12","Male","approach_avoid_spark_v1","""event"",""trial"",""time""
""fullscreenenter"",""1"",""9679""
","
","
","""event"",""trial"",""time""
""fullscreenenter"",""1"",""9679""
","
","","","","","","null","<div style=""font-size:60px;"">+</div>","null","","fixation","","","","","","","","","","",""
"aa-learning-trial","93","486473","0.0-9.0-2.0-1.10","5723","1","12","Male","approach_avoid_spark_v1","""event"",""trial"",""time""
""fullscreenenter"",""1"",""9679""
","
","
","""event"",""trial"",""time""
""fullscreenenter"",""1"",""9679""
","
","","","","","","1173.2000000001863","images/orange2.png","","","learning","1","0","0","0","orange","fruit","1","0","","neutral","0"
"html-keyboard-response","94","486983","0.0-9.0-2.0-0.11","5723","1","12","Male","approach_avoid_spark_v1","""event"",""trial"",""time""
""fullscreenenter"",""1"",""9679""
","
","
","""event"",""trial"",""time""
""fullscreenenter"",""1"",""9679""
","
","","","","","","null","<div style=""font-size:60px;"">+</div>","null","","fixation","","","","","","","","","","",""
"aa-learning-trial","95","489993","0.0-9.0-2.0-1.11","5723","1","12","Male","approach_avoid_spark_v1","""event"",""trial"",""time""
""fullscreenenter"",""1"",""9679""
","
","
","""event"",""trial"",""time""
""fullscreenenter"",""1"",""9679""
","
","","","","","","null","images/straw5.png","","","learning","-4","-5","","null","straw","fruit","1","0","","bad","[-5]"
"html-keyboard-response","96","490499","0.0-9.0-2.0-0.12","5723","1","12","Male","approach_avoid_spark_v1","""event"",""trial"",""time""
""fullscreenenter"",""1"",""9679""
","
","
","""event"",""trial"",""time""
""fullscreenenter"",""1"",""9679""
","
","","","","","","null","<div style=""font-size:60px;"">+</div>","null","","fixation","","","","","","","","","","",""
"aa-learning-trial","97","493510","0.0-9.0-2.0-1.12","5723","1","12","Male","approach_avoid_spark_v1","""event"",""trial"",""time""
""fullscreenenter"",""1"",""9679""
","
","
","""event"",""trial"",""time""
""fullscreenenter"",""1"",""9679""
","
","","","","","","1328.3999999994412","images/orange1.png","","","learning","[-1]","-1","1","1","orange","fruit","1","0","","neutral","0"
"html-keyboard-response","98","494017","0.0-9.0-2.0-0.13","5723","1","12","Male","approach_avoid_spark_v1","""event"",""trial"",""time""
""fullscreenenter"",""1"",""9679""
","
","
","""event"",""trial"",""time""
""fullscreenenter"",""1"",""9679""
","
","","","","","","null","<div style=""font-size:60px;"">+</div>","null","","fixation","","","","","","","","","","",""
"aa-learning-trial","99","497028","0.0-9.0-2.0-1.13","5723","1","12","Male","approach_avoid_spark_v1","""event"",""trial"",""time""
""fullscreenenter"",""1"",""9679""
","
","
","""event"",""trial"",""time""
""fullscreenenter"",""1"",""9679""
","
","","","","","","1082.5","images/straw5.png","","","learning","-5","0","0","0","straw","fruit","1","0","","bad","[-5]"
"html-keyboard-response","100","497534","0.0-9.0-2.0-0.14","5723","1","12","Male","approach_avoid_spark_v1","""event"",""trial"",""time""
""fullscreenenter"",""1"",""9679""
","
","
","""event"",""trial"",""time""
""fullscreenenter"",""1"",""9679""
","
","","","","","","null","<div style=""font-size:60px;"">+</div>","null","","fixation","","","","","","","","","","",""
"aa-learning-trial","101","500554","0.0-9.0-2.0-1.14","5723","1","12","Male","approach_avoid_spark_v1","""event"",""trial"",""time""
""fullscreenenter"",""1"",""9679""
","
","
","""event"",""trial"",""time""
""fullscreenenter"",""1"",""9679""
","
","","","","","","704.7999999998137","images/banana5.png","","","learning","4","4","1","1","banana","fruit","1","0","","good","[6]"
"html-keyboard-response","102","501066","0.0-9.0-2.0-0.15","5723","1","12","Male","approach_avoid_spark_v1","""event"",""trial"",""time""
""fullscreenenter"",""1"",""9679""
","
","
","""event"",""trial"",""time""
""fullscreenenter"",""1"",""9679""
","
","","","","","","null","<div style=""font-size:60px;"">+</div>","null","","fixation","","","","","","","","","","",""
"aa-learning-trial","103","504074","0.0-9.0-2.0-1.15","5723","1","12","Male","approach_avoid_spark_v1","""event"",""trial"",""time""
""fullscreenenter"",""1"",""9679""
","
","
","""event"",""trial"",""time""
""fullscreenenter"",""1"",""9679""
","
","","","","","","930","images/orange5.png","","","learning","[-1]","-1","1","1","orange","fruit","1","0","","neutral","0"
"html-keyboard-response","104","504583","0.0-9.0-2.0-0.16","5723","1","12","Male","approach_avoid_spark_v1","""event"",""trial"",""time""
""fullscreenenter"",""1"",""9679""
","
","
","""event"",""trial"",""time""
""fullscreenenter"",""1"",""9679""
","
","","","","","","null","<div style=""font-size:60px;"">+</div>","null","","fixation","","","","","","","","","","",""
"aa-learning-trial","105","507593","0.0-9.0-2.0-1.16","5723","1","12","Male","approach_avoid_spark_v1","""event"",""trial"",""time""
""fullscreenenter"",""1"",""9679""
","
","
","""event"",""trial"",""time""
""fullscreenenter"",""1"",""9679""
","
","","","","","","752.5","images/banana8.png","","","learning","10","10","1","1","banana","fruit","1","0","","good","[6]"
"html-keyboard-response","106","508103","0.0-9.0-2.0-0.17","5723","1","12","Male","approach_avoid_spark_v1","""event"",""trial"",""time""
""fullscreenenter"",""1"",""9679""
","
","
","""event"",""trial"",""time""
""fullscreenenter"",""1"",""9679""
","
","","","","","","null","<div style=""font-size:60px;"">+</div>","null","","fixation","","","","","","","","","","",""
"aa-learning-trial","107","511129","0.0-9.0-2.0-1.17","5723","1","12","Male","approach_avoid_spark_v1","""event"",""trial"",""time""
""fullscreenenter"",""1"",""9679""
","
","
","""event"",""trial"",""time""
""fullscreenenter"",""1"",""9679""
","
","","","","","","1355.0999999996275","images/straw5.png","","","learning","-6","0","0","0","straw","fruit","1","0","","bad","[-5]"
"html-keyboard-response","108","511634","0.0-9.0-2.0-0.18","5723","1","12","Male","approach_avoid_spark_v1","""event"",""trial"",""time""
""fullscreenenter"",""1"",""9679""
","
","
","""event"",""trial"",""time""
""fullscreenenter"",""1"",""9679""
","
","","","","","","null","<div style=""font-size:60px;"">+</div>","null","","fixation","","","","","","","","","","",""
"aa-learning-trial","109","514646","0.0-9.0-2.0-1.18","5723","1","12","Male","approach_avoid_spark_v1","""event"",""trial"",""time""
""fullscreenenter"",""1"",""9679""
","
","
","""event"",""trial"",""time""
""fullscreenenter"",""1"",""9679""
","
","","","","","","1212","images/banana7.png","","","learning","5","0","0","0","banana","fruit","1","0","","good","[6]"
"html-keyboard-response","110","515160","0.0-9.0-2.0-0.19","5723","1","12","Male","approach_avoid_spark_v1","""event"",""trial"",""time""
""fullscreenenter"",""1"",""9679""
","
","
","""event"",""trial"",""time""
""fullscreenenter"",""1"",""9679""
","
","","","","","","null","<div style=""font-size:60px;"">+</div>","null","","fixation","","","","","","","","","","",""
"aa-learning-trial","111","518178","0.0-9.0-2.0-1.19","5723","1","12","Male","approach_avoid_spark_v1","""event"",""trial"",""time""
""fullscreenenter"",""1"",""9679""
","
","
","""event"",""trial"",""time""
""fullscreenenter"",""1"",""9679""
","
","","","","","","1369.5999999996275","images/straw6.png","","","learning","-6","-6","1","1","straw","fruit","1","0","","bad","[-5]"
"html-keyboard-response","112","518689","0.0-9.0-2.0-0.20","5723","1","12","Male","approach_avoid_spark_v1","""event"",""trial"",""time""
""fullscreenenter"",""1"",""9679""
","
","
","""event"",""trial"",""time""
""fullscreenenter"",""1"",""9679""
","
","","","","","","null","<div style=""font-size:60px;"">+</div>","null","","fixation","","","","","","","","","","",""
"aa-learning-trial","113","521703","0.0-9.0-2.0-1.20","5723","1","12","Male","approach_avoid_spark_v1","""event"",""trial"",""time""
""fullscreenenter"",""1"",""9679""
","
","
","""event"",""trial"",""time""
""fullscreenenter"",""1"",""9679""
","
","","","","","","1192.2999999998137","images/straw5.png","","","learning","-4","-4","1","1","straw","fruit","1","0","","bad","[-5]"
"html-keyboard-response","114","522207","0.0-9.0-2.0-0.21","5723","1","12","Male","approach_avoid_spark_v1","""event"",""trial"",""time""
""fullscreenenter"",""1"",""9679""
","
","
","""event"",""trial"",""time""
""fullscreenenter"",""1"",""9679""
","
","","","","","","null","<div style=""font-size:60px;"">+</div>","null","","fixation","","","","","","","","","","",""
"aa-learning-trial","115","525227","0.0-9.0-2.0-1.21","5723","1","12","Male","approach_avoid_spark_v1","""event"",""trial"",""time""
""fullscreenenter"",""1"",""9679""
","
","
","""event"",""trial"",""time""
""fullscreenenter"",""1"",""9679""
","
","","","","","","806.8999999994412","images/orange4.png","","","learning","3","3","1","1","orange","fruit","1","0","","neutral","0"
"html-keyboard-response","116","525780","0.0-9.0-2.0-0.22","5723","1","12","Male","approach_avoid_spark_v1","""event"",""trial"",""time""
""fullscreenenter"",""1"",""9679""
","
","
","""event"",""trial"",""time""
""fullscreenenter"",""1"",""9679""
","
","","","","","","null","<div style=""font-size:60px;"">+</div>","null","","fixation","","","","","","","","","","",""
"aa-learning-trial","117","528814","0.0-9.0-2.0-1.22","5723","1","12","Male","approach_avoid_spark_v1","""event"",""trial"",""time""
""fullscreenenter"",""1"",""9679""
","
","
","""event"",""trial"",""time""
""fullscreenenter"",""1"",""9679""
","
","","","","","","1043.6000000005588","images/banana8.png","","","learning","5","5","1","1","banana","fruit","1","0","","good","[6]"
"html-keyboard-response","118","529340","0.0-9.0-2.0-0.23","5723","1","12","Male","approach_avoid_spark_v1","""event"",""trial"",""time""
""fullscreenenter"",""1"",""9679""
","
","
","""event"",""trial"",""time""
""fullscreenenter"",""1"",""9679""
","
","","","","","","null","<div style=""font-size:60px;"">+</div>","null","","fixation","","","","","","","","","","",""
"aa-learning-trial","119","532346","0.0-9.0-2.0-1.23","5723","1","12","Male","approach_avoid_spark_v1","""event"",""trial"",""time""
""fullscreenenter"",""1"",""9679""
","
","
","""event"",""trial"",""time""
""fullscreenenter"",""1"",""9679""
","
","","","","","","1140","images/banana8.png","","","learning","4","4","1","1","banana","fruit","1","0","","good","[6]"
"html-keyboard-response","120","532851","0.0-9.0-2.0-0.24","5723","1","12","Male","approach_avoid_spark_v1","""event"",""trial"",""time""
""fullscreenenter"",""1"",""9679""
","
","
","""event"",""trial"",""time""
""fullscreenenter"",""1"",""9679""
","
","","","","","","null","<div style=""font-size:60px;"">+</div>","null","","fixation","","","","","","","","","","",""
"aa-learning-trial","121","535863","0.0-9.0-2.0-1.24","5723","1","12","Male","approach_avoid_spark_v1","""event"",""trial"",""time""
""fullscreenenter"",""1"",""9679""
","
","
","""event"",""trial"",""time""
""fullscreenenter"",""1"",""9679""
","
","","","","","","957","images/orange1.png","","","learning","-1","0","0","0","orange","fruit","1","0","","neutral","0"
"html-keyboard-response","122","536401","0.0-9.0-2.0-0.25","5723","1","12","Male","approach_avoid_spark_v1","""event"",""trial"",""time""
""fullscreenenter"",""1"",""9679""
","
","
","""event"",""trial"",""time""
""fullscreenenter"",""1"",""9679""
","
","","","","","","null","<div style=""font-size:60px;"">+</div>","null","","fixation","","","","","","","","","","",""
"aa-learning-trial","123","539411","0.0-9.0-2.0-1.25","5723","1","12","Male","approach_avoid_spark_v1","""event"",""trial"",""time""
""fullscreenenter"",""1"",""9679""
","
","
","""event"",""trial"",""time""
""fullscreenenter"",""1"",""9679""
","
","","","","","","1451","images/banana5.png","","","learning","6","6","1","1","banana","fruit","1","0","","good","[6]"
"html-keyboard-response","124","539918","0.0-9.0-2.0-0.26","5723","1","12","Male","approach_avoid_spark_v1","""event"",""trial"",""time""
""fullscreenenter"",""1"",""9679""
","
","
","""event"",""trial"",""time""
""fullscreenenter"",""1"",""9679""
","
","","","","","","null","<div style=""font-size:60px;"">+</div>","null","","fixation","","","","","","","","","","",""
"aa-learning-trial","125","542925","0.0-9.0-2.0-1.26","5723","1","12","Male","approach_avoid_spark_v1","""event"",""trial"",""time""
""fullscreenenter"",""1"",""9679""
","
","
","""event"",""trial"",""time""
""fullscreenenter"",""1"",""9679""
","
","","","","","","1528.0999999996275","images/orange1.png","","","learning","[1]","1","1","1","orange","fruit","1","0","","neutral","0"
"html-keyboard-response","126","543443","0.0-9.0-2.0-0.27","5723","1","12","Male","approach_avoid_spark_v1","""event"",""trial"",""time""
""fullscreenenter"",""1"",""9679""
","
","
","""event"",""trial"",""time""
""fullscreenenter"",""1"",""9679""
","
","","","","","","null","<div style=""font-size:60px;"">+</div>","null","","fixation","","","","","","","","","","",""
"aa-learning-trial","127","546470","0.0-9.0-2.0-1.27","5723","1","12","Male","approach_avoid_spark_v1","""event"",""trial"",""time""
""fullscreenenter"",""1"",""9679""
","
","
","""event"",""trial"",""time""
""fullscreenenter"",""1"",""9679""
","
","","","","","","1254.1000000005588","images/orange1.png","","","learning","-1","-1","1","1","orange","fruit","1","0","","neutral","0"
"html-keyboard-response","128","546986","0.0-9.0-2.0-0.28","5723","1","12","Male","approach_avoid_spark_v1","""event"",""trial"",""time""
""fullscreenenter"",""1"",""9679""
","
","
","""event"",""trial"",""time""
""fullscreenenter"",""1"",""9679""
","
","","","","","","null","<div style=""font-size:60px;"">+</div>","null","","fixation","","","","","","","","","","",""
"aa-learning-trial","129","549999","0.0-9.0-2.0-1.28","5723","1","12","Male","approach_avoid_spark_v1","""event"",""trial"",""time""
""fullscreenenter"",""1"",""9679""
","
","
","""event"",""trial"",""time""
""fullscreenenter"",""1"",""9679""
","
","","","","","","1606.7000000001863","images/orange1.png","","","learning","-2","-2","1","1","orange","fruit","1","0","","neutral","0"
"html-keyboard-response","130","550512","0.0-9.0-2.0-0.29","5723","1","12","Male","approach_avoid_spark_v1","""event"",""trial"",""time""
""fullscreenenter"",""1"",""9679""
","
","
","""event"",""trial"",""time""
""fullscreenenter"",""1"",""9679""
","
","","","","","","null","<div style=""font-size:60px;"">+</div>","null","","fixation","","","","","","","","","","",""
"aa-learning-trial","131","553548","0.0-9.0-2.0-1.29","5723","1","12","Male","approach_avoid_spark_v1","""event"",""trial"",""time""
""fullscreenenter"",""1"",""9679""
","
","
","""event"",""trial"",""time""
""fullscreenenter"",""1"",""9679""
","
","","","","","","1935.2000000001863","images/straw6.png","","","learning","-3","0","0","0","straw","fruit","1","0","","bad","[-5]"
"html-keyboard-response","132","554073","0.0-9.0-2.0-0.30","5723","1","12","Male","approach_avoid_spark_v1","""event"",""trial"",""time""
""fullscreenenter"",""1"",""9679""
","
","
","""event"",""trial"",""time""
""fullscreenenter"",""1"",""9679""
","
","","","","","","null","<div style=""font-size:60px;"">+</div>","null","","fixation","","","","","","","","","","",""
"aa-learning-trial","133","557086","0.0-9.0-2.0-1.30","5723","1","12","Male","approach_avoid_spark_v1","""event"",""trial"",""time""
""fullscreenenter"",""1"",""9679""
","
","
","""event"",""trial"",""time""
""fullscreenenter"",""1"",""9679""
","
","","","","","","1078.3999999994412","images/banana6.png","","","learning","5","5","1","1","banana","fruit","1","0","","good","[6]"
"html-keyboard-response","134","557593","0.0-9.0-2.0-0.31","5723","1","12","Male","approach_avoid_spark_v1","""event"",""trial"",""time""
""fullscreenenter"",""1"",""9679""
","
","
","""event"",""trial"",""time""
""fullscreenenter"",""1"",""9679""
","
","","","","","","null","<div style=""font-size:60px;"">+</div>","null","","fixation","","","","","","","","","","",""
"aa-learning-trial","135","560604","0.0-9.0-2.0-1.31","5723","1","12","Male","approach_avoid_spark_v1","""event"",""trial"",""time""
""fullscreenenter"",""1"",""9679""
","
","
","""event"",""trial"",""time""
""fullscreenenter"",""1"",""9679""
","
","","","","","","1028.8999999994412","images/banana6.png","","","learning","4","4","1","1","banana","fruit","1","0","","good","[6]"
"html-keyboard-response","136","561113","0.0-9.0-2.0-0.32","5723","1","12","Male","approach_avoid_spark_v1","""event"",""trial"",""time""
""fullscreenenter"",""1"",""9679""
","
","
","""event"",""trial"",""time""
""fullscreenenter"",""1"",""9679""
","
","","","","","","null","<div style=""font-size:60px;"">+</div>","null","","fixation","","","","","","","","","","",""
"aa-learning-trial","137","564126","0.0-9.0-2.0-1.32","5723","1","12","Male","approach_avoid_spark_v1","""event"",""trial"",""time""
""fullscreenenter"",""1"",""9679""
","
","
","""event"",""trial"",""time""
""fullscreenenter"",""1"",""9679""
","
","","","","","","1501","images/orange4.png","","","learning","-1","0","0","0","orange","fruit","1","0","","neutral","0"
"html-keyboard-response","138","564633","0.0-9.0-2.0-0.33","5723","1","12","Male","approach_avoid_spark_v1","""event"",""trial"",""time""
""fullscreenenter"",""1"",""9679""
","
","
","""event"",""trial"",""time""
""fullscreenenter"",""1"",""9679""
","
","","","","","","null","<div style=""font-size:60px;"">+</div>","null","","fixation","","","","","","","","","","",""
"aa-learning-trial","139","567643","0.0-9.0-2.0-1.33","5723","1","12","Male","approach_avoid_spark_v1","""event"",""trial"",""time""
""fullscreenenter"",""1"",""9679""
","
","
","""event"",""trial"",""time""
""fullscreenenter"",""1"",""9679""
","
","","","","","","2274.4000000003725","images/straw6.png","","","learning","-4","0","0","0","straw","fruit","1","0","","bad","[-5]"
"html-keyboard-response","140","568151","0.0-9.0-2.0-0.34","5723","1","12","Male","approach_avoid_spark_v1","""event"",""trial"",""time""
""fullscreenenter"",""1"",""9679""
","
","
","""event"",""trial"",""time""
""fullscreenenter"",""1"",""9679""
","
","","","","","","null","<div style=""font-size:60px;"">+</div>","null","","fixation","","","","","","","","","","",""
"aa-learning-trial","141","571157","0.0-9.0-2.0-1.34","5723","1","12","Male","approach_avoid_spark_v1","""event"",""trial"",""time""
""fullscreenenter"",""1"",""9679""
","
","
","""event"",""trial"",""time""
""fullscreenenter"",""1"",""9679""
","
","","","","","","2485.899999999441","images/straw1.png","","","learning","-4","-4","1","1","straw","fruit","1","0","","bad","[-5]"
"html-keyboard-response","142","571679","0.0-9.0-2.0-0.35","5723","1","12","Male","approach_avoid_spark_v1","""event"",""trial"",""time""
""fullscreenenter"",""1"",""9679""
","
","
","""event"",""trial"",""time""
""fullscreenenter"",""1"",""9679""
","
","","","","","","null","<div style=""font-size:60px;"">+</div>","null","","fixation","","","","","","","","","","",""
"aa-learning-trial","143","574689","0.0-9.0-2.0-1.35","5723","1","12","Male","approach_avoid_spark_v1","""event"",""trial"",""time""
""fullscreenenter"",""1"",""9679""
","
","
","""event"",""trial"",""time""
""fullscreenenter"",""1"",""9679""
","
","","","","","","869.5999999996275","images/banana6.png","","","learning","5","5","1","1","banana","fruit","1","0","","good","[6]"
"html-keyboard-response","144","575218","0.0-9.0-2.0-0.36","5723","1","12","Male","approach_avoid_spark_v1","""event"",""trial"",""time""
""fullscreenenter"",""1"",""9679""
","
","
","""event"",""trial"",""time""
""fullscreenenter"",""1"",""9679""
","
","","","","","","null","<div style=""font-size:60px;"">+</div>","null","","fixation","","","","","","","","","","",""
"aa-learning-trial","145","578228","0.0-9.0-2.0-1.36","5723","1","12","Male","approach_avoid_spark_v1","""event"",""trial"",""time""
""fullscreenenter"",""1"",""9679""
","
","
","""event"",""trial"",""time""
""fullscreenenter"",""1"",""9679""
","
","","","","","","1047.2000000001863","images/orange2.png","","","learning","[-1]","-5","end","","orange","fruit","1","0","","neutral","0"
"html-keyboard-response","146","578737","0.0-9.0-2.0-0.37","5723","1","12","Male","approach_avoid_spark_v1","""event"",""trial"",""time""
""fullscreenenter"",""1"",""9679""
","
","
","""event"",""trial"",""time""
""fullscreenenter"",""1"",""9679""
","
","","","","","","null","<div style=""font-size:60px;"">+</div>","null","","fixation","","","","","","","","","","",""
"aa-learning-trial","147","581760","0.0-9.0-2.0-1.37","5723","1","12","Male","approach_avoid_spark_v1","""event"",""trial"",""time""
""fullscreenenter"",""1"",""9679""
","
","
","""event"",""trial"",""time""
""fullscreenenter"",""1"",""9679""
","
","","","","","","1053.5","images/orange4.png","","","learning","[-1]","-1","1","1","orange","fruit","1","0","","neutral","0"
"html-keyboard-response","148","582301","0.0-9.0-2.0-0.38","5723","1","12","Male","approach_avoid_spark_v1","""event"",""trial"",""time""
""fullscreenenter"",""1"",""9679""
","
","
","""event"",""trial"",""time""
""fullscreenenter"",""1"",""9679""
","
","","","","","","null","<div style=""font-size:60px;"">+</div>","null","","fixation","","","","","","","","","","",""
"aa-learning-trial","149","585309","0.0-9.0-2.0-1.38","5723","1","12","Male","approach_avoid_spark_v1","""event"",""trial"",""time""
""fullscreenenter"",""1"",""9679""
","
","
","""event"",""trial"",""time""
""fullscreenenter"",""1"",""9679""
","
","","","","","","1201.4000000003725","images/banana1.png","","","learning","3","0","0","0","banana","fruit","1","0","","good","[6]"
"html-keyboard-response","150","585816","0.0-9.0-2.0-0.39","5723","1","12","Male","approach_avoid_spark_v1","""event"",""trial"",""time""
""fullscreenenter"",""1"",""9679""
","
","
","""event"",""trial"",""time""
""fullscreenenter"",""1"",""9679""
","
","","","","","","null","<div style=""font-size:60px;"">+</div>","null","","fixation","","","","","","","","","","",""
"aa-learning-trial","151","588856","0.0-9.0-2.0-1.39","5723","1","12","Male","approach_avoid_spark_v1","""event"",""trial"",""time""
""fullscreenenter"",""1"",""9679""
","
","
","""event"",""trial"",""time""
""fullscreenenter"",""1"",""9679""
","
","","","","","","546.6000000005588","images/banana8.png","","","learning","6","0","0","0","banana","fruit","1","0","","good","[6]"
"html-keyboard-response","152","589364","0.0-9.0-2.0-0.40","5723","1","12","Male","approach_avoid_spark_v1","""event"",""trial"",""time""
""fullscreenenter"",""1"",""9679""
","
","
","""event"",""trial"",""time""
""fullscreenenter"",""1"",""9679""
","
","","","","","","null","<div style=""font-size:60px;"">+</div>","null","","fixation","","","","","","","","","","",""
"aa-learning-trial","153","592377","0.0-9.0-2.0-1.40","5723","1","12","Male","approach_avoid_spark_v1","""event"",""trial"",""time""
""fullscreenenter"",""1"",""9679""
","
","
","""event"",""trial"",""time""
""fullscreenenter"",""1"",""9679""
","
","","","","","","980.6000000005588","images/straw1.png","","","learning","-7","-7","1","1","straw","fruit","1","0","","bad","[-5]"
"html-keyboard-response","154","592880","0.0-9.0-2.0-0.41","5723","1","12","Male","approach_avoid_spark_v1","""event"",""trial"",""time""
""fullscreenenter"",""1"",""9679""
","
","
","""event"",""trial"",""time""
""fullscreenenter"",""1"",""9679""
","
","","","","","","null","<div style=""font-size:60px;"">+</div>","null","","fixation","","","","","","","","","","",""
"aa-learning-trial","155","595910","0.0-9.0-2.0-1.41","5723","1","12","Male","approach_avoid_spark_v1","""event"",""trial"",""time""
""fullscreenenter"",""1"",""9679""
","
","
","""event"",""trial"",""time""
""fullscreenenter"",""1"",""9679""
","
","","","","","","846.0999999996275","images/straw2.png","","","learning","-4","0","0","0","straw","fruit","1","0","","bad","[-5]"
"html-keyboard-response","156","596421","0.0-9.0-2.0-0.42","5723","1","12","Male","approach_avoid_spark_v1","""event"",""trial"",""time""
""fullscreenenter"",""1"",""9679""
","
","
","""event"",""trial"",""time""
""fullscreenenter"",""1"",""9679""
","
","","","","","","null","<div style=""font-size:60px;"">+</div>","null","","fixation","","","","","","","","","","",""
"aa-learning-trial","157","599467","0.0-9.0-2.0-1.42","5723","1","12","Male","approach_avoid_spark_v1","""event"",""trial"",""time""
""fullscreenenter"",""1"",""9679""
","
","
","""event"",""trial"",""time""
""fullscreenenter"",""1"",""9679""
","
","","","","","","631.5999999996275","images/banana5.png","","","learning","6","6","1","1","banana","fruit","1","0","","good","[6]"
"html-keyboard-response","158","599993","0.0-9.0-2.0-0.43","5723","1","12","Male","approach_avoid_spark_v1","""event"",""trial"",""time""
""fullscreenenter"",""1"",""9679""
","
","
","""event"",""trial"",""time""
""fullscreenenter"",""1"",""9679""
","
","","","","","","null","<div style=""font-size:60px;"">+</div>","null","","fixation","","","","","","","","","","",""
"aa-learning-trial","159","603002","0.0-9.0-2.0-1.43","5723","1","12","Male","approach_avoid_spark_v1","""event"",""trial"",""time""
""fullscreenenter"",""1"",""9679""
","
","
","""event"",""trial"",""time""
""fullscreenenter"",""1"",""9679""
","
","","","","","","1089.8999999994412","images/straw6.png","","","learning","-6","-6","1","1","straw","fruit","1","0","","bad","[-5]"
"html-keyboard-response","160","603513","0.0-9.0-2.0-0.44","5723","1","12","Male","approach_avoid_spark_v1","""event"",""trial"",""time""
""fullscreenenter"",""1"",""9679""
","
","
","""event"",""trial"",""time""
""fullscreenenter"",""1"",""9679""
","
","","","","","","null","<div style=""font-size:60px;"">+</div>","null","","fixation","","","","","","","","","","",""
"aa-learning-trial","161","606533","0.0-9.0-2.0-1.44","5723","1","12","Male","approach_avoid_spark_v1","""event"",""trial"",""time""
""fullscreenenter"",""1"",""9679""
","
","
","""event"",""trial"",""time""
""fullscreenenter"",""1"",""9679""
","
","","","","","","362.70000000018626","images/straw5.png","","","learning","-6","0","0","0","straw","fruit","1","0","","bad","[-5]"
"html-keyboard-response","162","607054","0.0-9.0-2.0-0.45","5723","1","12","Male","approach_avoid_spark_v1","""event"",""trial"",""time""
""fullscreenenter"",""1"",""9679""
","
","
","""event"",""trial"",""time""
""fullscreenenter"",""1"",""9679""
","
","","","","","","null","<div style=""font-size:60px;"">+</div>","null","","fixation","","","","","","","","","","",""
"aa-learning-trial","163","610063","0.0-9.0-2.0-1.45","5723","1","12","Male","approach_avoid_spark_v1","""event"",""trial"",""time""
""fullscreenenter"",""1"",""9679""
","
","
","""event"",""trial"",""time""
""fullscreenenter"",""1"",""9679""
","
","","","","","","587.7999999998137","images/straw7.png","","","learning","-4","-4","1","1","straw","fruit","1","0","","bad","[-5]"
"html-keyboard-response","164","610569","0.0-9.0-2.0-0.46","5723","1","12","Male","approach_avoid_spark_v1","""event"",""trial"",""time""
""fullscreenenter"",""1"",""9679""
","
","
","""event"",""trial"",""time""
""fullscreenenter"",""1"",""9679""
","
","","","","","","null","<div style=""font-size:60px;"">+</div>","null","","fixation","","","","","","","","","","",""
"aa-learning-trial","165","613576","0.0-9.0-2.0-1.46","5723","1","12","Male","approach_avoid_spark_v1","""event"",""trial"",""time""
""fullscreenenter"",""1"",""9679""
","
","
","""event"",""trial"",""time""
""fullscreenenter"",""1"",""9679""
","
","","","","","","895.6000000005588","images/orange2.png","","","learning","-1","-1","1","1","orange","fruit","1","0","","neutral","0"
"html-keyboard-response","166","614084","0.0-9.0-2.0-0.47","5723","1","12","Male","approach_avoid_spark_v1","""event"",""trial"",""time""
""fullscreenenter"",""1"",""9679""
","
","
","""event"",""trial"",""time""
""fullscreenenter"",""1"",""9679""
","
","","","","","","null","<div style=""font-size:60px;"">+</div>","null","","fixation","","","","","","","","","","",""
"aa-learning-trial","167","617109","0.0-9.0-2.0-1.47","5723","1","12","Male","approach_avoid_spark_v1","""event"",""trial"",""time""
""fullscreenenter"",""1"",""9679""
","
","
","""event"",""trial"",""time""
""fullscreenenter"",""1"",""9679""
","
","","","","","","1026.5","images/orange4.png","","","learning","1","0","0","0","orange","fruit","1","0","","neutral","0"
"html-keyboard-response","168","617616","0.0-9.0-2.0-0.48","5723","1","12","Male","approach_avoid_spark_v1","""event"",""trial"",""time""
""fullscreenenter"",""1"",""9679""
","
","
","""event"",""trial"",""time""
""fullscreenenter"",""1"",""9679""
","
","","","","","","null","<div style=""font-size:60px;"">+</div>","null","","fixation","","","","","","","","","","",""
"aa-learning-trial","169","620634","0.0-9.0-2.0-1.48","5723","1","12","Male","approach_avoid_spark_v1","""event"",""trial"",""time""
""fullscreenenter"",""1"",""9679""
","
","
","""event"",""trial"",""time""
""fullscreenenter"",""1"",""9679""
","
","","","","","","762.5","images/orange8.png","","","learning","1","1","1","1","orange","fruit","1","0","","neutral","0"
"html-keyboard-response","170","621143","0.0-9.0-2.0-0.49","5723","1","12","Male","approach_avoid_spark_v1","""event"",""trial"",""time""
""fullscreenenter"",""1"",""9679""
","
","
","""event"",""trial"",""time""
""fullscreenenter"",""1"",""9679""
","
","","","","","","null","<div style=""font-size:60px;"">+</div>","null","","fixation","","","","","","","","","","",""
"aa-learning-trial","171","624155","0.0-9.0-2.0-1.49","5723","1","12","Male","approach_avoid_spark_v1","""event"",""trial"",""time""
""fullscreenenter"",""1"",""9679""
","
","
","""event"",""trial"",""time""
""fullscreenenter"",""1"",""9679""
","
","","","","","","1006.4000000003725","images/straw5.png","","","learning","-2","-2","1","1","straw","fruit","1","0","","bad","[-5]"
"html-keyboard-response","172","624665","0.0-9.0-2.0-0.50","5723","1","12","Male","approach_avoid_spark_v1","""event"",""trial"",""time""
""fullscreenenter"",""1"",""9679""
","
","
","""event"",""trial"",""time""
""fullscreenenter"",""1"",""9679""
","
","","","","","","null","<div style=""font-size:60px;"">+</div>","null","","fixation","","","","","","","","","","",""
"aa-learning-trial","173","627677","0.0-9.0-2.0-1.50","5723","1","12","Male","approach_avoid_spark_v1","""event"",""trial"",""time""
""fullscreenenter"",""1"",""9679""
","
","
","""event"",""trial"",""time""
""fullscreenenter"",""1"",""9679""
","
","","","","","","817","images/banana6.png","","","learning","4","4","1","1","banana","fruit","1","0","","good","[6]"
"html-button-response","174","634840","0.0-9.0-3.0","5723","1","12","Male","approach_avoid_spark_v1","""event"",""trial"",""time""
""fullscreenenter"",""1"",""9679""
","
","
","""event"",""trial"",""time""
""fullscreenenter"",""1"",""9679""
","
","","","","","","7159.600000000559","<p> You have completed the round! <p> In this round, you earned 24 points! </p>","0","","break","","","","","","","","","","",""
"html-button-response","175","637435","0.0-10.0","5723","1","12","Male","approach_avoid_spark_v1","""event"",""trial"",""time""
""fullscreenenter"",""1"",""9679""
","
","
","""event"",""trial"",""time""
""fullscreenenter"",""1"",""9679""
","
","","","","","","2588.100000000559","<p> Now it's time to play another round. </p>","0","","transition_screen","","","","","","","","","","",""
"preload","176","637622","0.0-11.0-0.0","5723","1","12","Male","approach_avoid_spark_v1","""event"",""trial"",""time""
""fullscreenenter"",""1"",""9679""
","
","
","""event"",""trial"",""time""
""fullscreenenter"",""1"",""9679""
","
","true","false","[]","[]","[]","","","","","","","","","","","","","","","",""
"learning-instructions","177","644734","0.0-11.0-1.0-0.0","5723","1","12","Male","approach_avoid_spark_v1","""event"",""trial"",""time""
""fullscreenenter"",""1"",""9679""
","
","
","""event"",""trial"",""time""
""fullscreenenter"",""1"",""9679""
","
","","","","","","3100.100000000559","<p> Your goal in this round is to take care of lots of farm animals. </p></div>","","0","instructions","","","","","","","","","","",""
"learning-instructions","178","654804","0.0-11.0-1.0-0.1","5723","1","12","Male","approach_avoid_spark_v1","""event"",""trial"",""time""
""fullscreenenter"",""1"",""9679""
","
","
","""event"",""trial"",""time""
""fullscreenenter"",""1"",""9679""
","
","","","","","","559.8999999994412","<p> Some farm animals are hungry, while other farm animals are already full.  </p><p> On each turn, you will see a farm animal.   </p><p> You need to decide whether to feed it or not.  </p>","","0","instructions","","","","","","","","","","",""
"learning-instructions","179","662150","0.0-11.0-1.0-0.2","5723","1","12","Male","approach_avoid_spark_v1","""event"",""trial"",""time""
""fullscreenenter"",""1"",""9679""
","
","
","""event"",""trial"",""time""
""fullscreenenter"",""1"",""9679""
","
","","","","","","1844.8999999994412","<p> You can feed the farm animal by pressing 1 and leave the farm animal alone by pressing 0. </p><br><div class=""choice-instructions-grid""> <div class=""choice-option""><img src=""images/approach.png"" class=""choice-option-img"" stage=""instructions"" position=""0"" ><div class=""choice-option-text""> Press ""1."" </div></div><div class=""choice-option""><img src=""images/avoid.png"" class=""choice-option-img"" stage=""instructions"" position=""1"" ><div class=""choice-option-text""> Press ""0."" </div></div>","","0","instructions","","","","","","","","","","",""
"learning-instructions","180","671992","0.0-11.0-1.0-0.3","5723","1","12","Male","approach_avoid_spark_v1","""event"",""trial"",""time""
""fullscreenenter"",""1"",""9679""
","
","
","""event"",""trial"",""time""
""fullscreenenter"",""1"",""9679""
","
","","","","","","1046.7000000001863","<p> If you feed a hungry farm animal, you will make it feel satisfied! </p><p> But if you feed the farm animal and it was already full, you will make it feel sick. </p>","","0","instructions","","","","","","","","","","",""
"learning-instructions","181","685603","0.0-11.0-1.0-0.4","5723","1","12","Male","approach_avoid_spark_v1","""event"",""trial"",""time""
""fullscreenenter"",""1"",""9679""
","
","
","""event"",""trial"",""time""
""fullscreenenter"",""1"",""9679""
","
","","","","","","1889.5999999996275","<p> You will earn points based on how you made the farm animal feel. </p><p> If you made it satisfied, you will WIN anywhere from 1 - 9 points, </p><p> but if you made it sick, you will LOSE anywhere from 1 - 9 points. </p>","","0","instructions","","","","","","","","","","",""
"learning-instructions","182","692822","0.0-11.0-1.0-0.5","5723","1","12","Male","approach_avoid_spark_v1","""event"",""trial"",""time""
""fullscreenenter"",""1"",""9679""
","
","
","""event"",""trial"",""time""
""fullscreenenter"",""1"",""9679""
","
","","","","","","550.1999999992549","<p> You will see how many points you won or lost in the center of the screen. </p><p> Here is what you would see if you won 5 points: </p><p style=""color:green;font-size:50px;font-weight:bolder"">5</p>","","0","instructions","","","","","","","","","","",""
"learning-instructions","183","696810","0.0-11.0-1.0-0.6","5723","1","12","Male","approach_avoid_spark_v1","""event"",""trial"",""time""
""fullscreenenter"",""1"",""9679""
","
","
","""event"",""trial"",""time""
""fullscreenenter"",""1"",""9679""
","
","","","","","","1138.699999999255","<p> And here is what you would see if you lost 3 points: </p><p style=""color:red;font-size:50px;font-weight:bolder"">-3</p>","","0","instructions","","","","","","","","","","",""
"learning-instructions","184","712430","0.0-11.0-1.0-0.7","5723","1","12","Male","approach_avoid_spark_v1","""event"",""trial"",""time""
""fullscreenenter"",""1"",""9679""
","
","
","""event"",""trial"",""time""
""fullscreenenter"",""1"",""9679""
","
","","","","","","819.6999999992549","<p> Some farm animals will become very satisfied or very sick. </p><p> These farm animals will make you win or lose LOTS of points. </p><p> Other farm animals have less strong feelings. </p><p> These farm animals will make you win or lose small amounts of points. </p>","","0","instructions","","","","","","","","","","",""
"learning-instructions","185","725904","0.0-11.0-1.0-0.8","5723","1","12","Male","approach_avoid_spark_v1","""event"",""trial"",""time""
""fullscreenenter"",""1"",""9679""
","
","
","""event"",""trial"",""time""
""fullscreenenter"",""1"",""9679""
","
","","","","","","2124.0999999996275","<p> If you choose to leave the farm animal alone, you will not win or lose any points. </p><p>  However, in the center of the screen, you will see the number of points you WOULD HAVE won or lost if you had fed the farm animal. </p>","","0","instructions","","","","","","","","","","",""
"learning-instructions","186","737990","0.0-11.0-1.0-0.9","5723","1","12","Male","approach_avoid_spark_v1","""event"",""trial"",""time""
""fullscreenenter"",""1"",""9679""
","
","
","""event"",""trial"",""time""
""fullscreenenter"",""1"",""9679""
","
","","","","","","1358.7999999998137","<p> Here is what you might see if you did not feed the farm animal but the animal was hungry: </p><p style=""color:grey; font-size:50px; display: inline-block; border-spacing: 15px; border-width:3px; border-style:solid; border-color:red"">  &nbsp; 6 &nbsp; </p><p> Remember, in this case, you would not win or lose ANY points because you did not feed the farm animal.  </p>","","0","instructions","","","","","","","","","","",""
"learning-instructions","187","746401","0.0-11.0-1.0-0.10","5723","1","12","Male","approach_avoid_spark_v1","""event"",""trial"",""time""
""fullscreenenter"",""1"",""9679""
","
","
","""event"",""trial"",""time""
""fullscreenenter"",""1"",""9679""
","
","","","","","","1231.2000000001863","<p> Try to make the best choice for each farm animal because </p><p> at the end of the game, you will earn bonus money based on how many points you earned. </p>","","0","instructions","","","","","","","","","","",""
"learning-instructions","188","756329","0.0-11.0-1.0-0.11","5723","1","12","Male","approach_avoid_spark_v1","""event"",""trial"",""time""
""fullscreenenter"",""1"",""9679""
","
","
","""event"",""trial"",""time""
""fullscreenenter"",""1"",""9679""
","
","","","","","","1728.9000000003725","<p> You will have 3 seconds to make each choice. Try to respond before time runs out! </p><p> You will lose 5 points each time you do not make a response. </p>","","0","instructions","","","","","","","","","","",""
"html-keyboard-response","189","756968","0.0-11.0-2.0-0.0","5723","1","12","Male","approach_avoid_spark_v1","""event"",""trial"",""time""
""fullscreenenter"",""1"",""9679""
","
","
","""event"",""trial"",""time""
""fullscreenenter"",""1"",""9679""
","
","","","","","","null","<div style=""font-size:60px;"">+</div>","null","","fixation","","","","","","","","","","",""
"aa-learning-trial","190","759987","0.0-11.0-2.0-1.0","5723","1","12","Male","approach_avoid_spark_v1","""event"",""trial"",""time""
""fullscreenenter"",""1"",""9679""
","
","
","""event"",""trial"",""time""
""fullscreenenter"",""1"",""9679""
","
","","","","","","1801.0999999996275","images/horse6.png","","","learning","6","6","1","1","horse","animals","2","1","","neutral","0"
"html-keyboard-response","191","760502","0.0-11.0-2.0-0.1","5723","1","12","Male","approach_avoid_spark_v1","""event"",""trial"",""time""
""fullscreenenter"",""1"",""9679""
","
","
","""event"",""trial"",""time""
""fullscreenenter"",""1"",""9679""
","
","","","","","","null","<div style=""font-size:60px;"">+</div>","null","","fixation","","","","","","","","","","",""
"aa-learning-trial","192","763528","0.0-11.0-2.0-1.1","5723","1","12","Male","approach_avoid_spark_v1","""event"",""trial"",""time""
""fullscreenenter"",""1"",""9679""
","
","
","""event"",""trial"",""time""
""fullscreenenter"",""1"",""9679""
","
","","","","","","1659","images/goat3.png","","","learning","-1","-1","1","1","goat","animals","2","1","","good","[5]"
"html-keyboard-response","193","764039","0.0-11.0-2.0-0.2","5723","1","12","Male","approach_avoid_spark_v1","""event"",""trial"",""time""
""fullscreenenter"",""1"",""9679""
","
","
","""event"",""trial"",""time""
""fullscreenenter"",""1"",""9679""
","
","","","","","","null","<div style=""font-size:60px;"">+</div>","null","","fixation","","","","","","","","","","",""
"aa-learning-trial","194","767058","0.0-11.0-2.0-1.2","5723","1","12","Male","approach_avoid_spark_v1","""event"",""trial"",""time""
""fullscreenenter"",""1"",""9679""
","
","
","""event"",""trial"",""time""
""fullscreenenter"",""1"",""9679""
","
","","","","","","1630.2000000001863","images/cow6.png","","","learning","-5","-5","p","","cow","animals","2","1","","bad","[-4]"
"html-keyboard-response","195","767567","0.0-11.0-2.0-0.3","5723","1","12","Male","approach_avoid_spark_v1","""event"",""trial"",""time""
""fullscreenenter"",""1"",""9679""
","
","
","""event"",""trial"",""time""
""fullscreenenter"",""1"",""9679""
","
","","","","","","null","<div style=""font-size:60px;"">+</div>","null","","fixation","","","","","","","","","","",""
"aa-learning-trial","196","770583","0.0-11.0-2.0-1.3","5723","1","12","Male","approach_avoid_spark_v1","""event"",""trial"",""time""
""fullscreenenter"",""1"",""9679""
","
","
","""event"",""trial"",""time""
""fullscreenenter"",""1"",""9679""
","
","","","","","","1130","images/horse6.png","","","learning","6","6","1","1","horse","animals","2","1","","neutral","0"
"html-keyboard-response","197","771096","0.0-11.0-2.0-0.4","5723","1","12","Male","approach_avoid_spark_v1","""event"",""trial"",""time""
""fullscreenenter"",""1"",""9679""
","
","
","""event"",""trial"",""time""
""fullscreenenter"",""1"",""9679""
","
","","","","","","null","<div style=""font-size:60px;"">+</div>","null","","fixation","","","","","","","","","","",""
"aa-learning-trial","198","774104","0.0-11.0-2.0-1.4","5723","1","12","Male","approach_avoid_spark_v1","""event"",""trial"",""time""
""fullscreenenter"",""1"",""9679""
","
","
","""event"",""trial"",""time""
""fullscreenenter"",""1"",""9679""
","
","","","","","","1480","images/horse2.png","","","learning","1","0","0","0","horse","animals","2","1","","neutral","0"
"html-keyboard-response","199","774608","0.0-11.0-2.0-0.5","5723","1","12","Male","approach_avoid_spark_v1","""event"",""trial"",""time""
""fullscreenenter"",""1"",""9679""
","
","
","""event"",""trial"",""time""
""fullscreenenter"",""1"",""9679""
","
","","","","","","null","<div style=""font-size:60px;"">+</div>","null","","fixation","","","","","","","","","","",""
"aa-learning-trial","200","777622","0.0-11.0-2.0-1.5","5723","1","12","Male","approach_avoid_spark_v1","""event"",""trial"",""time""
""fullscreenenter"",""1"",""9679""
","
","
","""event"",""trial"",""time""
""fullscreenenter"",""1"",""9679""
","
","","","","","","1037.2999999998137","images/goat3.png","","","learning","-1","0","0","0","goat","animals","2","1","","good","[5]"
"html-keyboard-response","201","778142","0.0-11.0-2.0-0.6","5723","1","12","Male","approach_avoid_spark_v1","""event"",""trial"",""time""
""fullscreenenter"",""1"",""9679""
","
","
","""event"",""trial"",""time""
""fullscreenenter"",""1"",""9679""
","
","","","","","","null","<div style=""font-size:60px;"">+</div>","null","","fixation","","","","","","","","","","",""
"aa-learning-trial","202","781162","0.0-11.0-2.0-1.6","5723","1","12","Male","approach_avoid_spark_v1","""event"",""trial"",""time""
""fullscreenenter"",""1"",""9679""
","
","
","""event"",""trial"",""time""
""fullscreenenter"",""1"",""9679""
","
","","","","","","1853.7000000001863","images/cow3.png","","","learning","-8","-8","1","1","cow","animals","2","1","","bad","[-4]"
"html-keyboard-response","203","781671","0.0-11.0-2.0-0.7","5723","1","12","Male","approach_avoid_spark_v1","""event"",""trial"",""time""
""fullscreenenter"",""1"",""9679""
","
","
","""event"",""trial"",""time""
""fullscreenenter"",""1"",""9679""
","
","","","","","","null","<div style=""font-size:60px;"">+</div>","null","","fixation","","","","","","","","","","",""
"aa-learning-trial","204","784683","0.0-11.0-2.0-1.7","5723","1","12","Male","approach_avoid_spark_v1","""event"",""trial"",""time""
""fullscreenenter"",""1"",""9679""
","
","
","""event"",""trial"",""time""
""fullscreenenter"",""1"",""9679""
","
","","","","","","1275.300000000745","images/goat1.png","","","learning","3","3","1","1","goat","animals","2","1","","good","[5]"
"html-keyboard-response","205","785186","0.0-11.0-2.0-0.8","5723","1","12","Male","approach_avoid_spark_v1","""event"",""trial"",""time""
""fullscreenenter"",""1"",""9679""
","
","
","""event"",""trial"",""time""
""fullscreenenter"",""1"",""9679""
","
","","","","","","null","<div style=""font-size:60px;"">+</div>","null","","fixation","","","","","","","","","","",""
"aa-learning-trial","206","788198","0.0-11.0-2.0-1.8","5723","1","12","Male","approach_avoid_spark_v1","""event"",""trial"",""time""
""fullscreenenter"",""1"",""9679""
","
","
","""event"",""trial"",""time""
""fullscreenenter"",""1"",""9679""
","
","","","","","","1977.7000000001863","images/cow7.png","","","learning","4","0","0","0","cow","animals","2","1","","bad","[-4]"
"html-keyboard-response","207","788701","0.0-11.0-2.0-0.9","5723","1","12","Male","approach_avoid_spark_v1","""event"",""trial"",""time""
""fullscreenenter"",""1"",""9679""
","
","
","""event"",""trial"",""time""
""fullscreenenter"",""1"",""9679""
","
","","","","","","null","<div style=""font-size:60px;"">+</div>","null","","fixation","","","","","","","","","","",""
"aa-learning-trial","208","791711","0.0-11.0-2.0-1.9","5723","1","12","Male","approach_avoid_spark_v1","""event"",""trial"",""time""
""fullscreenenter"",""1"",""9679""
","
","
","""event"",""trial"",""time""
""fullscreenenter"",""1"",""9679""
","
","","","","","","1659.2000000001863","images/horse8.png","","","learning","5","5","1","1","horse","animals","2","1","","neutral","0"
"html-keyboard-response","209","792252","0.0-11.0-2.0-0.10","5723","1","12","Male","approach_avoid_spark_v1","""event"",""trial"",""time""
""fullscreenenter"",""1"",""9679""
","
","
","""event"",""trial"",""time""
""fullscreenenter"",""1"",""9679""
","
","","","","","","null","<div style=""font-size:60px;"">+</div>","null","","fixation","","","","","","","","","","",""
"aa-learning-trial","210","795276","0.0-11.0-2.0-1.10","5723","1","12","Male","approach_avoid_spark_v1","""event"",""trial"",""time""
""fullscreenenter"",""1"",""9679""
","
","
","""event"",""trial"",""time""
""fullscreenenter"",""1"",""9679""
","
","","","","","","983.2999999998137","images/cow7.png","","","learning","4","4","1","1","cow","animals","2","1","","bad","[-4]"
"html-keyboard-response","211","795785","0.0-11.0-2.0-0.11","5723","1","12","Male","approach_avoid_spark_v1","""event"",""trial"",""time""
""fullscreenenter"",""1"",""9679""
","
","
","""event"",""trial"",""time""
""fullscreenenter"",""1"",""9679""
","
","","","","","","null","<div style=""font-size:60px;"">+</div>","null","","fixation","","","","","","","","","","",""
"aa-learning-trial","212","798796","0.0-11.0-2.0-1.11","5723","1","12","Male","approach_avoid_spark_v1","""event"",""trial"",""time""
""fullscreenenter"",""1"",""9679""
","
","
","""event"",""trial"",""time""
""fullscreenenter"",""1"",""9679""
","
","","","","","","729.2999999998137","images/horse8.png","","","learning","5","5","1","1","horse","animals","2","1","","neutral","0"
"html-keyboard-response","213","799304","0.0-11.0-2.0-0.12","5723","1","12","Male","approach_avoid_spark_v1","""event"",""trial"",""time""
""fullscreenenter"",""1"",""9679""
","
","
","""event"",""trial"",""time""
""fullscreenenter"",""1"",""9679""
","
","","","","","","null","<div style=""font-size:60px;"">+</div>","null","","fixation","","","","","","","","","","",""
"aa-learning-trial","214","802307","0.0-11.0-2.0-1.12","5723","1","12","Male","approach_avoid_spark_v1","""event"",""trial"",""time""
""fullscreenenter"",""1"",""9679""
","
","
","""event"",""trial"",""time""
""fullscreenenter"",""1"",""9679""
","
","","","","","","1779.4000000003725","images/goat1.png","","","learning","3","3","1","1","goat","animals","2","1","","good","[5]"
"html-keyboard-response","215","802817","0.0-11.0-2.0-0.13","5723","1","12","Male","approach_avoid_spark_v1","""event"",""trial"",""time""
""fullscreenenter"",""1"",""9679""
","
","
","""event"",""trial"",""time""
""fullscreenenter"",""1"",""9679""
","
","","","","","","null","<div style=""font-size:60px;"">+</div>","null","","fixation","","","","","","","","","","",""
"aa-learning-trial","216","805837","0.0-11.0-2.0-1.13","5723","1","12","Male","approach_avoid_spark_v1","""event"",""trial"",""time""
""fullscreenenter"",""1"",""9679""
","
","
","""event"",""trial"",""time""
""fullscreenenter"",""1"",""9679""
","
","","","","","","1106.0999999996275","images/cow6.png","","","learning","-5","-5","1","1","cow","animals","2","1","","bad","[-4]"
"html-keyboard-response","217","806343","0.0-11.0-2.0-0.14","5723","1","12","Male","approach_avoid_spark_v1","""event"",""trial"",""time""
""fullscreenenter"",""1"",""9679""
","
","
","""event"",""trial"",""time""
""fullscreenenter"",""1"",""9679""
","
","","","","","","null","<div style=""font-size:60px;"">+</div>","null","","fixation","","","","","","","","","","",""
"aa-learning-trial","218","809358","0.0-11.0-2.0-1.14","5723","1","12","Male","approach_avoid_spark_v1","""event"",""trial"",""time""
""fullscreenenter"",""1"",""9679""
","
","
","""event"",""trial"",""time""
""fullscreenenter"",""1"",""9679""
","
","","","","","","1384.5","images/goat8.png","","","learning","8","0","0","0","goat","animals","2","1","","good","[5]"
"html-keyboard-response","219","809862","0.0-11.0-2.0-0.15","5723","1","12","Male","approach_avoid_spark_v1","""event"",""trial"",""time""
""fullscreenenter"",""1"",""9679""
","
","
","""event"",""trial"",""time""
""fullscreenenter"",""1"",""9679""
","
","","","","","","null","<div style=""font-size:60px;"">+</div>","null","","fixation","","","","","","","","","","",""
"aa-learning-trial","220","812876","0.0-11.0-2.0-1.15","5723","1","12","Male","approach_avoid_spark_v1","""event"",""trial"",""time""
""fullscreenenter"",""1"",""9679""
","
","
","""event"",""trial"",""time""
""fullscreenenter"",""1"",""9679""
","
","","","","","","423.30000000074506","images/horse6.png","","","learning","6","6","1","1","horse","animals","2","1","","neutral","0"
"html-keyboard-response","221","813383","0.0-11.0-2.0-0.16","5723","1","12","Male","approach_avoid_spark_v1","""event"",""trial"",""time""
""fullscreenenter"",""1"",""9679""
","
","
","""event"",""trial"",""time""
""fullscreenenter"",""1"",""9679""
","
","","","","","","null","<div style=""font-size:60px;"">+</div>","null","","fixation","","","","","","","","","","",""
"aa-learning-trial","222","816396","0.0-11.0-2.0-1.16","5723","1","12","Male","approach_avoid_spark_v1","""event"",""trial"",""time""
""fullscreenenter"",""1"",""9679""
","
","
","""event"",""trial"",""time""
""fullscreenenter"",""1"",""9679""
","
","","","","","","802.5","images/horse2.png","","","learning","1","1","1","1","horse","animals","2","1","","neutral","0"
"html-keyboard-response","223","816907","0.0-11.0-2.0-0.17","5723","1","12","Male","approach_avoid_spark_v1","""event"",""trial"",""time""
""fullscreenenter"",""1"",""9679""
","
","
","""event"",""trial"",""time""
""fullscreenenter"",""1"",""9679""
","
","","","","","","null","<div style=""font-size:60px;"">+</div>","null","","fixation","","","","","","","","","","",""
"aa-learning-trial","224","819915","0.0-11.0-2.0-1.17","5723","1","12","Male","approach_avoid_spark_v1","""event"",""trial"",""time""
""fullscreenenter"",""1"",""9679""
","
","
","""event"",""trial"",""time""
""fullscreenenter"",""1"",""9679""
","
","","","","","","743.9000000003725","images/horse8.png","","","learning","5","5","1","1","horse","animals","2","1","","neutral","0"
"html-keyboard-response","225","820419","0.0-11.0-2.0-0.18","5723","1","12","Male","approach_avoid_spark_v1","""event"",""trial"",""time""
""fullscreenenter"",""1"",""9679""
","
","
","""event"",""trial"",""time""
""fullscreenenter"",""1"",""9679""
","
","","","","","","null","<div style=""font-size:60px;"">+</div>","null","","fixation","","","","","","","","","","",""
"aa-learning-trial","226","823428","0.0-11.0-2.0-1.18","5723","1","12","Male","approach_avoid_spark_v1","""event"",""trial"",""time""
""fullscreenenter"",""1"",""9679""
","
","
","""event"",""trial"",""time""
""fullscreenenter"",""1"",""9679""
","
","","","","","","1226.2999999998137","images/cow6.png","","","learning","-5","-5","1","1","cow","animals","2","1","","bad","[-4]"
"html-keyboard-response","227","823941","0.0-11.0-2.0-0.19","5723","1","12","Male","approach_avoid_spark_v1","""event"",""trial"",""time""
""fullscreenenter"",""1"",""9679""
","
","
","""event"",""trial"",""time""
""fullscreenenter"",""1"",""9679""
","
","","","","","","null","<div style=""font-size:60px;"">+</div>","null","","fixation","","","","","","","","","","",""
"aa-learning-trial","228","826955","0.0-11.0-2.0-1.19","5723","1","12","Male","approach_avoid_spark_v1","""event"",""trial"",""time""
""fullscreenenter"",""1"",""9679""
","
","
","""event"",""trial"",""time""
""fullscreenenter"",""1"",""9679""
","
","","","","","","701.3999999994412","images/cow6.png","","","learning","-5","0","0","0","cow","animals","2","1","","bad","[-4]"
"html-keyboard-response","229","827461","0.0-11.0-2.0-0.20","5723","1","12","Male","approach_avoid_spark_v1","""event"",""trial"",""time""
""fullscreenenter"",""1"",""9679""
","
","
","""event"",""trial"",""time""
""fullscreenenter"",""1"",""9679""
","
","","","","","","null","<div style=""font-size:60px;"">+</div>","null","","fixation","","","","","","","","","","",""
"aa-learning-trial","230","830467","0.0-11.0-2.0-1.20","5723","1","12","Male","approach_avoid_spark_v1","""event"",""trial"",""time""
""fullscreenenter"",""1"",""9679""
","
","
","""event"",""trial"",""time""
""fullscreenenter"",""1"",""9679""
","
","","","","","","1452.2999999998137","images/cow8.png","","","learning","7","7","1","1","cow","animals","2","1","","bad","[-4]"
"html-keyboard-response","231","830972","0.0-11.0-2.0-0.21","5723","1","12","Male","approach_avoid_spark_v1","""event"",""trial"",""time""
""fullscreenenter"",""1"",""9679""
","
","
","""event"",""trial"",""time""
""fullscreenenter"",""1"",""9679""
","
","","","","","","null","<div style=""font-size:60px;"">+</div>","null","","fixation","","","","","","","","","","",""
"aa-learning-trial","232","834003","0.0-11.0-2.0-1.21","5723","1","12","Male","approach_avoid_spark_v1","""event"",""trial"",""time""
""fullscreenenter"",""1"",""9679""
","
","
","""event"",""trial"",""time""
""fullscreenenter"",""1"",""9679""
","
","","","","","","834.5999999996275","images/horse8.png","","","learning","5","5","1","1","horse","animals","2","1","","neutral","0"
"html-keyboard-response","233","834514","0.0-11.0-2.0-0.22","5723","1","12","Male","approach_avoid_spark_v1","""event"",""trial"",""time""
""fullscreenenter"",""1"",""9679""
","
","
","""event"",""trial"",""time""
""fullscreenenter"",""1"",""9679""
","
","","","","","","null","<div style=""font-size:60px;"">+</div>","null","","fixation","","","","","","","","","","",""
"aa-learning-trial","234","837522","0.0-11.0-2.0-1.22","5723","1","12","Male","approach_avoid_spark_v1","""event"",""trial"",""time""
""fullscreenenter"",""1"",""9679""
","
","
","""event"",""trial"",""time""
""fullscreenenter"",""1"",""9679""
","
","","","","","","1237.2999999998137","images/horse6.png","","","learning","6","6","1","1","horse","animals","2","1","","neutral","0"
"html-keyboard-response","235","838029","0.0-11.0-2.0-0.23","5723","1","12","Male","approach_avoid_spark_v1","""event"",""trial"",""time""
""fullscreenenter"",""1"",""9679""
","
","
","""event"",""trial"",""time""
""fullscreenenter"",""1"",""9679""
","
","","","","","","null","<div style=""font-size:60px;"">+</div>","null","","fixation","","","","","","","","","","",""
"aa-learning-trial","236","841040","0.0-11.0-2.0-1.23","5723","1","12","Male","approach_avoid_spark_v1","""event"",""trial"",""time""
""fullscreenenter"",""1"",""9679""
","
","
","""event"",""trial"",""time""
""fullscreenenter"",""1"",""9679""
","
","","","","","","1219.2999999998137","images/goat1.png","","","learning","3","0","0","0","goat","animals","2","1","","good","[5]"
"html-keyboard-response","237","841544","0.0-11.0-2.0-0.24","5723","1","12","Male","approach_avoid_spark_v1","""event"",""trial"",""time""
""fullscreenenter"",""1"",""9679""
","
","
","""event"",""trial"",""time""
""fullscreenenter"",""1"",""9679""
","
","","","","","","null","<div style=""font-size:60px;"">+</div>","null","","fixation","","","","","","","","","","",""
