"trial_type","trial_index","time_elapsed","internal_node_id","subject_id","task_condition","age","gender","task_version","interactions","blur_events","focus_events","fullscreenenter_events","fullscreenexit_events","success","timeout","failed_images","failed_audio","failed_video","rt","stimulus","response","button_pressed","task_part","approach_reward","points","key_press","option_selected","stim_cat","task_block","block_condition","block_number","correct","cat_type","mean_cat_reward"
"pavlovia","0","8","0.0-0.0","3834","1","13","Female","approach_avoid_spark_v1","""event"",""trial"",""time""
""focus"",""0"",""0""
""fullscreenenter"",""1"",""3416""
","
","""event"",""trial"",""time""
""focus"",""0"",""0""
","""event"",""trial"",""time""
""fullscreenenter"",""1"",""3416""
","
","","","","","","","","","","","","","","","","","","","","",""
"fullscreen","1","4068","0.0-1.0","3834","1","13","Female","approach_avoid_spark_v1","""event"",""trial"",""time""
""focus"",""0"",""0""
""fullscreenenter"",""1"",""3416""
","
","""event"",""trial"",""time""
""focus"",""0"",""0""
","""event"",""trial"",""time""
""fullscreenenter"",""1"",""3416""
","
","true","","","","","","","","","","","","","","","","","","","",""
"preload","2","6951","0.0-2.0","3834","1","13","Female","approach_avoid_spark_v1","""event"",""trial"",""time""
""focus"",""0"",""0""
""fullscreenenter"",""1"",""3416""
","
","""event"",""trial"",""time""
""focus"",""0"",""0""
","""event"",""trial"",""time""
""fullscreenenter"",""1"",""3416""
","
","true","false","[]","[]","[]","","","","","","","","","","","","","","","",""
"audio-keyboard-response","3","9079","0.0-3.0","3834","1","13","Female","approach_avoid_spark_v1","""event"",""trial"",""time""
""focus"",""0"",""0""
""fullscreenenter"",""1"",""3416""
","
","""event"",""trial"",""time""
""focus"",""0"",""0""
","""event"",""trial"",""time""
""fullscreenenter"",""1"",""3416""
","
","","","","","","2130.666666666667","audio/beep_loop.wav"," ","","","","","","","","","","","","",""
"audio-button-response","4","13143","0.0-4.0","3834","1","13","Female","approach_avoid_spark_v1","""event"",""trial"",""time""
""focus"",""0"",""0""
""fullscreenenter"",""1"",""3416""
","
","""event"",""trial"",""time""
""focus"",""0"",""0""
","""event"",""trial"",""time""
""fullscreenenter"",""1"",""3416""
","
","","","","","","4059","audio/shark.wav","4","","","","","","","","","","","","",""
"audio-button-response","5","15733","0.0-5.0","3834","1","13","Female","approach_avoid_spark_v1","""event"",""trial"",""time""
""focus"",""0"",""0""
""fullscreenenter"",""1"",""3416""
","
","""event"",""trial"",""time""
""focus"",""0"",""0""
","""event"",""trial"",""time""
""fullscreenenter"",""1"",""3416""
","
","","","","","","1592","audio/turtle.wav","1","","","","","","","","","","","","",""
"preload","6","18109","0.0-6.0","3834","1","13","Female","approach_avoid_spark_v1","""event"",""trial"",""time""
""focus"",""0"",""0""
""fullscreenenter"",""1"",""3416""
","
","""event"",""trial"",""time""
""focus"",""0"",""0""
","""event"",""trial"",""time""
""fullscreenenter"",""1"",""3416""
","
","true","false","[]","[]","[]","","","","","","","","","","","","","","","",""
"html-keyboard-response","7","21206","0.0-7.0","3834","1","13","Female","approach_avoid_spark_v1","""event"",""trial"",""time""
""focus"",""0"",""0""
""fullscreenenter"",""1"",""3416""
","
","""event"",""trial"",""time""
""focus"",""0"",""0""
","""event"",""trial"",""time""
""fullscreenenter"",""1"",""3416""
","
","","","","","","3096","Welcome to the experiment. Press any key to begin and to advance the instructions.","k","","","","","","","","","","","","",""
"learning-instructions","8","29398","0.0-8.0-0.0-0.0","3834","1","13","Female","approach_avoid_spark_v1","""event"",""trial"",""time""
""focus"",""0"",""0""
""fullscreenenter"",""1"",""3416""
","
","""event"",""trial"",""time""
""focus"",""0"",""0""
","""event"",""trial"",""time""
""fullscreenenter"",""1"",""3416""
","
","","","","","","1222","<p> Welcome! Today you are going to play 6 different rounds of a decision-making game. </p><p> Use the mouse to click next to continue. </p>","","0","instructions","","","","","","","","","","",""
"learning-instructions","9","37758","0.0-8.0-0.0-0.1","3834","1","13","Female","approach_avoid_spark_v1","""event"",""trial"",""time""
""focus"",""0"",""0""
""fullscreenenter"",""1"",""3416""
","
","""event"",""trial"",""time""
""focus"",""0"",""0""
","""event"",""trial"",""time""
""fullscreenenter"",""1"",""3416""
","
","","","","","","5622","<p> You will start with a practice round to learn the rules. </p>","","0","instructions","","","","","","","","","","",""
"learning-instructions","10","43317","0.0-8.0-0.0-0.2","3834","1","13","Female","approach_avoid_spark_v1","""event"",""trial"",""time""
""focus"",""0"",""0""
""fullscreenenter"",""1"",""3416""
","
","""event"",""trial"",""time""
""focus"",""0"",""0""
","""event"",""trial"",""time""
""fullscreenenter"",""1"",""3416""
","
","","","","","","2103","<p> Your goal in this round is to give out sports equipment to kids. </p></div>","","0","instructions","","","","","","","","","","",""
"learning-instructions","11","55653","0.0-8.0-0.0-0.3","3834","1","13","Female","approach_avoid_spark_v1","""event"",""trial"",""time""
""focus"",""0"",""0""
""fullscreenenter"",""1"",""3416""
","
","""event"",""trial"",""time""
""focus"",""0"",""0""
","""event"",""trial"",""time""
""fullscreenenter"",""1"",""3416""
","
","","","","","","4769","<p> The kids only like some of the equipment.  </p><p> On each turn, you will see a piece of sports equipment.   </p><p> You need to decide whether to give it to the kids or not.  </p>","","0","instructions","","","","","","","","","","",""
"learning-instructions","12","65454","0.0-8.0-0.0-0.4","3834","1","13","Female","approach_avoid_spark_v1","""event"",""trial"",""time""
""focus"",""0"",""0""
""fullscreenenter"",""1"",""3416""
","
","""event"",""trial"",""time""
""focus"",""0"",""0""
","""event"",""trial"",""time""
""fullscreenenter"",""1"",""3416""
","
","","","","","","5027","<p> You can give them the equipment by pressing 1 and choose not to give it to them by pressing 0. </p><br><div class=""choice-instructions-grid""> <div class=""choice-option""><img src=""images/approach.png"" class=""choice-option-img"" stage=""instructions"" position=""0"" ><div class=""choice-option-text""> Press ""1."" </div></div><div class=""choice-option""><img src=""images/avoid.png"" class=""choice-option-img"" stage=""instructions"" position=""1"" ><div class=""choice-option-text""> Press ""0."" </div></div>","","0","instructions","","","","","","","","","","",""
"learning-instructions","13","76334","0.0-8.0-0.0-0.5","3834","1","13","Female","approach_avoid_spark_v1","""event"",""trial"",""time""
""focus"",""0"",""0""
""fullscreenenter"",""1"",""3416""
","
","""event"",""trial"",""time""
""focus"",""0"",""0""
","""event"",""trial"",""time""
""fullscreenenter"",""1"",""3416""
","
","","","","","","3488","<p> If you give them a piece of equipment they like, they will be happy! </p><p> But if you give them a piece of equipment they do not like, they will be sad. </p>","","0","instructions","","","","","","","","","","",""
"learning-instructions","14","87742","0.0-8.0-0.0-0.6","3834","1","13","Female","approach_avoid_spark_v1","""event"",""trial"",""time""
""focus"",""0"",""0""
""fullscreenenter"",""1"",""3416""
","
","""event"",""trial"",""time""
""focus"",""0"",""0""
","""event"",""trial"",""time""
""fullscreenenter"",""1"",""3416""
","
","","","","","","876","<p> You will earn points based on how you make kids feel. </p><p> If you make them happy, you will WIN anywhere from 1 - 9 points, </p><p> but if you make them sad, you will LOSE anywhere from 1 - 9 points. </p>","","0","instructions","","","","","","","","","","",""
"learning-instructions","15","98134","0.0-8.0-0.0-0.7","3834","1","13","Female","approach_avoid_spark_v1","""event"",""trial"",""time""
""focus"",""0"",""0""
""fullscreenenter"",""1"",""3416""
","
","""event"",""trial"",""time""
""focus"",""0"",""0""
","""event"",""trial"",""time""
""fullscreenenter"",""1"",""3416""
","
","","","","","","829","<p> You will see how many points you won or lost in the center of the screen. </p><p> Here is what you would see if you won 6 points: </p><p style=""color:green;font-size:50px;font-weight:bolder"">6</p><p style=""color:green"">The text is GREEN because you WON points.</p>","","0","instructions","","","","","","","","","","",""
"learning-instructions","16","104421","0.0-8.0-0.0-0.8","3834","1","13","Female","approach_avoid_spark_v1","""event"",""trial"",""time""
""focus"",""0"",""0""
""fullscreenenter"",""1"",""3416""
","
","""event"",""trial"",""time""
""focus"",""0"",""0""
","""event"",""trial"",""time""
""fullscreenenter"",""1"",""3416""
","
","","","","","","775","<p> And here is what you would see if you lost 4 points: </p><p style=""color:red;font-size:50px;font-weight:bolder"">-4</p><p style=""color:red"">The text is RED because you LOST points. </p>","","0","instructions","","","","","","","","","","",""
"learning-instructions","17","122238","0.0-8.0-0.0-0.9","3834","1","13","Female","approach_avoid_spark_v1","""event"",""trial"",""time""
""focus"",""0"",""0""
""fullscreenenter"",""1"",""3416""
","
","""event"",""trial"",""time""
""focus"",""0"",""0""
","""event"",""trial"",""time""
""fullscreenenter"",""1"",""3416""
","
","","","","","","3093","<p> Some of the equipment will make the kids VERY happy or sad. </p><p> These pieces of equipment will make you win or lose LOTS of points. </p><p> Other pieces of equipment will only make the kids a little happy or sad. </p><p> These pieces of equipment will make you win or lose small amounts of points. </p>","","0","instructions","","","","","","","","","","",""
"learning-instructions","18","133950","0.0-8.0-0.0-0.10","3834","1","13","Female","approach_avoid_spark_v1","""event"",""trial"",""time""
""focus"",""0"",""0""
""fullscreenenter"",""1"",""3416""
","
","""event"",""trial"",""time""
""focus"",""0"",""0""
","""event"",""trial"",""time""
""fullscreenenter"",""1"",""3416""
","
","","","","","","1084","<p> If you choose not to give them the equipment, you will not win or lose any points. </p><p>  However, in the center of the screen, you will see the number of points you WOULD HAVE won or lost if you had given them the equipment. </p>","","0","instructions","","","","","","","","","","",""
"learning-instructions","19","156047","0.0-8.0-0.0-0.11","3834","1","13","Female","approach_avoid_spark_v1","""event"",""trial"",""time""
""focus"",""0"",""0""
""fullscreenenter"",""1"",""3416""
","
","""event"",""trial"",""time""
""focus"",""0"",""0""
","""event"",""trial"",""time""
""fullscreenenter"",""1"",""3416""
","
","","","","","","569","<p> Here is what you might see if you did not give the equipment to the kids but it would have made them happy: </p><p style=""color:grey; font-size:50px; display: inline-block; border-spacing: 15px; border-width:3px; border-style:solid; border-color:red"">  &nbsp; 7 &nbsp; </p><p> Remember, in this case, you would not win or lose ANY points because you did not give them the equipment.  </p><p style=""color:grey"">The text is GREY because you earned ZERO points. </p><p style=""color:red"">However, choosing to give the kids the equipment would have made you win points. The box around the text is RED because you chose the worse option. </p>","","0","instructions","","","","","","","","","","",""
"learning-instructions","20","178494","0.0-8.0-0.0-0.12","3834","1","13","Female","approach_avoid_spark_v1","""event"",""trial"",""time""
""focus"",""0"",""0""
""fullscreenenter"",""1"",""3416""
","
","""event"",""trial"",""time""
""focus"",""0"",""0""
","""event"",""trial"",""time""
""fullscreenenter"",""1"",""3416""
","
","","","","","","1368","<p> Here is what you might see if you did not give the equipment to the kids but it would have made them sad: </p><p style=""color:grey;font-size:50px; display: inline-block; border-spacing: 15px; border-width:3px; border-style:solid; border-color:green"">  &nbsp; -8 &nbsp; </p><p> Remember, in this case, you would not win or lose ANY points because you did not give them the equipment.  </p><p style=""color:grey"">The text is GREY because you earned ZERO points. </p><p  style=""color:green""> Choosing to give the kids the equipment would have made you lose points. The box around the text is GREEN because you chose the better option.</p>","","0","instructions","","","","","","","","","","",""
"learning-instructions","21","189933","0.0-8.0-0.0-0.13","3834","1","13","Female","approach_avoid_spark_v1","""event"",""trial"",""time""
""focus"",""0"",""0""
""fullscreenenter"",""1"",""3416""
","
","""event"",""trial"",""time""
""focus"",""0"",""0""
","""event"",""trial"",""time""
""fullscreenenter"",""1"",""3416""
","
","","","","","","1167","<p> You will have 3 seconds to make each choice. Try to respond before time runs out! </p><p> You will lose 5 points each time you do not make a response. </p>","","0","instructions","","","","","","","","","","",""
"learning-instructions","22","196750","0.0-8.0-0.0-0.14","3834","1","13","Female","approach_avoid_spark_v1","""event"",""trial"",""time""
""focus"",""0"",""0""
""fullscreenenter"",""1"",""3416""
","
","""event"",""trial"",""time""
""focus"",""0"",""0""
","""event"",""trial"",""time""
""fullscreenenter"",""1"",""3416""
","
","","","","","","1394","<p> This is just a practice round, but in the real game, your bonus payment will depend on your total number of points.","","0","instructions","","","","","","","","","","",""
"learning-instructions","23","203054","0.0-8.0-0.0-0.15","3834","1","13","Female","approach_avoid_spark_v1","""event"",""trial"",""time""
""focus"",""0"",""0""
""fullscreenenter"",""1"",""3416""
","
","""event"",""trial"",""time""
""focus"",""0"",""0""
","""event"",""trial"",""time""
""fullscreenenter"",""1"",""3416""
","
","","","","","","528","<p> Remember, you can give them the equipment by pressing 1 and choose not to give it to them by pressing 0. </p><br><div class=""choice-instructions-grid""> <div class=""choice-option""><img src=""images/approach.png"" class=""choice-option-img"" stage=""instructions"" position=""0"" ><div class=""choice-option-text""> Press ""1."" </div></div><div class=""choice-option""><img src=""images/avoid.png"" class=""choice-option-img"" stage=""instructions"" position=""1"" ><div class=""choice-option-text""> Press ""0."" </div></div>","","0","instructions","","","","","","","","","","",""
"html-button-response","24","205581","0.0-8.0-1.0","3834","1","13","Female","approach_avoid_spark_v1","""event"",""trial"",""time""
""focus"",""0"",""0""
""fullscreenenter"",""1"",""3416""
","
","""event"",""trial"",""time""
""focus"",""0"",""0""
","""event"",""trial"",""time""
""fullscreenenter"",""1"",""3416""
","
","","","","","","2425","<p> Ready to practice? </p>","0","","","","","","","","","","","","",""
"html-keyboard-response","25","206209","0.0-8.0-2.0-0.0","3834","1","13","Female","approach_avoid_spark_v1","""event"",""trial"",""time""
""focus"",""0"",""0""
""fullscreenenter"",""1"",""3416""
","
","""event"",""trial"",""time""
""focus"",""0"",""0""
","""event"",""trial"",""time""
""fullscreenenter"",""1"",""3416""
","
","","","","","","null","<div style=""font-size:60px;"">+</div>","null","","fixation","","","","","","","","","","",""
"aa-learning-trial","26","209214","0.0-8.0-2.0-1.0","3834","1","13","Female","approach_avoid_spark_v1","""event"",""trial"",""time""
""focus"",""0"",""0""
""fullscreenenter"",""1"",""3416""
","
","""event"",""trial"",""time""
""focus"",""0"",""0""
","""event"",""trial"",""time""
""fullscreenenter"",""1"",""3416""
","
","","","","","","1333","images/racket2.png","","","learning","-2","-2","1","1","practice","practice","practice","-1","","",""
"html-keyboard-response","27","209725","0.0-8.0-2.0-0.1","3834","1","13","Female","approach_avoid_spark_v1","""event"",""trial"",""time""
""focus"",""0"",""0""
""fullscreenenter"",""1"",""3416""
","
","""event"",""trial"",""time""
""focus"",""0"",""0""
","""event"",""trial"",""time""
""fullscreenenter"",""1"",""3416""
","
","","","","","","null","<div style=""font-size:60px;"">+</div>","null","","fixation","","","","","","","","","","",""
"aa-learning-trial","28","212739","0.0-8.0-2.0-1.1","3834","1","13","Female","approach_avoid_spark_v1","""event"",""trial"",""time""
""focus"",""0"",""0""
""fullscreenenter"",""1"",""3416""
","
","""event"",""trial"",""time""
""focus"",""0"",""0""
","""event"",""trial"",""time""
""fullscreenenter"",""1"",""3416""
","
","","","","","","751","images/ball1.png","","","learning","7","7","1","1","practice","practice","practice","-1","","",""
"html-keyboard-response","29","213252","0.0-8.0-2.0-0.2","3834","1","13","Female","approach_avoid_spark_v1","""event"",""trial"",""time""
""focus"",""0"",""0""
""fullscreenenter"",""1"",""3416""
","
","""event"",""trial"",""time""
""focus"",""0"",""0""
","""event"",""trial"",""time""
""fullscreenenter"",""1"",""3416""
","
","","","","","","null","<div style=""font-size:60px;"">+</div>","null","","fixation","","","","","","","","","","",""
"aa-learning-trial","30","216262","0.0-8.0-2.0-1.2","3834","1","13","Female","approach_avoid_spark_v1","""event"",""trial"",""time""
""focus"",""0"",""0""
""fullscreenenter"",""1"",""3416""
","
","""event"",""trial"",""time""
""focus"",""0"",""0""
","""event"",""trial"",""time""
""fullscreenenter"",""1"",""3416""
","
","","","","","","776","images/ball1.png","","","learning","-9","-9","1","1","practice","practice","practice","-1","","",""
"html-keyboard-response","31","216774","0.0-8.0-2.0-0.3","3834","1","13","Female","approach_avoid_spark_v1","""event"",""trial"",""time""
""focus"",""0"",""0""
""fullscreenenter"",""1"",""3416""
","
","""event"",""trial"",""time""
""focus"",""0"",""0""
","""event"",""trial"",""time""
""fullscreenenter"",""1"",""3416""
","
","","","","","","null","<div style=""font-size:60px;"">+</div>","null","","fixation","","","","","","","","","","",""
"aa-learning-trial","32","219780","0.0-8.0-2.0-1.3","3834","1","13","Female","approach_avoid_spark_v1","""event"",""trial"",""time""
""focus"",""0"",""0""
""fullscreenenter"",""1"",""3416""
","
","""event"",""trial"",""time""
""focus"",""0"",""0""
","""event"",""trial"",""time""
""fullscreenenter"",""1"",""3416""
","
","","","","","","645","images/ball1.png","","","learning","-2","-2","1","1","practice","practice","practice","-1","","",""
"html-keyboard-response","33","220292","0.0-8.0-2.0-0.4","3834","1","13","Female","approach_avoid_spark_v1","""event"",""trial"",""time""
""focus"",""0"",""0""
""fullscreenenter"",""1"",""3416""
","
","""event"",""trial"",""time""
""focus"",""0"",""0""
","""event"",""trial"",""time""
""fullscreenenter"",""1"",""3416""
","
","","","","","","null","<div style=""font-size:60px;"">+</div>","null","","fixation","","","","","","","","","","",""
"aa-learning-trial","34","223297","0.0-8.0-2.0-1.4","3834","1","13","Female","approach_avoid_spark_v1","""event"",""trial"",""time""
""focus"",""0"",""0""
""fullscreenenter"",""1"",""3416""
","
","""event"",""trial"",""time""
""focus"",""0"",""0""
","""event"",""trial"",""time""
""fullscreenenter"",""1"",""3416""
","
","","","","","","752","images/ball3.png","","","learning","1","1","1","1","practice","practice","practice","-1","","",""
"html-keyboard-response","35","223811","0.0-8.0-2.0-0.5","3834","1","13","Female","approach_avoid_spark_v1","""event"",""trial"",""time""
""focus"",""0"",""0""
""fullscreenenter"",""1"",""3416""
","
","""event"",""trial"",""time""
""focus"",""0"",""0""
","""event"",""trial"",""time""
""fullscreenenter"",""1"",""3416""
","
","","","","","","null","<div style=""font-size:60px;"">+</div>","null","","fixation","","","","","","","","","","",""
"aa-learning-trial","36","226821","0.0-8.0-2.0-1.5","3834","1","13","Female","approach_avoid_spark_v1","""event"",""trial"",""time""
""focus"",""0"",""0""
""fullscreenenter"",""1"",""3416""
","
","""event"",""trial"",""time""
""focus"",""0"",""0""
","""event"",""trial"",""time""
""fullscreenenter"",""1"",""3416""
","
","","","","","","642","images/racket2.png","","","learning","1","0","0","0","practice","practice","practice","-1","","",""
"html-keyboard-response","37","227335","0.0-8.0-2.0-0.6","3834","1","13","Female","approach_avoid_spark_v1","""event"",""trial"",""time""
""focus"",""0"",""0""
""fullscreenenter"",""1"",""3416""
","
","""event"",""trial"",""time""
""focus"",""0"",""0""
","""event"",""trial"",""time""
""fullscreenenter"",""1"",""3416""
","
","","","","","","null","<div style=""font-size:60px;"">+</div>","null","","fixation","","","","","","","","","","",""
"aa-learning-trial","38","230346","0.0-8.0-2.0-1.6","3834","1","13","Female","approach_avoid_spark_v1","""event"",""trial"",""time""
""focus"",""0"",""0""
""fullscreenenter"",""1"",""3416""
","
","""event"",""trial"",""time""
""focus"",""0"",""0""
","""event"",""trial"",""time""
""fullscreenenter"",""1"",""3416""
","
","","","","","","375","images/ball2.png","","","learning","2","2","1","1","practice","practice","practice","-1","","",""
"html-keyboard-response","39","230858","0.0-8.0-2.0-0.7","3834","1","13","Female","approach_avoid_spark_v1","""event"",""trial"",""time""
""focus"",""0"",""0""
""fullscreenenter"",""1"",""3416""
","
","""event"",""trial"",""time""
""focus"",""0"",""0""
","""event"",""trial"",""time""
""fullscreenenter"",""1"",""3416""
","
","","","","","","null","<div style=""font-size:60px;"">+</div>","null","","fixation","","","","","","","","","","",""
"aa-learning-trial","40","233867","0.0-8.0-2.0-1.7","3834","1","13","Female","approach_avoid_spark_v1","""event"",""trial"",""time""
""focus"",""0"",""0""
""fullscreenenter"",""1"",""3416""
","
","""event"",""trial"",""time""
""focus"",""0"",""0""
","""event"",""trial"",""time""
""fullscreenenter"",""1"",""3416""
","
","","","","","","707","images/ball4.png","","","learning","-4","0","0","0","practice","practice","practice","-1","","",""
"html-keyboard-response","41","234379","0.0-8.0-2.0-0.8","3834","1","13","Female","approach_avoid_spark_v1","""event"",""trial"",""time""
""focus"",""0"",""0""
""fullscreenenter"",""1"",""3416""
","
","""event"",""trial"",""time""
""focus"",""0"",""0""
","""event"",""trial"",""time""
""fullscreenenter"",""1"",""3416""
","
","","","","","","null","<div style=""font-size:60px;"">+</div>","null","","fixation","","","","","","","","","","",""
"aa-learning-trial","42","237383","0.0-8.0-2.0-1.8","3834","1","13","Female","approach_avoid_spark_v1","""event"",""trial"",""time""
""focus"",""0"",""0""
""fullscreenenter"",""1"",""3416""
","
","""event"",""trial"",""time""
""focus"",""0"",""0""
","""event"",""trial"",""time""
""fullscreenenter"",""1"",""3416""
","
","","","","","","489","images/ball1.png","","","learning","-6","-6","1","1","practice","practice","practice","-1","","",""
"html-keyboard-response","43","237893","0.0-8.0-2.0-0.9","3834","1","13","Female","approach_avoid_spark_v1","""event"",""trial"",""time""
""focus"",""0"",""0""
""fullscreenenter"",""1"",""3416""
","
","""event"",""trial"",""time""
""focus"",""0"",""0""
","""event"",""trial"",""time""
""fullscreenenter"",""1"",""3416""
","
","","","","","","null","<div style=""font-size:60px;"">+</div>","null","","fixation","","","","","","","","","","",""
"aa-learning-trial","44","240909","0.0-8.0-2.0-1.9","3834","1","13","Female","approach_avoid_spark_v1","""event"",""trial"",""time""
""focus"",""0"",""0""
""fullscreenenter"",""1"",""3416""
","
","""event"",""trial"",""time""
""focus"",""0"",""0""
","""event"",""trial"",""time""
""fullscreenenter"",""1"",""3416""
","
","","","","","","744","images/racket3.png","","","learning","-7","-7","1","1","practice","practice","practice","-1","","",""
"html-keyboard-response","45","241413","0.0-8.0-2.0-0.10","3834","1","13","Female","approach_avoid_spark_v1","""event"",""trial"",""time""
""focus"",""0"",""0""
""fullscreenenter"",""1"",""3416""
","
","""event"",""trial"",""time""
""focus"",""0"",""0""
","""event"",""trial"",""time""
""fullscreenenter"",""1"",""3416""
","
","","","","","","null","<div style=""font-size:60px;"">+</div>","null","","fixation","","","","","","","","","","",""
"aa-learning-trial","46","244420","0.0-8.0-2.0-1.10","3834","1","13","Female","approach_avoid_spark_v1","""event"",""trial"",""time""
""focus"",""0"",""0""
""fullscreenenter"",""1"",""3416""
","
","""event"",""trial"",""time""
""focus"",""0"",""0""
","""event"",""trial"",""time""
""fullscreenenter"",""1"",""3416""
","
","","","","","","608","images/ball3.png","","","learning","1","0","0","0","practice","practice","practice","-1","","",""
"html-keyboard-response","47","244932","0.0-8.0-2.0-0.11","3834","1","13","Female","approach_avoid_spark_v1","""event"",""trial"",""time""
""focus"",""0"",""0""
""fullscreenenter"",""1"",""3416""
","
","""event"",""trial"",""time""
""focus"",""0"",""0""
","""event"",""trial"",""time""
""fullscreenenter"",""1"",""3416""
","
","","","","","","null","<div style=""font-size:60px;"">+</div>","null","","fixation","","","","","","","","","","",""
"aa-learning-trial","48","247942","0.0-8.0-2.0-1.11","3834","1","13","Female","approach_avoid_spark_v1","""event"",""trial"",""time""
""focus"",""0"",""0""
""fullscreenenter"",""1"",""3416""
","
","""event"",""trial"",""time""
""focus"",""0"",""0""
","""event"",""trial"",""time""
""fullscreenenter"",""1"",""3416""
","
","","","","","","392","images/racket4.png","","","learning","-8","-8","1","1","practice","practice","practice","-1","","",""
"html-button-response","49","250110","0.0-8.0-3.0","3834","1","13","Female","approach_avoid_spark_v1","""event"",""trial"",""time""
""focus"",""0"",""0""
""fullscreenenter"",""1"",""3416""
","
","""event"",""trial"",""time""
""focus"",""0"",""0""
","""event"",""trial"",""time""
""fullscreenenter"",""1"",""3416""
","
","","","","","","2167","<p> You earned -24 points in the practice round! </p>","0","","break","","","","","","","","","","",""
"learning-instructions","50","258199","0.0-8.0-4.0-0.0","3834","1","13","Female","approach_avoid_spark_v1","""event"",""trial"",""time""
""focus"",""0"",""0""
""fullscreenenter"",""1"",""3416""
","
","""event"",""trial"",""time""
""focus"",""0"",""0""
","""event"",""trial"",""time""
""fullscreenenter"",""1"",""3416""
","
","","","","","","2123","<p> It's almost time to start the real game. </p><p> Before you start, we're going to ask you a few questions about how the game works. </p>","","0","instructions","","","","","","","","","","",""
"preload","51","264133","0.0-8.0-5.0","3834","1","13","Female","approach_avoid_spark_v1","""event"",""trial"",""time""
""focus"",""0"",""0""
""fullscreenenter"",""1"",""3416""
","
","""event"",""trial"",""time""
""focus"",""0"",""0""
","""event"",""trial"",""time""
""fullscreenenter"",""1"",""3416""
","
","true","false","[]","[]","[]","","","","","","","","","","","","","","","",""
"comp-q","52","271181","0.0-8.0-6.0-0.0","3834","1","13","Female","approach_avoid_spark_v1","""event"",""trial"",""time""
""focus"",""0"",""0""
""fullscreenenter"",""1"",""3416""
","
","""event"",""trial"",""time""
""focus"",""0"",""0""
","""event"",""trial"",""time""
""fullscreenenter"",""1"",""3416""
","
","","","","","","2046","<p> <b> True or False? </b> </p><p> If you see a number in GREY, that means you earned that many points. </p>","","1","comp_question","","","","","","","","","true","",""
"comp-q","53","281846","0.0-8.0-6.0-1.0","3834","1","13","Female","approach_avoid_spark_v1","""event"",""trial"",""time""
""focus"",""0"",""0""
""fullscreenenter"",""1"",""3416""
","
","""event"",""trial"",""time""
""focus"",""0"",""0""
","""event"",""trial"",""time""
""fullscreenenter"",""1"",""3416""
","
","","","","","","2301","<p><b> That's right! </b> If you see a grey number, it means you earned ZERO points. <br> The grey numbers show the points you WOULD HAVE earned if you had made the other choice. </p>","","0","comp_answer","","","","","","","","","","",""
"comp-q","54","287718","0.0-8.0-7.0-0.0","3834","1","13","Female","approach_avoid_spark_v1","""event"",""trial"",""time""
""focus"",""0"",""0""
""fullscreenenter"",""1"",""3416""
","
","""event"",""trial"",""time""
""focus"",""0"",""0""
","""event"",""trial"",""time""
""fullscreenenter"",""1"",""3416""
","
","","","","","","1162","<p> <b> True or False? </b> </p><p> You will have as much time as you want to make each choice. </p>","","1","comp_question","","","","","","","","","true","",""
"comp-q","55","292445","0.0-8.0-7.0-1.0","3834","1","13","Female","approach_avoid_spark_v1","""event"",""trial"",""time""
""focus"",""0"",""0""
""fullscreenenter"",""1"",""3416""
","
","""event"",""trial"",""time""
""focus"",""0"",""0""
","""event"",""trial"",""time""
""fullscreenenter"",""1"",""3416""
","
","","","","","","671","<p> <b> That's right! </b> You will only have 3 seconds to make each choice. </p>","","0","comp_answer","","","","","","","","","","",""
"comp-q","56","297750","0.0-8.0-8.0-0.0","3834","1","13","Female","approach_avoid_spark_v1","""event"",""trial"",""time""
""focus"",""0"",""0""
""fullscreenenter"",""1"",""3416""
","
","""event"",""trial"",""time""
""focus"",""0"",""0""
","""event"",""trial"",""time""
""fullscreenenter"",""1"",""3416""
","
","","","","","","624","<p> <b> True or False? </b> </p><p> You should use the '1' and '0' keys to make your choices. </p>","","0","comp_question","","","","","","","","","true","",""
"comp-q","57","304350","0.0-8.0-8.0-1.0","3834","1","13","Female","approach_avoid_spark_v1","""event"",""trial"",""time""
""focus"",""0"",""0""
""fullscreenenter"",""1"",""3416""
","
","""event"",""trial"",""time""
""focus"",""0"",""0""
","""event"",""trial"",""time""
""fullscreenenter"",""1"",""3416""
","
","","","","","","1974","<p> <b> That's right! </b> You should use the '1' and '0' keys to make each choice. </p>","","0","comp_answer","","","","","","","","","","",""
"learning-instructions","58","312542","0.0-8.0-9.0-0.0","3834","1","13","Female","approach_avoid_spark_v1","""event"",""trial"",""time""
""focus"",""0"",""0""
""fullscreenenter"",""1"",""3416""
","
","""event"",""trial"",""time""
""focus"",""0"",""0""
","""event"",""trial"",""time""
""fullscreenenter"",""1"",""3416""
","
","","","","","","1906","<p> It's now time to start the real game. </p>Do your best, because the points you earn in the next rounds will influence your bonus payment. </p>","","0","instructions","","","","","","","","","","",""
"preload","59","312666","0.0-9.0-0.0","3834","1","13","Female","approach_avoid_spark_v1","""event"",""trial"",""time""
""focus"",""0"",""0""
""fullscreenenter"",""1"",""3416""
","
","""event"",""trial"",""time""
""focus"",""0"",""0""
","""event"",""trial"",""time""
""fullscreenenter"",""1"",""3416""
","
","true","false","[]","[]","[]","","","","","","","","","","","","","","","",""
"learning-instructions","60","317661","0.0-9.0-1.0-0.0","3834","1","13","Female","approach_avoid_spark_v1","""event"",""trial"",""time""
""focus"",""0"",""0""
""fullscreenenter"",""1"",""3416""
","
","""event"",""trial"",""time""
""focus"",""0"",""0""
","""event"",""trial"",""time""
""fullscreenenter"",""1"",""3416""
","
","","","","","","1377","<p> Your goal in this round is to eat tasty fruit. </p></div>","","0","instructions","","","","","","","","","","",""
"learning-instructions","61","329414","0.0-9.0-1.0-0.1","3834","1","13","Female","approach_avoid_spark_v1","""event"",""trial"",""time""
""focus"",""0"",""0""
""fullscreenenter"",""1"",""3416""
","
","""event"",""trial"",""time""
""focus"",""0"",""0""
","""event"",""trial"",""time""
""fullscreenenter"",""1"",""3416""
","
","","","","","","418","<p> Some of the fruits you will see are tasty. Others are rotten on the inside.  </p><p> On each turn, you will see a fruit.   </p><p> You need to decide whether to eat it or not.  </p>","","0","instructions","","","","","","","","","","",""
"learning-instructions","62","335709","0.0-9.0-1.0-0.2","3834","1","13","Female","approach_avoid_spark_v1","""event"",""trial"",""time""
""focus"",""0"",""0""
""fullscreenenter"",""1"",""3416""
","
","""event"",""trial"",""time""
""focus"",""0"",""0""
","""event"",""trial"",""time""
""fullscreenenter"",""1"",""3416""
","
","","","","","","844","<p> You can eat the fruit by pressing 1 and choose not to eat it by pressing 0. </p><br><div class=""choice-instructions-grid""> <div class=""choice-option""><img src=""images/approach.png"" class=""choice-option-img"" stage=""instructions"" position=""0"" ><div class=""choice-option-text""> Press ""1."" </div></div><div class=""choice-option""><img src=""images/avoid.png"" class=""choice-option-img"" stage=""instructions"" position=""1"" ><div class=""choice-option-text""> Press ""0."" </div></div>","","0","instructions","","","","","","","","","","",""
"learning-instructions","63","344686","0.0-9.0-1.0-0.3","3834","1","13","Female","approach_avoid_spark_v1","""event"",""trial"",""time""
""focus"",""0"",""0""
""fullscreenenter"",""1"",""3416""
","
","""event"",""trial"",""time""
""focus"",""0"",""0""
","""event"",""trial"",""time""
""fullscreenenter"",""1"",""3416""
","
","","","","","","421","<p> If you eat the fruit and it was tasty, you will win points! </p><p> But if you eat the fruit and it was rotten, you will lose points. </p>","","0","instructions","","","","","","","","","","",""
"learning-instructions","64","357822","0.0-9.0-1.0-0.4","3834","1","13","Female","approach_avoid_spark_v1","""event"",""trial"",""time""
""focus"",""0"",""0""
""fullscreenenter"",""1"",""3416""
","
","""event"",""trial"",""time""
""focus"",""0"",""0""
","""event"",""trial"",""time""
""fullscreenenter"",""1"",""3416""
","
","","","","","","797","<p> You will earn points based on how tasty or rotten the fruit was. </p><p> If it was tasty, you will WIN anywhere from 1 - 9 points, </p><p> but if it was rotten, you will LOSE anywhere from 1 - 9 points. </p>","","0","instructions","","","","","","","","","","",""
"learning-instructions","65","366870","0.0-9.0-1.0-0.5","3834","1","13","Female","approach_avoid_spark_v1","""event"",""trial"",""time""
""focus"",""0"",""0""
""fullscreenenter"",""1"",""3416""
","
","""event"",""trial"",""time""
""focus"",""0"",""0""
","""event"",""trial"",""time""
""fullscreenenter"",""1"",""3416""
","
","","","","","","1314","<p> You will see how many points you won or lost in the center of the screen. </p><p> Here is what you would see if you earned 5 points: </p><p style=""color:green;font-size:50px;font-weight:bolder"">5</p>","","0","instructions","","","","","","","","","","",""
"learning-instructions","66","371958","0.0-9.0-1.0-0.6","3834","1","13","Female","approach_avoid_spark_v1","""event"",""trial"",""time""
""focus"",""0"",""0""
""fullscreenenter"",""1"",""3416""
","
","""event"",""trial"",""time""
""focus"",""0"",""0""
","""event"",""trial"",""time""
""fullscreenenter"",""1"",""3416""
","
","","","","","","1362","<p> And here is what you would see if you lost 3 points: </p><p style=""color:red;font-size:50px;font-weight:bolder"">-3</p>","","0","instructions","","","","","","","","","","",""
"learning-instructions","67","389134","0.0-9.0-1.0-0.7","3834","1","13","Female","approach_avoid_spark_v1","""event"",""trial"",""time""
""focus"",""0"",""0""
""fullscreenenter"",""1"",""3416""
","
","""event"",""trial"",""time""
""focus"",""0"",""0""
","""event"",""trial"",""time""
""fullscreenenter"",""1"",""3416""
","
","","","","","","1177","<p> Some fruit is very tasty or very rotten. </p><p> These fruits will make you win or lose LOTS of points. </p><p> Other fruits are only kind of tasty or kind of rotten. </p><p> These fruits will make you win or lose small amounts of points. </p>","","0","instructions","","","","","","","","","","",""
"learning-instructions","68","401030","0.0-9.0-1.0-0.8","3834","1","13","Female","approach_avoid_spark_v1","""event"",""trial"",""time""
""focus"",""0"",""0""
""fullscreenenter"",""1"",""3416""
","
","""event"",""trial"",""time""
""focus"",""0"",""0""
","""event"",""trial"",""time""
""fullscreenenter"",""1"",""3416""
","
","","","","","","864","<p> If you choose to not eat the fruit, you will not win or lose any points. </p><p>  However, in the center of the screen, you will see the number of points you WOULD HAVE earned if you had eaten the fruit. </p>","","0","instructions","","","","","","","","","","",""
"learning-instructions","69","411638","0.0-9.0-1.0-0.9","3834","1","13","Female","approach_avoid_spark_v1","""event"",""trial"",""time""
""focus"",""0"",""0""
""fullscreenenter"",""1"",""3416""
","
","""event"",""trial"",""time""
""focus"",""0"",""0""
","""event"",""trial"",""time""
""fullscreenenter"",""1"",""3416""
","
","","","","","","453","<p> Here is what you might see if you did not eat the fruit but the fruit was tasty: </p><p style=""color:grey; font-size:50px; display: inline-block; border-spacing: 15px; border-width:3px; border-style:solid; border-color:red"">  &nbsp; 6 &nbsp; </p><p> Remember, in this case, you would not win or lose ANY points because you did not eat the fruit.  </p>","","0","instructions","","","","","","","","","","",""
"learning-instructions","70","421070","0.0-9.0-1.0-0.10","3834","1","13","Female","approach_avoid_spark_v1","""event"",""trial"",""time""
""focus"",""0"",""0""
""fullscreenenter"",""1"",""3416""
","
","""event"",""trial"",""time""
""focus"",""0"",""0""
","""event"",""trial"",""time""
""fullscreenenter"",""1"",""3416""
","
","","","","","","664","<p> Try to make the best choice for each fruit because </p><p> at the end of the game, you will earn bonus money based on how many points you earned. </p>","","0","instructions","","","","","","","","","","",""
"learning-instructions","71","429814","0.0-9.0-1.0-0.11","3834","1","13","Female","approach_avoid_spark_v1","""event"",""trial"",""time""
""focus"",""0"",""0""
""fullscreenenter"",""1"",""3416""
","
","""event"",""trial"",""time""
""focus"",""0"",""0""
","""event"",""trial"",""time""
""fullscreenenter"",""1"",""3416""
","
","","","","","","538","<p> You will have 3 seconds to make each choice. Try to respond before time runs out! </p><p> You will lose 5 points each time you do not make a response. </p>","","0","instructions","","","","","","","","","","",""
"html-keyboard-response","72","430423","0.0-9.0-2.0-0.0","3834","1","13","Female","approach_avoid_spark_v1","""event"",""trial"",""time""
""focus"",""0"",""0""
""fullscreenenter"",""1"",""3416""
","
","""event"",""trial"",""time""
""focus"",""0"",""0""
","""event"",""trial"",""time""
""fullscreenenter"",""1"",""3416""
","
","","","","","","null","<div style=""font-size:60px;"">+</div>","null","","fixation","","","","","","","","","","",""
"aa-learning-trial","73","433434","0.0-9.0-2.0-1.0","3834","1","13","Female","approach_avoid_spark_v1","""event"",""trial"",""time""
""focus"",""0"",""0""
""fullscreenenter"",""1"",""3416""
","
","""event"",""trial"",""time""
""focus"",""0"",""0""
","""event"",""trial"",""time""
""fullscreenenter"",""1"",""3416""
","
","","","","","","1174","images/orange6.png","","","learning","4","4","1","1","orange","fruit","1","0","","good","[6]"
"html-keyboard-response","74","433939","0.0-9.0-2.0-0.1","3834","1","13","Female","approach_avoid_spark_v1","""event"",""trial"",""time""
""focus"",""0"",""0""
""fullscreenenter"",""1"",""3416""
","
","""event"",""trial"",""time""
""focus"",""0"",""0""
","""event"",""trial"",""time""
""fullscreenenter"",""1"",""3416""
","
","","","","","","null","<div style=""font-size:60px;"">+</div>","null","","fixation","","","","","","","","","","",""
"aa-learning-trial","75","436950","0.0-9.0-2.0-1.1","3834","1","13","Female","approach_avoid_spark_v1","""event"",""trial"",""time""
""focus"",""0"",""0""
""fullscreenenter"",""1"",""3416""
","
","""event"",""trial"",""time""
""focus"",""0"",""0""
","""event"",""trial"",""time""
""fullscreenenter"",""1"",""3416""
","
","","","","","","856","images/orange4.png","","","learning","6","6","1","1","orange","fruit","1","0","","good","[6]"
"html-keyboard-response","76","437461","0.0-9.0-2.0-0.2","3834","1","13","Female","approach_avoid_spark_v1","""event"",""trial"",""time""
""focus"",""0"",""0""
""fullscreenenter"",""1"",""3416""
","
","""event"",""trial"",""time""
""focus"",""0"",""0""
","""event"",""trial"",""time""
""fullscreenenter"",""1"",""3416""
","
","","","","","","null","<div style=""font-size:60px;"">+</div>","null","","fixation","","","","","","","","","","",""
"aa-learning-trial","77","440471","0.0-9.0-2.0-1.2","3834","1","13","Female","approach_avoid_spark_v1","""event"",""trial"",""time""
""focus"",""0"",""0""
""fullscreenenter"",""1"",""3416""
","
","""event"",""trial"",""time""
""focus"",""0"",""0""
","""event"",""trial"",""time""
""fullscreenenter"",""1"",""3416""
","
","","","","","","543","images/orange6.png","","","learning","7","7","1","1","orange","fruit","1","0","","good","[6]"
"html-keyboard-response","78","440981","0.0-9.0-2.0-0.3","3834","1","13","Female","approach_avoid_spark_v1","""event"",""trial"",""time""
""focus"",""0"",""0""
""fullscreenenter"",""1"",""3416""
","
","""event"",""trial"",""time""
""focus"",""0"",""0""
","""event"",""trial"",""time""
""fullscreenenter"",""1"",""3416""
","
","","","","","","null","<div style=""font-size:60px;"">+</div>","null","","fixation","","","","","","","","","","",""
"aa-learning-trial","79","443987","0.0-9.0-2.0-1.3","3834","1","13","Female","approach_avoid_spark_v1","""event"",""trial"",""time""
""focus"",""0"",""0""
""fullscreenenter"",""1"",""3416""
","
","""event"",""trial"",""time""
""focus"",""0"",""0""
","""event"",""trial"",""time""
""fullscreenenter"",""1"",""3416""
","
","","","","","","1232","images/banana1.png","","","learning","2","2","1","1","banana","fruit","1","0","","neutral","0"
"html-keyboard-response","80","444498","0.0-9.0-2.0-0.4","3834","1","13","Female","approach_avoid_spark_v1","""event"",""trial"",""time""
""focus"",""0"",""0""
""fullscreenenter"",""1"",""3416""
","
","""event"",""trial"",""time""
""focus"",""0"",""0""
","""event"",""trial"",""time""
""fullscreenenter"",""1"",""3416""
","
","","","","","","null","<div style=""font-size:60px;"">+</div>","null","","fixation","","","","","","","","","","",""
"aa-learning-trial","81","447513","0.0-9.0-2.0-1.4","3834","1","13","Female","approach_avoid_spark_v1","""event"",""trial"",""time""
""focus"",""0"",""0""
""fullscreenenter"",""1"",""3416""
","
","""event"",""trial"",""time""
""focus"",""0"",""0""
","""event"",""trial"",""time""
""fullscreenenter"",""1"",""3416""
","
","","","","","","634","images/banana5.png","","","learning","[-1]","-1","1","1","banana","fruit","1","0","","neutral","0"
"html-keyboard-response","82","448024","0.0-9.0-2.0-0.5","3834","1","13","Female","approach_avoid_spark_v1","""event"",""trial"",""time""
""focus"",""0"",""0""
""fullscreenenter"",""1"",""3416""
","
","""event"",""trial"",""time""
""focus"",""0"",""0""
","""event"",""trial"",""time""
""fullscreenenter"",""1"",""3416""
","
","","","","","","null","<div style=""font-size:60px;"">+</div>","null","","fixation","","","","","","","","","","",""
"aa-learning-trial","83","451035","0.0-9.0-2.0-1.5","3834","1","13","Female","approach_avoid_spark_v1","""event"",""trial"",""time""
""focus"",""0"",""0""
""fullscreenenter"",""1"",""3416""
","
","""event"",""trial"",""time""
""focus"",""0"",""0""
","""event"",""trial"",""time""
""fullscreenenter"",""1"",""3416""
","
","","","","","","1044","images/apple6.png","","","learning","-6","0","0","0","apple","fruit","1","0","","bad","[-4]"
"html-keyboard-response","84","451548","0.0-9.0-2.0-0.6","3834","1","13","Female","approach_avoid_spark_v1","""event"",""trial"",""time""
""focus"",""0"",""0""
""fullscreenenter"",""1"",""3416""
","
","""event"",""trial"",""time""
""focus"",""0"",""0""
","""event"",""trial"",""time""
""fullscreenenter"",""1"",""3416""
","
","","","","","","null","<div style=""font-size:60px;"">+</div>","null","","fixation","","","","","","","","","","",""
"aa-learning-trial","85","454563","0.0-9.0-2.0-1.6","3834","1","13","Female","approach_avoid_spark_v1","""event"",""trial"",""time""
""focus"",""0"",""0""
""fullscreenenter"",""1"",""3416""
","
","""event"",""trial"",""time""
""focus"",""0"",""0""
","""event"",""trial"",""time""
""fullscreenenter"",""1"",""3416""
","
","","","","","","376","images/apple6.png","","","learning","-3","-3","1","1","apple","fruit","1","0","","bad","[-4]"
"html-keyboard-response","86","455074","0.0-9.0-2.0-0.7","3834","1","13","Female","approach_avoid_spark_v1","""event"",""trial"",""time""
""focus"",""0"",""0""
""fullscreenenter"",""1"",""3416""
","
","""event"",""trial"",""time""
""focus"",""0"",""0""
","""event"",""trial"",""time""
""fullscreenenter"",""1"",""3416""
","
","","","","","","null","<div style=""font-size:60px;"">+</div>","null","","fixation","","","","","","","","","","",""
"aa-learning-trial","87","458082","0.0-9.0-2.0-1.7","3834","1","13","Female","approach_avoid_spark_v1","""event"",""trial"",""time""
""focus"",""0"",""0""
""fullscreenenter"",""1"",""3416""
","
","""event"",""trial"",""time""
""focus"",""0"",""0""
","""event"",""trial"",""time""
""fullscreenenter"",""1"",""3416""
","
","","","","","","602","images/banana1.png","","","learning","[1]","1","1","1","banana","fruit","1","0","","neutral","0"
"html-keyboard-response","88","458597","0.0-9.0-2.0-0.8","3834","1","13","Female","approach_avoid_spark_v1","""event"",""trial"",""time""
""focus"",""0"",""0""
""fullscreenenter"",""1"",""3416""
","
","""event"",""trial"",""time""
""focus"",""0"",""0""
","""event"",""trial"",""time""
""fullscreenenter"",""1"",""3416""
","
","","","","","","null","<div style=""font-size:60px;"">+</div>","null","","fixation","","","","","","","","","","",""
"aa-learning-trial","89","461602","0.0-9.0-2.0-1.8","3834","1","13","Female","approach_avoid_spark_v1","""event"",""trial"",""time""
""focus"",""0"",""0""
""fullscreenenter"",""1"",""3416""
","
","""event"",""trial"",""time""
""focus"",""0"",""0""
","""event"",""trial"",""time""
""fullscreenenter"",""1"",""3416""
","
","","","","","","896","images/banana2.png","","","learning","1","1","1","1","banana","fruit","1","0","","neutral","0"
"html-keyboard-response","90","462116","0.0-9.0-2.0-0.9","3834","1","13","Female","approach_avoid_spark_v1","""event"",""trial"",""time""
""focus"",""0"",""0""
""fullscreenenter"",""1"",""3416""
","
","""event"",""trial"",""time""
""focus"",""0"",""0""
","""event"",""trial"",""time""
""fullscreenenter"",""1"",""3416""
","
","","","","","","null","<div style=""font-size:60px;"">+</div>","null","","fixation","","","","","","","","","","",""
"aa-learning-trial","91","465118","0.0-9.0-2.0-1.9","3834","1","13","Female","approach_avoid_spark_v1","""event"",""trial"",""time""
""focus"",""0"",""0""
""fullscreenenter"",""1"",""3416""
","
","""event"",""trial"",""time""
""focus"",""0"",""0""
","""event"",""trial"",""time""
""fullscreenenter"",""1"",""3416""
","
","","","","","","449","images/orange2.png","","","learning","8","8","1","1","orange","fruit","1","0","","good","[6]"
"html-keyboard-response","92","465629","0.0-9.0-2.0-0.10","3834","1","13","Female","approach_avoid_spark_v1","""event"",""trial"",""time""
""focus"",""0"",""0""
""fullscreenenter"",""1"",""3416""
","
","""event"",""trial"",""time""
""focus"",""0"",""0""
","""event"",""trial"",""time""
""fullscreenenter"",""1"",""3416""
","
","","","","","","null","<div style=""font-size:60px;"">+</div>","null","","fixation","","","","","","","","","","",""
"aa-learning-trial","93","468632","0.0-9.0-2.0-1.10","3834","1","13","Female","approach_avoid_spark_v1","""event"",""trial"",""time""
""focus"",""0"",""0""
""fullscreenenter"",""1"",""3416""
","
","""event"",""trial"",""time""
""focus"",""0"",""0""
","""event"",""trial"",""time""
""fullscreenenter"",""1"",""3416""
","
","","","","","","495","images/orange4.png","","","learning","7","7","1","1","orange","fruit","1","0","","good","[6]"
"html-keyboard-response","94","469143","0.0-9.0-2.0-0.11","3834","1","13","Female","approach_avoid_spark_v1","""event"",""trial"",""time""
""focus"",""0"",""0""
""fullscreenenter"",""1"",""3416""
","
","""event"",""trial"",""time""
""focus"",""0"",""0""
","""event"",""trial"",""time""
""fullscreenenter"",""1"",""3416""
","
","","","","","","null","<div style=""font-size:60px;"">+</div>","null","","fixation","","","","","","","","","","",""
"aa-learning-trial","95","472150","0.0-9.0-2.0-1.11","3834","1","13","Female","approach_avoid_spark_v1","""event"",""trial"",""time""
""focus"",""0"",""0""
""fullscreenenter"",""1"",""3416""
","
","""event"",""trial"",""time""
""focus"",""0"",""0""
","""event"",""trial"",""time""
""fullscreenenter"",""1"",""3416""
","
","","","","","","621","images/banana5.png","","","learning","2","2","1","1","banana","fruit","1","0","","neutral","0"
"html-keyboard-response","96","472664","0.0-9.0-2.0-0.12","3834","1","13","Female","approach_avoid_spark_v1","""event"",""trial"",""time""
""focus"",""0"",""0""
""fullscreenenter"",""1"",""3416""
","
","""event"",""trial"",""time""
""focus"",""0"",""0""
","""event"",""trial"",""time""
""fullscreenenter"",""1"",""3416""
","
","","","","","","null","<div style=""font-size:60px;"">+</div>","null","","fixation","","","","","","","","","","",""
"aa-learning-trial","97","475666","0.0-9.0-2.0-1.12","3834","1","13","Female","approach_avoid_spark_v1","""event"",""trial"",""time""
""focus"",""0"",""0""
""fullscreenenter"",""1"",""3416""
","
","""event"",""trial"",""time""
""focus"",""0"",""0""
","""event"",""trial"",""time""
""fullscreenenter"",""1"",""3416""
","
","","","","","","973","images/apple4.png","","","learning","-6","0","0","0","apple","fruit","1","0","","bad","[-4]"
"html-keyboard-response","98","476176","0.0-9.0-2.0-0.13","3834","1","13","Female","approach_avoid_spark_v1","""event"",""trial"",""time""
""focus"",""0"",""0""
""fullscreenenter"",""1"",""3416""
","
","""event"",""trial"",""time""
""focus"",""0"",""0""
","""event"",""trial"",""time""
""fullscreenenter"",""1"",""3416""
","
","","","","","","null","<div style=""font-size:60px;"">+</div>","null","","fixation","","","","","","","","","","",""
"aa-learning-trial","99","479183","0.0-9.0-2.0-1.13","3834","1","13","Female","approach_avoid_spark_v1","""event"",""trial"",""time""
""focus"",""0"",""0""
""fullscreenenter"",""1"",""3416""
","
","""event"",""trial"",""time""
""focus"",""0"",""0""
","""event"",""trial"",""time""
""fullscreenenter"",""1"",""3416""
","
","","","","","","805","images/apple3.png","","","learning","-6","0","0","0","apple","fruit","1","0","","bad","[-4]"
"html-keyboard-response","100","479693","0.0-9.0-2.0-0.14","3834","1","13","Female","approach_avoid_spark_v1","""event"",""trial"",""time""
""focus"",""0"",""0""
""fullscreenenter"",""1"",""3416""
","
","""event"",""trial"",""time""
""focus"",""0"",""0""
","""event"",""trial"",""time""
""fullscreenenter"",""1"",""3416""
","
","","","","","","null","<div style=""font-size:60px;"">+</div>","null","","fixation","","","","","","","","","","",""
"aa-learning-trial","101","482708","0.0-9.0-2.0-1.14","3834","1","13","Female","approach_avoid_spark_v1","""event"",""trial"",""time""
""focus"",""0"",""0""
""fullscreenenter"",""1"",""3416""
","
","""event"",""trial"",""time""
""focus"",""0"",""0""
","""event"",""trial"",""time""
""fullscreenenter"",""1"",""3416""
","
","","","","","","1071","images/apple4.png","","","learning","-5","0","0","0","apple","fruit","1","0","","bad","[-4]"
"html-keyboard-response","102","483221","0.0-9.0-2.0-0.15","3834","1","13","Female","approach_avoid_spark_v1","""event"",""trial"",""time""
""focus"",""0"",""0""
""fullscreenenter"",""1"",""3416""
","
","""event"",""trial"",""time""
""focus"",""0"",""0""
","""event"",""trial"",""time""
""fullscreenenter"",""1"",""3416""
","
","","","","","","null","<div style=""font-size:60px;"">+</div>","null","","fixation","","","","","","","","","","",""
"aa-learning-trial","103","486226","0.0-9.0-2.0-1.15","3834","1","13","Female","approach_avoid_spark_v1","""event"",""trial"",""time""
""focus"",""0"",""0""
""fullscreenenter"",""1"",""3416""
","
","""event"",""trial"",""time""
""focus"",""0"",""0""
","""event"",""trial"",""time""
""fullscreenenter"",""1"",""3416""
","
","","","","","","488","images/orange4.png","","","learning","8","8","1","1","orange","fruit","1","0","","good","[6]"
"html-keyboard-response","104","486738","0.0-9.0-2.0-0.16","3834","1","13","Female","approach_avoid_spark_v1","""event"",""trial"",""time""
""focus"",""0"",""0""
""fullscreenenter"",""1"",""3416""
","
","""event"",""trial"",""time""
""focus"",""0"",""0""
","""event"",""trial"",""time""
""fullscreenenter"",""1"",""3416""
","
","","","","","","null","<div style=""font-size:60px;"">+</div>","null","","fixation","","","","","","","","","","",""
"aa-learning-trial","105","489741","0.0-9.0-2.0-1.16","3834","1","13","Female","approach_avoid_spark_v1","""event"",""trial"",""time""
""focus"",""0"",""0""
""fullscreenenter"",""1"",""3416""
","
","""event"",""trial"",""time""
""focus"",""0"",""0""
","""event"",""trial"",""time""
""fullscreenenter"",""1"",""3416""
","
","","","","","","379","images/banana5.png","","","learning","-2","-2","1","1","banana","fruit","1","0","","neutral","0"
"html-keyboard-response","106","490251","0.0-9.0-2.0-0.17","3834","1","13","Female","approach_avoid_spark_v1","""event"",""trial"",""time""
""focus"",""0"",""0""
""fullscreenenter"",""1"",""3416""
","
","""event"",""trial"",""time""
""focus"",""0"",""0""
","""event"",""trial"",""time""
""fullscreenenter"",""1"",""3416""
","
","","","","","","null","<div style=""font-size:60px;"">+</div>","null","","fixation","","","","","","","","","","",""
"aa-learning-trial","107","493259","0.0-9.0-2.0-1.17","3834","1","13","Female","approach_avoid_spark_v1","""event"",""trial"",""time""
""focus"",""0"",""0""
""fullscreenenter"",""1"",""3416""
","
","""event"",""trial"",""time""
""focus"",""0"",""0""
","""event"",""trial"",""time""
""fullscreenenter"",""1"",""3416""
","
","","","","","","657","images/apple6.png","","","learning","-3","-3","1","1","apple","fruit","1","0","","bad","[-4]"
"html-keyboard-response","108","493769","0.0-9.0-2.0-0.18","3834","1","13","Female","approach_avoid_spark_v1","""event"",""trial"",""time""
""focus"",""0"",""0""
""fullscreenenter"",""1"",""3416""
","
","""event"",""trial"",""time""
""focus"",""0"",""0""
","""event"",""trial"",""time""
""fullscreenenter"",""1"",""3416""
","
","","","","","","null","<div style=""font-size:60px;"">+</div>","null","","fixation","","","","","","","","","","",""
"aa-learning-trial","109","496775","0.0-9.0-2.0-1.18","3834","1","13","Female","approach_avoid_spark_v1","""event"",""trial"",""time""
""focus"",""0"",""0""
""fullscreenenter"",""1"",""3416""
","
","""event"",""trial"",""time""
""focus"",""0"",""0""
","""event"",""trial"",""time""
""fullscreenenter"",""1"",""3416""
","
","","","","","","411","images/orange4.png","","","learning","6","6","1","1","orange","fruit","1","0","","good","[6]"
"html-keyboard-response","110","497285","0.0-9.0-2.0-0.19","3834","1","13","Female","approach_avoid_spark_v1","""event"",""trial"",""time""
""focus"",""0"",""0""
""fullscreenenter"",""1"",""3416""
","
","""event"",""trial"",""time""
""focus"",""0"",""0""
","""event"",""trial"",""time""
""fullscreenenter"",""1"",""3416""
","
","","","","","","null","<div style=""font-size:60px;"">+</div>","null","","fixation","","","","","","","","","","",""
"aa-learning-trial","111","500295","0.0-9.0-2.0-1.19","3834","1","13","Female","approach_avoid_spark_v1","""event"",""trial"",""time""
""focus"",""0"",""0""
""fullscreenenter"",""1"",""3416""
","
","""event"",""trial"",""time""
""focus"",""0"",""0""
","""event"",""trial"",""time""
""fullscreenenter"",""1"",""3416""
","
","","","","","","855","images/banana2.png","","","learning","-2","-2","1","1","banana","fruit","1","0","","neutral","0"
"html-keyboard-response","112","500807","0.0-9.0-2.0-0.20","3834","1","13","Female","approach_avoid_spark_v1","""event"",""trial"",""time""
""focus"",""0"",""0""
""fullscreenenter"",""1"",""3416""
","
","""event"",""trial"",""time""
""focus"",""0"",""0""
","""event"",""trial"",""time""
""fullscreenenter"",""1"",""3416""
","
","","","","","","null","<div style=""font-size:60px;"">+</div>","null","","fixation","","","","","","","","","","",""
"aa-learning-trial","113","503820","0.0-9.0-2.0-1.20","3834","1","13","Female","approach_avoid_spark_v1","""event"",""trial"",""time""
""focus"",""0"",""0""
""fullscreenenter"",""1"",""3416""
","
","""event"",""trial"",""time""
""focus"",""0"",""0""
","""event"",""trial"",""time""
""fullscreenenter"",""1"",""3416""
","
","","","","","","813","images/banana7.png","","","learning","1","0","0","0","banana","fruit","1","0","","neutral","0"
"html-keyboard-response","114","504333","0.0-9.0-2.0-0.21","3834","1","13","Female","approach_avoid_spark_v1","""event"",""trial"",""time""
""focus"",""0"",""0""
""fullscreenenter"",""1"",""3416""
","
","""event"",""trial"",""time""
""focus"",""0"",""0""
","""event"",""trial"",""time""
""fullscreenenter"",""1"",""3416""
","
","","","","","","null","<div style=""font-size:60px;"">+</div>","null","","fixation","","","","","","","","","","",""
"aa-learning-trial","115","507342","0.0-9.0-2.0-1.21","3834","1","13","Female","approach_avoid_spark_v1","""event"",""trial"",""time""
""focus"",""0"",""0""
""fullscreenenter"",""1"",""3416""
","
","""event"",""trial"",""time""
""focus"",""0"",""0""
","""event"",""trial"",""time""
""fullscreenenter"",""1"",""3416""
","
","","","","","","353","images/apple6.png","","","learning","-4","-4","1","1","apple","fruit","1","0","","bad","[-4]"
"html-keyboard-response","116","507854","0.0-9.0-2.0-0.22","3834","1","13","Female","approach_avoid_spark_v1","""event"",""trial"",""time""
""focus"",""0"",""0""
""fullscreenenter"",""1"",""3416""
","
","""event"",""trial"",""time""
""focus"",""0"",""0""
","""event"",""trial"",""time""
""fullscreenenter"",""1"",""3416""
","
","","","","","","null","<div style=""font-size:60px;"">+</div>","null","","fixation","","","","","","","","","","",""
"aa-learning-trial","117","510856","0.0-9.0-2.0-1.22","3834","1","13","Female","approach_avoid_spark_v1","""event"",""trial"",""time""
""focus"",""0"",""0""
""fullscreenenter"",""1"",""3416""
","
","""event"",""trial"",""time""
""focus"",""0"",""0""
","""event"",""trial"",""time""
""fullscreenenter"",""1"",""3416""
","
","","","","","","575","images/banana2.png","","","learning","3","3","1","1","banana","fruit","1","0","","neutral","0"
"html-keyboard-response","118","511368","0.0-9.0-2.0-0.23","3834","1","13","Female","approach_avoid_spark_v1","""event"",""trial"",""time""
""focus"",""0"",""0""
""fullscreenenter"",""1"",""3416""
","
","""event"",""trial"",""time""
""focus"",""0"",""0""
","""event"",""trial"",""time""
""fullscreenenter"",""1"",""3416""
","
","","","","","","null","<div style=""font-size:60px;"">+</div>","null","","fixation","","","","","","","","","","",""
"aa-learning-trial","119","514378","0.0-9.0-2.0-1.23","3834","1","13","Female","approach_avoid_spark_v1","""event"",""trial"",""time""
""focus"",""0"",""0""
""fullscreenenter"",""1"",""3416""
","
","""event"",""trial"",""time""
""focus"",""0"",""0""
","""event"",""trial"",""time""
""fullscreenenter"",""1"",""3416""
","
","","","","","","412","images/banana1.png","","","learning","-2","-2","1","1","banana","fruit","1","0","","neutral","0"
"html-keyboard-response","120","514891","0.0-9.0-2.0-0.24","3834","1","13","Female","approach_avoid_spark_v1","""event"",""trial"",""time""
""focus"",""0"",""0""
""fullscreenenter"",""1"",""3416""
","
","""event"",""trial"",""time""
""focus"",""0"",""0""
","""event"",""trial"",""time""
""fullscreenenter"",""1"",""3416""
","
","","","","","","null","<div style=""font-size:60px;"">+</div>","null","","fixation","","","","","","","","","","",""
"aa-learning-trial","121","517896","0.0-9.0-2.0-1.24","3834","1","13","Female","approach_avoid_spark_v1","""event"",""trial"",""time""
""focus"",""0"",""0""
""fullscreenenter"",""1"",""3416""
","
","""event"",""trial"",""time""
""focus"",""0"",""0""
","""event"",""trial"",""time""
""fullscreenenter"",""1"",""3416""
","
","","","","","","537","images/banana5.png","","","learning","[-1]","-1","1","1","banana","fruit","1","0","","neutral","0"
"html-keyboard-response","122","518403","0.0-9.0-2.0-0.25","3834","1","13","Female","approach_avoid_spark_v1","""event"",""trial"",""time""
""focus"",""0"",""0""
""fullscreenenter"",""1"",""3416""
","
","""event"",""trial"",""time""
""focus"",""0"",""0""
","""event"",""trial"",""time""
""fullscreenenter"",""1"",""3416""
","
","","","","","","null","<div style=""font-size:60px;"">+</div>","null","","fixation","","","","","","","","","","",""
"aa-learning-trial","123","521417","0.0-9.0-2.0-1.25","3834","1","13","Female","approach_avoid_spark_v1","""event"",""trial"",""time""
""focus"",""0"",""0""
""fullscreenenter"",""1"",""3416""
","
","""event"",""trial"",""time""
""focus"",""0"",""0""
","""event"",""trial"",""time""
""fullscreenenter"",""1"",""3416""
","
","","","","","","403","images/banana4.png","","","learning","[-1]","-1","1","1","banana","fruit","1","0","","neutral","0"
"html-keyboard-response","124","521930","0.0-9.0-2.0-0.26","3834","1","13","Female","approach_avoid_spark_v1","""event"",""trial"",""time""
""focus"",""0"",""0""
""fullscreenenter"",""1"",""3416""
","
","""event"",""trial"",""time""
""focus"",""0"",""0""
","""event"",""trial"",""time""
""fullscreenenter"",""1"",""3416""
","
","","","","","","null","<div style=""font-size:60px;"">+</div>","null","","fixation","","","","","","","","","","",""
"aa-learning-trial","125","524939","0.0-9.0-2.0-1.26","3834","1","13","Female","approach_avoid_spark_v1","""event"",""trial"",""time""
""focus"",""0"",""0""
""fullscreenenter"",""1"",""3416""
","
","""event"",""trial"",""time""
""focus"",""0"",""0""
","""event"",""trial"",""time""
""fullscreenenter"",""1"",""3416""
","
","","","","","","297","images/orange2.png","","","learning","6","6","1","1","orange","fruit","1","0","","good","[6]"
"html-keyboard-response","126","525450","0.0-9.0-2.0-0.27","3834","1","13","Female","approach_avoid_spark_v1","""event"",""trial"",""time""
""focus"",""0"",""0""
""fullscreenenter"",""1"",""3416""
","
","""event"",""trial"",""time""
""focus"",""0"",""0""
","""event"",""trial"",""time""
""fullscreenenter"",""1"",""3416""
","
","","","","","","null","<div style=""font-size:60px;"">+</div>","null","","fixation","","","","","","","","","","",""
"aa-learning-trial","127","528454","0.0-9.0-2.0-1.27","3834","1","13","Female","approach_avoid_spark_v1","""event"",""trial"",""time""
""focus"",""0"",""0""
""fullscreenenter"",""1"",""3416""
","
","""event"",""trial"",""time""
""focus"",""0"",""0""
","""event"",""trial"",""time""
""fullscreenenter"",""1"",""3416""
","
","","","","","","876","images/orange8.png","","","learning","5","5","1","1","orange","fruit","1","0","","good","[6]"
"html-keyboard-response","128","528961","0.0-9.0-2.0-0.28","3834","1","13","Female","approach_avoid_spark_v1","""event"",""trial"",""time""
""focus"",""0"",""0""
""fullscreenenter"",""1"",""3416""
","
","""event"",""trial"",""time""
""focus"",""0"",""0""
","""event"",""trial"",""time""
""fullscreenenter"",""1"",""3416""
","
","","","","","","null","<div style=""font-size:60px;"">+</div>","null","","fixation","","","","","","","","","","",""
"aa-learning-trial","129","531976","0.0-9.0-2.0-1.28","3834","1","13","Female","approach_avoid_spark_v1","""event"",""trial"",""time""
""focus"",""0"",""0""
""fullscreenenter"",""1"",""3416""
","
","""event"",""trial"",""time""
""focus"",""0"",""0""
","""event"",""trial"",""time""
""fullscreenenter"",""1"",""3416""
","
","","","","","","523","images/banana1.png","","","learning","[-1]","-1","1","1","banana","fruit","1","0","","neutral","0"
"html-keyboard-response","130","532487","0.0-9.0-2.0-0.29","3834","1","13","Female","approach_avoid_spark_v1","""event"",""trial"",""time""
""focus"",""0"",""0""
""fullscreenenter"",""1"",""3416""
","
","""event"",""trial"",""time""
""focus"",""0"",""0""
","""event"",""trial"",""time""
""fullscreenenter"",""1"",""3416""
","
","","","","","","null","<div style=""font-size:60px;"">+</div>","null","","fixation","","","","","","","","","","",""
"aa-learning-trial","131","535495","0.0-9.0-2.0-1.29","3834","1","13","Female","approach_avoid_spark_v1","""event"",""trial"",""time""
""focus"",""0"",""0""
""fullscreenenter"",""1"",""3416""
","
","""event"",""trial"",""time""
""focus"",""0"",""0""
","""event"",""trial"",""time""
""fullscreenenter"",""1"",""3416""
","
","","","","","","525","images/orange4.png","","","learning","8","8","1","1","orange","fruit","1","0","","good","[6]"
"html-keyboard-response","132","536010","0.0-9.0-2.0-0.30","3834","1","13","Female","approach_avoid_spark_v1","""event"",""trial"",""time""
""focus"",""0"",""0""
""fullscreenenter"",""1"",""3416""
","
","""event"",""trial"",""time""
""focus"",""0"",""0""
","""event"",""trial"",""time""
""fullscreenenter"",""1"",""3416""
","
","","","","","","null","<div style=""font-size:60px;"">+</div>","null","","fixation","","","","","","","","","","",""
"aa-learning-trial","133","539018","0.0-9.0-2.0-1.30","3834","1","13","Female","approach_avoid_spark_v1","""event"",""trial"",""time""
""focus"",""0"",""0""
""fullscreenenter"",""1"",""3416""
","
","""event"",""trial"",""time""
""focus"",""0"",""0""
","""event"",""trial"",""time""
""fullscreenenter"",""1"",""3416""
","
","","","","","","681","images/apple4.png","","","learning","-7","0","0","0","apple","fruit","1","0","","bad","[-4]"
"html-keyboard-response","134","539529","0.0-9.0-2.0-0.31","3834","1","13","Female","approach_avoid_spark_v1","""event"",""trial"",""time""
""focus"",""0"",""0""
""fullscreenenter"",""1"",""3416""
","
","""event"",""trial"",""time""
""focus"",""0"",""0""
","""event"",""trial"",""time""
""fullscreenenter"",""1"",""3416""
","
","","","","","","null","<div style=""font-size:60px;"">+</div>","null","","fixation","","","","","","","","","","",""
"aa-learning-trial","135","542533","0.0-9.0-2.0-1.31","3834","1","13","Female","approach_avoid_spark_v1","""event"",""trial"",""time""
""focus"",""0"",""0""
""fullscreenenter"",""1"",""3416""
","
","""event"",""trial"",""time""
""focus"",""0"",""0""
","""event"",""trial"",""time""
""fullscreenenter"",""1"",""3416""
","
","","","","","","524","images/banana1.png","","","learning","1","1","1","1","banana","fruit","1","0","","neutral","0"
"html-keyboard-response","136","543040","0.0-9.0-2.0-0.32","3834","1","13","Female","approach_avoid_spark_v1","""event"",""trial"",""time""
""focus"",""0"",""0""
""fullscreenenter"",""1"",""3416""
","
","""event"",""trial"",""time""
""focus"",""0"",""0""
","""event"",""trial"",""time""
""fullscreenenter"",""1"",""3416""
","
","","","","","","null","<div style=""font-size:60px;"">+</div>","null","","fixation","","","","","","","","","","",""
"aa-learning-trial","137","546041","0.0-9.0-2.0-1.32","3834","1","13","Female","approach_avoid_spark_v1","""event"",""trial"",""time""
""focus"",""0"",""0""
""fullscreenenter"",""1"",""3416""
","
","""event"",""trial"",""time""
""focus"",""0"",""0""
","""event"",""trial"",""time""
""fullscreenenter"",""1"",""3416""
","
","","","","","","756","images/apple4.png","","","learning","-4","0","0","0","apple","fruit","1","0","","bad","[-4]"
"html-keyboard-response","138","546556","0.0-9.0-2.0-0.33","3834","1","13","Female","approach_avoid_spark_v1","""event"",""trial"",""time""
""focus"",""0"",""0""
""fullscreenenter"",""1"",""3416""
","
","""event"",""trial"",""time""
""focus"",""0"",""0""
","""event"",""trial"",""time""
""fullscreenenter"",""1"",""3416""
","
","","","","","","null","<div style=""font-size:60px;"">+</div>","null","","fixation","","","","","","","","","","",""
"aa-learning-trial","139","549563","0.0-9.0-2.0-1.33","3834","1","13","Female","approach_avoid_spark_v1","""event"",""trial"",""time""
""focus"",""0"",""0""
""fullscreenenter"",""1"",""3416""
","
","""event"",""trial"",""time""
""focus"",""0"",""0""
","""event"",""trial"",""time""
""fullscreenenter"",""1"",""3416""
","
","","","","","","608","images/orange7.png","","","learning","5","5","1","1","orange","fruit","1","0","","good","[6]"
"html-keyboard-response","140","550074","0.0-9.0-2.0-0.34","3834","1","13","Female","approach_avoid_spark_v1","""event"",""trial"",""time""
""focus"",""0"",""0""
""fullscreenenter"",""1"",""3416""
","
","""event"",""trial"",""time""
""focus"",""0"",""0""
","""event"",""trial"",""time""
""fullscreenenter"",""1"",""3416""
","
","","","","","","null","<div style=""font-size:60px;"">+</div>","null","","fixation","","","","","","","","","","",""
"aa-learning-trial","141","553090","0.0-9.0-2.0-1.34","3834","1","13","Female","approach_avoid_spark_v1","""event"",""trial"",""time""
""focus"",""0"",""0""
""fullscreenenter"",""1"",""3416""
","
","""event"",""trial"",""time""
""focus"",""0"",""0""
","""event"",""trial"",""time""
""fullscreenenter"",""1"",""3416""
","
","","","","","","714","images/apple3.png","","","learning","-5","0","0","0","apple","fruit","1","0","","bad","[-4]"
"html-keyboard-response","142","553602","0.0-9.0-2.0-0.35","3834","1","13","Female","approach_avoid_spark_v1","""event"",""trial"",""time""
""focus"",""0"",""0""
""fullscreenenter"",""1"",""3416""
","
","""event"",""trial"",""time""
""focus"",""0"",""0""
","""event"",""trial"",""time""
""fullscreenenter"",""1"",""3416""
","
","","","","","","null","<div style=""font-size:60px;"">+</div>","null","","fixation","","","","","","","","","","",""
"aa-learning-trial","143","556613","0.0-9.0-2.0-1.35","3834","1","13","Female","approach_avoid_spark_v1","""event"",""trial"",""time""
""focus"",""0"",""0""
""fullscreenenter"",""1"",""3416""
","
","""event"",""trial"",""time""
""focus"",""0"",""0""
","""event"",""trial"",""time""
""fullscreenenter"",""1"",""3416""
","
","","","","","","435","images/orange6.png","","","learning","10","10","1","1","orange","fruit","1","0","","good","[6]"
"html-keyboard-response","144","557124","0.0-9.0-2.0-0.36","3834","1","13","Female","approach_avoid_spark_v1","""event"",""trial"",""time""
""focus"",""0"",""0""
""fullscreenenter"",""1"",""3416""
","
","""event"",""trial"",""time""
""focus"",""0"",""0""
","""event"",""trial"",""time""
""fullscreenenter"",""1"",""3416""
","
","","","","","","null","<div style=""font-size:60px;"">+</div>","null","","fixation","","","","","","","","","","",""
"aa-learning-trial","145","560130","0.0-9.0-2.0-1.36","3834","1","13","Female","approach_avoid_spark_v1","""event"",""trial"",""time""
""focus"",""0"",""0""
""fullscreenenter"",""1"",""3416""
","
","""event"",""trial"",""time""
""focus"",""0"",""0""
","""event"",""trial"",""time""
""fullscreenenter"",""1"",""3416""
","
","","","","","","400","images/banana1.png","","","learning","-1","-1","1","1","banana","fruit","1","0","","neutral","0"
"html-keyboard-response","146","560643","0.0-9.0-2.0-0.37","3834","1","13","Female","approach_avoid_spark_v1","""event"",""trial"",""time""
""focus"",""0"",""0""
""fullscreenenter"",""1"",""3416""
","
","""event"",""trial"",""time""
""focus"",""0"",""0""
","""event"",""trial"",""time""
""fullscreenenter"",""1"",""3416""
","
","","","","","","null","<div style=""font-size:60px;"">+</div>","null","","fixation","","","","","","","","","","",""
"aa-learning-trial","147","563644","0.0-9.0-2.0-1.37","3834","1","13","Female","approach_avoid_spark_v1","""event"",""trial"",""time""
""focus"",""0"",""0""
""fullscreenenter"",""1"",""3416""
","
","""event"",""trial"",""time""
""focus"",""0"",""0""
","""event"",""trial"",""time""
""fullscreenenter"",""1"",""3416""
","
","","","","","","688","images/apple3.png","","","learning","-2","0","0","0","apple","fruit","1","0","","bad","[-4]"
"html-keyboard-response","148","564158","0.0-9.0-2.0-0.38","3834","1","13","Female","approach_avoid_spark_v1","""event"",""trial"",""time""
""focus"",""0"",""0""
""fullscreenenter"",""1"",""3416""
","
","""event"",""trial"",""time""
""focus"",""0"",""0""
","""event"",""trial"",""time""
""fullscreenenter"",""1"",""3416""
","
","","","","","","null","<div style=""font-size:60px;"">+</div>","null","","fixation","","","","","","","","","","",""
"aa-learning-trial","149","567168","0.0-9.0-2.0-1.38","3834","1","13","Female","approach_avoid_spark_v1","""event"",""trial"",""time""
""focus"",""0"",""0""
""fullscreenenter"",""1"",""3416""
","
","""event"",""trial"",""time""
""focus"",""0"",""0""
","""event"",""trial"",""time""
""fullscreenenter"",""1"",""3416""
","
","","","","","","504","images/banana5.png","","","learning","2","2","1","1","banana","fruit","1","0","","neutral","0"
"html-keyboard-response","150","567678","0.0-9.0-2.0-0.39","3834","1","13","Female","approach_avoid_spark_v1","""event"",""trial"",""time""
""focus"",""0"",""0""
""fullscreenenter"",""1"",""3416""
","
","""event"",""trial"",""time""
""focus"",""0"",""0""
","""event"",""trial"",""time""
""fullscreenenter"",""1"",""3416""
","
","","","","","","null","<div style=""font-size:60px;"">+</div>","null","","fixation","","","","","","","","","","",""
"aa-learning-trial","151","570682","0.0-9.0-2.0-1.39","3834","1","13","Female","approach_avoid_spark_v1","""event"",""trial"",""time""
""focus"",""0"",""0""
""fullscreenenter"",""1"",""3416""
","
","""event"",""trial"",""time""
""focus"",""0"",""0""
","""event"",""trial"",""time""
""fullscreenenter"",""1"",""3416""
","
","","","","","","774","images/apple8.png","","","learning","-3","0","0","0","apple","fruit","1","0","","bad","[-4]"
"html-keyboard-response","152","571194","0.0-9.0-2.0-0.40","3834","1","13","Female","approach_avoid_spark_v1","""event"",""trial"",""time""
""focus"",""0"",""0""
""fullscreenenter"",""1"",""3416""
","
","""event"",""trial"",""time""
""focus"",""0"",""0""
","""event"",""trial"",""time""
""fullscreenenter"",""1"",""3416""
","
","","","","","","null","<div style=""font-size:60px;"">+</div>","null","","fixation","","","","","","","","","","",""
"aa-learning-trial","153","574199","0.0-9.0-2.0-1.40","3834","1","13","Female","approach_avoid_spark_v1","""event"",""trial"",""time""
""focus"",""0"",""0""
""fullscreenenter"",""1"",""3416""
","
","""event"",""trial"",""time""
""focus"",""0"",""0""
","""event"",""trial"",""time""
""fullscreenenter"",""1"",""3416""
","
","","","","","","906","images/apple4.png","","","learning","-2","0","0","0","apple","fruit","1","0","","bad","[-4]"
"html-keyboard-response","154","574713","0.0-9.0-2.0-0.41","3834","1","13","Female","approach_avoid_spark_v1","""event"",""trial"",""time""
""focus"",""0"",""0""
""fullscreenenter"",""1"",""3416""
","
","""event"",""trial"",""time""
""focus"",""0"",""0""
","""event"",""trial"",""time""
""fullscreenenter"",""1"",""3416""
","
","","","","","","null","<div style=""font-size:60px;"">+</div>","null","","fixation","","","","","","","","","","",""
"aa-learning-trial","155","577718","0.0-9.0-2.0-1.41","3834","1","13","Female","approach_avoid_spark_v1","""event"",""trial"",""time""
""focus"",""0"",""0""
""fullscreenenter"",""1"",""3416""
","
","""event"",""trial"",""time""
""focus"",""0"",""0""
","""event"",""trial"",""time""
""fullscreenenter"",""1"",""3416""
","
","","","","","","1212","images/apple5.png","","","learning","-5","-5","1","1","apple","fruit","1","0","","bad","[-4]"
"html-keyboard-response","156","578230","0.0-9.0-2.0-0.42","3834","1","13","Female","approach_avoid_spark_v1","""event"",""trial"",""time""
""focus"",""0"",""0""
""fullscreenenter"",""1"",""3416""
","
","""event"",""trial"",""time""
""focus"",""0"",""0""
","""event"",""trial"",""time""
""fullscreenenter"",""1"",""3416""
","
","","","","","","null","<div style=""font-size:60px;"">+</div>","null","","fixation","","","","","","","","","","",""
"aa-learning-trial","157","581239","0.0-9.0-2.0-1.42","3834","1","13","Female","approach_avoid_spark_v1","""event"",""trial"",""time""
""focus"",""0"",""0""
""fullscreenenter"",""1"",""3416""
","
","""event"",""trial"",""time""
""focus"",""0"",""0""
","""event"",""trial"",""time""
""fullscreenenter"",""1"",""3416""
","
","","","","","","743","images/apple4.png","","","learning","-4","0","0","0","apple","fruit","1","0","","bad","[-4]"
"html-keyboard-response","158","581751","0.0-9.0-2.0-0.43","3834","1","13","Female","approach_avoid_spark_v1","""event"",""trial"",""time""
""focus"",""0"",""0""
""fullscreenenter"",""1"",""3416""
","
","""event"",""trial"",""time""
""focus"",""0"",""0""
","""event"",""trial"",""time""
""fullscreenenter"",""1"",""3416""
","
","","","","","","null","<div style=""font-size:60px;"">+</div>","null","","fixation","","","","","","","","","","",""
"aa-learning-trial","159","584758","0.0-9.0-2.0-1.43","3834","1","13","Female","approach_avoid_spark_v1","""event"",""trial"",""time""
""focus"",""0"",""0""
""fullscreenenter"",""1"",""3416""
","
","""event"",""trial"",""time""
""focus"",""0"",""0""
","""event"",""trial"",""time""
""fullscreenenter"",""1"",""3416""
","
","","","","","","470","images/orange6.png","","","learning","7","7","1","1","orange","fruit","1","0","","good","[6]"
"html-keyboard-response","160","585270","0.0-9.0-2.0-0.44","3834","1","13","Female","approach_avoid_spark_v1","""event"",""trial"",""time""
""focus"",""0"",""0""
""fullscreenenter"",""1"",""3416""
","
","""event"",""trial"",""time""
""focus"",""0"",""0""
","""event"",""trial"",""time""
""fullscreenenter"",""1"",""3416""
","
","","","","","","null","<div style=""font-size:60px;"">+</div>","null","","fixation","","","","","","","","","","",""
"aa-learning-trial","161","588272","0.0-9.0-2.0-1.44","3834","1","13","Female","approach_avoid_spark_v1","""event"",""trial"",""time""
""focus"",""0"",""0""
""fullscreenenter"",""1"",""3416""
","
","""event"",""trial"",""time""
""focus"",""0"",""0""
","""event"",""trial"",""time""
""fullscreenenter"",""1"",""3416""
","
","","","","","","807","images/orange2.png","","","learning","3","3","1","1","orange","fruit","1","0","","good","[6]"
"html-keyboard-response","162","588785","0.0-9.0-2.0-0.45","3834","1","13","Female","approach_avoid_spark_v1","""event"",""trial"",""time""
""focus"",""0"",""0""
""fullscreenenter"",""1"",""3416""
","
","""event"",""trial"",""time""
""focus"",""0"",""0""
","""event"",""trial"",""time""
""fullscreenenter"",""1"",""3416""
","
","","","","","","null","<div style=""font-size:60px;"">+</div>","null","","fixation","","","","","","","","","","",""
"aa-learning-trial","163","591797","0.0-9.0-2.0-1.45","3834","1","13","Female","approach_avoid_spark_v1","""event"",""trial"",""time""
""focus"",""0"",""0""
""fullscreenenter"",""1"",""3416""
","
","""event"",""trial"",""time""
""focus"",""0"",""0""
","""event"",""trial"",""time""
""fullscreenenter"",""1"",""3416""
","
","","","","","","652","images/orange6.png","","","learning","4","4","1","1","orange","fruit","1","0","","good","[6]"
"html-keyboard-response","164","592307","0.0-9.0-2.0-0.46","3834","1","13","Female","approach_avoid_spark_v1","""event"",""trial"",""time""
""focus"",""0"",""0""
""fullscreenenter"",""1"",""3416""
","
","""event"",""trial"",""time""
""focus"",""0"",""0""
","""event"",""trial"",""time""
""fullscreenenter"",""1"",""3416""
","
","","","","","","null","<div style=""font-size:60px;"">+</div>","null","","fixation","","","","","","","","","","",""
"aa-learning-trial","165","595321","0.0-9.0-2.0-1.46","3834","1","13","Female","approach_avoid_spark_v1","""event"",""trial"",""time""
""focus"",""0"",""0""
""fullscreenenter"",""1"",""3416""
","
","""event"",""trial"",""time""
""focus"",""0"",""0""
","""event"",""trial"",""time""
""fullscreenenter"",""1"",""3416""
","
","","","","","","817","images/apple6.png","","","learning","-6","0","0","0","apple","fruit","1","0","","bad","[-4]"
"html-keyboard-response","166","595833","0.0-9.0-2.0-0.47","3834","1","13","Female","approach_avoid_spark_v1","""event"",""trial"",""time""
""focus"",""0"",""0""
""fullscreenenter"",""1"",""3416""
","
","""event"",""trial"",""time""
""focus"",""0"",""0""
","""event"",""trial"",""time""
""fullscreenenter"",""1"",""3416""
","
","","","","","","null","<div style=""font-size:60px;"">+</div>","null","","fixation","","","","","","","","","","",""
"aa-learning-trial","167","598840","0.0-9.0-2.0-1.47","3834","1","13","Female","approach_avoid_spark_v1","""event"",""trial"",""time""
""focus"",""0"",""0""
""fullscreenenter"",""1"",""3416""
","
","""event"",""trial"",""time""
""focus"",""0"",""0""
","""event"",""trial"",""time""
""fullscreenenter"",""1"",""3416""
","
","","","","","","747","images/apple6.png","","","learning","-6","0","0","0","apple","fruit","1","0","","bad","[-4]"
"html-keyboard-response","168","599351","0.0-9.0-2.0-0.48","3834","1","13","Female","approach_avoid_spark_v1","""event"",""trial"",""time""
""focus"",""0"",""0""
""fullscreenenter"",""1"",""3416""
","
","""event"",""trial"",""time""
""focus"",""0"",""0""
","""event"",""trial"",""time""
""fullscreenenter"",""1"",""3416""
","
","","","","","","null","<div style=""font-size:60px;"">+</div>","null","","fixation","","","","","","","","","","",""
"aa-learning-trial","169","602359","0.0-9.0-2.0-1.48","3834","1","13","Female","approach_avoid_spark_v1","""event"",""trial"",""time""
""focus"",""0"",""0""
""fullscreenenter"",""1"",""3416""
","
","""event"",""trial"",""time""
""focus"",""0"",""0""
","""event"",""trial"",""time""
""fullscreenenter"",""1"",""3416""
","
","","","","","","406","images/orange6.png","","","learning","7","7","1","1","orange","fruit","1","0","","good","[6]"
"html-keyboard-response","170","602869","0.0-9.0-2.0-0.49","3834","1","13","Female","approach_avoid_spark_v1","""event"",""trial"",""time""
""focus"",""0"",""0""
""fullscreenenter"",""1"",""3416""
","
","""event"",""trial"",""time""
""focus"",""0"",""0""
","""event"",""trial"",""time""
""fullscreenenter"",""1"",""3416""
","
","","","","","","null","<div style=""font-size:60px;"">+</div>","null","","fixation","","","","","","","","","","",""
"aa-learning-trial","171","605873","0.0-9.0-2.0-1.49","3834","1","13","Female","approach_avoid_spark_v1","""event"",""trial"",""time""
""focus"",""0"",""0""
""fullscreenenter"",""1"",""3416""
","
","""event"",""trial"",""time""
""focus"",""0"",""0""
","""event"",""trial"",""time""
""fullscreenenter"",""1"",""3416""
","
","","","","","","719","images/banana5.png","","","learning","[-1]","-1","1","1","banana","fruit","1","0","","neutral","0"
"html-keyboard-response","172","606387","0.0-9.0-2.0-0.50","3834","1","13","Female","approach_avoid_spark_v1","""event"",""trial"",""time""
""focus"",""0"",""0""
""fullscreenenter"",""1"",""3416""
","
","""event"",""trial"",""time""
""focus"",""0"",""0""
","""event"",""trial"",""time""
""fullscreenenter"",""1"",""3416""
","
","","","","","","null","<div style=""font-size:60px;"">+</div>","null","","fixation","","","","","","","","","","",""
"aa-learning-trial","173","609393","0.0-9.0-2.0-1.50","3834","1","13","Female","approach_avoid_spark_v1","""event"",""trial"",""time""
""focus"",""0"",""0""
""fullscreenenter"",""1"",""3416""
","
","""event"",""trial"",""time""
""focus"",""0"",""0""
","""event"",""trial"",""time""
""fullscreenenter"",""1"",""3416""
","
","","","","","","482","images/orange4.png","","","learning","6","6","1","1","orange","fruit","1","0","","good","[6]"
"html-button-response","174","612478","0.0-9.0-3.0","3834","1","13","Female","approach_avoid_spark_v1","""event"",""trial"",""time""
""focus"",""0"",""0""
""fullscreenenter"",""1"",""3416""
","
","""event"",""trial"",""time""
""focus"",""0"",""0""
","""event"",""trial"",""time""
""fullscreenenter"",""1"",""3416""
","
","","","","","","3084","<p> You have completed the round! <p> In this round, you earned 92 points! </p>","0","","break","","","","","","","","","","",""
"html-button-response","175","614006","0.0-10.0","3834","1","13","Female","approach_avoid_spark_v1","""event"",""trial"",""time""
""focus"",""0"",""0""
""fullscreenenter"",""1"",""3416""
","
","""event"",""trial"",""time""
""focus"",""0"",""0""
","""event"",""trial"",""time""
""fullscreenenter"",""1"",""3416""
","
","","","","","","1526","<p> Now it's time to play another round. </p>","0","","transition_screen","","","","","","","","","","",""
"preload","176","614128","0.0-11.0-0.0","3834","1","13","Female","approach_avoid_spark_v1","""event"",""trial"",""time""
""focus"",""0"",""0""
""fullscreenenter"",""1"",""3416""
","
","""event"",""trial"",""time""
""focus"",""0"",""0""
","""event"",""trial"",""time""
""fullscreenenter"",""1"",""3416""
","
","true","false","[]","[]","[]","","","","","","","","","","","","","","","",""
"learning-instructions","177","621661","0.0-11.0-1.0-0.0","3834","1","13","Female","approach_avoid_spark_v1","""event"",""trial"",""time""
""focus"",""0"",""0""
""fullscreenenter"",""1"",""3416""
","
","""event"",""trial"",""time""
""focus"",""0"",""0""
","""event"",""trial"",""time""
""fullscreenenter"",""1"",""3416""
","
","","","","","","2226","<p> Your goal in this round is to take your friend for rides in different vehicles. </p></div>","","0","instructions","","","","","","","","","","",""
"learning-instructions","178","635821","0.0-11.0-1.0-0.1","3834","1","13","Female","approach_avoid_spark_v1","""event"",""trial"",""time""
""focus"",""0"",""0""
""fullscreenenter"",""1"",""3416""
","
","""event"",""trial"",""time""
""focus"",""0"",""0""
","""event"",""trial"",""time""
""fullscreenenter"",""1"",""3416""
","
","","","","","","2616","<p> Your friend enjoys riding in some vehicles but not in others.  </p><p> On each turn, you will see a vehicle.   </p><p> You need to decide whether to take your friend for a ride or not.  </p>","","0","instructions","","","","","","","","","","",""
"learning-instructions","179","649118","0.0-11.0-1.0-0.2","3834","1","13","Female","approach_avoid_spark_v1","""event"",""trial"",""time""
""focus"",""0"",""0""
""fullscreenenter"",""1"",""3416""
","
","""event"",""trial"",""time""
""focus"",""0"",""0""
","""event"",""trial"",""time""
""fullscreenenter"",""1"",""3416""
","
","","","","","","5714","<p> You can take your friend for a ride in the vehicle by pressing 1 and skip the ride by pressing 0. </p><br><div class=""choice-instructions-grid""> <div class=""choice-option""><img src=""images/approach.png"" class=""choice-option-img"" stage=""instructions"" position=""0"" ><div class=""choice-option-text""> Press ""1."" </div></div><div class=""choice-option""><img src=""images/avoid.png"" class=""choice-option-img"" stage=""instructions"" position=""1"" ><div class=""choice-option-text""> Press ""0."" </div></div>","","0","instructions","","","","","","","","","","",""
"learning-instructions","180","662005","0.0-11.0-1.0-0.3","3834","1","13","Female","approach_avoid_spark_v1","""event"",""trial"",""time""
""focus"",""0"",""0""
""fullscreenenter"",""1"",""3416""
","
","""event"",""trial"",""time""
""focus"",""0"",""0""
","""event"",""trial"",""time""
""fullscreenenter"",""1"",""3416""
","
","","","","","","2460","<p> If you take them for a ride in a vehicle they like, they will be thrilled! </p><p> But if you take them for a ride in a vehicle they do not like, they will be upset. </p>","","0","instructions","","","","","","","","","","",""
"learning-instructions","181","677182","0.0-11.0-1.0-0.4","3834","1","13","Female","approach_avoid_spark_v1","""event"",""trial"",""time""
""focus"",""0"",""0""
""fullscreenenter"",""1"",""3416""
","
","""event"",""trial"",""time""
""focus"",""0"",""0""
","""event"",""trial"",""time""
""fullscreenenter"",""1"",""3416""
","
","","","","","","1336","<p> You will earn points based on how you made your friend feel. </p><p> If you made him thrilled, you will WIN anywhere from 1 - 9 points, </p><p> but if you made him upset, you will LOSE anywhere from 1 - 9 points. </p>","","0","instructions","","","","","","","","","","",""
"learning-instructions","182","684694","0.0-11.0-1.0-0.5","3834","1","13","Female","approach_avoid_spark_v1","""event"",""trial"",""time""
""focus"",""0"",""0""
""fullscreenenter"",""1"",""3416""
","
","""event"",""trial"",""time""
""focus"",""0"",""0""
","""event"",""trial"",""time""
""fullscreenenter"",""1"",""3416""
","
","","","","","","836","<p> You will see how many points you won or lost in the center of the screen. </p><p> Here is what you would see if you won 5 points: </p><p style=""color:green;font-size:50px;font-weight:bolder"">5</p>","","0","instructions","","","","","","","","","","",""
"learning-instructions","183","688006","0.0-11.0-1.0-0.6","3834","1","13","Female","approach_avoid_spark_v1","""event"",""trial"",""time""
""focus"",""0"",""0""
""fullscreenenter"",""1"",""3416""
","
","""event"",""trial"",""time""
""focus"",""0"",""0""
","""event"",""trial"",""time""
""fullscreenenter"",""1"",""3416""
","
","","","","","","461","<p> And here is what you would see if you lost 3 points: </p><p style=""color:red;font-size:50px;font-weight:bolder"">-3</p>","","0","instructions","","","","","","","","","","",""
"learning-instructions","184","708566","0.0-11.0-1.0-0.7","3834","1","13","Female","approach_avoid_spark_v1","""event"",""trial"",""time""
""focus"",""0"",""0""
""fullscreenenter"",""1"",""3416""
","
","""event"",""trial"",""time""
""focus"",""0"",""0""
","""event"",""trial"",""time""
""fullscreenenter"",""1"",""3416""
","
","","","","","","2940","<p> Some vehicles will make your friend REALLY thrilled or upset. </p><p> These vehicles will make you win or lose LOTS of points. </p><p> Other vehicles will only make him feel a little thrilled or upset. </p><p> These vehicles will make you win or lose small amounts of points. </p>","","0","instructions","","","","","","","","","","",""
"learning-instructions","185","722590","0.0-11.0-1.0-0.8","3834","1","13","Female","approach_avoid_spark_v1","""event"",""trial"",""time""
""focus"",""0"",""0""
""fullscreenenter"",""1"",""3416""
","
","""event"",""trial"",""time""
""focus"",""0"",""0""
","""event"",""trial"",""time""
""fullscreenenter"",""1"",""3416""
","
","","","","","","434","<p> If you choose to skip the ride, you will not win or lose any points. </p><p>  However, in the center of the screen, you will see the number of points you WOULD HAVE won or lost if you had taken your friend for a ride. </p>","","0","instructions","","","","","","","","","","",""
"learning-instructions","186","735133","0.0-11.0-1.0-0.9","3834","1","13","Female","approach_avoid_spark_v1","""event"",""trial"",""time""
""focus"",""0"",""0""
""fullscreenenter"",""1"",""3416""
","
","""event"",""trial"",""time""
""focus"",""0"",""0""
","""event"",""trial"",""time""
""fullscreenenter"",""1"",""3416""
","
","","","","","","757","<p> Here is what you might see if you did not take your friend for a ride but he would have enjoyed it: </p><p style=""color:grey; font-size:50px; display: inline-block; border-spacing: 15px; border-width:3px; border-style:solid; border-color:red"">  &nbsp; 6 &nbsp; </p><p> Remember, in this case, you would not win or lose ANY points because you skipped the ride.  </p>","","0","instructions","","","","","","","","","","",""
"learning-instructions","187","744174","0.0-11.0-1.0-0.10","3834","1","13","Female","approach_avoid_spark_v1","""event"",""trial"",""time""
""focus"",""0"",""0""
""fullscreenenter"",""1"",""3416""
","
","""event"",""trial"",""time""
""focus"",""0"",""0""
","""event"",""trial"",""time""
""fullscreenenter"",""1"",""3416""
","
","","","","","","1128","<p> Try to make the best choice for each vehicle because </p><p> at the end of the game, you will earn bonus money based on how many points you earned. </p>","","0","instructions","","","","","","","","","","",""
"learning-instructions","188","754014","0.0-11.0-1.0-0.11","3834","1","13","Female","approach_avoid_spark_v1","""event"",""trial"",""time""
""focus"",""0"",""0""
""fullscreenenter"",""1"",""3416""
","
","""event"",""trial"",""time""
""focus"",""0"",""0""
","""event"",""trial"",""time""
""fullscreenenter"",""1"",""3416""
","
","","","","","","1638","<p> You will have 3 seconds to make each choice. Try to respond before time runs out! </p><p> You will lose 5 points each time you do not make a response. </p>","","0","instructions","","","","","","","","","","",""
"html-keyboard-response","189","754631","0.0-11.0-2.0-0.0","3834","1","13","Female","approach_avoid_spark_v1","""event"",""trial"",""time""
""focus"",""0"",""0""
""fullscreenenter"",""1"",""3416""
","
","""event"",""trial"",""time""
""focus"",""0"",""0""
","""event"",""trial"",""time""
""fullscreenenter"",""1"",""3416""
","
","","","","","","null","<div style=""font-size:60px;"">+</div>","null","","fixation","","","","","","","","","","",""
"aa-learning-trial","190","757638","0.0-11.0-2.0-1.0","3834","1","13","Female","approach_avoid_spark_v1","""event"",""trial"",""time""
""focus"",""0"",""0""
""fullscreenenter"",""1"",""3416""
","
","""event"",""trial"",""time""
""focus"",""0"",""0""
","""event"",""trial"",""time""
""fullscreenenter"",""1"",""3416""
","
","","","","","","1518","images/truck1.png","","","learning","7","7","1","1","truck","vehicles","2","1","","neutral","0"
"html-keyboard-response","191","758152","0.0-11.0-2.0-0.1","3834","1","13","Female","approach_avoid_spark_v1","""event"",""trial"",""time""
""focus"",""0"",""0""
""fullscreenenter"",""1"",""3416""
","
","""event"",""trial"",""time""
""focus"",""0"",""0""
","""event"",""trial"",""time""
""fullscreenenter"",""1"",""3416""
","
","","","","","","null","<div style=""font-size:60px;"">+</div>","null","","fixation","","","","","","","","","","",""
"aa-learning-trial","192","761158","0.0-11.0-2.0-1.1","3834","1","13","Female","approach_avoid_spark_v1","""event"",""trial"",""time""
""focus"",""0"",""0""
""fullscreenenter"",""1"",""3416""
","
","""event"",""trial"",""time""
""focus"",""0"",""0""
","""event"",""trial"",""time""
""fullscreenenter"",""1"",""3416""
","
","","","","","","572","images/boat6.png","","","learning","9","9","1","1","boat","vehicles","2","1","","good","[4]"
"html-keyboard-response","193","761671","0.0-11.0-2.0-0.2","3834","1","13","Female","approach_avoid_spark_v1","""event"",""trial"",""time""
""focus"",""0"",""0""
""fullscreenenter"",""1"",""3416""
","
","""event"",""trial"",""time""
""focus"",""0"",""0""
","""event"",""trial"",""time""
""fullscreenenter"",""1"",""3416""
","
","","","","","","null","<div style=""font-size:60px;"">+</div>","null","","fixation","","","","","","","","","","",""
"aa-learning-trial","194","764683","0.0-11.0-2.0-1.2","3834","1","13","Female","approach_avoid_spark_v1","""event"",""trial"",""time""
""focus"",""0"",""0""
""fullscreenenter"",""1"",""3416""
","
","""event"",""trial"",""time""
""focus"",""0"",""0""
","""event"",""trial"",""time""
""fullscreenenter"",""1"",""3416""
","
","","","","","","533","images/plane6.png","","","learning","-2","-2","1","1","plane","vehicles","2","1","","bad","[-5]"
"html-keyboard-response","195","765198","0.0-11.0-2.0-0.3","3834","1","13","Female","approach_avoid_spark_v1","""event"",""trial"",""time""
""focus"",""0"",""0""
""fullscreenenter"",""1"",""3416""
","
","""event"",""trial"",""time""
""focus"",""0"",""0""
","""event"",""trial"",""time""
""fullscreenenter"",""1"",""3416""
","
","","","","","","null","<div style=""font-size:60px;"">+</div>","null","","fixation","","","","","","","","","","",""
"aa-learning-trial","196","768210","0.0-11.0-2.0-1.3","3834","1","13","Female","approach_avoid_spark_v1","""event"",""trial"",""time""
""focus"",""0"",""0""
""fullscreenenter"",""1"",""3416""
","
","""event"",""trial"",""time""
""focus"",""0"",""0""
","""event"",""trial"",""time""
""fullscreenenter"",""1"",""3416""
","
","","","","","","486","images/boat2.png","","","learning","1","1","1","1","boat","vehicles","2","1","","good","[4]"
"html-keyboard-response","197","768724","0.0-11.0-2.0-0.4","3834","1","13","Female","approach_avoid_spark_v1","""event"",""trial"",""time""
""focus"",""0"",""0""
""fullscreenenter"",""1"",""3416""
","
","""event"",""trial"",""time""
""focus"",""0"",""0""
","""event"",""trial"",""time""
""fullscreenenter"",""1"",""3416""
","
","","","","","","null","<div style=""font-size:60px;"">+</div>","null","","fixation","","","","","","","","","","",""
"aa-learning-trial","198","771726","0.0-11.0-2.0-1.4","3834","1","13","Female","approach_avoid_spark_v1","""event"",""trial"",""time""
""focus"",""0"",""0""
""fullscreenenter"",""1"",""3416""
","
","""event"",""trial"",""time""
""focus"",""0"",""0""
","""event"",""trial"",""time""
""fullscreenenter"",""1"",""3416""
","
","","","","","","848","images/plane5.png","","","learning","5","0","0","0","plane","vehicles","2","1","","bad","[-5]"
"html-keyboard-response","199","772239","0.0-11.0-2.0-0.5","3834","1","13","Female","approach_avoid_spark_v1","""event"",""trial"",""time""
""focus"",""0"",""0""
""fullscreenenter"",""1"",""3416""
","
","""event"",""trial"",""time""
""focus"",""0"",""0""
","""event"",""trial"",""time""
""fullscreenenter"",""1"",""3416""
","
","","","","","","null","<div style=""font-size:60px;"">+</div>","null","","fixation","","","","","","","","","","",""
"aa-learning-trial","200","775247","0.0-11.0-2.0-1.5","3834","1","13","Female","approach_avoid_spark_v1","""event"",""trial"",""time""
""focus"",""0"",""0""
""fullscreenenter"",""1"",""3416""
","
","""event"",""trial"",""time""
""focus"",""0"",""0""
","""event"",""trial"",""time""
""fullscreenenter"",""1"",""3416""
","
","","","","","","1109","images/truck4.png","","","learning","2","0","0","0","truck","vehicles","2","1","","neutral","0"
"html-keyboard-response","201","775756","0.0-11.0-2.0-0.6","3834","1","13","Female","approach_avoid_spark_v1","""event"",""trial"",""time""
""focus"",""0"",""0""
""fullscreenenter"",""1"",""3416""
","
","""event"",""trial"",""time""
""focus"",""0"",""0""
