"trial_type","trial_index","time_elapsed","internal_node_id","subject_id","task_condition","age","gender","task_version","interactions","blur_events","focus_events","fullscreenenter_events","fullscreenexit_events","success","timeout","failed_images","failed_audio","failed_video","rt","stimulus","response","button_pressed","task_part","approach_reward","points","key_press","option_selected","stim_cat","task_block","block_condition","block_number","correct","cat_type","mean_cat_reward"
"pavlovia","0","9","0.0-0.0","6153","1","12","Female","approach_avoid_spark_v1","""event"",""trial"",""time""
""fullscreenenter"",""1"",""5881""
","
","
","""event"",""trial"",""time""
""fullscreenenter"",""1"",""5881""
","
","","","","","","","","","","","","","","","","","","","","",""
"fullscreen","1","6858","0.0-1.0","6153","1","12","Female","approach_avoid_spark_v1","""event"",""trial"",""time""
""fullscreenenter"",""1"",""5881""
","
","
","""event"",""trial"",""time""
""fullscreenenter"",""1"",""5881""
","
","true","","","","","","","","","","","","","","","","","","","",""
"preload","2","16308","0.0-2.0","6153","1","12","Female","approach_avoid_spark_v1","""event"",""trial"",""time""
""fullscreenenter"",""1"",""5881""
","
","
","""event"",""trial"",""time""
""fullscreenenter"",""1"",""5881""
","
","true","false","[]","[]","[]","","","","","","","","","","","","","","","",""
"audio-keyboard-response","3","21438","0.0-3.0","6153","1","12","Female","approach_avoid_spark_v1","""event"",""trial"",""time""
""fullscreenenter"",""1"",""5881""
","
","
","""event"",""trial"",""time""
""fullscreenenter"",""1"",""5881""
","
","","","","","","5130.666666666666","audio/beep_loop.wav"," ","","","","","","","","","","","","",""
"audio-button-response","4","25309","0.0-4.0","6153","1","12","Female","approach_avoid_spark_v1","""event"",""trial"",""time""
""fullscreenenter"",""1"",""5881""
","
","
","""event"",""trial"",""time""
""fullscreenenter"",""1"",""5881""
","
","","","","","","3869","audio/shark.wav","4","","","","","","","","","","","","",""
"audio-button-response","5","28518","0.0-5.0","6153","1","12","Female","approach_avoid_spark_v1","""event"",""trial"",""time""
""fullscreenenter"",""1"",""5881""
","
","
","""event"",""trial"",""time""
""fullscreenenter"",""1"",""5881""
","
","","","","","","2189","audio/turtle.wav","1","","","","","","","","","","","","",""
"preload","6","43837","0.0-6.0","6153","1","12","Female","approach_avoid_spark_v1","""event"",""trial"",""time""
""fullscreenenter"",""1"",""5881""
","
","
","""event"",""trial"",""time""
""fullscreenenter"",""1"",""5881""
","
","true","false","[]","[]","[]","","","","","","","","","","","","","","","",""
"html-keyboard-response","7","53317","0.0-7.0","6153","1","12","Female","approach_avoid_spark_v1","""event"",""trial"",""time""
""fullscreenenter"",""1"",""5881""
","
","
","""event"",""trial"",""time""
""fullscreenenter"",""1"",""5881""
","
","","","","","","9478.799999952316","Welcome to the experiment. Press any key to begin and to advance the instructions."," ","","","","","","","","","","","","",""
"learning-instructions","8","62027","0.0-8.0-0.0-0.0","6153","1","12","Female","approach_avoid_spark_v1","""event"",""trial"",""time""
""fullscreenenter"",""1"",""5881""
","
","
","""event"",""trial"",""time""
""fullscreenenter"",""1"",""5881""
","
","","","","","","1750.4000000953674","<p> Welcome! Today you are going to play 6 different rounds of a decision-making game. </p><p> Use the mouse to click next to continue. </p>","","0","instructions","","","","","","","","","","",""
"learning-instructions","9","66986","0.0-8.0-0.0-0.1","6153","1","12","Female","approach_avoid_spark_v1","""event"",""trial"",""time""
""fullscreenenter"",""1"",""5881""
","
","
","""event"",""trial"",""time""
""fullscreenenter"",""1"",""5881""
","
","","","","","","2221.8000000715256","<p> You will start with a practice round to learn the rules. </p>","","0","instructions","","","","","","","","","","",""
"learning-instructions","10","71467","0.0-8.0-0.0-0.2","6153","1","12","Female","approach_avoid_spark_v1","""event"",""trial"",""time""
""fullscreenenter"",""1"",""5881""
","
","
","""event"",""trial"",""time""
""fullscreenenter"",""1"",""5881""
","
","","","","","","1012.4000000953674","<p> Your goal in this round is to give out sports equipment to kids. </p></div>","","0","instructions","","","","","","","","","","",""
"learning-instructions","11","79978","0.0-8.0-0.0-0.3","6153","1","12","Female","approach_avoid_spark_v1","""event"",""trial"",""time""
""fullscreenenter"",""1"",""5881""
","
","
","""event"",""trial"",""time""
""fullscreenenter"",""1"",""5881""
","
","","","","","","932.7999999523163","<p> The kids only like some of the equipment.  </p><p> On each turn, you will see a piece of sports equipment.   </p><p> You need to decide whether to give it to the kids or not.  </p>","","0","instructions","","","","","","","","","","",""
"learning-instructions","12","98142","0.0-8.0-0.0-0.4","6153","1","12","Female","approach_avoid_spark_v1","""event"",""trial"",""time""
""fullscreenenter"",""1"",""5881""
","
","
","""event"",""trial"",""time""
""fullscreenenter"",""1"",""5881""
","
","","","","","","13405.699999928474","<p> You can give them the equipment by pressing 1 and choose not to give it to them by pressing 0. </p><br><div class=""choice-instructions-grid""> <div class=""choice-option""><img src=""images/approach.png"" class=""choice-option-img"" stage=""instructions"" position=""0"" ><div class=""choice-option-text""> Press ""1."" </div></div><div class=""choice-option""><img src=""images/avoid.png"" class=""choice-option-img"" stage=""instructions"" position=""1"" ><div class=""choice-option-text""> Press ""0."" </div></div>","","0","instructions","","","","","","","","","","",""
"learning-instructions","13","107051","0.0-8.0-0.0-0.5","6153","1","12","Female","approach_avoid_spark_v1","""event"",""trial"",""time""
""fullscreenenter"",""1"",""5881""
","
","
","""event"",""trial"",""time""
""fullscreenenter"",""1"",""5881""
","
","","","","","","1516","<p> If you give them a piece of equipment they like, they will be happy! </p><p> But if you give them a piece of equipment they do not like, they will be sad. </p>","","0","instructions","","","","","","","","","","",""
"learning-instructions","14","118556","0.0-8.0-0.0-0.6","6153","1","12","Female","approach_avoid_spark_v1","""event"",""trial"",""time""
""fullscreenenter"",""1"",""5881""
","
","
","""event"",""trial"",""time""
""fullscreenenter"",""1"",""5881""
","
","","","","","","979","<p> You will earn points based on how you make kids feel. </p><p> If you make them happy, you will WIN anywhere from 1 - 9 points, </p><p> but if you make them sad, you will LOSE anywhere from 1 - 9 points. </p>","","0","instructions","","","","","","","","","","",""
"learning-instructions","15","129475","0.0-8.0-0.0-0.7","6153","1","12","Female","approach_avoid_spark_v1","""event"",""trial"",""time""
""fullscreenenter"",""1"",""5881""
","
","
","""event"",""trial"",""time""
""fullscreenenter"",""1"",""5881""
","
","","","","","","1347.8999999761581","<p> You will see how many points you won or lost in the center of the screen. </p><p> Here is what you would see if you won 6 points: </p><p style=""color:green;font-size:50px;font-weight:bolder"">6</p><p style=""color:green"">The text is GREEN because you WON points.</p>","","0","instructions","","","","","","","","","","",""
"learning-instructions","16","138372","0.0-8.0-0.0-0.8","6153","1","12","Female","approach_avoid_spark_v1","""event"",""trial"",""time""
""fullscreenenter"",""1"",""5881""
","
","
","""event"",""trial"",""time""
""fullscreenenter"",""1"",""5881""
","
","","","","","","3396.7999999523163","<p> And here is what you would see if you lost 4 points: </p><p style=""color:red;font-size:50px;font-weight:bolder"">-4</p><p style=""color:red"">The text is RED because you LOST points. </p>","","0","instructions","","","","","","","","","","",""
"learning-instructions","17","155596","0.0-8.0-0.0-0.9","6153","1","12","Female","approach_avoid_spark_v1","""event"",""trial"",""time""
""fullscreenenter"",""1"",""5881""
","
","
","""event"",""trial"",""time""
""fullscreenenter"",""1"",""5881""
","
","","","","","","2499.5","<p> Some of the equipment will make the kids VERY happy or sad. </p><p> These pieces of equipment will make you win or lose LOTS of points. </p><p> Other pieces of equipment will only make the kids a little happy or sad. </p><p> These pieces of equipment will make you win or lose small amounts of points. </p>","","0","instructions","","","","","","","","","","",""
"learning-instructions","18","167703","0.0-8.0-0.0-0.10","6153","1","12","Female","approach_avoid_spark_v1","""event"",""trial"",""time""
""fullscreenenter"",""1"",""5881""
","
","
","""event"",""trial"",""time""
""fullscreenenter"",""1"",""5881""
","
","","","","","","1485.5","<p> If you choose not to give them the equipment, you will not win or lose any points. </p><p>  However, in the center of the screen, you will see the number of points you WOULD HAVE won or lost if you had given them the equipment. </p>","","0","instructions","","","","","","","","","","",""
"learning-instructions","19","193735","0.0-8.0-0.0-0.11","6153","1","12","Female","approach_avoid_spark_v1","""event"",""trial"",""time""
""fullscreenenter"",""1"",""5881""
","
","
","""event"",""trial"",""time""
""fullscreenenter"",""1"",""5881""
","
","","","","","","4499.200000047684","<p> Here is what you might see if you did not give the equipment to the kids but it would have made them happy: </p><p style=""color:grey; font-size:50px; display: inline-block; border-spacing: 15px; border-width:3px; border-style:solid; border-color:red"">  &nbsp; 7 &nbsp; </p><p> Remember, in this case, you would not win or lose ANY points because you did not give them the equipment.  </p><p style=""color:grey"">The text is GREY because you earned ZERO points. </p><p style=""color:red"">However, choosing to give the kids the equipment would have made you win points. The box around the text is RED because you chose the worse option. </p>","","0","instructions","","","","","","","","","","",""
"learning-instructions","20","217027","0.0-8.0-0.0-0.12","6153","1","12","Female","approach_avoid_spark_v1","""event"",""trial"",""time""
""fullscreenenter"",""1"",""5881""
","
","
","""event"",""trial"",""time""
""fullscreenenter"",""1"",""5881""
","
","","","","","","2210.4000000953674","<p> Here is what you might see if you did not give the equipment to the kids but it would have made them sad: </p><p style=""color:grey;font-size:50px; display: inline-block; border-spacing: 15px; border-width:3px; border-style:solid; border-color:green"">  &nbsp; -8 &nbsp; </p><p> Remember, in this case, you would not win or lose ANY points because you did not give them the equipment.  </p><p style=""color:grey"">The text is GREY because you earned ZERO points. </p><p  style=""color:green""> Choosing to give the kids the equipment would have made you lose points. The box around the text is GREEN because you chose the better option.</p>","","0","instructions","","","","","","","","","","",""
"learning-instructions","21","233066","0.0-8.0-0.0-0.13","6153","1","12","Female","approach_avoid_spark_v1","""event"",""trial"",""time""
""fullscreenenter"",""1"",""5881""
","
","
","""event"",""trial"",""time""
""fullscreenenter"",""1"",""5881""
","
","","","","","","1980.7999999523163","<p> You will have 3 seconds to make each choice. Try to respond before time runs out! </p><p> You will lose 5 points each time you do not make a response. </p>","","0","instructions","","","","","","","","","","",""
"learning-instructions","22","241075","0.0-8.0-0.0-0.14","6153","1","12","Female","approach_avoid_spark_v1","""event"",""trial"",""time""
""fullscreenenter"",""1"",""5881""
","
","
","""event"",""trial"",""time""
""fullscreenenter"",""1"",""5881""
","
","","","","","","2591","<p> This is just a practice round, but in the real game, your bonus payment will depend on your total number of points.","","0","instructions","","","","","","","","","","",""
"learning-instructions","23","250294","0.0-8.0-0.0-0.15","6153","1","12","Female","approach_avoid_spark_v1","""event"",""trial"",""time""
""fullscreenenter"",""1"",""5881""
","
","
","""event"",""trial"",""time""
""fullscreenenter"",""1"",""5881""
","
","","","","","","3436.2000000476837","<p> Remember, you can give them the equipment by pressing 1 and choose not to give it to them by pressing 0. </p><br><div class=""choice-instructions-grid""> <div class=""choice-option""><img src=""images/approach.png"" class=""choice-option-img"" stage=""instructions"" position=""0"" ><div class=""choice-option-text""> Press ""1."" </div></div><div class=""choice-option""><img src=""images/avoid.png"" class=""choice-option-img"" stage=""instructions"" position=""1"" ><div class=""choice-option-text""> Press ""0."" </div></div>","","0","instructions","","","","","","","","","","",""
"html-button-response","24","252263","0.0-8.0-1.0","6153","1","12","Female","approach_avoid_spark_v1","""event"",""trial"",""time""
""fullscreenenter"",""1"",""5881""
","
","
","""event"",""trial"",""time""
""fullscreenenter"",""1"",""5881""
","
","","","","","","1862.6999999284744","<p> Ready to practice? </p>","0","","","","","","","","","","","","",""
"html-keyboard-response","25","252893","0.0-8.0-2.0-0.0","6153","1","12","Female","approach_avoid_spark_v1","""event"",""trial"",""time""
""fullscreenenter"",""1"",""5881""
","
","
","""event"",""trial"",""time""
""fullscreenenter"",""1"",""5881""
","
","","","","","","null","<div style=""font-size:60px;"">+</div>","null","","fixation","","","","","","","","","","",""
"aa-learning-trial","26","255914","0.0-8.0-2.0-1.0","6153","1","12","Female","approach_avoid_spark_v1","""event"",""trial"",""time""
""fullscreenenter"",""1"",""5881""
","
","
","""event"",""trial"",""time""
""fullscreenenter"",""1"",""5881""
","
","","","","","","null","images/racket3.png","","","learning","3","-5","","null","practice","practice","practice","-1","","",""
"html-keyboard-response","27","256434","0.0-8.0-2.0-0.1","6153","1","12","Female","approach_avoid_spark_v1","""event"",""trial"",""time""
""fullscreenenter"",""1"",""5881""
","
","
","""event"",""trial"",""time""
""fullscreenenter"",""1"",""5881""
","
","","","","","","null","<div style=""font-size:60px;"">+</div>","null","","fixation","","","","","","","","","","",""
"aa-learning-trial","28","259450","0.0-8.0-2.0-1.1","6153","1","12","Female","approach_avoid_spark_v1","""event"",""trial"",""time""
""fullscreenenter"",""1"",""5881""
","
","
","""event"",""trial"",""time""
""fullscreenenter"",""1"",""5881""
","
","","","","","","null","images/racket2.png","","","learning","-6","-5","","null","practice","practice","practice","-1","","",""
"html-keyboard-response","29","259964","0.0-8.0-2.0-0.2","6153","1","12","Female","approach_avoid_spark_v1","""event"",""trial"",""time""
""fullscreenenter"",""1"",""5881""
","
","
","""event"",""trial"",""time""
""fullscreenenter"",""1"",""5881""
","
","","","","","","null","<div style=""font-size:60px;"">+</div>","null","","fixation","","","","","","","","","","",""
"aa-learning-trial","30","262984","0.0-8.0-2.0-1.2","6153","1","12","Female","approach_avoid_spark_v1","""event"",""trial"",""time""
""fullscreenenter"",""1"",""5881""
","
","
","""event"",""trial"",""time""
""fullscreenenter"",""1"",""5881""
","
","","","","","","null","images/ball1.png","","","learning","3","-5","","null","practice","practice","practice","-1","","",""
"html-keyboard-response","31","263502","0.0-8.0-2.0-0.3","6153","1","12","Female","approach_avoid_spark_v1","""event"",""trial"",""time""
""fullscreenenter"",""1"",""5881""
","
","
","""event"",""trial"",""time""
""fullscreenenter"",""1"",""5881""
","
","","","","","","null","<div style=""font-size:60px;"">+</div>","null","","fixation","","","","","","","","","","",""
"aa-learning-trial","32","266514","0.0-8.0-2.0-1.3","6153","1","12","Female","approach_avoid_spark_v1","""event"",""trial"",""time""
""fullscreenenter"",""1"",""5881""
","
","
","""event"",""trial"",""time""
""fullscreenenter"",""1"",""5881""
","
","","","","","","null","images/racket4.png","","","learning","6","-5","","null","practice","practice","practice","-1","","",""
"html-keyboard-response","33","267024","0.0-8.0-2.0-0.4","6153","1","12","Female","approach_avoid_spark_v1","""event"",""trial"",""time""
""fullscreenenter"",""1"",""5881""
","
","
","""event"",""trial"",""time""
""fullscreenenter"",""1"",""5881""
","
","","","","","","null","<div style=""font-size:60px;"">+</div>","null","","fixation","","","","","","","","","","",""
"aa-learning-trial","34","270034","0.0-8.0-2.0-1.4","6153","1","12","Female","approach_avoid_spark_v1","""event"",""trial"",""time""
""fullscreenenter"",""1"",""5881""
","
","
","""event"",""trial"",""time""
""fullscreenenter"",""1"",""5881""
","
","","","","","","null","images/racket3.png","","","learning","-6","-5","","null","practice","practice","practice","-1","","",""
"html-keyboard-response","35","270544","0.0-8.0-2.0-0.5","6153","1","12","Female","approach_avoid_spark_v1","""event"",""trial"",""time""
""fullscreenenter"",""1"",""5881""
","
","
","""event"",""trial"",""time""
""fullscreenenter"",""1"",""5881""
","
","","","","","","null","<div style=""font-size:60px;"">+</div>","null","","fixation","","","","","","","","","","",""
"aa-learning-trial","36","273554","0.0-8.0-2.0-1.5","6153","1","12","Female","approach_avoid_spark_v1","""event"",""trial"",""time""
""fullscreenenter"",""1"",""5881""
","
","
","""event"",""trial"",""time""
""fullscreenenter"",""1"",""5881""
","
","","","","","","null","images/ball4.png","","","learning","-5","-5","","null","practice","practice","practice","-1","","",""
"html-keyboard-response","37","274073","0.0-8.0-2.0-0.6","6153","1","12","Female","approach_avoid_spark_v1","""event"",""trial"",""time""
""fullscreenenter"",""1"",""5881""
","
","
","""event"",""trial"",""time""
""fullscreenenter"",""1"",""5881""
","
","","","","","","null","<div style=""font-size:60px;"">+</div>","null","","fixation","","","","","","","","","","",""
"aa-learning-trial","38","277080","0.0-8.0-2.0-1.6","6153","1","12","Female","approach_avoid_spark_v1","""event"",""trial"",""time""
""fullscreenenter"",""1"",""5881""
","
","
","""event"",""trial"",""time""
""fullscreenenter"",""1"",""5881""
","
","","","","","","null","images/ball4.png","","","learning","2","-5","","null","practice","practice","practice","-1","","",""
"html-keyboard-response","39","277589","0.0-8.0-2.0-0.7","6153","1","12","Female","approach_avoid_spark_v1","""event"",""trial"",""time""
""fullscreenenter"",""1"",""5881""
","
","
","""event"",""trial"",""time""
""fullscreenenter"",""1"",""5881""
","
","","","","","","null","<div style=""font-size:60px;"">+</div>","null","","fixation","","","","","","","","","","",""
"aa-learning-trial","40","280604","0.0-8.0-2.0-1.7","6153","1","12","Female","approach_avoid_spark_v1","""event"",""trial"",""time""
""fullscreenenter"",""1"",""5881""
","
","
","""event"",""trial"",""time""
""fullscreenenter"",""1"",""5881""
","
","","","","","","null","images/racket4.png","","","learning","-8","-5","","null","practice","practice","practice","-1","","",""
"html-keyboard-response","41","281117","0.0-8.0-2.0-0.8","6153","1","12","Female","approach_avoid_spark_v1","""event"",""trial"",""time""
""fullscreenenter"",""1"",""5881""
","
","
","""event"",""trial"",""time""
""fullscreenenter"",""1"",""5881""
","
","","","","","","null","<div style=""font-size:60px;"">+</div>","null","","fixation","","","","","","","","","","",""
"aa-learning-trial","42","284133","0.0-8.0-2.0-1.8","6153","1","12","Female","approach_avoid_spark_v1","""event"",""trial"",""time""
""fullscreenenter"",""1"",""5881""
","
","
","""event"",""trial"",""time""
""fullscreenenter"",""1"",""5881""
","
","","","","","","null","images/racket4.png","","","learning","-5","-5","","null","practice","practice","practice","-1","","",""
"html-keyboard-response","43","284641","0.0-8.0-2.0-0.9","6153","1","12","Female","approach_avoid_spark_v1","""event"",""trial"",""time""
""fullscreenenter"",""1"",""5881""
","
","
","""event"",""trial"",""time""
""fullscreenenter"",""1"",""5881""
","
","","","","","","null","<div style=""font-size:60px;"">+</div>","null","","fixation","","","","","","","","","","",""
"aa-learning-trial","44","287655","0.0-8.0-2.0-1.9","6153","1","12","Female","approach_avoid_spark_v1","""event"",""trial"",""time""
""fullscreenenter"",""1"",""5881""
","
","
","""event"",""trial"",""time""
""fullscreenenter"",""1"",""5881""
","
","","","","","","null","images/racket3.png","","","learning","-4","-5","","null","practice","practice","practice","-1","","",""
"html-keyboard-response","45","288163","0.0-8.0-2.0-0.10","6153","1","12","Female","approach_avoid_spark_v1","""event"",""trial"",""time""
""fullscreenenter"",""1"",""5881""
","
","
","""event"",""trial"",""time""
""fullscreenenter"",""1"",""5881""
","
","","","","","","null","<div style=""font-size:60px;"">+</div>","null","","fixation","","","","","","","","","","",""
"aa-learning-trial","46","291170","0.0-8.0-2.0-1.10","6153","1","12","Female","approach_avoid_spark_v1","""event"",""trial"",""time""
""fullscreenenter"",""1"",""5881""
","
","
","""event"",""trial"",""time""
""fullscreenenter"",""1"",""5881""
","
","","","","","","null","images/ball3.png","","","learning","-6","-5","","null","practice","practice","practice","-1","","",""
"html-keyboard-response","47","291676","0.0-8.0-2.0-0.11","6153","1","12","Female","approach_avoid_spark_v1","""event"",""trial"",""time""
""fullscreenenter"",""1"",""5881""
","
","
","""event"",""trial"",""time""
""fullscreenenter"",""1"",""5881""
","
","","","","","","null","<div style=""font-size:60px;"">+</div>","null","","fixation","","","","","","","","","","",""
"aa-learning-trial","48","294683","0.0-8.0-2.0-1.11","6153","1","12","Female","approach_avoid_spark_v1","""event"",""trial"",""time""
""fullscreenenter"",""1"",""5881""
","
","
","""event"",""trial"",""time""
""fullscreenenter"",""1"",""5881""
","
","","","","","","null","images/ball1.png","","","learning","1","-5","","null","practice","practice","practice","-1","","",""
"html-button-response","49","305977","0.0-8.0-3.0","6153","1","12","Female","approach_avoid_spark_v1","""event"",""trial"",""time""
""fullscreenenter"",""1"",""5881""
","
","
","""event"",""trial"",""time""
""fullscreenenter"",""1"",""5881""
","
","","","","","","11289.199999928474","<p> You earned -60 points in the practice round! </p>","0","","break","","","","","","","","","","",""
"learning-instructions","50","315954","0.0-8.0-4.0-0.0","6153","1","12","Female","approach_avoid_spark_v1","""event"",""trial"",""time""
""fullscreenenter"",""1"",""5881""
","
","
","""event"",""trial"",""time""
""fullscreenenter"",""1"",""5881""
","
","","","","","","3415.2999999523163","<p> It's almost time to start the real game. </p><p> Before you start, we're going to ask you a few questions about how the game works. </p>","","0","instructions","","","","","","","","","","",""
"preload","51","323383","0.0-8.0-5.0","6153","1","12","Female","approach_avoid_spark_v1","""event"",""trial"",""time""
""fullscreenenter"",""1"",""5881""
","
","
","""event"",""trial"",""time""
""fullscreenenter"",""1"",""5881""
","
","true","false","[]","[]","[]","","","","","","","","","","","","","","","",""
"comp-q","52","330693","0.0-8.0-6.0-0.0","6153","1","12","Female","approach_avoid_spark_v1","""event"",""trial"",""time""
""fullscreenenter"",""1"",""5881""
","
","
","""event"",""trial"",""time""
""fullscreenenter"",""1"",""5881""
","
","","","","","","2305","<p> <b> True or False? </b> </p><p> If you see a number in GREY, that means you earned that many points. </p>","","1","comp_question","","","","","","","","","true","",""
"comp-q","53","340709","0.0-8.0-6.0-1.0","6153","1","12","Female","approach_avoid_spark_v1","""event"",""trial"",""time""
""fullscreenenter"",""1"",""5881""
","
","
","""event"",""trial"",""time""
""fullscreenenter"",""1"",""5881""
","
","","","","","","1650.8999999761581","<p><b> That's right! </b> If you see a grey number, it means you earned ZERO points. <br> The grey numbers show the points you WOULD HAVE earned if you had made the other choice. </p>","","0","comp_answer","","","","","","","","","","",""
"comp-q","54","346100","0.0-8.0-7.0-0.0","6153","1","12","Female","approach_avoid_spark_v1","""event"",""trial"",""time""
""fullscreenenter"",""1"",""5881""
","
","
","""event"",""trial"",""time""
""fullscreenenter"",""1"",""5881""
","
","","","","","","702.8999999761581","<p> <b> True or False? </b> </p><p> You will have as much time as you want to make each choice. </p>","","1","comp_question","","","","","","","","","true","",""
"comp-q","55","352434","0.0-8.0-7.0-1.0","6153","1","12","Female","approach_avoid_spark_v1","""event"",""trial"",""time""
""fullscreenenter"",""1"",""5881""
","
","
","""event"",""trial"",""time""
""fullscreenenter"",""1"",""5881""
","
","","","","","","2276.399999976158","<p> <b> That's right! </b> You will only have 3 seconds to make each choice. </p>","","0","comp_answer","","","","","","","","","","",""
"comp-q","56","366198","0.0-8.0-8.0-0.0","6153","1","12","Female","approach_avoid_spark_v1","""event"",""trial"",""time""
""fullscreenenter"",""1"",""5881""
","
","
","""event"",""trial"",""time""
""fullscreenenter"",""1"",""5881""
","
","","","","","","9090.700000047684","<p> <b> True or False? </b> </p><p> You should use the '1' and '0' keys to make your choices. </p>","","0","comp_question","","","","","","","","","true","",""
"comp-q","57","373285","0.0-8.0-8.0-1.0","6153","1","12","Female","approach_avoid_spark_v1","""event"",""trial"",""time""
""fullscreenenter"",""1"",""5881""
","
","
","""event"",""trial"",""time""
""fullscreenenter"",""1"",""5881""
","
","","","","","","2476","<p> <b> That's right! </b> You should use the '1' and '0' keys to make each choice. </p>","","0","comp_answer","","","","","","","","","","",""
"learning-instructions","58","405543","0.0-8.0-9.0-0.0","6153","1","12","Female","approach_avoid_spark_v1","""event"",""trial"",""time""
""fullscreenenter"",""1"",""5881""
","
","
","""event"",""trial"",""time""
""fullscreenenter"",""1"",""5881""
","
","","","","","","25993.200000047684","<p> It's now time to start the real game. </p>Do your best, because the points you earn in the next rounds will influence your bonus payment. </p>","","0","instructions","","","","","","","","","","",""
"preload","59","405703","0.0-9.0-0.0","6153","1","12","Female","approach_avoid_spark_v1","""event"",""trial"",""time""
""fullscreenenter"",""1"",""5881""
","
","
","""event"",""trial"",""time""
""fullscreenenter"",""1"",""5881""
","
","true","false","[]","[]","[]","","","","","","","","","","","","","","","",""
"learning-instructions","60","414145","0.0-9.0-1.0-0.0","6153","1","12","Female","approach_avoid_spark_v1","""event"",""trial"",""time""
""fullscreenenter"",""1"",""5881""
","
","
","""event"",""trial"",""time""
""fullscreenenter"",""1"",""5881""
","
","","","","","","3633","<p> Your goal in this round is to eat tasty fruit. </p></div>","","0","instructions","","","","","","","","","","",""
"learning-instructions","61","426788","0.0-9.0-1.0-0.1","6153","1","12","Female","approach_avoid_spark_v1","""event"",""trial"",""time""
""fullscreenenter"",""1"",""5881""
","
","
","""event"",""trial"",""time""
""fullscreenenter"",""1"",""5881""
","
","","","","","","1047.7000000476837","<p> Some of the fruits you will see are tasty. Others are rotten on the inside.  </p><p> On each turn, you will see a fruit.   </p><p> You need to decide whether to eat it or not.  </p>","","0","instructions","","","","","","","","","","",""
"learning-instructions","62","433709","0.0-9.0-1.0-0.2","6153","1","12","Female","approach_avoid_spark_v1","""event"",""trial"",""time""
""fullscreenenter"",""1"",""5881""
","
","
","""event"",""trial"",""time""
""fullscreenenter"",""1"",""5881""
","
","","","","","","880.3999999761581","<p> You can eat the fruit by pressing 1 and choose not to eat it by pressing 0. </p><br><div class=""choice-instructions-grid""> <div class=""choice-option""><img src=""images/approach.png"" class=""choice-option-img"" stage=""instructions"" position=""0"" ><div class=""choice-option-text""> Press ""1."" </div></div><div class=""choice-option""><img src=""images/avoid.png"" class=""choice-option-img"" stage=""instructions"" position=""1"" ><div class=""choice-option-text""> Press ""0."" </div></div>","","0","instructions","","","","","","","","","","",""
"learning-instructions","63","443802","0.0-9.0-1.0-0.3","6153","1","12","Female","approach_avoid_spark_v1","""event"",""trial"",""time""
""fullscreenenter"",""1"",""5881""
","
","
","""event"",""trial"",""time""
""fullscreenenter"",""1"",""5881""
","
","","","","","","1314.8999999761581","<p> If you eat the fruit and it was tasty, you will win points! </p><p> But if you eat the fruit and it was rotten, you will lose points. </p>","","0","instructions","","","","","","","","","","",""
"learning-instructions","64","458112","0.0-9.0-1.0-0.4","6153","1","12","Female","approach_avoid_spark_v1","""event"",""trial"",""time""
""fullscreenenter"",""1"",""5881""
","
","
","""event"",""trial"",""time""
""fullscreenenter"",""1"",""5881""
","
","","","","","","1204.1000000238419","<p> You will earn points based on how tasty or rotten the fruit was. </p><p> If it was tasty, you will WIN anywhere from 1 - 9 points, </p><p> but if it was rotten, you will LOSE anywhere from 1 - 9 points. </p>","","0","instructions","","","","","","","","","","",""
"learning-instructions","65","469272","0.0-9.0-1.0-0.5","6153","1","12","Female","approach_avoid_spark_v1","""event"",""trial"",""time""
""fullscreenenter"",""1"",""5881""
","
","
","""event"",""trial"",""time""
""fullscreenenter"",""1"",""5881""
","
","","","","","","1314","<p> You will see how many points you won or lost in the center of the screen. </p><p> Here is what you would see if you earned 5 points: </p><p style=""color:green;font-size:50px;font-weight:bolder"">5</p>","","0","instructions","","","","","","","","","","",""
"learning-instructions","66","474732","0.0-9.0-1.0-0.6","6153","1","12","Female","approach_avoid_spark_v1","""event"",""trial"",""time""
""fullscreenenter"",""1"",""5881""
","
","
","""event"",""trial"",""time""
""fullscreenenter"",""1"",""5881""
","
","","","","","","1344.3999999761581","<p> And here is what you would see if you lost 3 points: </p><p style=""color:red;font-size:50px;font-weight:bolder"">-3</p>","","0","instructions","","","","","","","","","","",""
"learning-instructions","67","491555","0.0-9.0-1.0-0.7","6153","1","12","Female","approach_avoid_spark_v1","""event"",""trial"",""time""
""fullscreenenter"",""1"",""5881""
","
","
","""event"",""trial"",""time""
""fullscreenenter"",""1"",""5881""
","
","","","","","","1237.2999999523163","<p> Some fruit is very tasty or very rotten. </p><p> These fruits will make you win or lose LOTS of points. </p><p> Other fruits are only kind of tasty or kind of rotten. </p><p> These fruits will make you win or lose small amounts of points. </p>","","0","instructions","","","","","","","","","","",""
"learning-instructions","68","506861","0.0-9.0-1.0-0.8","6153","1","12","Female","approach_avoid_spark_v1","""event"",""trial"",""time""
""fullscreenenter"",""1"",""5881""
","
","
","""event"",""trial"",""time""
""fullscreenenter"",""1"",""5881""
","
","","","","","","1201.1999999284744","<p> If you choose to not eat the fruit, you will not win or lose any points. </p><p>  However, in the center of the screen, you will see the number of points you WOULD HAVE earned if you had eaten the fruit. </p>","","0","instructions","","","","","","","","","","",""
"learning-instructions","69","520051","0.0-9.0-1.0-0.9","6153","1","12","Female","approach_avoid_spark_v1","""event"",""trial"",""time""
""fullscreenenter"",""1"",""5881""
","
","
","""event"",""trial"",""time""
""fullscreenenter"",""1"",""5881""
","
","","","","","","1680.8999999761581","<p> Here is what you might see if you did not eat the fruit but the fruit was tasty: </p><p style=""color:grey; font-size:50px; display: inline-block; border-spacing: 15px; border-width:3px; border-style:solid; border-color:red"">  &nbsp; 6 &nbsp; </p><p> Remember, in this case, you would not win or lose ANY points because you did not eat the fruit.  </p>","","0","instructions","","","","","","","","","","",""
"learning-instructions","70","530839","0.0-9.0-1.0-0.10","6153","1","12","Female","approach_avoid_spark_v1","""event"",""trial"",""time""
""fullscreenenter"",""1"",""5881""
","
","
","""event"",""trial"",""time""
""fullscreenenter"",""1"",""5881""
","
","","","","","","688.7000000476837","<p> Try to make the best choice for each fruit because </p><p> at the end of the game, you will earn bonus money based on how many points you earned. </p>","","0","instructions","","","","","","","","","","",""
"learning-instructions","71","539887","0.0-9.0-1.0-0.11","6153","1","12","Female","approach_avoid_spark_v1","""event"",""trial"",""time""
""fullscreenenter"",""1"",""5881""
","
","
","""event"",""trial"",""time""
""fullscreenenter"",""1"",""5881""
","
","","","","","","845.5","<p> You will have 3 seconds to make each choice. Try to respond before time runs out! </p><p> You will lose 5 points each time you do not make a response. </p>","","0","instructions","","","","","","","","","","",""
"html-keyboard-response","72","540517","0.0-9.0-2.0-0.0","6153","1","12","Female","approach_avoid_spark_v1","""event"",""trial"",""time""
""fullscreenenter"",""1"",""5881""
","
","
","""event"",""trial"",""time""
""fullscreenenter"",""1"",""5881""
","
","","","","","","null","<div style=""font-size:60px;"">+</div>","null","","fixation","","","","","","","","","","",""
"aa-learning-trial","73","543533","0.0-9.0-2.0-1.0","6153","1","12","Female","approach_avoid_spark_v1","""event"",""trial"",""time""
""fullscreenenter"",""1"",""5881""
","
","
","""event"",""trial"",""time""
""fullscreenenter"",""1"",""5881""
","
","","","","","","1390.5","images/apple7.png","","","learning","-3","-3","1","1","apple","fruit","1","0","","bad","[-3]"
"html-keyboard-response","74","544057","0.0-9.0-2.0-0.1","6153","1","12","Female","approach_avoid_spark_v1","""event"",""trial"",""time""
""fullscreenenter"",""1"",""5881""
","
","
","""event"",""trial"",""time""
""fullscreenenter"",""1"",""5881""
","
","","","","","","null","<div style=""font-size:60px;"">+</div>","null","","fixation","","","","","","","","","","",""
"aa-learning-trial","75","547067","0.0-9.0-2.0-1.1","6153","1","12","Female","approach_avoid_spark_v1","""event"",""trial"",""time""
""fullscreenenter"",""1"",""5881""
","
","
","""event"",""trial"",""time""
""fullscreenenter"",""1"",""5881""
","
","","","","","","1139.3999999761581","images/banana8.png","","","learning","1","0","0","0","banana","fruit","1","0","","neutral","0"
"html-keyboard-response","76","547581","0.0-9.0-2.0-0.2","6153","1","12","Female","approach_avoid_spark_v1","""event"",""trial"",""time""
""fullscreenenter"",""1"",""5881""
","
","
","""event"",""trial"",""time""
""fullscreenenter"",""1"",""5881""
","
","","","","","","null","<div style=""font-size:60px;"">+</div>","null","","fixation","","","","","","","","","","",""
"aa-learning-trial","77","550584","0.0-9.0-2.0-1.2","6153","1","12","Female","approach_avoid_spark_v1","""event"",""trial"",""time""
""fullscreenenter"",""1"",""5881""
","
","
","""event"",""trial"",""time""
""fullscreenenter"",""1"",""5881""
","
","","","","","","1547.7000000476837","images/banana5.png","","","learning","4","4","1","1","banana","fruit","1","0","","neutral","0"
"html-keyboard-response","78","551096","0.0-9.0-2.0-0.3","6153","1","12","Female","approach_avoid_spark_v1","""event"",""trial"",""time""
""fullscreenenter"",""1"",""5881""
","
","
","""event"",""trial"",""time""
""fullscreenenter"",""1"",""5881""
","
","","","","","","null","<div style=""font-size:60px;"">+</div>","null","","fixation","","","","","","","","","","",""
"aa-learning-trial","79","554115","0.0-9.0-2.0-1.3","6153","1","12","Female","approach_avoid_spark_v1","""event"",""trial"",""time""
""fullscreenenter"",""1"",""5881""
","
","
","""event"",""trial"",""time""
""fullscreenenter"",""1"",""5881""
","
","","","","","","1737.1999999284744","images/orange5.png","","","learning","7","0","0","0","orange","fruit","1","0","","good","[5]"
"html-keyboard-response","80","554630","0.0-9.0-2.0-0.4","6153","1","12","Female","approach_avoid_spark_v1","""event"",""trial"",""time""
""fullscreenenter"",""1"",""5881""
","
","
","""event"",""trial"",""time""
""fullscreenenter"",""1"",""5881""
","
","","","","","","null","<div style=""font-size:60px;"">+</div>","null","","fixation","","","","","","","","","","",""
"aa-learning-trial","81","557645","0.0-9.0-2.0-1.4","6153","1","12","Female","approach_avoid_spark_v1","""event"",""trial"",""time""
""fullscreenenter"",""1"",""5881""
","
","
","""event"",""trial"",""time""
""fullscreenenter"",""1"",""5881""
","
","","","","","","1055.5","images/banana8.png","","","learning","-1","0","0","0","banana","fruit","1","0","","neutral","0"
"html-keyboard-response","82","558161","0.0-9.0-2.0-0.5","6153","1","12","Female","approach_avoid_spark_v1","""event"",""trial"",""time""
""fullscreenenter"",""1"",""5881""
","
","
","""event"",""trial"",""time""
""fullscreenenter"",""1"",""5881""
","
","","","","","","null","<div style=""font-size:60px;"">+</div>","null","","fixation","","","","","","","","","","",""
"aa-learning-trial","83","561175","0.0-9.0-2.0-1.5","6153","1","12","Female","approach_avoid_spark_v1","""event"",""trial"",""time""
""fullscreenenter"",""1"",""5881""
","
","
","""event"",""trial"",""time""
""fullscreenenter"",""1"",""5881""
","
","","","","","","1969","images/orange2.png","","","learning","6","0","0","0","orange","fruit","1","0","","good","[5]"
"html-keyboard-response","84","561689","0.0-9.0-2.0-0.6","6153","1","12","Female","approach_avoid_spark_v1","""event"",""trial"",""time""
""fullscreenenter"",""1"",""5881""
","
","
","""event"",""trial"",""time""
""fullscreenenter"",""1"",""5881""
","
","","","","","","null","<div style=""font-size:60px;"">+</div>","null","","fixation","","","","","","","","","","",""
"aa-learning-trial","85","564706","0.0-9.0-2.0-1.6","6153","1","12","Female","approach_avoid_spark_v1","""event"",""trial"",""time""
""fullscreenenter"",""1"",""5881""
","
","
","""event"",""trial"",""time""
""fullscreenenter"",""1"",""5881""
","
","","","","","","932.3000000715256","images/apple6.png","","","learning","-6","-6","1","1","apple","fruit","1","0","","bad","[-3]"
"html-keyboard-response","86","565221","0.0-9.0-2.0-0.7","6153","1","12","Female","approach_avoid_spark_v1","""event"",""trial"",""time""
""fullscreenenter"",""1"",""5881""
","
","
","""event"",""trial"",""time""
""fullscreenenter"",""1"",""5881""
","
","","","","","","null","<div style=""font-size:60px;"">+</div>","null","","fixation","","","","","","","","","","",""
"aa-learning-trial","87","568245","0.0-9.0-2.0-1.7","6153","1","12","Female","approach_avoid_spark_v1","""event"",""trial"",""time""
""fullscreenenter"",""1"",""5881""
","
","
","""event"",""trial"",""time""
""fullscreenenter"",""1"",""5881""
","
","","","","","","1527.6000000238419","images/orange5.png","","","learning","5","0","0","0","orange","fruit","1","0","","good","[5]"
"html-keyboard-response","88","568767","0.0-9.0-2.0-0.8","6153","1","12","Female","approach_avoid_spark_v1","""event"",""trial"",""time""
""fullscreenenter"",""1"",""5881""
","
","
","""event"",""trial"",""time""
""fullscreenenter"",""1"",""5881""
","
","","","","","","null","<div style=""font-size:60px;"">+</div>","null","","fixation","","","","","","","","","","",""
"aa-learning-trial","89","571782","0.0-9.0-2.0-1.8","6153","1","12","Female","approach_avoid_spark_v1","""event"",""trial"",""time""
""fullscreenenter"",""1"",""5881""
","
","
","""event"",""trial"",""time""
""fullscreenenter"",""1"",""5881""
","
","","","","","","1581.8999999761581","images/orange2.png","","","learning","4","0","0","0","orange","fruit","1","0","","good","[5]"
"html-keyboard-response","90","572290","0.0-9.0-2.0-0.9","6153","1","12","Female","approach_avoid_spark_v1","""event"",""trial"",""time""
""fullscreenenter"",""1"",""5881""
","
","
","""event"",""trial"",""time""
""fullscreenenter"",""1"",""5881""
","
","","","","","","null","<div style=""font-size:60px;"">+</div>","null","","fixation","","","","","","","","","","",""
"aa-learning-trial","91","575314","0.0-9.0-2.0-1.9","6153","1","12","Female","approach_avoid_spark_v1","""event"",""trial"",""time""
""fullscreenenter"",""1"",""5881""
","
","
","""event"",""trial"",""time""
""fullscreenenter"",""1"",""5881""
","
","","","","","","1116.2000000476837","images/orange3.png","","","learning","5","5","1","1","orange","fruit","1","0","","good","[5]"
"html-keyboard-response","92","575820","0.0-9.0-2.0-0.10","6153","1","12","Female","approach_avoid_spark_v1","""event"",""trial"",""time""
""fullscreenenter"",""1"",""5881""
","
","
","""event"",""trial"",""time""
""fullscreenenter"",""1"",""5881""
","
","","","","","","null","<div style=""font-size:60px;"">+</div>","null","","fixation","","","","","","","","","","",""
"aa-learning-trial","93","578825","0.0-9.0-2.0-1.10","6153","1","12","Female","approach_avoid_spark_v1","""event"",""trial"",""time""
""fullscreenenter"",""1"",""5881""
","
","
","""event"",""trial"",""time""
""fullscreenenter"",""1"",""5881""
","
","","","","","","2101.1999999284744","images/apple1.png","","","learning","-1","0","0","0","apple","fruit","1","0","","bad","[-3]"
"html-keyboard-response","94","579334","0.0-9.0-2.0-0.11","6153","1","12","Female","approach_avoid_spark_v1","""event"",""trial"",""time""
""fullscreenenter"",""1"",""5881""
","
","
","""event"",""trial"",""time""
""fullscreenenter"",""1"",""5881""
","
","","","","","","null","<div style=""font-size:60px;"">+</div>","null","","fixation","","","","","","","","","","",""
"aa-learning-trial","95","582347","0.0-9.0-2.0-1.11","6153","1","12","Female","approach_avoid_spark_v1","""event"",""trial"",""time""
""fullscreenenter"",""1"",""5881""
","
","
","""event"",""trial"",""time""
""fullscreenenter"",""1"",""5881""
","
","","","","","","1375.7000000476837","images/apple1.png","","","learning","-5","-5","1","1","apple","fruit","1","0","","bad","[-3]"
"html-keyboard-response","96","582863","0.0-9.0-2.0-0.12","6153","1","12","Female","approach_avoid_spark_v1","""event"",""trial"",""time""
""fullscreenenter"",""1"",""5881""
","
","
","""event"",""trial"",""time""
""fullscreenenter"",""1"",""5881""
","
","","","","","","null","<div style=""font-size:60px;"">+</div>","null","","fixation","","","","","","","","","","",""
"aa-learning-trial","97","585877","0.0-9.0-2.0-1.12","6153","1","12","Female","approach_avoid_spark_v1","""event"",""trial"",""time""
""fullscreenenter"",""1"",""5881""
","
","
","""event"",""trial"",""time""
""fullscreenenter"",""1"",""5881""
","
","","","","","","1083.6000000238419","images/banana5.png","","","learning","1","1","1","1","banana","fruit","1","0","","neutral","0"
"html-keyboard-response","98","586393","0.0-9.0-2.0-0.13","6153","1","12","Female","approach_avoid_spark_v1","""event"",""trial"",""time""
""fullscreenenter"",""1"",""5881""
","
","
","""event"",""trial"",""time""
""fullscreenenter"",""1"",""5881""
","
","","","","","","null","<div style=""font-size:60px;"">+</div>","null","","fixation","","","","","","","","","","",""
"aa-learning-trial","99","589423","0.0-9.0-2.0-1.13","6153","1","12","Female","approach_avoid_spark_v1","""event"",""trial"",""time""
""fullscreenenter"",""1"",""5881""
","
","
","""event"",""trial"",""time""
""fullscreenenter"",""1"",""5881""
","
","","","","","","1269.3999999761581","images/banana7.png","","","learning","[-1]","0","0","0","banana","fruit","1","0","","neutral","0"
"html-keyboard-response","100","589939","0.0-9.0-2.0-0.14","6153","1","12","Female","approach_avoid_spark_v1","""event"",""trial"",""time""
""fullscreenenter"",""1"",""5881""
","
","
","""event"",""trial"",""time""
""fullscreenenter"",""1"",""5881""
","
","","","","","","null","<div style=""font-size:60px;"">+</div>","null","","fixation","","","","","","","","","","",""
"aa-learning-trial","101","592953","0.0-9.0-2.0-1.14","6153","1","12","Female","approach_avoid_spark_v1","""event"",""trial"",""time""
""fullscreenenter"",""1"",""5881""
","
","
","""event"",""trial"",""time""
""fullscreenenter"",""1"",""5881""
","
","","","","","","1021.2999999523163","images/apple7.png","","","learning","-3","-3","1","1","apple","fruit","1","0","","bad","[-3]"
"html-keyboard-response","102","593461","0.0-9.0-2.0-0.15","6153","1","12","Female","approach_avoid_spark_v1","""event"",""trial"",""time""
""fullscreenenter"",""1"",""5881""
","
","
","""event"",""trial"",""time""
""fullscreenenter"",""1"",""5881""
","
","","","","","","null","<div style=""font-size:60px;"">+</div>","null","","fixation","","","","","","","","","","",""
"aa-learning-trial","103","596483","0.0-9.0-2.0-1.15","6153","1","12","Female","approach_avoid_spark_v1","""event"",""trial"",""time""
""fullscreenenter"",""1"",""5881""
","
","
","""event"",""trial"",""time""
""fullscreenenter"",""1"",""5881""
","
","","","","","","871.5","images/orange5.png","","","learning","7","0","0","0","orange","fruit","1","0","","good","[5]"
"html-keyboard-response","104","596999","0.0-9.0-2.0-0.16","6153","1","12","Female","approach_avoid_spark_v1","""event"",""trial"",""time""
""fullscreenenter"",""1"",""5881""
","
","
","""event"",""trial"",""time""
""fullscreenenter"",""1"",""5881""
","
","","","","","","null","<div style=""font-size:60px;"">+</div>","null","","fixation","","","","","","","","","","",""
"aa-learning-trial","105","600014","0.0-9.0-2.0-1.16","6153","1","12","Female","approach_avoid_spark_v1","""event"",""trial"",""time""
""fullscreenenter"",""1"",""5881""
","
","
","""event"",""trial"",""time""
""fullscreenenter"",""1"",""5881""
","
","","","","","","898.6000000238419","images/banana5.png","","","learning","[-1]","-1","1","1","banana","fruit","1","0","","neutral","0"
"html-keyboard-response","106","600529","0.0-9.0-2.0-0.17","6153","1","12","Female","approach_avoid_spark_v1","""event"",""trial"",""time""
""fullscreenenter"",""1"",""5881""
","
","
","""event"",""trial"",""time""
""fullscreenenter"",""1"",""5881""
","
","","","","","","null","<div style=""font-size:60px;"">+</div>","null","","fixation","","","","","","","","","","",""
"aa-learning-trial","107","603545","0.0-9.0-2.0-1.17","6153","1","12","Female","approach_avoid_spark_v1","""event"",""trial"",""time""
""fullscreenenter"",""1"",""5881""
","
","
","""event"",""trial"",""time""
""fullscreenenter"",""1"",""5881""
","
","","","","","","867.1000000238419","images/orange2.png","","","learning","4","0","0","0","orange","fruit","1","0","","good","[5]"
"html-keyboard-response","108","604051","0.0-9.0-2.0-0.18","6153","1","12","Female","approach_avoid_spark_v1","""event"",""trial"",""time""
""fullscreenenter"",""1"",""5881""
","
","
","""event"",""trial"",""time""
""fullscreenenter"",""1"",""5881""
","
","","","","","","null","<div style=""font-size:60px;"">+</div>","null","","fixation","","","","","","","","","","",""
"aa-learning-trial","109","607057","0.0-9.0-2.0-1.18","6153","1","12","Female","approach_avoid_spark_v1","""event"",""trial"",""time""
""fullscreenenter"",""1"",""5881""
","
","
","""event"",""trial"",""time""
""fullscreenenter"",""1"",""5881""
","
","","","","","","1034.3000000715256","images/orange5.png","","","learning","6","0","0","0","orange","fruit","1","0","","good","[5]"
"html-keyboard-response","110","607572","0.0-9.0-2.0-0.19","6153","1","12","Female","approach_avoid_spark_v1","""event"",""trial"",""time""
""fullscreenenter"",""1"",""5881""
","
","
","""event"",""trial"",""time""
""fullscreenenter"",""1"",""5881""
","
","","","","","","null","<div style=""font-size:60px;"">+</div>","null","","fixation","","","","","","","","","","",""
"aa-learning-trial","111","610579","0.0-9.0-2.0-1.19","6153","1","12","Female","approach_avoid_spark_v1","""event"",""trial"",""time""
""fullscreenenter"",""1"",""5881""
","
","
","""event"",""trial"",""time""
""fullscreenenter"",""1"",""5881""
","
","","","","","","715.5999999046326","images/apple5.png","","","learning","2","0","0","0","apple","fruit","1","0","","bad","[-3]"
"html-keyboard-response","112","611091","0.0-9.0-2.0-0.20","6153","1","12","Female","approach_avoid_spark_v1","""event"",""trial"",""time""
""fullscreenenter"",""1"",""5881""
","
","
","""event"",""trial"",""time""
""fullscreenenter"",""1"",""5881""
","
","","","","","","null","<div style=""font-size:60px;"">+</div>","null","","fixation","","","","","","","","","","",""
"aa-learning-trial","113","614101","0.0-9.0-2.0-1.20","6153","1","12","Female","approach_avoid_spark_v1","""event"",""trial"",""time""
""fullscreenenter"",""1"",""5881""
","
","
","""event"",""trial"",""time""
""fullscreenenter"",""1"",""5881""
","
","","","","","","1031","images/banana5.png","","","learning","1","1","1","1","banana","fruit","1","0","","neutral","0"
"html-keyboard-response","114","614608","0.0-9.0-2.0-0.21","6153","1","12","Female","approach_avoid_spark_v1","""event"",""trial"",""time""
""fullscreenenter"",""1"",""5881""
","
","
","""event"",""trial"",""time""
""fullscreenenter"",""1"",""5881""
","
","","","","","","null","<div style=""font-size:60px;"">+</div>","null","","fixation","","","","","","","","","","",""
"aa-learning-trial","115","617622","0.0-9.0-2.0-1.21","6153","1","12","Female","approach_avoid_spark_v1","""event"",""trial"",""time""
""fullscreenenter"",""1"",""5881""
","
","
","""event"",""trial"",""time""
""fullscreenenter"",""1"",""5881""
","
","","","","","","1358.8999999761581","images/banana5.png","","","learning","[1]","0","0","0","banana","fruit","1","0","","neutral","0"
"html-keyboard-response","116","618138","0.0-9.0-2.0-0.22","6153","1","12","Female","approach_avoid_spark_v1","""event"",""trial"",""time""
""fullscreenenter"",""1"",""5881""
","
","
","""event"",""trial"",""time""
""fullscreenenter"",""1"",""5881""
","
","","","","","","null","<div style=""font-size:60px;"">+</div>","null","","fixation","","","","","","","","","","",""
"aa-learning-trial","117","621161","0.0-9.0-2.0-1.22","6153","1","12","Female","approach_avoid_spark_v1","""event"",""trial"",""time""
""fullscreenenter"",""1"",""5881""
","
","
","""event"",""trial"",""time""
""fullscreenenter"",""1"",""5881""
","
","","","","","","1351.8000000715256","images/apple6.png","","","learning","-5","-5","1","1","apple","fruit","1","0","","bad","[-3]"
"html-keyboard-response","118","621668","0.0-9.0-2.0-0.23","6153","1","12","Female","approach_avoid_spark_v1","""event"",""trial"",""time""
""fullscreenenter"",""1"",""5881""
","
","
","""event"",""trial"",""time""
""fullscreenenter"",""1"",""5881""
","
","","","","","","null","<div style=""font-size:60px;"">+</div>","null","","fixation","","","","","","","","","","",""
"aa-learning-trial","119","624682","0.0-9.0-2.0-1.23","6153","1","12","Female","approach_avoid_spark_v1","""event"",""trial"",""time""
""fullscreenenter"",""1"",""5881""
","
","
","""event"",""trial"",""time""
""fullscreenenter"",""1"",""5881""
","
","","","","","","512.8999999761581","images/banana5.png","","","learning","-3","0","0","0","banana","fruit","1","0","","neutral","0"
"html-keyboard-response","120","625189","0.0-9.0-2.0-0.24","6153","1","12","Female","approach_avoid_spark_v1","""event"",""trial"",""time""
""fullscreenenter"",""1"",""5881""
","
","
","""event"",""trial"",""time""
""fullscreenenter"",""1"",""5881""
","
","","","","","","null","<div style=""font-size:60px;"">+</div>","null","","fixation","","","","","","","","","","",""
"aa-learning-trial","121","628204","0.0-9.0-2.0-1.24","6153","1","12","Female","approach_avoid_spark_v1","""event"",""trial"",""time""
""fullscreenenter"",""1"",""5881""
","
","
","""event"",""trial"",""time""
""fullscreenenter"",""1"",""5881""
","
","","","","","","1173.1999999284744","images/orange3.png","","","learning","7","7","1","1","orange","fruit","1","0","","good","[5]"
"html-keyboard-response","122","628718","0.0-9.0-2.0-0.25","6153","1","12","Female","approach_avoid_spark_v1","""event"",""trial"",""time""
""fullscreenenter"",""1"",""5881""
","
","
","""event"",""trial"",""time""
""fullscreenenter"",""1"",""5881""
","
","","","","","","null","<div style=""font-size:60px;"">+</div>","null","","fixation","","","","","","","","","","",""
"aa-learning-trial","123","631733","0.0-9.0-2.0-1.25","6153","1","12","Female","approach_avoid_spark_v1","""event"",""trial"",""time""
""fullscreenenter"",""1"",""5881""
","
","
","""event"",""trial"",""time""
""fullscreenenter"",""1"",""5881""
","
","","","","","","1208.2999999523163","images/apple1.png","","","learning","-2","0","0","0","apple","fruit","1","0","","bad","[-3]"
"html-keyboard-response","124","632241","0.0-9.0-2.0-0.26","6153","1","12","Female","approach_avoid_spark_v1","""event"",""trial"",""time""
""fullscreenenter"",""1"",""5881""
","
","
","""event"",""trial"",""time""
""fullscreenenter"",""1"",""5881""
","
","","","","","","null","<div style=""font-size:60px;"">+</div>","null","","fixation","","","","","","","","","","",""
"aa-learning-trial","125","635248","0.0-9.0-2.0-1.26","6153","1","12","Female","approach_avoid_spark_v1","""event"",""trial"",""time""
""fullscreenenter"",""1"",""5881""
","
","
","""event"",""trial"",""time""
""fullscreenenter"",""1"",""5881""
","
","","","","","","843.8000000715256","images/apple7.png","","","learning","-4","-4","1","1","apple","fruit","1","0","","bad","[-3]"
"html-keyboard-response","126","635755","0.0-9.0-2.0-0.27","6153","1","12","Female","approach_avoid_spark_v1","""event"",""trial"",""time""
""fullscreenenter"",""1"",""5881""
","
","
","""event"",""trial"",""time""
""fullscreenenter"",""1"",""5881""
","
","","","","","","null","<div style=""font-size:60px;"">+</div>","null","","fixation","","","","","","","","","","",""
"aa-learning-trial","127","638760","0.0-9.0-2.0-1.27","6153","1","12","Female","approach_avoid_spark_v1","""event"",""trial"",""time""
""fullscreenenter"",""1"",""5881""
","
","
","""event"",""trial"",""time""
""fullscreenenter"",""1"",""5881""
","
","","","","","","466","images/apple6.png","","","learning","-4","0","0","0","apple","fruit","1","0","","bad","[-3]"
"html-keyboard-response","128","639268","0.0-9.0-2.0-0.28","6153","1","12","Female","approach_avoid_spark_v1","""event"",""trial"",""time""
""fullscreenenter"",""1"",""5881""
","
","
","""event"",""trial"",""time""
""fullscreenenter"",""1"",""5881""
","
","","","","","","null","<div style=""font-size:60px;"">+</div>","null","","fixation","","","","","","","","","","",""
"aa-learning-trial","129","642273","0.0-9.0-2.0-1.28","6153","1","12","Female","approach_avoid_spark_v1","""event"",""trial"",""time""
""fullscreenenter"",""1"",""5881""
","
","
","""event"",""trial"",""time""
""fullscreenenter"",""1"",""5881""
","
","","","","","","949.7999999523163","images/banana7.png","","","learning","-1","0","0","0","banana","fruit","1","0","","neutral","0"
"html-keyboard-response","130","642781","0.0-9.0-2.0-0.29","6153","1","12","Female","approach_avoid_spark_v1","""event"",""trial"",""time""
""fullscreenenter"",""1"",""5881""
","
","
","""event"",""trial"",""time""
""fullscreenenter"",""1"",""5881""
","
","","","","","","null","<div style=""font-size:60px;"">+</div>","null","","fixation","","","","","","","","","","",""
"aa-learning-trial","131","645797","0.0-9.0-2.0-1.29","6153","1","12","Female","approach_avoid_spark_v1","""event"",""trial"",""time""
""fullscreenenter"",""1"",""5881""
","
","
","""event"",""trial"",""time""
""fullscreenenter"",""1"",""5881""
","
","","","","","","634","images/apple1.png","","","learning","-4","-4","1","1","apple","fruit","1","0","","bad","[-3]"
"html-keyboard-response","132","646320","0.0-9.0-2.0-0.30","6153","1","12","Female","approach_avoid_spark_v1","""event"",""trial"",""time""
""fullscreenenter"",""1"",""5881""
","
","
","""event"",""trial"",""time""
""fullscreenenter"",""1"",""5881""
","
","","","","","","null","<div style=""font-size:60px;"">+</div>","null","","fixation","","","","","","","","","","",""
"aa-learning-trial","133","649334","0.0-9.0-2.0-1.30","6153","1","12","Female","approach_avoid_spark_v1","""event"",""trial"",""time""
""fullscreenenter"",""1"",""5881""
","
","
","""event"",""trial"",""time""
""fullscreenenter"",""1"",""5881""
","
","","","","","","691.7000000476837","images/apple7.png","","","learning","-5","-5","1","1","apple","fruit","1","0","","bad","[-3]"
"html-keyboard-response","134","649842","0.0-9.0-2.0-0.31","6153","1","12","Female","approach_avoid_spark_v1","""event"",""trial"",""time""
""fullscreenenter"",""1"",""5881""
","
","
","""event"",""trial"",""time""
""fullscreenenter"",""1"",""5881""
","
","","","","","","null","<div style=""font-size:60px;"">+</div>","null","","fixation","","","","","","","","","","",""
"aa-learning-trial","135","652856","0.0-9.0-2.0-1.31","6153","1","12","Female","approach_avoid_spark_v1","""event"",""trial"",""time""
""fullscreenenter"",""1"",""5881""
","
","
","""event"",""trial"",""time""
""fullscreenenter"",""1"",""5881""
","
","","","","","","751.8999999761581","images/banana7.png","","","learning","-1","-1","1","1","banana","fruit","1","0","","neutral","0"
"html-keyboard-response","136","653364","0.0-9.0-2.0-0.32","6153","1","12","Female","approach_avoid_spark_v1","""event"",""trial"",""time""
""fullscreenenter"",""1"",""5881""
","
","
","""event"",""trial"",""time""
""fullscreenenter"",""1"",""5881""
","
","","","","","","null","<div style=""font-size:60px;"">+</div>","null","","fixation","","","","","","","","","","",""
"aa-learning-trial","137","656369","0.0-9.0-2.0-1.32","6153","1","12","Female","approach_avoid_spark_v1","""event"",""trial"",""time""
""fullscreenenter"",""1"",""5881""
","
","
","""event"",""trial"",""time""
""fullscreenenter"",""1"",""5881""
","
","","","","","","124.79999995231628","images/orange5.png","","","learning","6","0","0","0","orange","fruit","1","0","","good","[5]"
"html-keyboard-response","138","656876","0.0-9.0-2.0-0.33","6153","1","12","Female","approach_avoid_spark_v1","""event"",""trial"",""time""
""fullscreenenter"",""1"",""5881""
","
","
","""event"",""trial"",""time""
""fullscreenenter"",""1"",""5881""
","
","","","","","","null","<div style=""font-size:60px;"">+</div>","null","","fixation","","","","","","","","","","",""
"aa-learning-trial","139","659882","0.0-9.0-2.0-1.33","6153","1","12","Female","approach_avoid_spark_v1","""event"",""trial"",""time""
""fullscreenenter"",""1"",""5881""
","
","
","""event"",""trial"",""time""
""fullscreenenter"",""1"",""5881""
","
","","","","","","901.6000000238419","images/banana8.png","","","learning","-1","-1","1","1","banana","fruit","1","0","","neutral","0"
"html-keyboard-response","140","660407","0.0-9.0-2.0-0.34","6153","1","12","Female","approach_avoid_spark_v1","""event"",""trial"",""time""
""fullscreenenter"",""1"",""5881""
","
","
","""event"",""trial"",""time""
""fullscreenenter"",""1"",""5881""
","
","","","","","","null","<div style=""font-size:60px;"">+</div>","null","","fixation","","","","","","","","","","",""
"aa-learning-trial","141","663421","0.0-9.0-2.0-1.34","6153","1","12","Female","approach_avoid_spark_v1","""event"",""trial"",""time""
""fullscreenenter"",""1"",""5881""
","
","
","""event"",""trial"",""time""
""fullscreenenter"",""1"",""5881""
","
","","","","","","502.09999990463257","images/banana8.png","","","learning","[1]","0","0","0","banana","fruit","1","0","","neutral","0"
"html-keyboard-response","142","663928","0.0-9.0-2.0-0.35","6153","1","12","Female","approach_avoid_spark_v1","""event"",""trial"",""time""
""fullscreenenter"",""1"",""5881""
","
","
","""event"",""trial"",""time""
""fullscreenenter"",""1"",""5881""
","
","","","","","","null","<div style=""font-size:60px;"">+</div>","null","","fixation","","","","","","","","","","",""
"aa-learning-trial","143","666943","0.0-9.0-2.0-1.35","6153","1","12","Female","approach_avoid_spark_v1","""event"",""trial"",""time""
""fullscreenenter"",""1"",""5881""
","
","
","""event"",""trial"",""time""
""fullscreenenter"",""1"",""5881""
","
","","","","","","963.1000000238419","images/apple3.png","","","learning","-4","0","0","0","apple","fruit","1","0","","bad","[-3]"
"html-keyboard-response","144","667450","0.0-9.0-2.0-0.36","6153","1","12","Female","approach_avoid_spark_v1","""event"",""trial"",""time""
""fullscreenenter"",""1"",""5881""
","
","
","""event"",""trial"",""time""
""fullscreenenter"",""1"",""5881""
","
","","","","","","null","<div style=""font-size:60px;"">+</div>","null","","fixation","","","","","","","","","","",""
"aa-learning-trial","145","670465","0.0-9.0-2.0-1.36","6153","1","12","Female","approach_avoid_spark_v1","""event"",""trial"",""time""
""fullscreenenter"",""1"",""5881""
","
","
","""event"",""trial"",""time""
""fullscreenenter"",""1"",""5881""
","
","","","","","","757.1999999284744","images/apple1.png","","","learning","-1","-1","1","1","apple","fruit","1","0","","bad","[-3]"
"html-keyboard-response","146","670980","0.0-9.0-2.0-0.37","6153","1","12","Female","approach_avoid_spark_v1","""event"",""trial"",""time""
""fullscreenenter"",""1"",""5881""
","
","
","""event"",""trial"",""time""
""fullscreenenter"",""1"",""5881""
","
","","","","","","null","<div style=""font-size:60px;"">+</div>","null","","fixation","","","","","","","","","","",""
"aa-learning-trial","147","673986","0.0-9.0-2.0-1.37","6153","1","12","Female","approach_avoid_spark_v1","""event"",""trial"",""time""
""fullscreenenter"",""1"",""5881""
","
","
","""event"",""trial"",""time""
""fullscreenenter"",""1"",""5881""
","
","","","","","","593.6999999284744","images/apple7.png","","","learning","-3","0","0","0","apple","fruit","1","0","","bad","[-3]"
"html-keyboard-response","148","674494","0.0-9.0-2.0-0.38","6153","1","12","Female","approach_avoid_spark_v1","""event"",""trial"",""time""
""fullscreenenter"",""1"",""5881""
","
","
","""event"",""trial"",""time""
""fullscreenenter"",""1"",""5881""
","
","","","","","","null","<div style=""font-size:60px;"">+</div>","null","","fixation","","","","","","","","","","",""
"aa-learning-trial","149","677508","0.0-9.0-2.0-1.38","6153","1","12","Female","approach_avoid_spark_v1","""event"",""trial"",""time""
""fullscreenenter"",""1"",""5881""
","
","
","""event"",""trial"",""time""
""fullscreenenter"",""1"",""5881""
","
","","","","","","1302","images/apple7.png","","","learning","-4","-4","1","1","apple","fruit","1","0","","bad","[-3]"
"html-keyboard-response","150","678025","0.0-9.0-2.0-0.39","6153","1","12","Female","approach_avoid_spark_v1","""event"",""trial"",""time""
""fullscreenenter"",""1"",""5881""
","
","
","""event"",""trial"",""time""
""fullscreenenter"",""1"",""5881""
","
","","","","","","null","<div style=""font-size:60px;"">+</div>","null","","fixation","","","","","","","","","","",""
"aa-learning-trial","151","681037","0.0-9.0-2.0-1.39","6153","1","12","Female","approach_avoid_spark_v1","""event"",""trial"",""time""
""fullscreenenter"",""1"",""5881""
","
","
","""event"",""trial"",""time""
""fullscreenenter"",""1"",""5881""
","
","","","","","","1257","images/orange5.png","","","learning","5","5","1","1","orange","fruit","1","0","","good","[5]"
"html-keyboard-response","152","681545","0.0-9.0-2.0-0.40","6153","1","12","Female","approach_avoid_spark_v1","""event"",""trial"",""time""
""fullscreenenter"",""1"",""5881""
","
","
","""event"",""trial"",""time""
""fullscreenenter"",""1"",""5881""
","
","","","","","","null","<div style=""font-size:60px;"">+</div>","null","","fixation","","","","","","","","","","",""
"aa-learning-trial","153","684556","0.0-9.0-2.0-1.40","6153","1","12","Female","approach_avoid_spark_v1","""event"",""trial"",""time""
""fullscreenenter"",""1"",""5881""
","
","
","""event"",""trial"",""time""
""fullscreenenter"",""1"",""5881""
","
","","","","","","715.1000000238419","images/orange3.png","","","learning","7","0","0","0","orange","fruit","1","0","","good","[5]"
"html-keyboard-response","154","685071","0.0-9.0-2.0-0.41","6153","1","12","Female","approach_avoid_spark_v1","""event"",""trial"",""time""
""fullscreenenter"",""1"",""5881""
","
","
","""event"",""trial"",""time""
""fullscreenenter"",""1"",""5881""
","
","","","","","","null","<div style=""font-size:60px;"">+</div>","null","","fixation","","","","","","","","","","",""
"aa-learning-trial","155","688081","0.0-9.0-2.0-1.41","6153","1","12","Female","approach_avoid_spark_v1","""event"",""trial"",""time""
""fullscreenenter"",""1"",""5881""
","
","
","""event"",""trial"",""time""
""fullscreenenter"",""1"",""5881""
","
","","","","","","1221.7999999523163","images/orange2.png","","","learning","8","-5","2","","orange","fruit","1","0","","good","[5]"
"html-keyboard-response","156","688589","0.0-9.0-2.0-0.42","6153","1","12","Female","approach_avoid_spark_v1","""event"",""trial"",""time""
""fullscreenenter"",""1"",""5881""
","
","
","""event"",""trial"",""time""
""fullscreenenter"",""1"",""5881""
","
","","","","","","null","<div style=""font-size:60px;"">+</div>","null","","fixation","","","","","","","","","","",""
"aa-learning-trial","157","691612","0.0-9.0-2.0-1.42","6153","1","12","Female","approach_avoid_spark_v1","""event"",""trial"",""time""
""fullscreenenter"",""1"",""5881""
","
","
","""event"",""trial"",""time""
""fullscreenenter"",""1"",""5881""
","
","","","","","","1225.6000000238419","images/orange8.png","","","learning","5","0","0","0","orange","fruit","1","0","","good","[5]"
"html-keyboard-response","158","692133","0.0-9.0-2.0-0.43","6153","1","12","Female","approach_avoid_spark_v1","""event"",""trial"",""time""
""fullscreenenter"",""1"",""5881""
","
","
","""event"",""trial"",""time""
""fullscreenenter"",""1"",""5881""
","
","","","","","","null","<div style=""font-size:60px;"">+</div>","null","","fixation","","","","","","","","","","",""
"aa-learning-trial","159","695142","0.0-9.0-2.0-1.43","6153","1","12","Female","approach_avoid_spark_v1","""event"",""trial"",""time""
""fullscreenenter"",""1"",""5881""
","
","
","""event"",""trial"",""time""
""fullscreenenter"",""1"",""5881""
","
","","","","","","1082.2999999523163","images/apple1.png","","","learning","-5","0","0","0","apple","fruit","1","0","","bad","[-3]"
"html-keyboard-response","160","695658","0.0-9.0-2.0-0.44","6153","1","12","Female","approach_avoid_spark_v1","""event"",""trial"",""time""
""fullscreenenter"",""1"",""5881""
","
","
","""event"",""trial"",""time""
""fullscreenenter"",""1"",""5881""
","
","","","","","","null","<div style=""font-size:60px;"">+</div>","null","","fixation","","","","","","","","","","",""
"aa-learning-trial","161","698664","0.0-9.0-2.0-1.44","6153","1","12","Female","approach_avoid_spark_v1","""event"",""trial"",""time""
""fullscreenenter"",""1"",""5881""
","
","
","""event"",""trial"",""time""
""fullscreenenter"",""1"",""5881""
","
","","","","","","1789.2000000476837","images/orange7.png","","","learning","7","7","1","1","orange","fruit","1","0","","good","[5]"
"html-keyboard-response","162","699171","0.0-9.0-2.0-0.45","6153","1","12","Female","approach_avoid_spark_v1","""event"",""trial"",""time""
""fullscreenenter"",""1"",""5881""
","
","
","""event"",""trial"",""time""
""fullscreenenter"",""1"",""5881""
","
","","","","","","null","<div style=""font-size:60px;"">+</div>","null","","fixation","","","","","","","","","","",""
"aa-learning-trial","163","702177","0.0-9.0-2.0-1.45","6153","1","12","Female","approach_avoid_spark_v1","""event"",""trial"",""time""
""fullscreenenter"",""1"",""5881""
","
","
","""event"",""trial"",""time""
""fullscreenenter"",""1"",""5881""
","
","","","","","","1682.5999999046326","images/banana6.png","","","learning","-1","-1","1","1","banana","fruit","1","0","","neutral","0"
"html-keyboard-response","164","702685","0.0-9.0-2.0-0.46","6153","1","12","Female","approach_avoid_spark_v1","""event"",""trial"",""time""
""fullscreenenter"",""1"",""5881""
","
","
","""event"",""trial"",""time""
""fullscreenenter"",""1"",""5881""
","
","","","","","","null","<div style=""font-size:60px;"">+</div>","null","","fixation","","","","","","","","","","",""
"aa-learning-trial","165","705698","0.0-9.0-2.0-1.46","6153","1","12","Female","approach_avoid_spark_v1","""event"",""trial"",""time""
""fullscreenenter"",""1"",""5881""
","
","
","""event"",""trial"",""time""
""fullscreenenter"",""1"",""5881""
","
","","","","","","674","images/orange2.png","","","learning","3","0","0","0","orange","fruit","1","0","","good","[5]"
"html-keyboard-response","166","706206","0.0-9.0-2.0-0.47","6153","1","12","Female","approach_avoid_spark_v1","""event"",""trial"",""time""
""fullscreenenter"",""1"",""5881""
","
","
","""event"",""trial"",""time""
""fullscreenenter"",""1"",""5881""
","
","","","","","","null","<div style=""font-size:60px;"">+</div>","null","","fixation","","","","","","","","","","",""
"aa-learning-trial","167","709230","0.0-9.0-2.0-1.47","6153","1","12","Female","approach_avoid_spark_v1","""event"",""trial"",""time""
""fullscreenenter"",""1"",""5881""
","
","
","""event"",""trial"",""time""
""fullscreenenter"",""1"",""5881""
","
","","","","","","1045.6999999284744","images/banana4.png","","","learning","-1","-1","1","1","banana","fruit","1","0","","neutral","0"
"html-keyboard-response","168","709745","0.0-9.0-2.0-0.48","6153","1","12","Female","approach_avoid_spark_v1","""event"",""trial"",""time""
""fullscreenenter"",""1"",""5881""
","
","
","""event"",""trial"",""time""
""fullscreenenter"",""1"",""5881""
","
","","","","","","null","<div style=""font-size:60px;"">+</div>","null","","fixation","","","","","","","","","","",""
"aa-learning-trial","169","712759","0.0-9.0-2.0-1.48","6153","1","12","Female","approach_avoid_spark_v1","""event"",""trial"",""time""
""fullscreenenter"",""1"",""5881""
","
","
","""event"",""trial"",""time""
""fullscreenenter"",""1"",""5881""
","
","","","","","","1090","images/banana8.png","","","learning","1","1","1","1","banana","fruit","1","0","","neutral","0"
"html-keyboard-response","170","713266","0.0-9.0-2.0-0.49","6153","1","12","Female","approach_avoid_spark_v1","""event"",""trial"",""time""
""fullscreenenter"",""1"",""5881""
","
","
","""event"",""trial"",""time""
""fullscreenenter"",""1"",""5881""
","
","","","","","","null","<div style=""font-size:60px;"">+</div>","null","","fixation","","","","","","","","","","",""
"aa-learning-trial","171","716273","0.0-9.0-2.0-1.49","6153","1","12","Female","approach_avoid_spark_v1","""event"",""trial"",""time""
""fullscreenenter"",""1"",""5881""
","
","
","""event"",""trial"",""time""
""fullscreenenter"",""1"",""5881""
","
","","","","","","1099","images/banana8.png","","","learning","1","0","0","0","banana","fruit","1","0","","neutral","0"
"html-keyboard-response","172","716787","0.0-9.0-2.0-0.50","6153","1","12","Female","approach_avoid_spark_v1","""event"",""trial"",""time""
""fullscreenenter"",""1"",""5881""
","
","
","""event"",""trial"",""time""
""fullscreenenter"",""1"",""5881""
","
","","","","","","null","<div style=""font-size:60px;"">+</div>","null","","fixation","","","","","","","","","","",""
"aa-learning-trial","173","719801","0.0-9.0-2.0-1.50","6153","1","12","Female","approach_avoid_spark_v1","""event"",""trial"",""time""
""fullscreenenter"",""1"",""5881""
","
","
","""event"",""trial"",""time""
""fullscreenenter"",""1"",""5881""
","
","","","","","","798.2000000476837","images/orange2.png","","","learning","4","4","1","1","orange","fruit","1","0","","good","[5]"
"html-button-response","174","723912","0.0-9.0-3.0","6153","1","12","Female","approach_avoid_spark_v1","""event"",""trial"",""time""
""fullscreenenter"",""1"",""5881""
","
","
","""event"",""trial"",""time""
""fullscreenenter"",""1"",""5881""
","
","","","","","","4102.700000047684","<p> You have completed the round! <p> In this round, you earned -15 points! </p>","0","","break","","","","","","","","","","",""
"html-button-response","175","727884","0.0-10.0","6153","1","12","Female","approach_avoid_spark_v1","""event"",""trial"",""time""
""fullscreenenter"",""1"",""5881""
","
","
","""event"",""trial"",""time""
""fullscreenenter"",""1"",""5881""
","
","","","","","","3970.4000000953674","<p> Now it's time to play another round. </p>","0","","transition_screen","","","","","","","","","","",""
"preload","176","728024","0.0-11.0-0.0","6153","1","12","Female","approach_avoid_spark_v1","""event"",""trial"",""time""
""fullscreenenter"",""1"",""5881""
","
","
","""event"",""trial"",""time""
""fullscreenenter"",""1"",""5881""
","
","true","false","[]","[]","[]","","","","","","","","","","","","","","","",""
"learning-instructions","177","738370","0.0-11.0-1.0-0.0","6153","1","12","Female","approach_avoid_spark_v1","""event"",""trial"",""time""
""fullscreenenter"",""1"",""5881""
","
","
","""event"",""trial"",""time""
""fullscreenenter"",""1"",""5881""
","
","","","","","","3154.0999999046326","<p> Your goal in this round is to decorate your friend's new house with furniture. </p></div>","","0","instructions","","","","","","","","","","",""
"learning-instructions","178","750966","0.0-11.0-1.0-0.1","6153","1","12","Female","approach_avoid_spark_v1","""event"",""trial"",""time""
""fullscreenenter"",""1"",""5881""
","
","
","""event"",""trial"",""time""
""fullscreenenter"",""1"",""5881""
","
","","","","","","1228.5","<p> Your friend likes some pieces of furniture but not others.  </p><p> On each turn, you will see a piece of furniture.   </p><p> You need to decide whether to put it in your friend's house or not.  </p>","","0","instructions","","","","","","","","","","",""
"learning-instructions","179","758781","0.0-11.0-1.0-0.2","6153","1","12","Female","approach_avoid_spark_v1","""event"",""trial"",""time""
""fullscreenenter"",""1"",""5881""
","
","
","""event"",""trial"",""time""
""fullscreenenter"",""1"",""5881""
","
","","","","","","945.2000000476837","<p> You can put the furniture in her house by pressing 1 and deliver it elsewhere by pressing 0. </p><br><div class=""choice-instructions-grid""> <div class=""choice-option""><img src=""images/approach.png"" class=""choice-option-img"" stage=""instructions"" position=""0"" ><div class=""choice-option-text""> Press ""1."" </div></div><div class=""choice-option""><img src=""images/avoid.png"" class=""choice-option-img"" stage=""instructions"" position=""1"" ><div class=""choice-option-text""> Press ""0."" </div></div>","","0","instructions","","","","","","","","","","",""
"learning-instructions","180","772885","0.0-11.0-1.0-0.3","6153","1","12","Female","approach_avoid_spark_v1","""event"",""trial"",""time""
""fullscreenenter"",""1"",""5881""
","
","
","""event"",""trial"",""time""
""fullscreenenter"",""1"",""5881""
","
","","","","","","3999.2999999523163","<p> If you decorate your friend's house with furniture she likes, she will be happy! </p><p> But if you give her furniture that she does not like, she will be annoyed. </p>","","0","instructions","","","","","","","","","","",""
"learning-instructions","181","788178","0.0-11.0-1.0-0.4","6153","1","12","Female","approach_avoid_spark_v1","""event"",""trial"",""time""
""fullscreenenter"",""1"",""5881""
","
","
","""event"",""trial"",""time""
""fullscreenenter"",""1"",""5881""
","
","","","","","","740.8999999761581","<p> You will earn points based on how you made your friend feel. </p><p> If you made her happy, you will WIN anywhere from 1 - 9 points, </p><p> but if you made her annoyed you will LOSE anywhere from 1 - 9 points. </p>","","0","instructions","","","","","","","","","","",""
"learning-instructions","182","795530","0.0-11.0-1.0-0.5","6153","1","12","Female","approach_avoid_spark_v1","""event"",""trial"",""time""
""fullscreenenter"",""1"",""5881""
","
","
","""event"",""trial"",""time""
""fullscreenenter"",""1"",""5881""
","
","","","","","","683.7000000476837","<p> You will see how many points you won or lost in the center of the screen. </p><p> Here is what you would see if you won 5 points: </p><p style=""color:green;font-size:50px;font-weight:bolder"">5</p>","","0","instructions","","","","","","","","","","",""
"learning-instructions","183","799005","0.0-11.0-1.0-0.6","6153","1","12","Female","approach_avoid_spark_v1","""event"",""trial"",""time""
""fullscreenenter"",""1"",""5881""
","
","
","""event"",""trial"",""time""
""fullscreenenter"",""1"",""5881""
","
","","","","","","643.7000000476837","<p> And here is what you would see if you lost 3 points: </p><p style=""color:red;font-size:50px;font-weight:bolder"">-3</p>","","0","instructions","","","","","","","","","","",""
"learning-instructions","184","823902","0.0-11.0-1.0-0.7","6153","1","12","Female","approach_avoid_spark_v1","""event"",""trial"",""time""
""fullscreenenter"",""1"",""5881""
","
","
","""event"",""trial"",""time""
""fullscreenenter"",""1"",""5881""
","
","","","","","","4230.799999952316","<p> Some pieces of furniture will make her feel very happy or very annoyed. </p><p> These pieces of furniture will make you win or lose LOTS of points. </p><p> Other pieces of furniture will only make her feel a little happy or a little annoyed. </p><p> These pieces of furniture will make you win or lose small amounts of points. </p>","","0","instructions","","","","","","","","","","",""
"learning-instructions","185","842534","0.0-11.0-1.0-0.8","6153","1","12","Female","approach_avoid_spark_v1","""event"",""trial"",""time""
""fullscreenenter"",""1"",""5881""
","
","
","""event"",""trial"",""time""
""fullscreenenter"",""1"",""5881""
","
","","","","","","4101.600000023842","<p> If you choose to deliver a piece of furniture elsewhere, you will not win or lose any points. </p><p>  However, in the center of the screen, you will see the number of points you WOULD HAVE won or lost if you had given the furniture to your friend. </p>","","0","instructions","","","","","","","","","","",""
"learning-instructions","186","856996","0.0-11.0-1.0-0.9","6153","1","12","Female","approach_avoid_spark_v1","""event"",""trial"",""time""
""fullscreenenter"",""1"",""5881""
","
","
","""event"",""trial"",""time""
""fullscreenenter"",""1"",""5881""
","
","","","","","","734.2000000476837","<p> Here is what you might see if you did not give a piece of furniture to your friend that would have made her happy: </p><p style=""color:grey; font-size:50px; display: inline-block; border-spacing: 15px; border-width:3px; border-style:solid; border-color:red"">  &nbsp; 6 &nbsp; </p><p> Remember, in this case, you would not win or lose ANY points because you did not give her the furniture.  </p>","","0","instructions","","","","","","","","","","",""
"learning-instructions","187","867194","0.0-11.0-1.0-0.10","6153","1","12","Female","approach_avoid_spark_v1","""event"",""trial"",""time""
""fullscreenenter"",""1"",""5881""
","
","
","""event"",""trial"",""time""
""fullscreenenter"",""1"",""5881""
","
","","","","","","839.6000000238419","<p> Try to make the best choice for each piece of furniture because </p><p> at the end of the game, you will earn bonus money based on how many points you earned. </p>","","0","instructions","","","","","","","","","","",""
"learning-instructions","188","876897","0.0-11.0-1.0-0.11","6153","1","12","Female","approach_avoid_spark_v1","""event"",""trial"",""time""
""fullscreenenter"",""1"",""5881""
","
","
","""event"",""trial"",""time""
""fullscreenenter"",""1"",""5881""
","
","","","","","","1492","<p> You will have 3 seconds to make each choice. Try to respond before time runs out! </p><p> You will lose 5 points each time you do not make a response. </p>","","0","instructions","","","","","","","","","","",""
"html-keyboard-response","189","877530","0.0-11.0-2.0-0.0","6153","1","12","Female","approach_avoid_spark_v1","""event"",""trial"",""time""
""fullscreenenter"",""1"",""5881""
","
","
","""event"",""trial"",""time""
""fullscreenenter"",""1"",""5881""
","
","","","","","","null","<div style=""font-size:60px;"">+</div>","null","","fixation","","","","","","","","","","",""
"aa-learning-trial","190","880551","0.0-11.0-2.0-1.0","6153","1","12","Female","approach_avoid_spark_v1","""event"",""trial"",""time""
""fullscreenenter"",""1"",""5881""
","
","
","""event"",""trial"",""time""
""fullscreenenter"",""1"",""5881""
","
","","","","","","1102","images/table6.png","","","learning","6","6","1","1","table","furniture","2","1","","good","[3]"
"html-keyboard-response","191","881062","0.0-11.0-2.0-0.1","6153","1","12","Female","approach_avoid_spark_v1","""event"",""trial"",""time""
""fullscreenenter"",""1"",""5881""
","
","
","""event"",""trial"",""time""
""fullscreenenter"",""1"",""5881""
","
","","","","","","null","<div style=""font-size:60px;"">+</div>","null","","fixation","","","","","","","","","","",""
"aa-learning-trial","192","884081","0.0-11.0-2.0-1.1","6153","1","12","Female","approach_avoid_spark_v1","""event"",""trial"",""time""
""fullscreenenter"",""1"",""5881""
","
","
","""event"",""trial"",""time""
""fullscreenenter"",""1"",""5881""
","
","","","","","","977.7999999523163","images/table8.png","","","learning","-3","-3","1","1","table","furniture","2","1","","good","[3]"
"html-keyboard-response","193","884601","0.0-11.0-2.0-0.2","6153","1","12","Female","approach_avoid_spark_v1","""event"",""trial"",""time""
""fullscreenenter"",""1"",""5881""
","
","
","""event"",""trial"",""time""
""fullscreenenter"",""1"",""5881""
","
","","","","","","null","<div style=""font-size:60px;"">+</div>","null","","fixation","","","","","","","","","","",""
"aa-learning-trial","194","887622","0.0-11.0-2.0-1.2","6153","1","12","Female","approach_avoid_spark_v1","""event"",""trial"",""time""
""fullscreenenter"",""1"",""5881""
","
","
","""event"",""trial"",""time""
""fullscreenenter"",""1"",""5881""
","
","","","","","","967.7999999523163","images/chair8.png","","","learning","-2","0","0","0","chair","furniture","2","1","","bad","[-4]"
"html-keyboard-response","195","888131","0.0-11.0-2.0-0.3","6153","1","12","Female","approach_avoid_spark_v1","""event"",""trial"",""time""
""fullscreenenter"",""1"",""5881""
","
","
","""event"",""trial"",""time""
""fullscreenenter"",""1"",""5881""
","
","","","","","","null","<div style=""font-size:60px;"">+</div>","null","","fixation","","","","","","","","","","",""
"aa-learning-trial","196","891152","0.0-11.0-2.0-1.3","6153","1","12","Female","approach_avoid_spark_v1","""event"",""trial"",""time""
""fullscreenenter"",""1"",""5881""
","
","
","""event"",""trial"",""time""
""fullscreenenter"",""1"",""5881""
","
","","","","","","970.2000000476837","images/chair1.png","","","learning","-8","-8","1","1","chair","furniture","2","1","","bad","[-4]"
"html-keyboard-response","197","891661","0.0-11.0-2.0-0.4","6153","1","12","Female","approach_avoid_spark_v1","""event"",""trial"",""time""
""fullscreenenter"",""1"",""5881""
","
","
","""event"",""trial"",""time""
""fullscreenenter"",""1"",""5881""
","
","","","","","","null","<div style=""font-size:60px;"">+</div>","null","","fixation","","","","","","","","","","",""
"aa-learning-trial","198","894673","0.0-11.0-2.0-1.4","6153","1","12","Female","approach_avoid_spark_v1","""event"",""trial"",""time""
""fullscreenenter"",""1"",""5881""
","
","
","""event"",""trial"",""time""
""fullscreenenter"",""1"",""5881""
","
","","","","","","925.5","images/sofa1.png","","","learning","-9","0","0","0","sofa","furniture","2","1","","neutral","0"
"html-keyboard-response","199","895191","0.0-11.0-2.0-0.5","6153","1","12","Female","approach_avoid_spark_v1","""event"",""trial"",""time""
""fullscreenenter"",""1"",""5881""
","
","
","""event"",""trial"",""time""
""fullscreenenter"",""1"",""5881""
","
","","","","","","null","<div style=""font-size:60px;"">+</div>","null","","fixation","","","","","","","","","","",""
"aa-learning-trial","200","898201","0.0-11.0-2.0-1.5","6153","1","12","Female","approach_avoid_spark_v1","""event"",""trial"",""time""
""fullscreenenter"",""1"",""5881""
","
","
","""event"",""trial"",""time""
""fullscreenenter"",""1"",""5881""
","
","","","","","","787.8999999761581","images/sofa1.png","","","learning","-9","-9","1","1","sofa","furniture","2","1","","neutral","0"
"html-keyboard-response","201","898711","0.0-11.0-2.0-0.6","6153","1","12","Female","approach_avoid_spark_v1","""event"",""trial"",""time""
""fullscreenenter"",""1"",""5881""
","
","
","""event"",""trial"",""time""
""fullscreenenter"",""1"",""5881""
","
","","","","","","null","<div style=""font-size:60px;"">+</div>","null","","fixation","","","","","","","","","","",""
"aa-learning-trial","202","901722","0.0-11.0-2.0-1.6","6153","1","12","Female","approach_avoid_spark_v1","""event"",""trial"",""time""
""fullscreenenter"",""1"",""5881""
","
","
","""event"",""trial"",""time""
""fullscreenenter"",""1"",""5881""
","
","","","","","","831.6000000238419","images/table6.png","","","learning","6","6","1","1","table","furniture","2","1","","good","[3]"
"html-keyboard-response","203","902231","0.0-11.0-2.0-0.7","6153","1","12","Female","approach_avoid_spark_v1","""event"",""trial"",""time""
""fullscreenenter"",""1"",""5881""
","
","
","""event"",""trial"",""time""
""fullscreenenter"",""1"",""5881""
","
","","","","","","null","<div style=""font-size:60px;"">+</div>","null","","fixation","","","","","","","","","","",""
"aa-learning-trial","204","905242","0.0-11.0-2.0-1.7","6153","1","12","Female","approach_avoid_spark_v1","""event"",""trial"",""time""
""fullscreenenter"",""1"",""5881""
","
","
","""event"",""trial"",""time""
""fullscreenenter"",""1"",""5881""
","
","","","","","","1088","images/sofa8.png","","","learning","5","0","0","0","sofa","furniture","2","1","","neutral","0"
"html-keyboard-response","205","905751","0.0-11.0-2.0-0.8","6153","1","12","Female","approach_avoid_spark_v1","""event"",""trial"",""time""
""fullscreenenter"",""1"",""5881""
","
","
","""event"",""trial"",""time""
""fullscreenenter"",""1"",""5881""
","
","","","","","","null","<div style=""font-size:60px;"">+</div>","null","","fixation","","","","","","","","","","",""
"aa-learning-trial","206","908763","0.0-11.0-2.0-1.8","6153","1","12","Female","approach_avoid_spark_v1","""event"",""trial"",""time""
""fullscreenenter"",""1"",""5881""
","
","
","""event"",""trial"",""time""
""fullscreenenter"",""1"",""5881""
","
","","","","","","1297.8999999761581","images/sofa3.png","","","learning","-4","0","0","0","sofa","furniture","2","1","","neutral","0"
"html-keyboard-response","207","909271","0.0-11.0-2.0-0.9","6153","1","12","Female","approach_avoid_spark_v1","""event"",""trial"",""time""
""fullscreenenter"",""1"",""5881""
","
","
","""event"",""trial"",""time""
""fullscreenenter"",""1"",""5881""
","
","","","","","","null","<div style=""font-size:60px;"">+</div>","null","","fixation","","","","","","","","","","",""
"aa-learning-trial","208","912279","0.0-11.0-2.0-1.9","6153","1","12","Female","approach_avoid_spark_v1","""event"",""trial"",""time""
""fullscreenenter"",""1"",""5881""
","
","
","""event"",""trial"",""time""
""fullscreenenter"",""1"",""5881""
","
","","","","","","1704.4000000953674","images/sofa8.png","","","learning","5","5","1","1","sofa","furniture","2","1","","neutral","0"
"html-keyboard-response","209","912782","0.0-11.0-2.0-0.10","6153","1","12","Female","approach_avoid_spark_v1","""event"",""trial"",""time""
""fullscreenenter"",""1"",""5881""
","
","
","""event"",""trial"",""time""
""fullscreenenter"",""1"",""5881""
","
","","","","","","null","<div style=""font-size:60px;"">+</div>","null","","fixation","","","","","","","","","","",""
"aa-learning-trial","210","915791","0.0-11.0-2.0-1.10","6153","1","12","Female","approach_avoid_spark_v1","""event"",""trial"",""time""
""fullscreenenter"",""1"",""5881""
","
","
","""event"",""trial"",""time""
""fullscreenenter"",""1"",""5881""
","
","","","","","","790.3000000715256","images/chair7.png","","","learning","9","0","0","0","chair","furniture","2","1","","bad","[-4]"
"html-keyboard-response","211","916298","0.0-11.0-2.0-0.11","6153","1","12","Female","approach_avoid_spark_v1","""event"",""trial"",""time""
""fullscreenenter"",""1"",""5881""
","
","
","""event"",""trial"",""time""
""fullscreenenter"",""1"",""5881""
","
","","","","","","null","<div style=""font-size:60px;"">+</div>","null","","fixation","","","","","","","","","","",""
"aa-learning-trial","212","919306","0.0-11.0-2.0-1.11","6153","1","12","Female","approach_avoid_spark_v1","""event"",""trial"",""time""
""fullscreenenter"",""1"",""5881""
","
","
","""event"",""trial"",""time""
""fullscreenenter"",""1"",""5881""
","
","","","","","","1092.1999999284744","images/chair8.png","","","learning","-2","-2","1","1","chair","furniture","2","1","","bad","[-4]"
"html-keyboard-response","213","919823","0.0-11.0-2.0-0.12","6153","1","12","Female","approach_avoid_spark_v1","""event"",""trial"",""time""
""fullscreenenter"",""1"",""5881""
","
","
","""event"",""trial"",""time""
""fullscreenenter"",""1"",""5881""
","
","","","","","","null","<div style=""font-size:60px;"">+</div>","null","","fixation","","","","","","","","","","",""
"aa-learning-trial","214","922834","0.0-11.0-2.0-1.12","6153","1","12","Female","approach_avoid_spark_v1","""event"",""trial"",""time""
""fullscreenenter"",""1"",""5881""
","
","
","""event"",""trial"",""time""
""fullscreenenter"",""1"",""5881""
","
","","","","","","810.9000000953674","images/chair7.png","","","learning","9","0","0","0","chair","furniture","2","1","","bad","[-4]"
"html-keyboard-response","215","923344","0.0-11.0-2.0-0.13","6153","1","12","Female","approach_avoid_spark_v1","""event"",""trial"",""time""
""fullscreenenter"",""1"",""5881""
","
","
","""event"",""trial"",""time""
""fullscreenenter"",""1"",""5881""
","
","","","","","","null","<div style=""font-size:60px;"">+</div>","null","","fixation","","","","","","","","","","",""
"aa-learning-trial","216","926360","0.0-11.0-2.0-1.13","6153","1","12","Female","approach_avoid_spark_v1","""event"",""trial"",""time""
""fullscreenenter"",""1"",""5881""
","
","
","""event"",""trial"",""time""
""fullscreenenter"",""1"",""5881""
","
","","","","","","746.6000000238419","images/table8.png","","","learning","-3","-3","1","1","table","furniture","2","1","","good","[3]"
"html-keyboard-response","217","926866","0.0-11.0-2.0-0.14","6153","1","12","Female","approach_avoid_spark_v1","""event"",""trial"",""time""
""fullscreenenter"",""1"",""5881""
","
","
","""event"",""trial"",""time""
""fullscreenenter"",""1"",""5881""
","
","","","","","","null","<div style=""font-size:60px;"">+</div>","null","","fixation","","","","","","","","","","",""
"aa-learning-trial","218","929888","0.0-11.0-2.0-1.14","6153","1","12","Female","approach_avoid_spark_v1","""event"",""trial"",""time""
""fullscreenenter"",""1"",""5881""
","
","
","""event"",""trial"",""time""
""fullscreenenter"",""1"",""5881""
","
","","","","","","706.1000000238419","images/table3.png","","","learning","4","0","0","0","table","furniture","2","1","","good","[3]"
"html-keyboard-response","219","930406","0.0-11.0-2.0-0.15","6153","1","12","Female","approach_avoid_spark_v1","""event"",""trial"",""time""
""fullscreenenter"",""1"",""5881""
","
","
","""event"",""trial"",""time""
""fullscreenenter"",""1"",""5881""
","
","","","","","","null","<div style=""font-size:60px;"">+</div>","null","","fixation","","","","","","","","","","",""
"aa-learning-trial","220","933421","0.0-11.0-2.0-1.15","6153","1","12","Female","approach_avoid_spark_v1","""event"",""trial"",""time""
""fullscreenenter"",""1"",""5881""
","
","
","""event"",""trial"",""time""
""fullscreenenter"",""1"",""5881""
","
","","","","","","653","images/chair3.png","","","learning","3","3","1","1","chair","furniture","2","1","","bad","[-4]"
"html-keyboard-response","221","933935","0.0-11.0-2.0-0.16","6153","1","12","Female","approach_avoid_spark_v1","""event"",""trial"",""time""
""fullscreenenter"",""1"",""5881""
","
","
","""event"",""trial"",""time""
""fullscreenenter"",""1"",""5881""
","
","","","","","","null","<div style=""font-size:60px;"">+</div>","null","","fixation","","","","","","","","","","",""
"aa-learning-trial","222","936957","0.0-11.0-2.0-1.16","6153","1","12","Female","approach_avoid_spark_v1","""event"",""trial"",""time""
""fullscreenenter"",""1"",""5881""
","
","
","""event"",""trial"",""time""
""fullscreenenter"",""1"",""5881""
","
","","","","","","775.5999999046326","images/table3.png","","","learning","4","-5","delete","","table","furniture","2","1","","good","[3]"
"html-keyboard-response","223","937477","0.0-11.0-2.0-0.17","6153","1","12","Female","approach_avoid_spark_v1","""event"",""trial"",""time""
""fullscreenenter"",""1"",""5881""
","
","
","""event"",""trial"",""time""
""fullscreenenter"",""1"",""5881""
","
","","","","","","null","<div style=""font-size:60px;"">+</div>","null","","fixation","","","","","","","","","","",""
"aa-learning-trial","224","940489","0.0-11.0-2.0-1.17","6153","1","12","Female","approach_avoid_spark_v1","""event"",""trial"",""time""
""fullscreenenter"",""1"",""5881""
","
","
","""event"",""trial"",""time""
""fullscreenenter"",""1"",""5881""
","
","","","","","","802.6000000238419","images/chair8.png","","","learning","-2","-2","1","1","chair","furniture","2","1","","bad","[-4]"
"html-keyboard-response","225","941004","0.0-11.0-2.0-0.18","6153","1","12","Female","approach_avoid_spark_v1","""event"",""trial"",""time""
""fullscreenenter"",""1"",""5881""
","
","
","""event"",""trial"",""time""
""fullscreenenter"",""1"",""5881""
","
","","","","","","null","<div style=""font-size:60px;"">+</div>","null","","fixation","","","","","","","","","","",""
"aa-learning-trial","226","944010","0.0-11.0-2.0-1.18","6153","1","12","Female","approach_avoid_spark_v1","""event"",""trial"",""time""
""fullscreenenter"",""1"",""5881""
","
","
","""event"",""trial"",""time""
""fullscreenenter"",""1"",""5881""
","
","","","","","","1042.2000000476837","images/sofa1.png","","","learning","-9","-9","1","1","sofa","furniture","2","1","","neutral","0"
"html-keyboard-response","227","944517","0.0-11.0-2.0-0.19","6153","1","12","Female","approach_avoid_spark_v1","""event"",""trial"",""time""
""fullscreenenter"",""1"",""5881""
","
","
","""event"",""trial"",""time""
""fullscreenenter"",""1"",""5881""
","
","","","","","","null","<div style=""font-size:60px;"">+</div>","null","","fixation","","","","","","","","","","",""
"aa-learning-trial","228","947532","0.0-11.0-2.0-1.19","6153","1","12","Female","approach_avoid_spark_v1","""event"",""trial"",""time""
""fullscreenenter"",""1"",""5881""
","
","
","""event"",""trial"",""time""
""fullscreenenter"",""1"",""5881""
","
","","","","","","555.1000000238419","images/table6.png","","","learning","6","0","0","0","table","furniture","2","1","","good","[3]"
"html-keyboard-response","229","948045","0.0-11.0-2.0-0.20","6153","1","12","Female","approach_avoid_spark_v1","""event"",""trial"",""time""
""fullscreenenter"",""1"",""5881""
","
","
","""event"",""trial"",""time""
""fullscreenenter"",""1"",""5881""
","
","","","","","","null","<div style=""font-size:60px;"">+</div>","null","","fixation","","","","","","","","","","",""
"aa-learning-trial","230","951062","0.0-11.0-2.0-1.20","6153","1","12","Female","approach_avoid_spark_v1","""event"",""trial"",""time""
""fullscreenenter"",""1"",""5881""
","
","
","""event"",""trial"",""time""
""fullscreenenter"",""1"",""5881""
","
","","","","","","838.3999999761581","images/table1.png","","","learning","-1","-1","1","1","table","furniture","2","1","","good","[3]"
"html-keyboard-response","231","951569","0.0-11.0-2.0-0.21","6153","1","12","Female","approach_avoid_spark_v1","""event"",""trial"",""time""
""fullscreenenter"",""1"",""5881""
","
","
","""event"",""trial"",""time""
""fullscreenenter"",""1"",""5881""
","
","","","","","","null","<div style=""font-size:60px;"">+</div>","null","","fixation","","","","","","","","","","",""
"aa-learning-trial","232","954580","0.0-11.0-2.0-1.21","6153","1","12","Female","approach_avoid_spark_v1","""event"",""trial"",""time""
""fullscreenenter"",""1"",""5881""
","
","
","""event"",""trial"",""time""
""fullscreenenter"",""1"",""5881""
","
","","","","","","766.7999999523163","images/chair2.png","","","learning","-5","0","0","0","chair","furniture","2","1","","bad","[-4]"
"html-keyboard-response","233","955099","0.0-11.0-2.0-0.22","6153","1","12","Female","approach_avoid_spark_v1","""event"",""trial"",""time""
""fullscreenenter"",""1"",""5881""
","
","
","""event"",""trial"",""time""
""fullscreenenter"",""1"",""5881""
","
","","","","","","null","<div style=""font-size:60px;"">+</div>","null","","fixation","","","","","","","","","","",""
"aa-learning-trial","234","958105","0.0-11.0-2.0-1.22","6153","1","12","Female","approach_avoid_spark_v1","""event"",""trial"",""time""
""fullscreenenter"",""1"",""5881""
","
","
","""event"",""trial"",""time""
""fullscreenenter"",""1"",""5881""
","
","","","","","","883.2000000476837","images/chair1.png","","","learning","-8","0","0","0","chair","furniture","2","1","","bad","[-4]"
"html-keyboard-response","235","958622","0.0-11.0-2.0-0.23","6153","1","12","Female","approach_avoid_spark_v1","""event"",""trial"",""time""
""fullscreenenter"",""1"",""5881""
","
","
","""event"",""trial"",""time""
""fullscreenenter"",""1"",""5881""
","
","","","","","","null","<div style=""font-size:60px;"">+</div>","null","","fixation","","","","","","","","","","",""
"aa-learning-trial","236","961636","0.0-11.0-2.0-1.23","6153","1","12","Female","approach_avoid_spark_v1","""event"",""trial"",""time""
""fullscreenenter"",""1"",""5881""
","
","
","""event"",""trial"",""time""
