"trial_type","trial_index","time_elapsed","internal_node_id","subject_id","task_condition","age","gender","task_version","interactions","blur_events","focus_events","fullscreenenter_events","fullscreenexit_events","success","timeout","failed_images","failed_audio","failed_video","rt","stimulus","response","button_pressed","task_part","approach_reward","points","key_press","option_selected","stim_cat","task_block","block_condition","block_number","correct","cat_type","mean_cat_reward"
"pavlovia","0","3","0.0-0.0","3848","2","15","Female","approach_avoid_spark_v1","""event"",""trial"",""time""
""fullscreenenter"",""1"",""14120""
","
","
","""event"",""trial"",""time""
""fullscreenenter"",""1"",""14120""
","
","","","","","","","","","","","","","","","","","","","","",""
"fullscreen","1","15121","0.0-1.0","3848","2","15","Female","approach_avoid_spark_v1","""event"",""trial"",""time""
""fullscreenenter"",""1"",""14120""
","
","
","""event"",""trial"",""time""
""fullscreenenter"",""1"",""14120""
","
","true","","","","","","","","","","","","","","","","","","","",""
"preload","2","17801","0.0-2.0","3848","2","15","Female","approach_avoid_spark_v1","""event"",""trial"",""time""
""fullscreenenter"",""1"",""14120""
","
","
","""event"",""trial"",""time""
""fullscreenenter"",""1"",""14120""
","
","true","false","[]","[]","[]","","","","","","","","","","","","","","","",""
"audio-keyboard-response","3","21993","0.0-3.0","3848","2","15","Female","approach_avoid_spark_v1","""event"",""trial"",""time""
""fullscreenenter"",""1"",""14120""
","
","
","""event"",""trial"",""time""
""fullscreenenter"",""1"",""14120""
","
","","","","","","4191.201814058957","audio/beep_loop.wav"," ","","","","","","","","","","","","",""
"audio-button-response","4","25143","0.0-4.0","3848","2","15","Female","approach_avoid_spark_v1","""event"",""trial"",""time""
""fullscreenenter"",""1"",""14120""
","
","
","""event"",""trial"",""time""
""fullscreenenter"",""1"",""14120""
","
","","","","","","3146","audio/shark.wav","4","","","","","","","","","","","","",""
"audio-button-response","5","28326","0.0-5.0","3848","2","15","Female","approach_avoid_spark_v1","""event"",""trial"",""time""
""fullscreenenter"",""1"",""14120""
","
","
","""event"",""trial"",""time""
""fullscreenenter"",""1"",""14120""
","
","","","","","","2171","audio/turtle.wav","1","","","","","","","","","","","","",""
"preload","6","30737","0.0-6.0","3848","2","15","Female","approach_avoid_spark_v1","""event"",""trial"",""time""
""fullscreenenter"",""1"",""14120""
","
","
","""event"",""trial"",""time""
""fullscreenenter"",""1"",""14120""
","
","true","false","[]","[]","[]","","","","","","","","","","","","","","","",""
"html-keyboard-response","7","36277","0.0-7.0","3848","2","15","Female","approach_avoid_spark_v1","""event"",""trial"",""time""
""fullscreenenter"",""1"",""14120""
","
","
","""event"",""trial"",""time""
""fullscreenenter"",""1"",""14120""
","
","","","","","","5537.300000011921","Welcome to the experiment. Press any key to begin and to advance the instructions."," ","","","","","","","","","","","","",""
"learning-instructions","8","45928","0.0-8.0-0.0-0.0","3848","2","15","Female","approach_avoid_spark_v1","""event"",""trial"",""time""
""fullscreenenter"",""1"",""14120""
","
","
","""event"",""trial"",""time""
""fullscreenenter"",""1"",""14120""
","
","","","","","","2696.300000011921","<p> Welcome! Today you are going to play 6 different rounds of a decision-making game. </p><p> Use the mouse to click next to continue. </p>","","0","instructions","","","","","","","","","","",""
"learning-instructions","9","50359","0.0-8.0-0.0-0.1","3848","2","15","Female","approach_avoid_spark_v1","""event"",""trial"",""time""
""fullscreenenter"",""1"",""14120""
","
","
","""event"",""trial"",""time""
""fullscreenenter"",""1"",""14120""
","
","","","","","","1701.0999999940395","<p> You will start with a practice round to learn the rules. </p>","","0","instructions","","","","","","","","","","",""
"learning-instructions","10","54526","0.0-8.0-0.0-0.2","3848","2","15","Female","approach_avoid_spark_v1","""event"",""trial"",""time""
""fullscreenenter"",""1"",""14120""
","
","
","""event"",""trial"",""time""
""fullscreenenter"",""1"",""14120""
","
","","","","","","719.4000000059605","<p> Your goal in this round is to give out sports equipment to kids. </p></div>","","0","instructions","","","","","","","","","","",""
"learning-instructions","11","63493","0.0-8.0-0.0-0.3","3848","2","15","Female","approach_avoid_spark_v1","""event"",""trial"",""time""
""fullscreenenter"",""1"",""14120""
","
","
","""event"",""trial"",""time""
""fullscreenenter"",""1"",""14120""
","
","","","","","","1425.5999999940395","<p> The kids only like some of the equipment.  </p><p> On each turn, you will see a piece of sports equipment.   </p><p> You need to decide whether to give it to the kids or not.  </p>","","0","instructions","","","","","","","","","","",""
"learning-instructions","12","69093","0.0-8.0-0.0-0.4","3848","2","15","Female","approach_avoid_spark_v1","""event"",""trial"",""time""
""fullscreenenter"",""1"",""14120""
","
","
","""event"",""trial"",""time""
""fullscreenenter"",""1"",""14120""
","
","","","","","","848.0999999940395","<p> You can give them the equipment by pressing 1 and choose not to give it to them by pressing 0. </p><br><div class=""choice-instructions-grid""> <div class=""choice-option""><img src=""images/approach.png"" class=""choice-option-img"" stage=""instructions"" position=""0"" ><div class=""choice-option-text""> Press ""1."" </div></div><div class=""choice-option""><img src=""images/avoid.png"" class=""choice-option-img"" stage=""instructions"" position=""1"" ><div class=""choice-option-text""> Press ""0."" </div></div>","","0","instructions","","","","","","","","","","",""
"learning-instructions","13","77310","0.0-8.0-0.0-0.5","3848","2","15","Female","approach_avoid_spark_v1","""event"",""trial"",""time""
""fullscreenenter"",""1"",""14120""
","
","
","""event"",""trial"",""time""
""fullscreenenter"",""1"",""14120""
","
","","","","","","834.2000000178814","<p> If you give them a piece of equipment they like, they will be happy! </p><p> But if you give them a piece of equipment they do not like, they will be sad. </p>","","0","instructions","","","","","","","","","","",""
"learning-instructions","14","89226","0.0-8.0-0.0-0.6","3848","2","15","Female","approach_avoid_spark_v1","""event"",""trial"",""time""
""fullscreenenter"",""1"",""14120""
","
","
","""event"",""trial"",""time""
""fullscreenenter"",""1"",""14120""
","
","","","","","","1413.5999999940395","<p> You will earn points based on how you make kids feel. </p><p> If you make them happy, you will WIN anywhere from 1 - 9 points, </p><p> but if you make them sad, you will LOSE anywhere from 1 - 9 points. </p>","","0","instructions","","","","","","","","","","",""
"learning-instructions","15","100743","0.0-8.0-0.0-0.7","3848","2","15","Female","approach_avoid_spark_v1","""event"",""trial"",""time""
""fullscreenenter"",""1"",""14120""
","
","
","""event"",""trial"",""time""
""fullscreenenter"",""1"",""14120""
","
","","","","","","1958.199999988079","<p> You will see how many points you won or lost in the center of the screen. </p><p> Here is what you would see if you won 6 points: </p><p style=""color:green;font-size:50px;font-weight:bolder"">6</p><p style=""color:green"">The text is GREEN because you WON points.</p>","","0","instructions","","","","","","","","","","",""
"learning-instructions","16","108277","0.0-8.0-0.0-0.8","3848","2","15","Female","approach_avoid_spark_v1","""event"",""trial"",""time""
""fullscreenenter"",""1"",""14120""
","
","
","""event"",""trial"",""time""
""fullscreenenter"",""1"",""14120""
","
","","","","","","2027.5","<p> And here is what you would see if you lost 4 points: </p><p style=""color:red;font-size:50px;font-weight:bolder"">-4</p><p style=""color:red"">The text is RED because you LOST points. </p>","","0","instructions","","","","","","","","","","",""
"learning-instructions","17","125875","0.0-8.0-0.0-0.9","3848","2","15","Female","approach_avoid_spark_v1","""event"",""trial"",""time""
""fullscreenenter"",""1"",""14120""
","
","
","""event"",""trial"",""time""
""fullscreenenter"",""1"",""14120""
","
","","","","","","2890.0999999940395","<p> Some of the equipment will make the kids VERY happy or sad. </p><p> These pieces of equipment will make you win or lose LOTS of points. </p><p> Other pieces of equipment will only make the kids a little happy or sad. </p><p> These pieces of equipment will make you win or lose small amounts of points. </p>","","0","instructions","","","","","","","","","","",""
"learning-instructions","18","139526","0.0-8.0-0.0-0.10","3848","2","15","Female","approach_avoid_spark_v1","""event"",""trial"",""time""
""fullscreenenter"",""1"",""14120""
","
","
","""event"",""trial"",""time""
""fullscreenenter"",""1"",""14120""
","
","","","","","","3026.7999999821186","<p> If you choose not to give them the equipment, you will not win or lose any points. </p><p>  However, in the center of the screen, you will see the number of points you WOULD HAVE won or lost if you had given them the equipment. </p>","","0","instructions","","","","","","","","","","",""
"learning-instructions","19","163292","0.0-8.0-0.0-0.11","3848","2","15","Female","approach_avoid_spark_v1","""event"",""trial"",""time""
""fullscreenenter"",""1"",""14120""
","
","
","""event"",""trial"",""time""
""fullscreenenter"",""1"",""14120""
","
","","","","","","2232.5","<p> Here is what you might see if you did not give the equipment to the kids but it would have made them happy: </p><p style=""color:grey; font-size:50px; display: inline-block; border-spacing: 15px; border-width:3px; border-style:solid; border-color:red"">  &nbsp; 7 &nbsp; </p><p> Remember, in this case, you would not win or lose ANY points because you did not give them the equipment.  </p><p style=""color:grey"">The text is GREY because you earned ZERO points. </p><p style=""color:red"">However, choosing to give the kids the equipment would have made you win points. The box around the text is RED because you chose the worse option. </p>","","0","instructions","","","","","","","","","","",""
"learning-instructions","20","187359","0.0-8.0-0.0-0.12","3848","2","15","Female","approach_avoid_spark_v1","""event"",""trial"",""time""
""fullscreenenter"",""1"",""14120""
","
","
","""event"",""trial"",""time""
""fullscreenenter"",""1"",""14120""
","
","","","","","","2992.4000000059605","<p> Here is what you might see if you did not give the equipment to the kids but it would have made them sad: </p><p style=""color:grey;font-size:50px; display: inline-block; border-spacing: 15px; border-width:3px; border-style:solid; border-color:green"">  &nbsp; -8 &nbsp; </p><p> Remember, in this case, you would not win or lose ANY points because you did not give them the equipment.  </p><p style=""color:grey"">The text is GREY because you earned ZERO points. </p><p  style=""color:green""> Choosing to give the kids the equipment would have made you lose points. The box around the text is GREEN because you chose the better option.</p>","","0","instructions","","","","","","","","","","",""
"learning-instructions","21","197026","0.0-8.0-0.0-0.13","3848","2","15","Female","approach_avoid_spark_v1","""event"",""trial"",""time""
""fullscreenenter"",""1"",""14120""
","
","
","""event"",""trial"",""time""
""fullscreenenter"",""1"",""14120""
","
","","","","","","863.3000000119209","<p> You will have 3 seconds to make each choice. Try to respond before time runs out! </p><p> You will lose 5 points each time you do not make a response. </p>","","0","instructions","","","","","","","","","","",""
"learning-instructions","22","203426","0.0-8.0-0.0-0.14","3848","2","15","Female","approach_avoid_spark_v1","""event"",""trial"",""time""
""fullscreenenter"",""1"",""14120""
","
","
","""event"",""trial"",""time""
""fullscreenenter"",""1"",""14120""
","
","","","","","","988.3999999761581","<p> This is just a practice round, but in the real game, your bonus payment will depend on your total number of points.","","0","instructions","","","","","","","","","","",""
"learning-instructions","23","210059","0.0-8.0-0.0-0.15","3848","2","15","Female","approach_avoid_spark_v1","""event"",""trial"",""time""
""fullscreenenter"",""1"",""14120""
","
","
","""event"",""trial"",""time""
""fullscreenenter"",""1"",""14120""
","
","","","","","","875.1999999880791","<p> Remember, you can give them the equipment by pressing 1 and choose not to give it to them by pressing 0. </p><br><div class=""choice-instructions-grid""> <div class=""choice-option""><img src=""images/approach.png"" class=""choice-option-img"" stage=""instructions"" position=""0"" ><div class=""choice-option-text""> Press ""1."" </div></div><div class=""choice-option""><img src=""images/avoid.png"" class=""choice-option-img"" stage=""instructions"" position=""1"" ><div class=""choice-option-text""> Press ""0."" </div></div>","","0","instructions","","","","","","","","","","",""
"html-button-response","24","211475","0.0-8.0-1.0","3848","2","15","Female","approach_avoid_spark_v1","""event"",""trial"",""time""
""fullscreenenter"",""1"",""14120""
","
","
","""event"",""trial"",""time""
""fullscreenenter"",""1"",""14120""
","
","","","","","","1312.7999999821186","<p> Ready to practice? </p>","0","","","","","","","","","","","","",""
"html-keyboard-response","25","212099","0.0-8.0-2.0-0.0","3848","2","15","Female","approach_avoid_spark_v1","""event"",""trial"",""time""
""fullscreenenter"",""1"",""14120""
","
","
","""event"",""trial"",""time""
""fullscreenenter"",""1"",""14120""
","
","","","","","","null","<div style=""font-size:60px;"">+</div>","null","","fixation","","","","","","","","","","",""
"aa-learning-trial","26","215112","0.0-8.0-2.0-1.0","3848","2","15","Female","approach_avoid_spark_v1","""event"",""trial"",""time""
""fullscreenenter"",""1"",""14120""
","
","
","""event"",""trial"",""time""
""fullscreenenter"",""1"",""14120""
","
","","","","","","1848.7000000178814","images/racket2.png","","","learning","-6","-6","1","1","practice","practice","practice","-1","","",""
"html-keyboard-response","27","215623","0.0-8.0-2.0-0.1","3848","2","15","Female","approach_avoid_spark_v1","""event"",""trial"",""time""
""fullscreenenter"",""1"",""14120""
","
","
","""event"",""trial"",""time""
""fullscreenenter"",""1"",""14120""
","
","","","","","","null","<div style=""font-size:60px;"">+</div>","null","","fixation","","","","","","","","","","",""
"aa-learning-trial","28","218630","0.0-8.0-2.0-1.1","3848","2","15","Female","approach_avoid_spark_v1","""event"",""trial"",""time""
""fullscreenenter"",""1"",""14120""
","
","
","""event"",""trial"",""time""
""fullscreenenter"",""1"",""14120""
","
","","","","","","881.8000000119209","images/ball4.png","","","learning","-9","-9","1","1","practice","practice","practice","-1","","",""
"html-keyboard-response","29","219135","0.0-8.0-2.0-0.2","3848","2","15","Female","approach_avoid_spark_v1","""event"",""trial"",""time""
""fullscreenenter"",""1"",""14120""
","
","
","""event"",""trial"",""time""
""fullscreenenter"",""1"",""14120""
","
","","","","","","null","<div style=""font-size:60px;"">+</div>","null","","fixation","","","","","","","","","","",""
"aa-learning-trial","30","222140","0.0-8.0-2.0-1.2","3848","2","15","Female","approach_avoid_spark_v1","""event"",""trial"",""time""
""fullscreenenter"",""1"",""14120""
","
","
","""event"",""trial"",""time""
""fullscreenenter"",""1"",""14120""
","
","","","","","","642.8999999761581","images/ball1.png","","","learning","7","7","1","1","practice","practice","practice","-1","","",""
"html-keyboard-response","31","222650","0.0-8.0-2.0-0.3","3848","2","15","Female","approach_avoid_spark_v1","""event"",""trial"",""time""
""fullscreenenter"",""1"",""14120""
","
","
","""event"",""trial"",""time""
""fullscreenenter"",""1"",""14120""
","
","","","","","","null","<div style=""font-size:60px;"">+</div>","null","","fixation","","","","","","","","","","",""
"aa-learning-trial","32","225655","0.0-8.0-2.0-1.3","3848","2","15","Female","approach_avoid_spark_v1","""event"",""trial"",""time""
""fullscreenenter"",""1"",""14120""
","
","
","""event"",""trial"",""time""
""fullscreenenter"",""1"",""14120""
","
","","","","","","1309.7000000178814","images/ball4.png","","","learning","-7","-5","2","","practice","practice","practice","-1","","",""
"html-keyboard-response","33","226160","0.0-8.0-2.0-0.4","3848","2","15","Female","approach_avoid_spark_v1","""event"",""trial"",""time""
""fullscreenenter"",""1"",""14120""
","
","
","""event"",""trial"",""time""
""fullscreenenter"",""1"",""14120""
","
","","","","","","null","<div style=""font-size:60px;"">+</div>","null","","fixation","","","","","","","","","","",""
"aa-learning-trial","34","229171","0.0-8.0-2.0-1.4","3848","2","15","Female","approach_avoid_spark_v1","""event"",""trial"",""time""
""fullscreenenter"",""1"",""14120""
","
","
","""event"",""trial"",""time""
""fullscreenenter"",""1"",""14120""
","
","","","","","","1048.3999999761581","images/racket4.png","","","learning","-8","-5","2","","practice","practice","practice","-1","","",""
"html-keyboard-response","35","229679","0.0-8.0-2.0-0.5","3848","2","15","Female","approach_avoid_spark_v1","""event"",""trial"",""time""
""fullscreenenter"",""1"",""14120""
","
","
","""event"",""trial"",""time""
""fullscreenenter"",""1"",""14120""
","
","","","","","","null","<div style=""font-size:60px;"">+</div>","null","","fixation","","","","","","","","","","",""
"aa-learning-trial","36","232691","0.0-8.0-2.0-1.5","3848","2","15","Female","approach_avoid_spark_v1","""event"",""trial"",""time""
""fullscreenenter"",""1"",""14120""
","
","
","""event"",""trial"",""time""
""fullscreenenter"",""1"",""14120""
","
","","","","","","1163.800000011921","images/racket1.png","","","learning","-1","-5","2","","practice","practice","practice","-1","","",""
"html-keyboard-response","37","233198","0.0-8.0-2.0-0.6","3848","2","15","Female","approach_avoid_spark_v1","""event"",""trial"",""time""
""fullscreenenter"",""1"",""14120""
","
","
","""event"",""trial"",""time""
""fullscreenenter"",""1"",""14120""
","
","","","","","","null","<div style=""font-size:60px;"">+</div>","null","","fixation","","","","","","","","","","",""
"aa-learning-trial","38","236207","0.0-8.0-2.0-1.6","3848","2","15","Female","approach_avoid_spark_v1","""event"",""trial"",""time""
""fullscreenenter"",""1"",""14120""
","
","
","""event"",""trial"",""time""
""fullscreenenter"",""1"",""14120""
","
","","","","","","1097.0999999940395","images/ball3.png","","","learning","7","7","1","1","practice","practice","practice","-1","","",""
"html-keyboard-response","39","236710","0.0-8.0-2.0-0.7","3848","2","15","Female","approach_avoid_spark_v1","""event"",""trial"",""time""
""fullscreenenter"",""1"",""14120""
","
","
","""event"",""trial"",""time""
""fullscreenenter"",""1"",""14120""
","
","","","","","","null","<div style=""font-size:60px;"">+</div>","null","","fixation","","","","","","","","","","",""
"aa-learning-trial","40","239719","0.0-8.0-2.0-1.7","3848","2","15","Female","approach_avoid_spark_v1","""event"",""trial"",""time""
""fullscreenenter"",""1"",""14120""
","
","
","""event"",""trial"",""time""
""fullscreenenter"",""1"",""14120""
","
","","","","","","912.5","images/racket3.png","","","learning","-7","-5","2","","practice","practice","practice","-1","","",""
"html-keyboard-response","41","240222","0.0-8.0-2.0-0.8","3848","2","15","Female","approach_avoid_spark_v1","""event"",""trial"",""time""
""fullscreenenter"",""1"",""14120""
","
","
","""event"",""trial"",""time""
""fullscreenenter"",""1"",""14120""
","
","","","","","","null","<div style=""font-size:60px;"">+</div>","null","","fixation","","","","","","","","","","",""
"aa-learning-trial","42","243231","0.0-8.0-2.0-1.8","3848","2","15","Female","approach_avoid_spark_v1","""event"",""trial"",""time""
""fullscreenenter"",""1"",""14120""
","
","
","""event"",""trial"",""time""
""fullscreenenter"",""1"",""14120""
","
","","","","","","1140.4000000059605","images/racket2.png","","","learning","1","1","1","1","practice","practice","practice","-1","","",""
"html-keyboard-response","43","243734","0.0-8.0-2.0-0.9","3848","2","15","Female","approach_avoid_spark_v1","""event"",""trial"",""time""
""fullscreenenter"",""1"",""14120""
","
","
","""event"",""trial"",""time""
""fullscreenenter"",""1"",""14120""
","
","","","","","","null","<div style=""font-size:60px;"">+</div>","null","","fixation","","","","","","","","","","",""
"aa-learning-trial","44","246742","0.0-8.0-2.0-1.9","3848","2","15","Female","approach_avoid_spark_v1","""event"",""trial"",""time""
""fullscreenenter"",""1"",""14120""
","
","
","""event"",""trial"",""time""
""fullscreenenter"",""1"",""14120""
","
","","","","","","782.6999999880791","images/ball2.png","","","learning","7","7","1","1","practice","practice","practice","-1","","",""
"html-keyboard-response","45","247246","0.0-8.0-2.0-0.10","3848","2","15","Female","approach_avoid_spark_v1","""event"",""trial"",""time""
""fullscreenenter"",""1"",""14120""
","
","
","""event"",""trial"",""time""
""fullscreenenter"",""1"",""14120""
","
","","","","","","null","<div style=""font-size:60px;"">+</div>","null","","fixation","","","","","","","","","","",""
"aa-learning-trial","46","250254","0.0-8.0-2.0-1.10","3848","2","15","Female","approach_avoid_spark_v1","""event"",""trial"",""time""
""fullscreenenter"",""1"",""14120""
","
","
","""event"",""trial"",""time""
""fullscreenenter"",""1"",""14120""
","
","","","","","","788.5","images/racket4.png","","","learning","4","-5","2","","practice","practice","practice","-1","","",""
"html-keyboard-response","47","250757","0.0-8.0-2.0-0.11","3848","2","15","Female","approach_avoid_spark_v1","""event"",""trial"",""time""
""fullscreenenter"",""1"",""14120""
","
","
","""event"",""trial"",""time""
""fullscreenenter"",""1"",""14120""
","
","","","","","","null","<div style=""font-size:60px;"">+</div>","null","","fixation","","","","","","","","","","",""
"aa-learning-trial","48","253765","0.0-8.0-2.0-1.11","3848","2","15","Female","approach_avoid_spark_v1","""event"",""trial"",""time""
""fullscreenenter"",""1"",""14120""
","
","
","""event"",""trial"",""time""
""fullscreenenter"",""1"",""14120""
","
","","","","","","927.0999999940395","images/racket1.png","","","learning","-9","-5","2","","practice","practice","practice","-1","","",""
"html-button-response","49","254791","0.0-8.0-3.0","3848","2","15","Female","approach_avoid_spark_v1","""event"",""trial"",""time""
""fullscreenenter"",""1"",""14120""
","
","
","""event"",""trial"",""time""
""fullscreenenter"",""1"",""14120""
","
","","","","","","1023.1999999880791","<p> You earned -23 points in the practice round! </p>","0","","break","","","","","","","","","","",""
"learning-instructions","50","262592","0.0-8.0-4.0-0.0","3848","2","15","Female","approach_avoid_spark_v1","""event"",""trial"",""time""
""fullscreenenter"",""1"",""14120""
","
","
","""event"",""trial"",""time""
""fullscreenenter"",""1"",""14120""
","
","","","","","","1808.6000000238419","<p> It's almost time to start the real game. </p><p> Before you start, we're going to ask you a few questions about how the game works. </p>","","0","instructions","","","","","","","","","","",""
"preload","51","263596","0.0-8.0-5.0","3848","2","15","Female","approach_avoid_spark_v1","""event"",""trial"",""time""
""fullscreenenter"",""1"",""14120""
","
","
","""event"",""trial"",""time""
""fullscreenenter"",""1"",""14120""
","
","true","false","[]","[]","[]","","","","","","","","","","","","","","","",""
"comp-q","52","269459","0.0-8.0-6.0-0.0","3848","2","15","Female","approach_avoid_spark_v1","""event"",""trial"",""time""
""fullscreenenter"",""1"",""14120""
","
","
","""event"",""trial"",""time""
""fullscreenenter"",""1"",""14120""
","
","","","","","","873.2000000178814","<p> <b> True or False? </b> </p><p> If you see a number in GREY, that means you earned that many points. </p>","","1","comp_question","","","","","","","","","true","",""
"comp-q","53","284543","0.0-8.0-6.0-1.0","3848","2","15","Female","approach_avoid_spark_v1","""event"",""trial"",""time""
""fullscreenenter"",""1"",""14120""
","
","
","""event"",""trial"",""time""
""fullscreenenter"",""1"",""14120""
","
","","","","","","6722.0999999940395","<p><b> That's right! </b> If you see a grey number, it means you earned ZERO points. <br> The grey numbers show the points you WOULD HAVE earned if you had made the other choice. </p>","","0","comp_answer","","","","","","","","","","",""
"comp-q","54","292259","0.0-8.0-7.0-0.0","3848","2","15","Female","approach_avoid_spark_v1","""event"",""trial"",""time""
""fullscreenenter"",""1"",""14120""
","
","
","""event"",""trial"",""time""
""fullscreenenter"",""1"",""14120""
","
","","","","","","3025.399999976158","<p> <b> True or False? </b> </p><p> You will have as much time as you want to make each choice. </p>","","1","comp_question","","","","","","","","","true","",""
"comp-q","55","298192","0.0-8.0-7.0-1.0","3848","2","15","Female","approach_avoid_spark_v1","""event"",""trial"",""time""
""fullscreenenter"",""1"",""14120""
","
","
","""event"",""trial"",""time""
""fullscreenenter"",""1"",""14120""
","
","","","","","","1894.0999999940395","<p> <b> That's right! </b> You will only have 3 seconds to make each choice. </p>","","0","comp_answer","","","","","","","","","","",""
"comp-q","56","304175","0.0-8.0-8.0-0.0","3848","2","15","Female","approach_avoid_spark_v1","""event"",""trial"",""time""
""fullscreenenter"",""1"",""14120""
","
","
","""event"",""trial"",""time""
""fullscreenenter"",""1"",""14120""
","
","","","","","","1317.4000000059605","<p> <b> True or False? </b> </p><p> You should use the '1' and '0' keys to make your choices. </p>","","0","comp_question","","","","","","","","","true","",""
"comp-q","57","310975","0.0-8.0-8.0-1.0","3848","2","15","Female","approach_avoid_spark_v1","""event"",""trial"",""time""
""fullscreenenter"",""1"",""14120""
","
","
","""event"",""trial"",""time""
""fullscreenenter"",""1"",""14120""
","
","","","","","","2190.2999999821186","<p> <b> That's right! </b> You should use the '1' and '0' keys to make each choice. </p>","","0","comp_answer","","","","","","","","","","",""
"learning-instructions","58","321025","0.0-8.0-9.0-0.0","3848","2","15","Female","approach_avoid_spark_v1","""event"",""trial"",""time""
""fullscreenenter"",""1"",""14120""
","
","
","""event"",""trial"",""time""
""fullscreenenter"",""1"",""14120""
","
","","","","","","3782.5999999940395","<p> It's now time to start the real game. </p>Do your best, because the points you earn in the next rounds will influence your bonus payment. </p>","","0","instructions","","","","","","","","","","",""
"preload","59","321151","0.0-9.0-0.0","3848","2","15","Female","approach_avoid_spark_v1","""event"",""trial"",""time""
""fullscreenenter"",""1"",""14120""
","
","
","""event"",""trial"",""time""
""fullscreenenter"",""1"",""14120""
","
","true","false","[]","[]","[]","","","","","","","","","","","","","","","",""
"learning-instructions","60","328842","0.0-9.0-1.0-0.0","3848","2","15","Female","approach_avoid_spark_v1","""event"",""trial"",""time""
""fullscreenenter"",""1"",""14120""
","
","
","""event"",""trial"",""time""
""fullscreenenter"",""1"",""14120""
","
","","","","","","2839.5","<p> Your goal in this round is to sell different plants to a picky customer. </p></div>","","0","instructions","","","","","","","","","","",""
"learning-instructions","61","341475","0.0-9.0-1.0-0.1","3848","2","15","Female","approach_avoid_spark_v1","""event"",""trial"",""time""
""fullscreenenter"",""1"",""14120""
","
","
","""event"",""trial"",""time""
""fullscreenenter"",""1"",""14120""
","
","","","","","","3589.9000000059605","<p> The customer likes some plants and dislikes others.  </p><p> On each turn, you will see a plant.   </p><p> You need to decide whether to offer it to the customer or not.  </p>","","0","instructions","","","","","","","","","","",""
"learning-instructions","62","357992","0.0-9.0-1.0-0.2","3848","2","15","Female","approach_avoid_spark_v1","""event"",""trial"",""time""
""fullscreenenter"",""1"",""14120""
","
","
","""event"",""trial"",""time""
""fullscreenenter"",""1"",""14120""
","
","","","","","","11149.100000023842","<p> You can offer the plant by pressing 1 and decide to not offer it by pressing 0. </p><br><div class=""choice-instructions-grid""> <div class=""choice-option""><img src=""images/approach.png"" class=""choice-option-img"" stage=""instructions"" position=""0"" ><div class=""choice-option-text""> Press ""1."" </div></div><div class=""choice-option""><img src=""images/avoid.png"" class=""choice-option-img"" stage=""instructions"" position=""1"" ><div class=""choice-option-text""> Press ""0."" </div></div>","","0","instructions","","","","","","","","","","",""
"learning-instructions","63","380841","0.0-9.0-1.0-0.3","3848","2","15","Female","approach_avoid_spark_v1","""event"",""trial"",""time""
""fullscreenenter"",""1"",""14120""
","
","
","""event"",""trial"",""time""
""fullscreenenter"",""1"",""14120""
","
","","","","","","14192.800000011921","<p> If you offer a plant to the customer that she likes, she will be very pleased! </p><p> But if you offer a plant that she does NOT like, she will be annoyed. </p>","","0","instructions","","","","","","","","","","",""
"learning-instructions","64","396558","0.0-9.0-1.0-0.4","3848","2","15","Female","approach_avoid_spark_v1","""event"",""trial"",""time""
""fullscreenenter"",""1"",""14120""
","
","
","""event"",""trial"",""time""
""fullscreenenter"",""1"",""14120""
","
","","","","","","3607.300000011921","<p> You will earn points based on how you made the customer feel. </p><p> If you made her pleased, you will WIN anywhere from 1 - 9 points, </p><p> but if you made her annoyed, you will LOSE anywhere from 1 - 9 points. </p>","","0","instructions","","","","","","","","","","",""
"learning-instructions","65","410392","0.0-9.0-1.0-0.5","3848","2","15","Female","approach_avoid_spark_v1","""event"",""trial"",""time""
""fullscreenenter"",""1"",""14120""
","
","
","""event"",""trial"",""time""
""fullscreenenter"",""1"",""14120""
","
","","","","","","6579.800000011921","<p> You will see how many points you won or lost in the center of the screen. </p><p> Here is what you would see if you won 5 points: </p><p style=""color:green;font-size:50px;font-weight:bolder"">5</p>","","0","instructions","","","","","","","","","","",""
"learning-instructions","66","416108","0.0-9.0-1.0-0.6","3848","2","15","Female","approach_avoid_spark_v1","""event"",""trial"",""time""
""fullscreenenter"",""1"",""14120""
","
","
","""event"",""trial"",""time""
""fullscreenenter"",""1"",""14120""
","
","","","","","","2468.800000011921","<p> And here is what you would see if you lost 3 points: </p><p style=""color:red;font-size:50px;font-weight:bolder"">-3</p>","","0","instructions","","","","","","","","","","",""
"learning-instructions","67","436358","0.0-9.0-1.0-0.7","3848","2","15","Female","approach_avoid_spark_v1","""event"",""trial"",""time""
""fullscreenenter"",""1"",""14120""
","
","
","""event"",""trial"",""time""
""fullscreenenter"",""1"",""14120""
","
","","","","","","5901.5","<p> Some plants will make the customer VERY pleased or annoyed. </p><p> These plants will make you win or lose LOTS of points. </p><p> The customer will have less strong feelings about other plants. </p><p> These plants will make you win or lose small amounts of points. </p>","","0","instructions","","","","","","","","","","",""
"learning-instructions","68","449958","0.0-9.0-1.0-0.8","3848","2","15","Female","approach_avoid_spark_v1","""event"",""trial"",""time""
""fullscreenenter"",""1"",""14120""
","
","
","""event"",""trial"",""time""
""fullscreenenter"",""1"",""14120""
","
","","","","","","1389.9000000059605","<p> If you choose to not offer the plant to the customer, you will not win or lose any points. </p><p>  However, in the center of the screen, you will see the number of points you WOULD HAVE won or lost if you had offered the plant. </p>","","0","instructions","","","","","","","","","","",""
"learning-instructions","69","463774","0.0-9.0-1.0-0.9","3848","2","15","Female","approach_avoid_spark_v1","""event"",""trial"",""time""
""fullscreenenter"",""1"",""14120""
","
","
","""event"",""trial"",""time""
""fullscreenenter"",""1"",""14120""
","
","","","","","","2673.0999999940395","<p> Here is what you might see if you did not offer the plant but the customer would have liked it: </p><p style=""color:grey; font-size:50px; display: inline-block; border-spacing: 15px; border-width:3px; border-style:solid; border-color:red"">  &nbsp; 6 &nbsp; </p><p> Remember, in this case, you would not win or lose ANY points because you did not offer the plant.  </p>","","0","instructions","","","","","","","","","","",""
"learning-instructions","70","472275","0.0-9.0-1.0-0.10","3848","2","15","Female","approach_avoid_spark_v1","""event"",""trial"",""time""
""fullscreenenter"",""1"",""14120""
","
","
","""event"",""trial"",""time""
""fullscreenenter"",""1"",""14120""
","
","","","","","","1148.0999999940395","<p> Try to make the best choice for each plant because </p><p> at the end of the game, you will earn bonus money based on how many points you earned. </p>","","0","instructions","","","","","","","","","","",""
"learning-instructions","71","481775","0.0-9.0-1.0-0.11","3848","2","15","Female","approach_avoid_spark_v1","""event"",""trial"",""time""
""fullscreenenter"",""1"",""14120""
","
","
","""event"",""trial"",""time""
""fullscreenenter"",""1"",""14120""
","
","","","","","","1313.800000011921","<p> You will have 3 seconds to make each choice. Try to respond before time runs out! </p><p> You will lose 5 points each time you do not make a response. </p>","","0","instructions","","","","","","","","","","",""
"html-keyboard-response","72","482391","0.0-9.0-2.0-0.0","3848","2","15","Female","approach_avoid_spark_v1","""event"",""trial"",""time""
""fullscreenenter"",""1"",""14120""
","
","
","""event"",""trial"",""time""
""fullscreenenter"",""1"",""14120""
","
","","","","","","null","<div style=""font-size:60px;"">+</div>","null","","fixation","","","","","","","","","","",""
"aa-learning-trial","73","485401","0.0-9.0-2.0-1.0","3848","2","15","Female","approach_avoid_spark_v1","""event"",""trial"",""time""
""fullscreenenter"",""1"",""14120""
","
","
","""event"",""trial"",""time""
""fullscreenenter"",""1"",""14120""
","
","","","","","","1245.9000000059605","images/cactus4.png","","","learning","-5","-5","1","1","cactus","plants","2","0","","neutral","0"
"html-keyboard-response","74","485911","0.0-9.0-2.0-0.1","3848","2","15","Female","approach_avoid_spark_v1","""event"",""trial"",""time""
""fullscreenenter"",""1"",""14120""
","
","
","""event"",""trial"",""time""
""fullscreenenter"",""1"",""14120""
","
","","","","","","null","<div style=""font-size:60px;"">+</div>","null","","fixation","","","","","","","","","","",""
"aa-learning-trial","75","488923","0.0-9.0-2.0-1.1","3848","2","15","Female","approach_avoid_spark_v1","""event"",""trial"",""time""
""fullscreenenter"",""1"",""14120""
","
","
","""event"",""trial"",""time""
""fullscreenenter"",""1"",""14120""
","
","","","","","","826.3999999761581","images/flower7.png","","","learning","6","6","1","1","flower","plants","2","0","","good","[6]"
"html-keyboard-response","76","489432","0.0-9.0-2.0-0.2","3848","2","15","Female","approach_avoid_spark_v1","""event"",""trial"",""time""
""fullscreenenter"",""1"",""14120""
","
","
","""event"",""trial"",""time""
""fullscreenenter"",""1"",""14120""
","
","","","","","","null","<div style=""font-size:60px;"">+</div>","null","","fixation","","","","","","","","","","",""
"aa-learning-trial","77","492439","0.0-9.0-2.0-1.2","3848","2","15","Female","approach_avoid_spark_v1","""event"",""trial"",""time""
""fullscreenenter"",""1"",""14120""
","
","
","""event"",""trial"",""time""
""fullscreenenter"",""1"",""14120""
","
","","","","","","886.9000000059605","images/flower5.png","","","learning","-6","-6","1","1","flower","plants","2","0","","good","[6]"
"html-keyboard-response","78","492943","0.0-9.0-2.0-0.3","3848","2","15","Female","approach_avoid_spark_v1","""event"",""trial"",""time""
""fullscreenenter"",""1"",""14120""
","
","
","""event"",""trial"",""time""
""fullscreenenter"",""1"",""14120""
","
","","","","","","null","<div style=""font-size:60px;"">+</div>","null","","fixation","","","","","","","","","","",""
"aa-learning-trial","79","495951","0.0-9.0-2.0-1.3","3848","2","15","Female","approach_avoid_spark_v1","""event"",""trial"",""time""
""fullscreenenter"",""1"",""14120""
","
","
","""event"",""trial"",""time""
""fullscreenenter"",""1"",""14120""
","
","","","","","","1096.9000000059605","images/cactus3.png","","","learning","4","-5","2","","cactus","plants","2","0","","neutral","0"
"html-keyboard-response","80","496454","0.0-9.0-2.0-0.4","3848","2","15","Female","approach_avoid_spark_v1","""event"",""trial"",""time""
""fullscreenenter"",""1"",""14120""
","
","
","""event"",""trial"",""time""
""fullscreenenter"",""1"",""14120""
","
","","","","","","null","<div style=""font-size:60px;"">+</div>","null","","fixation","","","","","","","","","","",""
"aa-learning-trial","81","499463","0.0-9.0-2.0-1.4","3848","2","15","Female","approach_avoid_spark_v1","""event"",""trial"",""time""
""fullscreenenter"",""1"",""14120""
","
","
","""event"",""trial"",""time""
""fullscreenenter"",""1"",""14120""
","
","","","","","","1375.0999999940395","images/tree6.png","","","learning","-3","-5","2","","tree","plants","2","0","","bad","[-4]"
"html-keyboard-response","82","499970","0.0-9.0-2.0-0.5","3848","2","15","Female","approach_avoid_spark_v1","""event"",""trial"",""time""
""fullscreenenter"",""1"",""14120""
","
","
","""event"",""trial"",""time""
""fullscreenenter"",""1"",""14120""
","
","","","","","","null","<div style=""font-size:60px;"">+</div>","null","","fixation","","","","","","","","","","",""
"aa-learning-trial","83","502983","0.0-9.0-2.0-1.5","3848","2","15","Female","approach_avoid_spark_v1","""event"",""trial"",""time""
""fullscreenenter"",""1"",""14120""
","
","
","""event"",""trial"",""time""
""fullscreenenter"",""1"",""14120""
","
","","","","","","1246.300000011921","images/cactus4.png","","","learning","-5","-5","2","","cactus","plants","2","0","","neutral","0"
"html-keyboard-response","84","503486","0.0-9.0-2.0-0.6","3848","2","15","Female","approach_avoid_spark_v1","""event"",""trial"",""time""
""fullscreenenter"",""1"",""14120""
","
","
","""event"",""trial"",""time""
""fullscreenenter"",""1"",""14120""
","
","","","","","","null","<div style=""font-size:60px;"">+</div>","null","","fixation","","","","","","","","","","",""
"aa-learning-trial","85","506496","0.0-9.0-2.0-1.6","3848","2","15","Female","approach_avoid_spark_v1","""event"",""trial"",""time""
""fullscreenenter"",""1"",""14120""
","
","
","""event"",""trial"",""time""
""fullscreenenter"",""1"",""14120""
","
","","","","","","941.8000000119209","images/cactus3.png","","","learning","4","-5","2","","cactus","plants","2","0","","neutral","0"
"html-keyboard-response","86","507010","0.0-9.0-2.0-0.7","3848","2","15","Female","approach_avoid_spark_v1","""event"",""trial"",""time""
""fullscreenenter"",""1"",""14120""
","
","
","""event"",""trial"",""time""
""fullscreenenter"",""1"",""14120""
","
","","","","","","null","<div style=""font-size:60px;"">+</div>","null","","fixation","","","","","","","","","","",""
"aa-learning-trial","87","510026","0.0-9.0-2.0-1.7","3848","2","15","Female","approach_avoid_spark_v1","""event"",""trial"",""time""
""fullscreenenter"",""1"",""14120""
","
","
","""event"",""trial"",""time""
""fullscreenenter"",""1"",""14120""
","
","","","","","","1065.5999999940395","images/tree5.png","","","learning","8","8","1","1","tree","plants","2","0","","bad","[-4]"
"html-keyboard-response","88","510534","0.0-9.0-2.0-0.8","3848","2","15","Female","approach_avoid_spark_v1","""event"",""trial"",""time""
""fullscreenenter"",""1"",""14120""
","
","
","""event"",""trial"",""time""
""fullscreenenter"",""1"",""14120""
","
","","","","","","null","<div style=""font-size:60px;"">+</div>","null","","fixation","","","","","","","","","","",""
"aa-learning-trial","89","513541","0.0-9.0-2.0-1.8","3848","2","15","Female","approach_avoid_spark_v1","""event"",""trial"",""time""
""fullscreenenter"",""1"",""14120""
","
","
","""event"",""trial"",""time""
""fullscreenenter"",""1"",""14120""
","
","","","","","","889.2000000178814","images/flower7.png","","","learning","6","6","1","1","flower","plants","2","0","","good","[6]"
"html-keyboard-response","90","514045","0.0-9.0-2.0-0.9","3848","2","15","Female","approach_avoid_spark_v1","""event"",""trial"",""time""
""fullscreenenter"",""1"",""14120""
","
","
","""event"",""trial"",""time""
""fullscreenenter"",""1"",""14120""
","
","","","","","","null","<div style=""font-size:60px;"">+</div>","null","","fixation","","","","","","","","","","",""
"aa-learning-trial","91","517053","0.0-9.0-2.0-1.9","3848","2","15","Female","approach_avoid_spark_v1","""event"",""trial"",""time""
""fullscreenenter"",""1"",""14120""
","
","
","""event"",""trial"",""time""
""fullscreenenter"",""1"",""14120""
","
","","","","","","1047.800000011921","images/cactus7.png","","","learning","2","-5","2","","cactus","plants","2","0","","neutral","0"
"html-keyboard-response","92","517557","0.0-9.0-2.0-0.10","3848","2","15","Female","approach_avoid_spark_v1","""event"",""trial"",""time""
""fullscreenenter"",""1"",""14120""
","
","
","""event"",""trial"",""time""
""fullscreenenter"",""1"",""14120""
","
","","","","","","null","<div style=""font-size:60px;"">+</div>","null","","fixation","","","","","","","","","","",""
"aa-learning-trial","93","520565","0.0-9.0-2.0-1.10","3848","2","15","Female","approach_avoid_spark_v1","""event"",""trial"",""time""
""fullscreenenter"",""1"",""14120""
","
","
","""event"",""trial"",""time""
""fullscreenenter"",""1"",""14120""
","
","","","","","","894.6999999880791","images/flower1.png","","","learning","5","5","1","1","flower","plants","2","0","","good","[6]"
"html-keyboard-response","94","521069","0.0-9.0-2.0-0.11","3848","2","15","Female","approach_avoid_spark_v1","""event"",""trial"",""time""
""fullscreenenter"",""1"",""14120""
","
","
","""event"",""trial"",""time""
""fullscreenenter"",""1"",""14120""
","
","","","","","","null","<div style=""font-size:60px;"">+</div>","null","","fixation","","","","","","","","","","",""
"aa-learning-trial","95","524077","0.0-9.0-2.0-1.11","3848","2","15","Female","approach_avoid_spark_v1","""event"",""trial"",""time""
""fullscreenenter"",""1"",""14120""
","
","
","""event"",""trial"",""time""
""fullscreenenter"",""1"",""14120""
","
","","","","","","918","images/tree8.png","","","learning","-7","-7","1","1","tree","plants","2","0","","bad","[-4]"
"html-keyboard-response","96","524581","0.0-9.0-2.0-0.12","3848","2","15","Female","approach_avoid_spark_v1","""event"",""trial"",""time""
""fullscreenenter"",""1"",""14120""
","
","
","""event"",""trial"",""time""
""fullscreenenter"",""1"",""14120""
","
","","","","","","null","<div style=""font-size:60px;"">+</div>","null","","fixation","","","","","","","","","","",""
"aa-learning-trial","97","527589","0.0-9.0-2.0-1.12","3848","2","15","Female","approach_avoid_spark_v1","""event"",""trial"",""time""
""fullscreenenter"",""1"",""14120""
","
","
","""event"",""trial"",""time""
""fullscreenenter"",""1"",""14120""
","
","","","","","","1053.0999999940395","images/tree8.png","","","learning","-7","-5","2","","tree","plants","2","0","","bad","[-4]"
"html-keyboard-response","98","528093","0.0-9.0-2.0-0.13","3848","2","15","Female","approach_avoid_spark_v1","""event"",""trial"",""time""
""fullscreenenter"",""1"",""14120""
","
","
","""event"",""trial"",""time""
""fullscreenenter"",""1"",""14120""
","
","","","","","","null","<div style=""font-size:60px;"">+</div>","null","","fixation","","","","","","","","","","",""
"aa-learning-trial","99","531101","0.0-9.0-2.0-1.13","3848","2","15","Female","approach_avoid_spark_v1","""event"",""trial"",""time""
""fullscreenenter"",""1"",""14120""
","
","
","""event"",""trial"",""time""
""fullscreenenter"",""1"",""14120""
","
","","","","","","782.2000000178814","images/flower1.png","","","learning","5","5","1","1","flower","plants","2","0","","good","[6]"
"html-keyboard-response","100","531605","0.0-9.0-2.0-0.14","3848","2","15","Female","approach_avoid_spark_v1","""event"",""trial"",""time""
""fullscreenenter"",""1"",""14120""
","
","
","""event"",""trial"",""time""
""fullscreenenter"",""1"",""14120""
","
","","","","","","null","<div style=""font-size:60px;"">+</div>","null","","fixation","","","","","","","","","","",""
"aa-learning-trial","101","534613","0.0-9.0-2.0-1.14","3848","2","15","Female","approach_avoid_spark_v1","""event"",""trial"",""time""
""fullscreenenter"",""1"",""14120""
","
","
","""event"",""trial"",""time""
""fullscreenenter"",""1"",""14120""
","
","","","","","","1157.6000000238419","images/tree5.png","","","learning","8","-5","2","","tree","plants","2","0","","bad","[-4]"
"html-keyboard-response","102","535116","0.0-9.0-2.0-0.15","3848","2","15","Female","approach_avoid_spark_v1","""event"",""trial"",""time""
""fullscreenenter"",""1"",""14120""
","
","
","""event"",""trial"",""time""
""fullscreenenter"",""1"",""14120""
","
","","","","","","null","<div style=""font-size:60px;"">+</div>","null","","fixation","","","","","","","","","","",""
"aa-learning-trial","103","538125","0.0-9.0-2.0-1.15","3848","2","15","Female","approach_avoid_spark_v1","""event"",""trial"",""time""
""fullscreenenter"",""1"",""14120""
","
","
","""event"",""trial"",""time""
""fullscreenenter"",""1"",""14120""
","
","","","","","","849.8000000119209","images/cactus3.png","","","learning","4","-5","2","","cactus","plants","2","0","","neutral","0"
"html-keyboard-response","104","538628","0.0-9.0-2.0-0.16","3848","2","15","Female","approach_avoid_spark_v1","""event"",""trial"",""time""
""fullscreenenter"",""1"",""14120""
","
","
","""event"",""trial"",""time""
""fullscreenenter"",""1"",""14120""
","
","","","","","","null","<div style=""font-size:60px;"">+</div>","null","","fixation","","","","","","","","","","",""
"aa-learning-trial","105","541636","0.0-9.0-2.0-1.16","3848","2","15","Female","approach_avoid_spark_v1","""event"",""trial"",""time""
""fullscreenenter"",""1"",""14120""
","
","
","""event"",""trial"",""time""
""fullscreenenter"",""1"",""14120""
","
","","","","","","1290","images/tree5.png","","","learning","8","-5","2","","tree","plants","2","0","","bad","[-4]"
"html-keyboard-response","106","542140","0.0-9.0-2.0-0.17","3848","2","15","Female","approach_avoid_spark_v1","""event"",""trial"",""time""
""fullscreenenter"",""1"",""14120""
","
","
","""event"",""trial"",""time""
""fullscreenenter"",""1"",""14120""
","
","","","","","","null","<div style=""font-size:60px;"">+</div>","null","","fixation","","","","","","","","","","",""
"aa-learning-trial","107","545148","0.0-9.0-2.0-1.17","3848","2","15","Female","approach_avoid_spark_v1","""event"",""trial"",""time""
""fullscreenenter"",""1"",""14120""
","
","
","""event"",""trial"",""time""
""fullscreenenter"",""1"",""14120""
","
","","","","","","1123.2999999821186","images/tree2.png","","","learning","1","1","1","1","tree","plants","2","0","","bad","[-4]"
"html-keyboard-response","108","545652","0.0-9.0-2.0-0.18","3848","2","15","Female","approach_avoid_spark_v1","""event"",""trial"",""time""
""fullscreenenter"",""1"",""14120""
","
","
","""event"",""trial"",""time""
""fullscreenenter"",""1"",""14120""
","
","","","","","","null","<div style=""font-size:60px;"">+</div>","null","","fixation","","","","","","","","","","",""
"aa-learning-trial","109","548660","0.0-9.0-2.0-1.18","3848","2","15","Female","approach_avoid_spark_v1","""event"",""trial"",""time""
""fullscreenenter"",""1"",""14120""
","
","
","""event"",""trial"",""time""
""fullscreenenter"",""1"",""14120""
","
","","","","","","655.5","images/flower5.png","","","learning","-6","-6","1","1","flower","plants","2","0","","good","[6]"
"html-keyboard-response","110","549164","0.0-9.0-2.0-0.19","3848","2","15","Female","approach_avoid_spark_v1","""event"",""trial"",""time""
""fullscreenenter"",""1"",""14120""
","
","
","""event"",""trial"",""time""
""fullscreenenter"",""1"",""14120""
","
","","","","","","null","<div style=""font-size:60px;"">+</div>","null","","fixation","","","","","","","","","","",""
"aa-learning-trial","111","552172","0.0-9.0-2.0-1.19","3848","2","15","Female","approach_avoid_spark_v1","""event"",""trial"",""time""
""fullscreenenter"",""1"",""14120""
","
","
","""event"",""trial"",""time""
""fullscreenenter"",""1"",""14120""
","
","","","","","","951.3000000119209","images/cactus4.png","","","learning","-5","-5","2","","cactus","plants","2","0","","neutral","0"
"html-keyboard-response","112","552676","0.0-9.0-2.0-0.20","3848","2","15","Female","approach_avoid_spark_v1","""event"",""trial"",""time""
""fullscreenenter"",""1"",""14120""
","
","
","""event"",""trial"",""time""
""fullscreenenter"",""1"",""14120""
","
","","","","","","null","<div style=""font-size:60px;"">+</div>","null","","fixation","","","","","","","","","","",""
"aa-learning-trial","113","555684","0.0-9.0-2.0-1.20","3848","2","15","Female","approach_avoid_spark_v1","""event"",""trial"",""time""
""fullscreenenter"",""1"",""14120""
","
","
","""event"",""trial"",""time""
""fullscreenenter"",""1"",""14120""
","
","","","","","","733.8999999761581","images/flower5.png","","","learning","-6","-6","1","1","flower","plants","2","0","","good","[6]"
"html-keyboard-response","114","556188","0.0-9.0-2.0-0.21","3848","2","15","Female","approach_avoid_spark_v1","""event"",""trial"",""time""
""fullscreenenter"",""1"",""14120""
","
","
","""event"",""trial"",""time""
""fullscreenenter"",""1"",""14120""
","
","","","","","","null","<div style=""font-size:60px;"">+</div>","null","","fixation","","","","","","","","","","",""
"aa-learning-trial","115","559196","0.0-9.0-2.0-1.21","3848","2","15","Female","approach_avoid_spark_v1","""event"",""trial"",""time""
""fullscreenenter"",""1"",""14120""
","
","
","""event"",""trial"",""time""
""fullscreenenter"",""1"",""14120""
","
","","","","","","782.2000000178814","images/flower1.png","","","learning","5","5","1","1","flower","plants","2","0","","good","[6]"
"html-keyboard-response","116","559700","0.0-9.0-2.0-0.22","3848","2","15","Female","approach_avoid_spark_v1","""event"",""trial"",""time""
""fullscreenenter"",""1"",""14120""
","
","
","""event"",""trial"",""time""
""fullscreenenter"",""1"",""14120""
","
","","","","","","null","<div style=""font-size:60px;"">+</div>","null","","fixation","","","","","","","","","","",""
"aa-learning-trial","117","562708","0.0-9.0-2.0-1.22","3848","2","15","Female","approach_avoid_spark_v1","""event"",""trial"",""time""
""fullscreenenter"",""1"",""14120""
","
","
","""event"",""trial"",""time""
""fullscreenenter"",""1"",""14120""
","
","","","","","","1245.5","images/tree8.png","","","learning","-7","-5","2","","tree","plants","2","0","","bad","[-4]"
"html-keyboard-response","118","563212","0.0-9.0-2.0-0.23","3848","2","15","Female","approach_avoid_spark_v1","""event"",""trial"",""time""
""fullscreenenter"",""1"",""14120""
","
","
","""event"",""trial"",""time""
""fullscreenenter"",""1"",""14120""
","
","","","","","","null","<div style=""font-size:60px;"">+</div>","null","","fixation","","","","","","","","","","",""
"aa-learning-trial","119","566220","0.0-9.0-2.0-1.23","3848","2","15","Female","approach_avoid_spark_v1","""event"",""trial"",""time""
""fullscreenenter"",""1"",""14120""
","
","
","""event"",""trial"",""time""
""fullscreenenter"",""1"",""14120""
","
","","","","","","747.1999999880791","images/flower8.png","","","learning","-1","-1","1","1","flower","plants","2","0","","good","[6]"
"html-keyboard-response","120","566723","0.0-9.0-2.0-0.24","3848","2","15","Female","approach_avoid_spark_v1","""event"",""trial"",""time""
""fullscreenenter"",""1"",""14120""
","
","
","""event"",""trial"",""time""
""fullscreenenter"",""1"",""14120""
","
","","","","","","null","<div style=""font-size:60px;"">+</div>","null","","fixation","","","","","","","","","","",""
"aa-learning-trial","121","569732","0.0-9.0-2.0-1.24","3848","2","15","Female","approach_avoid_spark_v1","""event"",""trial"",""time""
""fullscreenenter"",""1"",""14120""
","
","
","""event"",""trial"",""time""
""fullscreenenter"",""1"",""14120""
","
","","","","","","866.2999999821186","images/cactus3.png","","","learning","4","-5","2","","cactus","plants","2","0","","neutral","0"
"html-keyboard-response","122","570235","0.0-9.0-2.0-0.25","3848","2","15","Female","approach_avoid_spark_v1","""event"",""trial"",""time""
""fullscreenenter"",""1"",""14120""
","
","
","""event"",""trial"",""time""
""fullscreenenter"",""1"",""14120""
","
","","","","","","null","<div style=""font-size:60px;"">+</div>","null","","fixation","","","","","","","","","","",""
"aa-learning-trial","123","573244","0.0-9.0-2.0-1.25","3848","2","15","Female","approach_avoid_spark_v1","""event"",""trial"",""time""
""fullscreenenter"",""1"",""14120""
","
","
","""event"",""trial"",""time""
""fullscreenenter"",""1"",""14120""
","
","","","","","","1463.0999999940395","images/tree6.png","","","learning","-3","-3","1","1","tree","plants","2","0","","bad","[-4]"
"html-keyboard-response","124","573747","0.0-9.0-2.0-0.26","3848","2","15","Female","approach_avoid_spark_v1","""event"",""trial"",""time""
""fullscreenenter"",""1"",""14120""
","
","
","""event"",""trial"",""time""
""fullscreenenter"",""1"",""14120""
","
","","","","","","null","<div style=""font-size:60px;"">+</div>","null","","fixation","","","","","","","","","","",""
"aa-learning-trial","125","576755","0.0-9.0-2.0-1.26","3848","2","15","Female","approach_avoid_spark_v1","""event"",""trial"",""time""
""fullscreenenter"",""1"",""14120""
","
","
","""event"",""trial"",""time""
""fullscreenenter"",""1"",""14120""
","
","","","","","","1052.1000000238419","images/cactus4.png","","","learning","-5","-5","2","","cactus","plants","2","0","","neutral","0"
"html-keyboard-response","126","577259","0.0-9.0-2.0-0.27","3848","2","15","Female","approach_avoid_spark_v1","""event"",""trial"",""time""
""fullscreenenter"",""1"",""14120""
","
","
","""event"",""trial"",""time""
""fullscreenenter"",""1"",""14120""
","
","","","","","","null","<div style=""font-size:60px;"">+</div>","null","","fixation","","","","","","","","","","",""
"aa-learning-trial","127","580267","0.0-9.0-2.0-1.27","3848","2","15","Female","approach_avoid_spark_v1","""event"",""trial"",""time""
""fullscreenenter"",""1"",""14120""
","
","
","""event"",""trial"",""time""
""fullscreenenter"",""1"",""14120""
","
","","","","","","null","images/tree8.png","","","learning","-7","-5","","null","tree","plants","2","0","","bad","[-4]"
"html-keyboard-response","128","580771","0.0-9.0-2.0-0.28","3848","2","15","Female","approach_avoid_spark_v1","""event"",""trial"",""time""
""fullscreenenter"",""1"",""14120""
","
","
","""event"",""trial"",""time""
""fullscreenenter"",""1"",""14120""
","
","","","","","","null","<div style=""font-size:60px;"">+</div>","null","","fixation","","","","","","","","","","",""
"aa-learning-trial","129","583783","0.0-9.0-2.0-1.28","3848","2","15","Female","approach_avoid_spark_v1","""event"",""trial"",""time""
""fullscreenenter"",""1"",""14120""
","
","
","""event"",""trial"",""time""
""fullscreenenter"",""1"",""14120""
","
","","","","","","1698.699999988079","images/flower7.png","","","learning","6","6","1","1","flower","plants","2","0","","good","[6]"
"html-keyboard-response","130","584291","0.0-9.0-2.0-0.29","3848","2","15","Female","approach_avoid_spark_v1","""event"",""trial"",""time""
""fullscreenenter"",""1"",""14120""
","
","
","""event"",""trial"",""time""
""fullscreenenter"",""1"",""14120""
","
","","","","","","null","<div style=""font-size:60px;"">+</div>","null","","fixation","","","","","","","","","","",""
"aa-learning-trial","131","587299","0.0-9.0-2.0-1.29","3848","2","15","Female","approach_avoid_spark_v1","""event"",""trial"",""time""
""fullscreenenter"",""1"",""14120""
","
","
","""event"",""trial"",""time""
""fullscreenenter"",""1"",""14120""
","
","","","","","","830.6000000238419","images/cactus1.png","","","learning","7","0","0","0","cactus","plants","2","0","","neutral","0"
"html-keyboard-response","132","587803","0.0-9.0-2.0-0.30","3848","2","15","Female","approach_avoid_spark_v1","""event"",""trial"",""time""
""fullscreenenter"",""1"",""14120""
","
","
","""event"",""trial"",""time""
""fullscreenenter"",""1"",""14120""
","
","","","","","","null","<div style=""font-size:60px;"">+</div>","null","","fixation","","","","","","","","","","",""
"aa-learning-trial","133","590811","0.0-9.0-2.0-1.30","3848","2","15","Female","approach_avoid_spark_v1","""event"",""trial"",""time""
""fullscreenenter"",""1"",""14120""
","
","
","""event"",""trial"",""time""
""fullscreenenter"",""1"",""14120""
","
","","","","","","1740.0999999940395","images/cactus7.png","","","learning","2","0","0","0","cactus","plants","2","0","","neutral","0"
"html-keyboard-response","134","591315","0.0-9.0-2.0-0.31","3848","2","15","Female","approach_avoid_spark_v1","""event"",""trial"",""time""
""fullscreenenter"",""1"",""14120""
","
","
","""event"",""trial"",""time""
""fullscreenenter"",""1"",""14120""
","
","","","","","","null","<div style=""font-size:60px;"">+</div>","null","","fixation","","","","","","","","","","",""
"aa-learning-trial","135","594323","0.0-9.0-2.0-1.31","3848","2","15","Female","approach_avoid_spark_v1","""event"",""trial"",""time""
""fullscreenenter"",""1"",""14120""
","
","
","""event"",""trial"",""time""
""fullscreenenter"",""1"",""14120""
","
","","","","","","999.1000000238419","images/tree8.png","","","learning","-7","0","0","0","tree","plants","2","0","","bad","[-4]"
"html-keyboard-response","136","594827","0.0-9.0-2.0-0.32","3848","2","15","Female","approach_avoid_spark_v1","""event"",""trial"",""time""
""fullscreenenter"",""1"",""14120""
","
","
","""event"",""trial"",""time""
""fullscreenenter"",""1"",""14120""
","
","","","","","","null","<div style=""font-size:60px;"">+</div>","null","","fixation","","","","","","","","","","",""
"aa-learning-trial","137","597835","0.0-9.0-2.0-1.32","3848","2","15","Female","approach_avoid_spark_v1","""event"",""trial"",""time""
""fullscreenenter"",""1"",""14120""
","
","
","""event"",""trial"",""time""
""fullscreenenter"",""1"",""14120""
","
","","","","","","1015.2000000178814","images/cactus4.png","","","learning","-5","0","0","0","cactus","plants","2","0","","neutral","0"
"html-keyboard-response","138","598339","0.0-9.0-2.0-0.33","3848","2","15","Female","approach_avoid_spark_v1","""event"",""trial"",""time""
""fullscreenenter"",""1"",""14120""
","
","
","""event"",""trial"",""time""
""fullscreenenter"",""1"",""14120""
","
","","","","","","null","<div style=""font-size:60px;"">+</div>","null","","fixation","","","","","","","","","","",""
"aa-learning-trial","139","601347","0.0-9.0-2.0-1.33","3848","2","15","Female","approach_avoid_spark_v1","""event"",""trial"",""time""
""fullscreenenter"",""1"",""14120""
","
","
","""event"",""trial"",""time""
""fullscreenenter"",""1"",""14120""
","
","","","","","","1005.5999999940395","images/cactus4.png","","","learning","-5","0","0","0","cactus","plants","2","0","","neutral","0"
"html-keyboard-response","140","601851","0.0-9.0-2.0-0.34","3848","2","15","Female","approach_avoid_spark_v1","""event"",""trial"",""time""
""fullscreenenter"",""1"",""14120""
","
","
","""event"",""trial"",""time""
""fullscreenenter"",""1"",""14120""
","
","","","","","","null","<div style=""font-size:60px;"">+</div>","null","","fixation","","","","","","","","","","",""
"aa-learning-trial","141","604859","0.0-9.0-2.0-1.34","3848","2","15","Female","approach_avoid_spark_v1","""event"",""trial"",""time""
""fullscreenenter"",""1"",""14120""
","
","
","""event"",""trial"",""time""
""fullscreenenter"",""1"",""14120""
","
","","","","","","1315","images/tree6.png","","","learning","-3","0","0","0","tree","plants","2","0","","bad","[-4]"
"html-keyboard-response","142","605362","0.0-9.0-2.0-0.35","3848","2","15","Female","approach_avoid_spark_v1","""event"",""trial"",""time""
""fullscreenenter"",""1"",""14120""
","
","
","""event"",""trial"",""time""
""fullscreenenter"",""1"",""14120""
","
","","","","","","null","<div style=""font-size:60px;"">+</div>","null","","fixation","","","","","","","","","","",""
"aa-learning-trial","143","608370","0.0-9.0-2.0-1.35","3848","2","15","Female","approach_avoid_spark_v1","""event"",""trial"",""time""
""fullscreenenter"",""1"",""14120""
","
","
","""event"",""trial"",""time""
""fullscreenenter"",""1"",""14120""
","
","","","","","","929.1999999880791","images/flower7.png","","","learning","6","6","1","1","flower","plants","2","0","","good","[6]"
"html-keyboard-response","144","608874","0.0-9.0-2.0-0.36","3848","2","15","Female","approach_avoid_spark_v1","""event"",""trial"",""time""
""fullscreenenter"",""1"",""14120""
","
","
","""event"",""trial"",""time""
""fullscreenenter"",""1"",""14120""
","
","","","","","","null","<div style=""font-size:60px;"">+</div>","null","","fixation","","","","","","","","","","",""
"aa-learning-trial","145","611882","0.0-9.0-2.0-1.36","3848","2","15","Female","approach_avoid_spark_v1","""event"",""trial"",""time""
""fullscreenenter"",""1"",""14120""
","
","
","""event"",""trial"",""time""
""fullscreenenter"",""1"",""14120""
","
","","","","","","751.1999999880791","images/flower2.png","","","learning","-4","-4","1","1","flower","plants","2","0","","good","[6]"
"html-keyboard-response","146","612386","0.0-9.0-2.0-0.37","3848","2","15","Female","approach_avoid_spark_v1","""event"",""trial"",""time""
""fullscreenenter"",""1"",""14120""
","
","
","""event"",""trial"",""time""
""fullscreenenter"",""1"",""14120""
","
","","","","","","null","<div style=""font-size:60px;"">+</div>","null","","fixation","","","","","","","","","","",""
"aa-learning-trial","147","615394","0.0-9.0-2.0-1.37","3848","2","15","Female","approach_avoid_spark_v1","""event"",""trial"",""time""
""fullscreenenter"",""1"",""14120""
","
","
","""event"",""trial"",""time""
""fullscreenenter"",""1"",""14120""
","
","","","","","","929.5999999940395","images/tree5.png","","","learning","8","0","0","0","tree","plants","2","0","","bad","[-4]"
"html-keyboard-response","148","615898","0.0-9.0-2.0-0.38","3848","2","15","Female","approach_avoid_spark_v1","""event"",""trial"",""time""
""fullscreenenter"",""1"",""14120""
","
","
","""event"",""trial"",""time""
""fullscreenenter"",""1"",""14120""
","
","","","","","","null","<div style=""font-size:60px;"">+</div>","null","","fixation","","","","","","","","","","",""
"aa-learning-trial","149","618906","0.0-9.0-2.0-1.38","3848","2","15","Female","approach_avoid_spark_v1","""event"",""trial"",""time""
""fullscreenenter"",""1"",""14120""
","
","
","""event"",""trial"",""time""
""fullscreenenter"",""1"",""14120""
","
","","","","","","907.9000000059605","images/tree8.png","","","learning","-7","0","0","0","tree","plants","2","0","","bad","[-4]"
"html-keyboard-response","150","619410","0.0-9.0-2.0-0.39","3848","2","15","Female","approach_avoid_spark_v1","""event"",""trial"",""time""
""fullscreenenter"",""1"",""14120""
","
","
","""event"",""trial"",""time""
""fullscreenenter"",""1"",""14120""
","
","","","","","","null","<div style=""font-size:60px;"">+</div>","null","","fixation","","","","","","","","","","",""
"aa-learning-trial","151","622418","0.0-9.0-2.0-1.39","3848","2","15","Female","approach_avoid_spark_v1","""event"",""trial"",""time""
""fullscreenenter"",""1"",""14120""
","
","
","""event"",""trial"",""time""
""fullscreenenter"",""1"",""14120""
","
","","","","","","873.9000000059605","images/cactus8.png","","","learning","-8","0","0","0","cactus","plants","2","0","","neutral","0"
"html-keyboard-response","152","622922","0.0-9.0-2.0-0.40","3848","2","15","Female","approach_avoid_spark_v1","""event"",""trial"",""time""
""fullscreenenter"",""1"",""14120""
","
","
","""event"",""trial"",""time""
""fullscreenenter"",""1"",""14120""
","
","","","","","","null","<div style=""font-size:60px;"">+</div>","null","","fixation","","","","","","","","","","",""
"aa-learning-trial","153","625929","0.0-9.0-2.0-1.40","3848","2","15","Female","approach_avoid_spark_v1","""event"",""trial"",""time""
""fullscreenenter"",""1"",""14120""
","
","
","""event"",""trial"",""time""
""fullscreenenter"",""1"",""14120""
","
","","","","","","842.0999999940395","images/flower1.png","","","learning","5","5","1","1","flower","plants","2","0","","good","[6]"
"html-keyboard-response","154","626434","0.0-9.0-2.0-0.41","3848","2","15","Female","approach_avoid_spark_v1","""event"",""trial"",""time""
""fullscreenenter"",""1"",""14120""
","
","
","""event"",""trial"",""time""
""fullscreenenter"",""1"",""14120""
","
","","","","","","null","<div style=""font-size:60px;"">+</div>","null","","fixation","","","","","","","","","","",""
"aa-learning-trial","155","629442","0.0-9.0-2.0-1.41","3848","2","15","Female","approach_avoid_spark_v1","""event"",""trial"",""time""
""fullscreenenter"",""1"",""14120""
","
","
","""event"",""trial"",""time""
""fullscreenenter"",""1"",""14120""
","
","","","","","","1423.5","images/tree7.png","","","learning","3","3","1","1","tree","plants","2","0","","bad","[-4]"
"html-keyboard-response","156","629946","0.0-9.0-2.0-0.42","3848","2","15","Female","approach_avoid_spark_v1","""event"",""trial"",""time""
""fullscreenenter"",""1"",""14120""
","
","
","""event"",""trial"",""time""
""fullscreenenter"",""1"",""14120""
","
","","","","","","null","<div style=""font-size:60px;"">+</div>","null","","fixation","","","","","","","","","","",""
"aa-learning-trial","157","632954","0.0-9.0-2.0-1.42","3848","2","15","Female","approach_avoid_spark_v1","""event"",""trial"",""time""
""fullscreenenter"",""1"",""14120""
","
","
","""event"",""trial"",""time""
""fullscreenenter"",""1"",""14120""
","
","","","","","","811","images/flower7.png","","","learning","6","6","1","1","flower","plants","2","0","","good","[6]"
"html-keyboard-response","158","633458","0.0-9.0-2.0-0.43","3848","2","15","Female","approach_avoid_spark_v1","""event"",""trial"",""time""
""fullscreenenter"",""1"",""14120""
","
","
","""event"",""trial"",""time""
""fullscreenenter"",""1"",""14120""
","
","","","","","","null","<div style=""font-size:60px;"">+</div>","null","","fixation","","","","","","","","","","",""
"aa-learning-trial","159","636466","0.0-9.0-2.0-1.43","3848","2","15","Female","approach_avoid_spark_v1","""event"",""trial"",""time""
""fullscreenenter"",""1"",""14120""
","
","
","""event"",""trial"",""time""
""fullscreenenter"",""1"",""14120""
","
","","","","","","652.9000000059605","images/flower1.png","","","learning","5","5","1","1","flower","plants","2","0","","good","[6]"
"html-keyboard-response","160","636969","0.0-9.0-2.0-0.44","3848","2","15","Female","approach_avoid_spark_v1","""event"",""trial"",""time""
""fullscreenenter"",""1"",""14120""
","
","
","""event"",""trial"",""time""
""fullscreenenter"",""1"",""14120""
","
","","","","","","null","<div style=""font-size:60px;"">+</div>","null","","fixation","","","","","","","","","","",""
"aa-learning-trial","161","639978","0.0-9.0-2.0-1.44","3848","2","15","Female","approach_avoid_spark_v1","""event"",""trial"",""time""
""fullscreenenter"",""1"",""14120""
","
","
","""event"",""trial"",""time""
""fullscreenenter"",""1"",""14120""
","
","","","","","","702.0999999940395","images/flower1.png","","","learning","5","5","1","1","flower","plants","2","0","","good","[6]"
"html-keyboard-response","162","640481","0.0-9.0-2.0-0.45","3848","2","15","Female","approach_avoid_spark_v1","""event"",""trial"",""time""
""fullscreenenter"",""1"",""14120""
","
","
","""event"",""trial"",""time""
""fullscreenenter"",""1"",""14120""
","
","","","","","","null","<div style=""font-size:60px;"">+</div>","null","","fixation","","","","","","","","","","",""
"aa-learning-trial","163","643490","0.0-9.0-2.0-1.45","3848","2","15","Female","approach_avoid_spark_v1","""event"",""trial"",""time""
""fullscreenenter"",""1"",""14120""
","
","
","""event"",""trial"",""time""
""fullscreenenter"",""1"",""14120""
","
","","","","","","798.4000000059605","images/cactus7.png","","","learning","2","0","0","0","cactus","plants","2","0","","neutral","0"
"html-keyboard-response","164","643993","0.0-9.0-2.0-0.46","3848","2","15","Female","approach_avoid_spark_v1","""event"",""trial"",""time""
""fullscreenenter"",""1"",""14120""
","
","
","""event"",""trial"",""time""
""fullscreenenter"",""1"",""14120""
","
","","","","","","null","<div style=""font-size:60px;"">+</div>","null","","fixation","","","","","","","","","","",""
"aa-learning-trial","165","647001","0.0-9.0-2.0-1.46","3848","2","15","Female","approach_avoid_spark_v1","""event"",""trial"",""time""
""fullscreenenter"",""1"",""14120""
","
","
","""event"",""trial"",""time""
""fullscreenenter"",""1"",""14120""
","
","","","","","","1359.800000011921","images/cactus3.png","","","learning","4","0","0","0","cactus","plants","2","0","","neutral","0"
"html-keyboard-response","166","647505","0.0-9.0-2.0-0.47","3848","2","15","Female","approach_avoid_spark_v1","""event"",""trial"",""time""
""fullscreenenter"",""1"",""14120""
","
","
","""event"",""trial"",""time""
""fullscreenenter"",""1"",""14120""
","
","","","","","","null","<div style=""font-size:60px;"">+</div>","null","","fixation","","","","","","","","","","",""
"aa-learning-trial","167","650513","0.0-9.0-2.0-1.47","3848","2","15","Female","approach_avoid_spark_v1","""event"",""trial"",""time""
""fullscreenenter"",""1"",""14120""
","
","
","""event"",""trial"",""time""
""fullscreenenter"",""1"",""14120""
","
","","","","","","1426.800000011921","images/cactus3.png","","","learning","4","0","0","0","cactus","plants","2","0","","neutral","0"
"html-keyboard-response","168","651017","0.0-9.0-2.0-0.48","3848","2","15","Female","approach_avoid_spark_v1","""event"",""trial"",""time""
""fullscreenenter"",""1"",""14120""
","
","
","""event"",""trial"",""time""
""fullscreenenter"",""1"",""14120""
","
","","","","","","null","<div style=""font-size:60px;"">+</div>","null","","fixation","","","","","","","","","","",""
"aa-learning-trial","169","654025","0.0-9.0-2.0-1.48","3848","2","15","Female","approach_avoid_spark_v1","""event"",""trial"",""time""
""fullscreenenter"",""1"",""14120""
","
","
","""event"",""trial"",""time""
""fullscreenenter"",""1"",""14120""
","
","","","","","","1450.300000011921","images/tree5.png","","","learning","8","8","1","1","tree","plants","2","0","","bad","[-4]"
"html-keyboard-response","170","654529","0.0-9.0-2.0-0.49","3848","2","15","Female","approach_avoid_spark_v1","""event"",""trial"",""time""
""fullscreenenter"",""1"",""14120""
","
","
","""event"",""trial"",""time""
""fullscreenenter"",""1"",""14120""
","
","","","","","","null","<div style=""font-size:60px;"">+</div>","null","","fixation","","","","","","","","","","",""
"aa-learning-trial","171","657537","0.0-9.0-2.0-1.49","3848","2","15","Female","approach_avoid_spark_v1","""event"",""trial"",""time""
""fullscreenenter"",""1"",""14120""
","
","
","""event"",""trial"",""time""
""fullscreenenter"",""1"",""14120""
","
","","","","","","624.8000000119209","images/tree5.png","","","learning","8","8","1","1","tree","plants","2","0","","bad","[-4]"
"html-keyboard-response","172","658041","0.0-9.0-2.0-0.50","3848","2","15","Female","approach_avoid_spark_v1","""event"",""trial"",""time""
""fullscreenenter"",""1"",""14120""
","
","
","""event"",""trial"",""time""
""fullscreenenter"",""1"",""14120""
","
","","","","","","null","<div style=""font-size:60px;"">+</div>","null","","fixation","","","","","","","","","","",""
"aa-learning-trial","173","661049","0.0-9.0-2.0-1.50","3848","2","15","Female","approach_avoid_spark_v1","""event"",""trial"",""time""
""fullscreenenter"",""1"",""14120""
","
","
","""event"",""trial"",""time""
""fullscreenenter"",""1"",""14120""
","
","","","","","","600.0999999940395","images/flower7.png","","","learning","6","6","1","1","flower","plants","2","0","","good","[6]"
"html-button-response","174","662923","0.0-9.0-3.0","3848","2","15","Female","approach_avoid_spark_v1","""event"",""trial"",""time""
""fullscreenenter"",""1"",""14120""
","
","
","""event"",""trial"",""time""
""fullscreenenter"",""1"",""14120""
","
","","","","","","1871.4000000059605","<p> You have completed the round! <p> In this round, you earned -14 points! </p>","0","","break","","","","","","","","","","",""
"html-button-response","175","663923","0.0-10.0","3848","2","15","Female","approach_avoid_spark_v1","""event"",""trial"",""time""
""fullscreenenter"",""1"",""14120""
","
","
","""event"",""trial"",""time""
""fullscreenenter"",""1"",""14120""
","
","","","","","","997.6999999880791","<p> Now it's time to play another round. </p>","0","","transition_screen","","","","","","","","","","",""
"preload","176","664045","0.0-11.0-0.0","3848","2","15","Female","approach_avoid_spark_v1","""event"",""trial"",""time""
""fullscreenenter"",""1"",""14120""
","
","
","""event"",""trial"",""time""
""fullscreenenter"",""1"",""14120""
","
","true","false","[]","[]","[]","","","","","","","","","","","","","","","",""
"learning-instructions","177","669556","0.0-11.0-1.0-0.0","3848","2","15","Female","approach_avoid_spark_v1","""event"",""trial"",""time""
""fullscreenenter"",""1"",""14120""
","
","
","""event"",""trial"",""time""
""fullscreenenter"",""1"",""14120""
","
","","","","","","2052.5999999940395","<p> Your goal in this round is to eat tasty fruit. </p></div>","","0","instructions","","","","","","","","","","",""
"learning-instructions","178","679873","0.0-11.0-1.0-0.1","3848","2","15","Female","approach_avoid_spark_v1","""event"",""trial"",""time""
""fullscreenenter"",""1"",""14120""
","
","
","""event"",""trial"",""time""
""fullscreenenter"",""1"",""14120""
","
","","","","","","962.8000000119209","<p> Some of the fruits you will see are tasty. Others are rotten on the inside.  </p><p> On each turn, you will see a fruit.   </p><p> You need to decide whether to eat it or not.  </p>","","0","instructions","","","","","","","","","","",""
"learning-instructions","179","686040","0.0-11.0-1.0-0.2","3848","2","15","Female","approach_avoid_spark_v1","""event"",""trial"",""time""
""fullscreenenter"",""1"",""14120""
","
","
","""event"",""trial"",""time""
""fullscreenenter"",""1"",""14120""
","
","","","","","","1544.0999999940395","<p> You can eat the fruit by pressing 1 and choose not to eat it by pressing 0. </p><br><div class=""choice-instructions-grid""> <div class=""choice-option""><img src=""images/approach.png"" class=""choice-option-img"" stage=""instructions"" position=""0"" ><div class=""choice-option-text""> Press ""1."" </div></div><div class=""choice-option""><img src=""images/avoid.png"" class=""choice-option-img"" stage=""instructions"" position=""1"" ><div class=""choice-option-text""> Press ""0."" </div></div>","","0","instructions","","","","","","","","","","",""
"learning-instructions","180","694757","0.0-11.0-1.0-0.3","3848","2","15","Female","approach_avoid_spark_v1","""event"",""trial"",""time""
""fullscreenenter"",""1"",""14120""
","
","
","""event"",""trial"",""time""
""fullscreenenter"",""1"",""14120""
","
","","","","","","1641.3999999761581","<p> If you eat the fruit and it was tasty, you will win points! </p><p> But if you eat the fruit and it was rotten, you will lose points. </p>","","0","instructions","","","","","","","","","","",""
"learning-instructions","181","706806","0.0-11.0-1.0-0.4","3848","2","15","Female","approach_avoid_spark_v1","""event"",""trial"",""time""
""fullscreenenter"",""1"",""14120""
","
","
","""event"",""trial"",""time""
""fullscreenenter"",""1"",""14120""
","
","","","","","","1181.5","<p> You will earn points based on how tasty or rotten the fruit was. </p><p> If it was tasty, you will WIN anywhere from 1 - 9 points, </p><p> but if it was rotten, you will LOSE anywhere from 1 - 9 points. </p>","","0","instructions","","","","","","","","","","",""
"learning-instructions","182","714656","0.0-11.0-1.0-0.5","3848","2","15","Female","approach_avoid_spark_v1","""event"",""trial"",""time""
""fullscreenenter"",""1"",""14120""
","
","
","""event"",""trial"",""time""
""fullscreenenter"",""1"",""14120""
","
","","","","","","1194.2999999821186","<p> You will see how many points you won or lost in the center of the screen. </p><p> Here is what you would see if you earned 5 points: </p><p style=""color:green;font-size:50px;font-weight:bolder"">5</p>","","0","instructions","","","","","","","","","","",""
"learning-instructions","183","719023","0.0-11.0-1.0-0.6","3848","2","15","Female","approach_avoid_spark_v1","""event"",""trial"",""time""
""fullscreenenter"",""1"",""14120""
","
","
","""event"",""trial"",""time""
""fullscreenenter"",""1"",""14120""
","
","","","","","","1532.7000000178814","<p> And here is what you would see if you lost 3 points: </p><p style=""color:red;font-size:50px;font-weight:bolder"">-3</p>","","0","instructions","","","","","","","","","","",""
"learning-instructions","184","733273","0.0-11.0-1.0-0.7","3848","2","15","Female","approach_avoid_spark_v1","""event"",""trial"",""time""
""fullscreenenter"",""1"",""14120""
","
","
","""event"",""trial"",""time""
""fullscreenenter"",""1"",""14120""
","
","","","","","","898.5999999940395","<p> Some fruit is very tasty or very rotten. </p><p> These fruits will make you win or lose LOTS of points. </p><p> Other fruits are only kind of tasty or kind of rotten. </p><p> These fruits will make you win or lose small amounts of points. </p>","","0","instructions","","","","","","","","","","",""
"learning-instructions","185","744739","0.0-11.0-1.0-0.8","3848","2","15","Female","approach_avoid_spark_v1","""event"",""trial"",""time""
""fullscreenenter"",""1"",""14120""
","
","
","""event"",""trial"",""time""
""fullscreenenter"",""1"",""14120""
","
","","","","","","1463.5","<p> If you choose to not eat the fruit, you will not win or lose any points. </p><p>  However, in the center of the screen, you will see the number of points you WOULD HAVE earned if you had eaten the fruit. </p>","","0","instructions","","","","","","","","","","",""
"learning-instructions","186","756806","0.0-11.0-1.0-0.9","3848","2","15","Female","approach_avoid_spark_v1","""event"",""trial"",""time""
""fullscreenenter"",""1"",""14120""
","
","
","""event"",""trial"",""time""
""fullscreenenter"",""1"",""14120""
","
","","","","","","2570.4000000059605","<p> Here is what you might see if you did not eat the fruit but the fruit was tasty: </p><p style=""color:grey; font-size:50px; display: inline-block; border-spacing: 15px; border-width:3px; border-style:solid; border-color:red"">  &nbsp; 6 &nbsp; </p><p> Remember, in this case, you would not win or lose ANY points because you did not eat the fruit.  </p>","","0","instructions","","","","","","","","","","",""
"learning-instructions","187","766739","0.0-11.0-1.0-0.10","3848","2","15","Female","approach_avoid_spark_v1","""event"",""trial"",""time""
""fullscreenenter"",""1"",""14120""
","
","
","""event"",""trial"",""time""
""fullscreenenter"",""1"",""14120""
","
","","","","","","2385.300000011921","<p> Try to make the best choice for each fruit because </p><p> at the end of the game, you will earn bonus money based on how many points you earned. </p>","","0","instructions","","","","","","","","","","",""
"learning-instructions","188","776489","0.0-11.0-1.0-0.11","3848","2","15","Female","approach_avoid_spark_v1","""event"",""trial"",""time""
""fullscreenenter"",""1"",""14120""
","
","
","""event"",""trial"",""time""
""fullscreenenter"",""1"",""14120""
","
","","","","","","1559.199999988079","<p> You will have 3 seconds to make each choice. Try to respond before time runs out! </p><p> You will lose 5 points each time you do not make a response. </p>","","0","instructions","","","","","","","","","","",""
"html-keyboard-response","189","777113","0.0-11.0-2.0-0.0","3848","2","15","Female","approach_avoid_spark_v1","""event"",""trial"",""time""
""fullscreenenter"",""1"",""14120""
","
","
","""event"",""trial"",""time""
""fullscreenenter"",""1"",""14120""
","
","","","","","","null","<div style=""font-size:60px;"">+</div>","null","","fixation","","","","","","","","","","",""
"aa-learning-trial","190","780125","0.0-11.0-2.0-1.0","3848","2","15","Female","approach_avoid_spark_v1","""event"",""trial"",""time""
""fullscreenenter"",""1"",""14120""
","
","
","""event"",""trial"",""time""
""fullscreenenter"",""1"",""14120""
","
","","","","","","1341","images/banana8.png","","","learning","7","7","1","1","banana","fruit","1","1","","good","[6]"
"html-keyboard-response","191","780633","0.0-11.0-2.0-0.1","3848","2","15","Female","approach_avoid_spark_v1","""event"",""trial"",""time""
""fullscreenenter"",""1"",""14120""
","
","
","""event"",""trial"",""time""
""fullscreenenter"",""1"",""14120""
","
","","","","","","null","<div style=""font-size:60px;"">+</div>","null","","fixation","","","","","","","","","","",""
"aa-learning-trial","192","783645","0.0-11.0-2.0-1.1","3848","2","15","Female","approach_avoid_spark_v1","""event"",""trial"",""time""
""fullscreenenter"",""1"",""14120""
","
","
","""event"",""trial"",""time""
""fullscreenenter"",""1"",""14120""
","
","","","","","","1272.300000011921","images/banana3.png","","","learning","5","0","0","0","banana","fruit","1","1","","good","[6]"
"html-keyboard-response","193","784149","0.0-11.0-2.0-0.2","3848","2","15","Female","approach_avoid_spark_v1","""event"",""trial"",""time""
""fullscreenenter"",""1"",""14120""
","
","
","""event"",""trial"",""time""
""fullscreenenter"",""1"",""14120""
","
","","","","","","null","<div style=""font-size:60px;"">+</div>","null","","fixation","","","","","","","","","","",""
"aa-learning-trial","194","787157","0.0-11.0-2.0-1.2","3848","2","15","Female","approach_avoid_spark_v1","""event"",""trial"",""time""
""fullscreenenter"",""1"",""14120""
","
","
","""event"",""trial"",""time""
""fullscreenenter"",""1"",""14120""
","
","","","","","","784.6999999880791","images/straw2.png","","","learning","-3","-3","1","1","straw","fruit","1","1","","bad","[-5]"
"html-keyboard-response","195","787662","0.0-11.0-2.0-0.3","3848","2","15","Female","approach_avoid_spark_v1","""event"",""trial"",""time""
""fullscreenenter"",""1"",""14120""
","
","
","""event"",""trial"",""time""
""fullscreenenter"",""1"",""14120""
","
","","","","","","null","<div style=""font-size:60px;"">+</div>","null","","fixation","","","","","","","","","","",""
"aa-learning-trial","196","790673","0.0-11.0-2.0-1.3","3848","2","15","Female","approach_avoid_spark_v1","""event"",""trial"",""time""
""fullscreenenter"",""1"",""14120""
","
","
","""event"",""trial"",""time""
""fullscreenenter"",""1"",""14120""
","
","","","","","","1299.199999988079","images/straw5.png","","","learning","-4","-4","1","1","straw","fruit","1","1","","bad","[-5]"
"html-keyboard-response","197","791182","0.0-11.0-2.0-0.4","3848","2","15","Female","approach_avoid_spark_v1","""event"",""trial"",""time""
""fullscreenenter"",""1"",""14120""
","
","
","""event"",""trial"",""time""
""fullscreenenter"",""1"",""14120""
","
","","","","","","null","<div style=""font-size:60px;"">+</div>","null","","fixation","","","","","","","","","","",""
"aa-learning-trial","198","794193","0.0-11.0-2.0-1.4","3848","2","15","Female","approach_avoid_spark_v1","""event"",""trial"",""time""
""fullscreenenter"",""1"",""14120""
","
","
","""event"",""trial"",""time""
""fullscreenenter"",""1"",""14120""
","
","","","","","","1504.300000011921","images/straw7.png","","","learning","-3","-3","1","1","straw","fruit","1","1","","bad","[-5]"
"html-keyboard-response","199","794705","0.0-11.0-2.0-0.5","3848","2","15","Female","approach_avoid_spark_v1","""event"",""trial"",""time""
""fullscreenenter"",""1"",""14120""
","
","
","""event"",""trial"",""time""
""fullscreenenter"",""1"",""14120""
","
","","","","","","null","<div style=""font-size:60px;"">+</div>","null","","fixation","","","","","","","","","","",""
"aa-learning-trial","200","797717","0.0-11.0-2.0-1.5","3848","2","15","Female","approach_avoid_spark_v1","""event"",""trial"",""time""
""fullscreenenter"",""1"",""14120""
","
","
","""event"",""trial"",""time""
""fullscreenenter"",""1"",""14120""
","
","","","","","","951.4000000059605","images/banana8.png","","","learning","6","6","1","1","banana","fruit","1","1","","good","[6]"
"html-keyboard-response","201","798220","0.0-11.0-2.0-0.6","3848","2","15","Female","approach_avoid_spark_v1","""event"",""trial"",""time""
""fullscreenenter"",""1"",""14120""
","
","
","""event"",""trial"",""time""
""fullscreenenter"",""1"",""14120""
","
","","","","","","null","<div style=""font-size:60px;"">+</div>","null","","fixation","","","","","","","","","","",""
"aa-learning-trial","202","801233","0.0-11.0-2.0-1.6","3848","2","15","Female","approach_avoid_spark_v1","""event"",""trial"",""time""
""fullscreenenter"",""1"",""14120""
","
","
","""event"",""trial"",""time""
""fullscreenenter"",""1"",""14120""
","
","","","","","","1436.5999999940395","images/apple5.png","","","learning","1","-5","-","","apple","fruit","1","1","","neutral","0"
"html-keyboard-response","203","801744","0.0-11.0-2.0-0.7","3848","2","15","Female","approach_avoid_spark_v1","""event"",""trial"",""time""
""fullscreenenter"",""1"",""14120""
","
","
","""event"",""trial"",""time""
""fullscreenenter"",""1"",""14120""
","
","","","","","","null","<div style=""font-size:60px;"">+</div>","null","","fixation","","","","","","","","","","",""
"aa-learning-trial","204","804750","0.0-11.0-2.0-1.7","3848","2","15","Female","approach_avoid_spark_v1","""event"",""trial"",""time""
""fullscreenenter"",""1"",""14120""
","
","
","""event"",""trial"",""time""
""fullscreenenter"",""1"",""14120""
","
","","","","","","1462.699999988079","images/apple4.png","","","learning","[1]","1","1","1","apple","fruit","1","1","","neutral","0"
"html-keyboard-response","205","805260","0.0-11.0-2.0-0.8","3848","2","15","Female","approach_avoid_spark_v1","""event"",""trial"",""time""
""fullscreenenter"",""1"",""14120""
","
","
","""event"",""trial"",""time""
""fullscreenenter"",""1"",""14120""
","
","","","","","","null","<div style=""font-size:60px;"">+</div>","null","","fixation","","","","","","","","","","",""
"aa-learning-trial","206","808268","0.0-11.0-2.0-1.8","3848","2","15","Female","approach_avoid_spark_v1","""event"",""trial"",""time""
""fullscreenenter"",""1"",""14120""
","
","
","""event"",""trial"",""time""
""fullscreenenter"",""1"",""14120""
","
","","","","","","946.3000000119209","images/straw2.png","","","learning","-4","0","0","0","straw","fruit","1","1","","bad","[-5]"
"html-keyboard-response","207","808771","0.0-11.0-2.0-0.9","3848","2","15","Female","approach_avoid_spark_v1","""event"",""trial"",""time""
""fullscreenenter"",""1"",""14120""
","
","
","""event"",""trial"",""time""
""fullscreenenter"",""1"",""14120""
","
","","","","","","null","<div style=""font-size:60px;"">+</div>","null","","fixation","","","","","","","","","","",""
"aa-learning-trial","208","811783","0.0-11.0-2.0-1.9","3848","2","15","Female","approach_avoid_spark_v1","""event"",""trial"",""time""
""fullscreenenter"",""1"",""14120""
","
","
","""event"",""trial"",""time""
""fullscreenenter"",""1"",""14120""
","
","","","","","","1426.5999999940395","images/apple4.png","","","learning","1","1","1","1","apple","fruit","1","1","","neutral","0"
"html-keyboard-response","209","812292","0.0-11.0-2.0-0.10","3848","2","15","Female","approach_avoid_spark_v1","""event"",""trial"",""time""
""fullscreenenter"",""1"",""14120""
","
","
","""event"",""trial"",""time""
""fullscreenenter"",""1"",""14120""
","
","","","","","","null","<div style=""font-size:60px;"">+</div>","null","","fixation","","","","","","","","","","",""
"aa-learning-trial","210","815300","0.0-11.0-2.0-1.10","3848","2","15","Female","approach_avoid_spark_v1","""event"",""trial"",""time""
""fullscreenenter"",""1"",""14120""
","
","
","""event"",""trial"",""time""
""fullscreenenter"",""1"",""14120""
","
","","","","","","835.3000000119209","images/straw7.png","","","learning","-6","0","0","0","straw","fruit","1","1","","bad","[-5]"
"html-keyboard-response","211","815804","0.0-11.0-2.0-0.11","3848","2","15","Female","approach_avoid_spark_v1","""event"",""trial"",""time""
""fullscreenenter"",""1"",""14120""
","
","
","""event"",""trial"",""time""
""fullscreenenter"",""1"",""14120""
","
","","","","","","null","<div style=""font-size:60px;"">+</div>","null","","fixation","","","","","","","","","","",""
"aa-learning-trial","212","818816","0.0-11.0-2.0-1.11","3848","2","15","Female","approach_avoid_spark_v1","""event"",""trial"",""time""
""fullscreenenter"",""1"",""14120""
","
","
","""event"",""trial"",""time""
""fullscreenenter"",""1"",""14120""
","
","","","","","","770.2999999821186","images/banana3.png","","","learning","7","7","1","1","banana","fruit","1","1","","good","[6]"
"html-keyboard-response","213","819324","0.0-11.0-2.0-0.12","3848","2","15","Female","approach_avoid_spark_v1","""event"",""trial"",""time""
""fullscreenenter"",""1"",""14120""
","
","
","""event"",""trial"",""time""
""fullscreenenter"",""1"",""14120""
","
","","","","","","null","<div style=""font-size:60px;"">+</div>","null","","fixation","","","","","","","","","","",""
"aa-learning-trial","214","822332","0.0-11.0-2.0-1.12","3848","2","15","Female","approach_avoid_spark_v1","""event"",""trial"",""time""
""fullscreenenter"",""1"",""14120""
","
","
","""event"",""trial"",""time""
""fullscreenenter"",""1"",""14120""
","
","","","","","","657.2000000178814","images/banana4.png","","","learning","6","6","1","1","banana","fruit","1","1","","good","[6]"
"html-keyboard-response","215","822836","0.0-11.0-2.0-0.13","3848","2","15","Female","approach_avoid_spark_v1","""event"",""trial"",""time""
""fullscreenenter"",""1"",""14120""
","
","
","""event"",""trial"",""time""
""fullscreenenter"",""1"",""14120""
","
","","","","","","null","<div style=""font-size:60px;"">+</div>","null","","fixation","","","","","","","","","","",""
"aa-learning-trial","216","825845","0.0-11.0-2.0-1.13","3848","2","15","Female","approach_avoid_spark_v1","""event"",""trial"",""time""
""fullscreenenter"",""1"",""14120""
","
","
","""event"",""trial"",""time""
""fullscreenenter"",""1"",""14120""
","
","","","","","","1135.5999999940395","images/apple1.png","","","learning","2","2","1","1","apple","fruit","1","1","","neutral","0"
"html-keyboard-response","217","826356","0.0-11.0-2.0-0.14","3848","2","15","Female","approach_avoid_spark_v1","""event"",""trial"",""time""
""fullscreenenter"",""1"",""14120""
","
","
","""event"",""trial"",""time""
""fullscreenenter"",""1"",""14120""
","
","","","","","","null","<div style=""font-size:60px;"">+</div>","null","","fixation","","","","","","","","","","",""
"aa-learning-trial","218","829364","0.0-11.0-2.0-1.14","3848","2","15","Female","approach_avoid_spark_v1","""event"",""trial"",""time""
""fullscreenenter"",""1"",""14120""
","
","
","""event"",""trial"",""time""
""fullscreenenter"",""1"",""14120""
","
","","","","","","491.90000000596046","images/apple5.png","","","learning","[1]","1","1","1","apple","fruit","1","1","","neutral","0"
"html-keyboard-response","219","829867","0.0-11.0-2.0-0.15","3848","2","15","Female","approach_avoid_spark_v1","""event"",""trial"",""time""
""fullscreenenter"",""1"",""14120""
","
","
","""event"",""trial"",""time""
""fullscreenenter"",""1"",""14120""
","
","","","","","","null","<div style=""font-size:60px;"">+</div>","null","","fixation","","","","","","","","","","",""
"aa-learning-trial","220","832876","0.0-11.0-2.0-1.15","3848","2","15","Female","approach_avoid_spark_v1","""event"",""trial"",""time""
""fullscreenenter"",""1"",""14120""
","
","
","""event"",""trial"",""time""
""fullscreenenter"",""1"",""14120""
","
","","","","","","697.0999999940395","images/banana4.png","","","learning","4","4","1","1","banana","fruit","1","1","","good","[6]"
"html-keyboard-response","221","833379","0.0-11.0-2.0-0.16","3848","2","15","Female","approach_avoid_spark_v1","""event"",""trial"",""time""
""fullscreenenter"",""1"",""14120""
","
","
","""event"",""trial"",""time""
""fullscreenenter"",""1"",""14120""
","
","","","","","","null","<div style=""font-size:60px;"">+</div>","null","","fixation","","","","","","","","","","",""
"aa-learning-trial","222","836388","0.0-11.0-2.0-1.16","3848","2","15","Female","approach_avoid_spark_v1","""event"",""trial"",""time""
""fullscreenenter"",""1"",""14120""
","
","
","""event"",""trial"",""time""
""fullscreenenter"",""1"",""14120""
","
","","","","","","574.9000000059605","images/straw7.png","","","learning","-7","0","0","0","straw","fruit","1","1","","bad","[-5]"
"html-keyboard-response","223","836891","0.0-11.0-2.0-0.17","3848","2","15","Female","approach_avoid_spark_v1","""event"",""trial"",""time""
""fullscreenenter"",""1"",""14120""
","
","
","""event"",""trial"",""time""
""fullscreenenter"",""1"",""14120""
","
","","","","","","null","<div style=""font-size:60px;"">+</div>","null","","fixation","","","","","","","","","","",""
"aa-learning-trial","224","839900","0.0-11.0-2.0-1.17","3848","2","15","Female","approach_avoid_spark_v1","""event"",""trial"",""time""
""fullscreenenter"",""1"",""14120""
","
","
","""event"",""trial"",""time""
""fullscreenenter"",""1"",""14120""
","
","","","","","","695.4000000059605","images/banana8.png","","","learning","4","4","1","1","banana","fruit","1","1","","good","[6]"
"html-keyboard-response","225","840403","0.0-11.0-2.0-0.18","3848","2","15","Female","approach_avoid_spark_v1","""event"",""trial"",""time""
""fullscreenenter"",""1"",""14120""
","
","
","""event"",""trial"",""time""
""fullscreenenter"",""1"",""14120""
","
","","","","","","null","<div style=""font-size:60px;"">+</div>","null","","fixation","","","","","","","","","","",""
"aa-learning-trial","226","843411","0.0-11.0-2.0-1.18","3848","2","15","Female","approach_avoid_spark_v1","""event"",""trial"",""time""
""fullscreenenter"",""1"",""14120""
","
","
","""event"",""trial"",""time""
""fullscreenenter"",""1"",""14120""
","
","","","","","","555","images/straw2.png","","","learning","-5","0","0","0","straw","fruit","1","1","","bad","[-5]"
"html-keyboard-response","227","843915","0.0-11.0-2.0-0.19","3848","2","15","Female","approach_avoid_spark_v1","""event"",""trial"",""time""
""fullscreenenter"",""1"",""14120""
","
","
","""event"",""trial"",""time""
""fullscreenenter"",""1"",""14120""
","
","","","","","","null","<div style=""font-size:60px;"">+</div>","null","","fixation","","","","","","","","","","",""
"aa-learning-trial","228","846923","0.0-11.0-2.0-1.19","3848","2","15","Female","approach_avoid_spark_v1","""event"",""trial"",""time""
""fullscreenenter"",""1"",""14120""
","
","
","""event"",""trial"",""time""
""fullscreenenter"",""1"",""14120""
","
","","","","","","1080.7999999821186","images/apple3.png","","","learning","3","3","1","1","apple","fruit","1","1","","neutral","0"
"html-keyboard-response","229","847427","0.0-11.0-2.0-0.20","3848","2","15","Female","approach_avoid_spark_v1","""event"",""trial"",""time""
""fullscreenenter"",""1"",""14120""
","
","
","""event"",""trial"",""time""
""fullscreenenter"",""1"",""14120""
","
","","","","","","null","<div style=""font-size:60px;"">+</div>","null","","fixation","","","","","","","","","","",""
"aa-learning-trial","230","850435","0.0-11.0-2.0-1.20","3848","2","15","Female","approach_avoid_spark_v1","""event"",""trial"",""time""
""fullscreenenter"",""1"",""14120""
","
","
","""event"",""trial"",""time""
""fullscreenenter"",""1"",""14120""
","
","","","","","","692.9000000059605","images/banana8.png","","","learning","5","5","1","1","banana","fruit","1","1","","good","[6]"
"html-keyboard-response","231","850939","0.0-11.0-2.0-0.21","3848","2","15","Female","approach_avoid_spark_v1","""event"",""trial"",""time""
""fullscreenenter"",""1"",""14120""
","
","
","""event"",""trial"",""time""
""fullscreenenter"",""1"",""14120""
","
","","","","","","null","<div style=""font-size:60px;"">+</div>","null","","fixation","","","","","","","","","","",""
"aa-learning-trial","232","853947","0.0-11.0-2.0-1.21","3848","2","15","Female","approach_avoid_spark_v1","""event"",""trial"",""time""
""fullscreenenter"",""1"",""14120""
","
","
","""event"",""trial"",""time""
""fullscreenenter"",""1"",""14120""
","
","","","","","","529.1999999880791","images/banana4.png","","","learning","8","8","1","1","banana","fruit","1","1","","good","[6]"
"html-keyboard-response","233","854451","0.0-11.0-2.0-0.22","3848","2","15","Female","approach_avoid_spark_v1","""event"",""trial"",""time""
""fullscreenenter"",""1"",""14120""
","
","
","""event"",""trial"",""time""
""fullscreenenter"",""1"",""14120""
","
","","","","","","null","<div style=""font-size:60px;"">+</div>","null","","fixation","","","","","","","","","","",""
"aa-learning-trial","234","857459","0.0-11.0-2.0-1.22","3848","2","15","Female","approach_avoid_spark_v1","""event"",""trial"",""time""
""fullscreenenter"",""1"",""14120""
","
","
","""event"",""trial"",""time""
""fullscreenenter"",""1"",""14120""
","
","","","","","","542.3000000119209","images/straw2.png","","","learning","-6","0","0","0","straw","fruit","1","1","","bad","[-5]"
