"trial_type","trial_index","time_elapsed","internal_node_id","subject_id","task_condition","age","gender","task_version","interactions","blur_events","focus_events","fullscreenenter_events","fullscreenexit_events","success","timeout","failed_images","failed_audio","failed_video","rt","stimulus","response","button_pressed","task_part","approach_reward","points","key_press","option_selected","stim_cat","task_block","block_condition","block_number","correct","cat_type","mean_cat_reward"
"pavlovia","0","2","0.0-0.0","6156","1","17","Male","approach_avoid_spark_v1","""event"",""trial"",""time""
""fullscreenenter"",""1"",""2784""
","
","
","""event"",""trial"",""time""
""fullscreenenter"",""1"",""2784""
","
","","","","","","","","","","","","","","","","","","","","",""
"fullscreen","1","3768","0.0-1.0","6156","1","17","Male","approach_avoid_spark_v1","""event"",""trial"",""time""
""fullscreenenter"",""1"",""2784""
","
","
","""event"",""trial"",""time""
""fullscreenenter"",""1"",""2784""
","
","true","","","","","","","","","","","","","","","","","","","",""
"preload","2","8591","0.0-2.0","6156","1","17","Male","approach_avoid_spark_v1","""event"",""trial"",""time""
""fullscreenenter"",""1"",""2784""
","
","
","""event"",""trial"",""time""
""fullscreenenter"",""1"",""2784""
","
","true","false","[]","[]","[]","","","","","","","","","","","","","","","",""
"audio-keyboard-response","3","11277","0.0-3.0","6156","1","17","Male","approach_avoid_spark_v1","""event"",""trial"",""time""
""fullscreenenter"",""1"",""2784""
","
","
","""event"",""trial"",""time""
""fullscreenenter"",""1"",""2784""
","
","","","","","","2690.666666666667","audio/beep_loop.wav"," ","","","","","","","","","","","","",""
"audio-button-response","4","13380","0.0-4.0","6156","1","17","Male","approach_avoid_spark_v1","""event"",""trial"",""time""
""fullscreenenter"",""1"",""2784""
","
","
","""event"",""trial"",""time""
""fullscreenenter"",""1"",""2784""
","
","","","","","","2099","audio/shark.wav","4","","","","","","","","","","","","",""
"audio-button-response","5","15905","0.0-5.0","6156","1","17","Male","approach_avoid_spark_v1","""event"",""trial"",""time""
""fullscreenenter"",""1"",""2784""
","
","
","""event"",""trial"",""time""
""fullscreenenter"",""1"",""2784""
","
","","","","","","1509","audio/turtle.wav","1","","","","","","","","","","","","",""
"preload","6","26908","0.0-6.0","6156","1","17","Male","approach_avoid_spark_v1","""event"",""trial"",""time""
""fullscreenenter"",""1"",""2784""
","
","
","""event"",""trial"",""time""
""fullscreenenter"",""1"",""2784""
","
","true","false","[]","[]","[]","","","","","","","","","","","","","","","",""
"html-keyboard-response","7","28891","0.0-7.0","6156","1","17","Male","approach_avoid_spark_v1","""event"",""trial"",""time""
""fullscreenenter"",""1"",""2784""
","
","
","""event"",""trial"",""time""
""fullscreenenter"",""1"",""2784""
","
","","","","","","1983","Welcome to the experiment. Press any key to begin and to advance the instructions."," ","","","","","","","","","","","","",""
"learning-instructions","8","37638","0.0-8.0-0.0-0.0","6156","1","17","Male","approach_avoid_spark_v1","""event"",""trial"",""time""
""fullscreenenter"",""1"",""2784""
","
","
","""event"",""trial"",""time""
""fullscreenenter"",""1"",""2784""
","
","","","","","","1790.800000011921","<p> Welcome! Today you are going to play 6 different rounds of a decision-making game. </p><p> Use the mouse to click next to continue. </p>","","0","instructions","","","","","","","","","","",""
"learning-instructions","9","42224","0.0-8.0-0.0-0.1","6156","1","17","Male","approach_avoid_spark_v1","""event"",""trial"",""time""
""fullscreenenter"",""1"",""2784""
","
","
","""event"",""trial"",""time""
""fullscreenenter"",""1"",""2784""
","
","","","","","","1847.300000011921","<p> You will start with a practice round to learn the rules. </p>","","0","instructions","","","","","","","","","","",""
"learning-instructions","10","46877","0.0-8.0-0.0-0.2","6156","1","17","Male","approach_avoid_spark_v1","""event"",""trial"",""time""
""fullscreenenter"",""1"",""2784""
","
","
","""event"",""trial"",""time""
""fullscreenenter"",""1"",""2784""
","
","","","","","","1190.800000011921","<p> Your goal in this round is to give out sports equipment to kids. </p></div>","","0","instructions","","","","","","","","","","",""
"learning-instructions","11","55282","0.0-8.0-0.0-0.3","6156","1","17","Male","approach_avoid_spark_v1","""event"",""trial"",""time""
""fullscreenenter"",""1"",""2784""
","
","
","""event"",""trial"",""time""
""fullscreenenter"",""1"",""2784""
","
","","","","","","856.0999999642372","<p> The kids only like some of the equipment.  </p><p> On each turn, you will see a piece of sports equipment.   </p><p> You need to decide whether to give it to the kids or not.  </p>","","0","instructions","","","","","","","","","","",""
"learning-instructions","12","61138","0.0-8.0-0.0-0.4","6156","1","17","Male","approach_avoid_spark_v1","""event"",""trial"",""time""
""fullscreenenter"",""1"",""2784""
","
","
","""event"",""trial"",""time""
""fullscreenenter"",""1"",""2784""
","
","","","","","","1105.5","<p> You can give them the equipment by pressing 1 and choose not to give it to them by pressing 0. </p><br><div class=""choice-instructions-grid""> <div class=""choice-option""><img src=""images/approach.png"" class=""choice-option-img"" stage=""instructions"" position=""0"" ><div class=""choice-option-text""> Press ""1."" </div></div><div class=""choice-option""><img src=""images/avoid.png"" class=""choice-option-img"" stage=""instructions"" position=""1"" ><div class=""choice-option-text""> Press ""0."" </div></div>","","0","instructions","","","","","","","","","","",""
"learning-instructions","13","70989","0.0-8.0-0.0-0.5","6156","1","17","Male","approach_avoid_spark_v1","""event"",""trial"",""time""
""fullscreenenter"",""1"",""2784""
","
","
","""event"",""trial"",""time""
""fullscreenenter"",""1"",""2784""
","
","","","","","","2446.599999964237","<p> If you give them a piece of equipment they like, they will be happy! </p><p> But if you give them a piece of equipment they do not like, they will be sad. </p>","","0","instructions","","","","","","","","","","",""
"learning-instructions","14","82560","0.0-8.0-0.0-0.6","6156","1","17","Male","approach_avoid_spark_v1","""event"",""trial"",""time""
""fullscreenenter"",""1"",""2784""
","
","
","""event"",""trial"",""time""
""fullscreenenter"",""1"",""2784""
","
","","","","","","1047.199999988079","<p> You will earn points based on how you make kids feel. </p><p> If you make them happy, you will WIN anywhere from 1 - 9 points, </p><p> but if you make them sad, you will LOSE anywhere from 1 - 9 points. </p>","","0","instructions","","","","","","","","","","",""
"learning-instructions","15","111996","0.0-8.0-0.0-0.7","6156","1","17","Male","approach_avoid_spark_v1","""event"",""trial"",""time""
""fullscreenenter"",""1"",""2784""
","
","
","""event"",""trial"",""time""
""fullscreenenter"",""1"",""2784""
","
","","","","","","19873.899999976158","<p> You will see how many points you won or lost in the center of the screen. </p><p> Here is what you would see if you won 6 points: </p><p style=""color:green;font-size:50px;font-weight:bolder"">6</p><p style=""color:green"">The text is GREEN because you WON points.</p>","","0","instructions","","","","","","","","","","",""
"learning-instructions","16","122908","0.0-8.0-0.0-0.8","6156","1","17","Male","approach_avoid_spark_v1","""event"",""trial"",""time""
""fullscreenenter"",""1"",""2784""
","
","
","""event"",""trial"",""time""
""fullscreenenter"",""1"",""2784""
","
","","","","","","5401.200000047684","<p> And here is what you would see if you lost 4 points: </p><p style=""color:red;font-size:50px;font-weight:bolder"">-4</p><p style=""color:red"">The text is RED because you LOST points. </p>","","0","instructions","","","","","","","","","","",""
"learning-instructions","17","138601","0.0-8.0-0.0-0.9","6156","1","17","Male","approach_avoid_spark_v1","""event"",""trial"",""time""
""fullscreenenter"",""1"",""2784""
","
","
","""event"",""trial"",""time""
""fullscreenenter"",""1"",""2784""
","
","","","","","","984.8000000119209","<p> Some of the equipment will make the kids VERY happy or sad. </p><p> These pieces of equipment will make you win or lose LOTS of points. </p><p> Other pieces of equipment will only make the kids a little happy or sad. </p><p> These pieces of equipment will make you win or lose small amounts of points. </p>","","0","instructions","","","","","","","","","","",""
"learning-instructions","18","151241","0.0-8.0-0.0-0.10","6156","1","17","Male","approach_avoid_spark_v1","""event"",""trial"",""time""
""fullscreenenter"",""1"",""2784""
","
","
","""event"",""trial"",""time""
""fullscreenenter"",""1"",""2784""
","
","","","","","","2015.199999988079","<p> If you choose not to give them the equipment, you will not win or lose any points. </p><p>  However, in the center of the screen, you will see the number of points you WOULD HAVE won or lost if you had given them the equipment. </p>","","0","instructions","","","","","","","","","","",""
"learning-instructions","19","286310","0.0-8.0-0.0-0.11","6156","1","17","Male","approach_avoid_spark_v1","""event"",""trial"",""time""
""fullscreenenter"",""1"",""2784""
","
","
","""event"",""trial"",""time""
""fullscreenenter"",""1"",""2784""
","
","","","","","","113548.60000002384","<p> Here is what you might see if you did not give the equipment to the kids but it would have made them happy: </p><p style=""color:grey; font-size:50px; display: inline-block; border-spacing: 15px; border-width:3px; border-style:solid; border-color:red"">  &nbsp; 7 &nbsp; </p><p> Remember, in this case, you would not win or lose ANY points because you did not give them the equipment.  </p><p style=""color:grey"">The text is GREY because you earned ZERO points. </p><p style=""color:red"">However, choosing to give the kids the equipment would have made you win points. The box around the text is RED because you chose the worse option. </p>","","0","instructions","","","","","","","","","","",""
"learning-instructions","20","310574","0.0-8.0-0.0-0.12","6156","1","17","Male","approach_avoid_spark_v1","""event"",""trial"",""time""
""fullscreenenter"",""1"",""2784""
","
","
","""event"",""trial"",""time""
""fullscreenenter"",""1"",""2784""
","
","","","","","","2555.300000011921","<p> Here is what you might see if you did not give the equipment to the kids but it would have made them sad: </p><p style=""color:grey;font-size:50px; display: inline-block; border-spacing: 15px; border-width:3px; border-style:solid; border-color:green"">  &nbsp; -8 &nbsp; </p><p> Remember, in this case, you would not win or lose ANY points because you did not give them the equipment.  </p><p style=""color:grey"">The text is GREY because you earned ZERO points. </p><p  style=""color:green""> Choosing to give the kids the equipment would have made you lose points. The box around the text is GREEN because you chose the better option.</p>","","0","instructions","","","","","","","","","","",""
"learning-instructions","21","324067","0.0-8.0-0.0-0.13","6156","1","17","Male","approach_avoid_spark_v1","""event"",""trial"",""time""
""fullscreenenter"",""1"",""2784""
","
","
","""event"",""trial"",""time""
""fullscreenenter"",""1"",""2784""
","
","","","","","","2888.699999988079","<p> You will have 3 seconds to make each choice. Try to respond before time runs out! </p><p> You will lose 5 points each time you do not make a response. </p>","","0","instructions","","","","","","","","","","",""
"learning-instructions","22","331947","0.0-8.0-0.0-0.14","6156","1","17","Male","approach_avoid_spark_v1","""event"",""trial"",""time""
""fullscreenenter"",""1"",""2784""
","
","
","""event"",""trial"",""time""
""fullscreenenter"",""1"",""2784""
","
","","","","","","2459.099999964237","<p> This is just a practice round, but in the real game, your bonus payment will depend on your total number of points.","","0","instructions","","","","","","","","","","",""
"learning-instructions","23","342460","0.0-8.0-0.0-0.15","6156","1","17","Male","approach_avoid_spark_v1","""event"",""trial"",""time""
""fullscreenenter"",""1"",""2784""
","
","
","""event"",""trial"",""time""
""fullscreenenter"",""1"",""2784""
","
","","","","","","4741.600000023842","<p> Remember, you can give them the equipment by pressing 1 and choose not to give it to them by pressing 0. </p><br><div class=""choice-instructions-grid""> <div class=""choice-option""><img src=""images/approach.png"" class=""choice-option-img"" stage=""instructions"" position=""0"" ><div class=""choice-option-text""> Press ""1."" </div></div><div class=""choice-option""><img src=""images/avoid.png"" class=""choice-option-img"" stage=""instructions"" position=""1"" ><div class=""choice-option-text""> Press ""0."" </div></div>","","0","instructions","","","","","","","","","","",""
"html-button-response","24","345007","0.0-8.0-1.0","6156","1","17","Male","approach_avoid_spark_v1","""event"",""trial"",""time""
""fullscreenenter"",""1"",""2784""
","
","
","""event"",""trial"",""time""
""fullscreenenter"",""1"",""2784""
","
","","","","","","2432.899999976158","<p> Ready to practice? </p>","0","","","","","","","","","","","","",""
"html-keyboard-response","25","345621","0.0-8.0-2.0-0.0","6156","1","17","Male","approach_avoid_spark_v1","""event"",""trial"",""time""
""fullscreenenter"",""1"",""2784""
","
","
","""event"",""trial"",""time""
""fullscreenenter"",""1"",""2784""
","
","","","","","","null","<div style=""font-size:60px;"">+</div>","null","","fixation","","","","","","","","","","",""
"aa-learning-trial","26","348633","0.0-8.0-2.0-1.0","6156","1","17","Male","approach_avoid_spark_v1","""event"",""trial"",""time""
""fullscreenenter"",""1"",""2784""
","
","
","""event"",""trial"",""time""
""fullscreenenter"",""1"",""2784""
","
","","","","","","null","images/ball1.png","","","learning","7","-5","","null","practice","practice","practice","-1","","",""
"html-keyboard-response","27","349150","0.0-8.0-2.0-0.1","6156","1","17","Male","approach_avoid_spark_v1","""event"",""trial"",""time""
""fullscreenenter"",""1"",""2784""
","
","
","""event"",""trial"",""time""
""fullscreenenter"",""1"",""2784""
","
","","","","","","null","<div style=""font-size:60px;"">+</div>","null","","fixation","","","","","","","","","","",""
"aa-learning-trial","28","352164","0.0-8.0-2.0-1.1","6156","1","17","Male","approach_avoid_spark_v1","""event"",""trial"",""time""
""fullscreenenter"",""1"",""2784""
","
","
","""event"",""trial"",""time""
""fullscreenenter"",""1"",""2784""
","
","","","","","","null","images/racket4.png","","","learning","-4","-5","","null","practice","practice","practice","-1","","",""
"html-keyboard-response","29","352670","0.0-8.0-2.0-0.2","6156","1","17","Male","approach_avoid_spark_v1","""event"",""trial"",""time""
""fullscreenenter"",""1"",""2784""
","
","
","""event"",""trial"",""time""
""fullscreenenter"",""1"",""2784""
","
","","","","","","null","<div style=""font-size:60px;"">+</div>","null","","fixation","","","","","","","","","","",""
"aa-learning-trial","30","355674","0.0-8.0-2.0-1.2","6156","1","17","Male","approach_avoid_spark_v1","""event"",""trial"",""time""
""fullscreenenter"",""1"",""2784""
","
","
","""event"",""trial"",""time""
""fullscreenenter"",""1"",""2784""
","
","","","","","","null","images/racket2.png","","","learning","-9","-5","","null","practice","practice","practice","-1","","",""
"html-keyboard-response","31","356190","0.0-8.0-2.0-0.3","6156","1","17","Male","approach_avoid_spark_v1","""event"",""trial"",""time""
""fullscreenenter"",""1"",""2784""
","
","
","""event"",""trial"",""time""
""fullscreenenter"",""1"",""2784""
","
","","","","","","null","<div style=""font-size:60px;"">+</div>","null","","fixation","","","","","","","","","","",""
"aa-learning-trial","32","359206","0.0-8.0-2.0-1.3","6156","1","17","Male","approach_avoid_spark_v1","""event"",""trial"",""time""
""fullscreenenter"",""1"",""2784""
","
","
","""event"",""trial"",""time""
""fullscreenenter"",""1"",""2784""
","
","","","","","","null","images/racket2.png","","","learning","6","-5","","null","practice","practice","practice","-1","","",""
"html-keyboard-response","33","359720","0.0-8.0-2.0-0.4","6156","1","17","Male","approach_avoid_spark_v1","""event"",""trial"",""time""
""fullscreenenter"",""1"",""2784""
","
","
","""event"",""trial"",""time""
""fullscreenenter"",""1"",""2784""
","
","","","","","","null","<div style=""font-size:60px;"">+</div>","null","","fixation","","","","","","","","","","",""
"aa-learning-trial","34","362740","0.0-8.0-2.0-1.4","6156","1","17","Male","approach_avoid_spark_v1","""event"",""trial"",""time""
""fullscreenenter"",""1"",""2784""
","
","
","""event"",""trial"",""time""
""fullscreenenter"",""1"",""2784""
","
","","","","","","null","images/racket2.png","","","learning","6","-5","","null","practice","practice","practice","-1","","",""
"html-keyboard-response","35","363250","0.0-8.0-2.0-0.5","6156","1","17","Male","approach_avoid_spark_v1","""event"",""trial"",""time""
""fullscreenenter"",""1"",""2784""
","
","
","""event"",""trial"",""time""
""fullscreenenter"",""1"",""2784""
","
","","","","","","null","<div style=""font-size:60px;"">+</div>","null","","fixation","","","","","","","","","","",""
"aa-learning-trial","36","366258","0.0-8.0-2.0-1.5","6156","1","17","Male","approach_avoid_spark_v1","""event"",""trial"",""time""
""fullscreenenter"",""1"",""2784""
","
","
","""event"",""trial"",""time""
""fullscreenenter"",""1"",""2784""
","
","","","","","","null","images/ball2.png","","","learning","-2","-5","","null","practice","practice","practice","-1","","",""
"html-keyboard-response","37","366768","0.0-8.0-2.0-0.6","6156","1","17","Male","approach_avoid_spark_v1","""event"",""trial"",""time""
""fullscreenenter"",""1"",""2784""
","
","
","""event"",""trial"",""time""
""fullscreenenter"",""1"",""2784""
","
","","","","","","null","<div style=""font-size:60px;"">+</div>","null","","fixation","","","","","","","","","","",""
"aa-learning-trial","38","369781","0.0-8.0-2.0-1.6","6156","1","17","Male","approach_avoid_spark_v1","""event"",""trial"",""time""
""fullscreenenter"",""1"",""2784""
","
","
","""event"",""trial"",""time""
""fullscreenenter"",""1"",""2784""
","
","","","","","","null","images/ball3.png","","","learning","-8","-5","","null","practice","practice","practice","-1","","",""
"html-keyboard-response","39","370288","0.0-8.0-2.0-0.7","6156","1","17","Male","approach_avoid_spark_v1","""event"",""trial"",""time""
""fullscreenenter"",""1"",""2784""
","
","
","""event"",""trial"",""time""
""fullscreenenter"",""1"",""2784""
","
","","","","","","null","<div style=""font-size:60px;"">+</div>","null","","fixation","","","","","","","","","","",""
"aa-learning-trial","40","373295","0.0-8.0-2.0-1.7","6156","1","17","Male","approach_avoid_spark_v1","""event"",""trial"",""time""
""fullscreenenter"",""1"",""2784""
","
","
","""event"",""trial"",""time""
""fullscreenenter"",""1"",""2784""
","
","","","","","","null","images/racket4.png","","","learning","1","-5","","null","practice","practice","practice","-1","","",""
"html-keyboard-response","41","373807","0.0-8.0-2.0-0.8","6156","1","17","Male","approach_avoid_spark_v1","""event"",""trial"",""time""
""fullscreenenter"",""1"",""2784""
","
","
","""event"",""trial"",""time""
""fullscreenenter"",""1"",""2784""
","
","","","","","","null","<div style=""font-size:60px;"">+</div>","null","","fixation","","","","","","","","","","",""
"aa-learning-trial","42","376822","0.0-8.0-2.0-1.8","6156","1","17","Male","approach_avoid_spark_v1","""event"",""trial"",""time""
""fullscreenenter"",""1"",""2784""
","
","
","""event"",""trial"",""time""
""fullscreenenter"",""1"",""2784""
","
","","","","","","null","images/racket1.png","","","learning","1","-5","","null","practice","practice","practice","-1","","",""
"html-keyboard-response","43","377327","0.0-8.0-2.0-0.9","6156","1","17","Male","approach_avoid_spark_v1","""event"",""trial"",""time""
""fullscreenenter"",""1"",""2784""
","
","
","""event"",""trial"",""time""
""fullscreenenter"",""1"",""2784""
","
","","","","","","null","<div style=""font-size:60px;"">+</div>","null","","fixation","","","","","","","","","","",""
"aa-learning-trial","44","380337","0.0-8.0-2.0-1.9","6156","1","17","Male","approach_avoid_spark_v1","""event"",""trial"",""time""
""fullscreenenter"",""1"",""2784""
","
","
","""event"",""trial"",""time""
""fullscreenenter"",""1"",""2784""
","
","","","","","","null","images/ball3.png","","","learning","-6","-5","","null","practice","practice","practice","-1","","",""
"html-keyboard-response","45","380846","0.0-8.0-2.0-0.10","6156","1","17","Male","approach_avoid_spark_v1","""event"",""trial"",""time""
""fullscreenenter"",""1"",""2784""
","
","
","""event"",""trial"",""time""
""fullscreenenter"",""1"",""2784""
","
","","","","","","null","<div style=""font-size:60px;"">+</div>","null","","fixation","","","","","","","","","","",""
"aa-learning-trial","46","383861","0.0-8.0-2.0-1.10","6156","1","17","Male","approach_avoid_spark_v1","""event"",""trial"",""time""
""fullscreenenter"",""1"",""2784""
","
","
","""event"",""trial"",""time""
""fullscreenenter"",""1"",""2784""
","
","","","","","","null","images/racket2.png","","","learning","2","-5","","null","practice","practice","practice","-1","","",""
"html-keyboard-response","47","384369","0.0-8.0-2.0-0.11","6156","1","17","Male","approach_avoid_spark_v1","""event"",""trial"",""time""
""fullscreenenter"",""1"",""2784""
","
","
","""event"",""trial"",""time""
""fullscreenenter"",""1"",""2784""
","
","","","","","","null","<div style=""font-size:60px;"">+</div>","null","","fixation","","","","","","","","","","",""
"aa-learning-trial","48","387376","0.0-8.0-2.0-1.11","6156","1","17","Male","approach_avoid_spark_v1","""event"",""trial"",""time""
""fullscreenenter"",""1"",""2784""
","
","
","""event"",""trial"",""time""
""fullscreenenter"",""1"",""2784""
","
","","","","","","null","images/ball2.png","","","learning","-9","-5","","null","practice","practice","practice","-1","","",""
"html-button-response","49","390069","0.0-8.0-3.0","6156","1","17","Male","approach_avoid_spark_v1","""event"",""trial"",""time""
""fullscreenenter"",""1"",""2784""
","
","
","""event"",""trial"",""time""
""fullscreenenter"",""1"",""2784""
","
","","","","","","2691.5","<p> You earned -60 points in the practice round! </p>","0","","break","","","","","","","","","","",""
"learning-instructions","50","398963","0.0-8.0-4.0-0.0","6156","1","17","Male","approach_avoid_spark_v1","""event"",""trial"",""time""
""fullscreenenter"",""1"",""2784""
","
","
","""event"",""trial"",""time""
""fullscreenenter"",""1"",""2784""
","
","","","","","","2310.899999976158","<p> It's almost time to start the real game. </p><p> Before you start, we're going to ask you a few questions about how the game works. </p>","","0","instructions","","","","","","","","","","",""
"preload","51","407406","0.0-8.0-5.0","6156","1","17","Male","approach_avoid_spark_v1","""event"",""trial"",""time""
""fullscreenenter"",""1"",""2784""
","
","
","""event"",""trial"",""time""
""fullscreenenter"",""1"",""2784""
","
","true","false","[]","[]","[]","","","","","","","","","","","","","","","",""
"comp-q","52","413478","0.0-8.0-6.0-0.0","6156","1","17","Male","approach_avoid_spark_v1","""event"",""trial"",""time""
""fullscreenenter"",""1"",""2784""
","
","
","""event"",""trial"",""time""
""fullscreenenter"",""1"",""2784""
","
","","","","","","1076.9000000357628","<p> <b> True or False? </b> </p><p> If you see a number in GREY, that means you earned that many points. </p>","","0","comp_question","","","","","","","","","false","",""
"comp-q","53","424070","0.0-8.0-6.0-1.0","6156","1","17","Male","approach_avoid_spark_v1","""event"",""trial"",""time""
""fullscreenenter"",""1"",""2784""
","
","
","""event"",""trial"",""time""
""fullscreenenter"",""1"",""2784""
","
","","","","","","1778.1000000238419","<p><b> Incorrect. </b> If you see a grey number, it means you earned ZERO points. <br> The grey numbers show the points you WOULD HAVE earned if you had made the other choice. </p>","","0","comp_answer","","","","","","","","","","",""
"comp-q","54","430002","0.0-8.0-6.1-0.1","6156","1","17","Male","approach_avoid_spark_v1","""event"",""trial"",""time""
""fullscreenenter"",""1"",""2784""
","
","
","""event"",""trial"",""time""
""fullscreenenter"",""1"",""2784""
","
","","","","","","820.3000000119209","<p> <b> True or False? </b> </p><p> If you see a number in GREY, that means you earned that many points. </p>","","1","comp_question","","","","","","","","","true","",""
"comp-q","55","472262","0.0-8.0-6.1-1.1","6156","1","17","Male","approach_avoid_spark_v1","""event"",""trial"",""time""
""fullscreenenter"",""1"",""2784""
","
","
","""event"",""trial"",""time""
""fullscreenenter"",""1"",""2784""
","
","","","","","","33888.39999997616","<p><b> That's right! </b> If you see a grey number, it means you earned ZERO points. <br> The grey numbers show the points you WOULD HAVE earned if you had made the other choice. </p>","","0","comp_answer","","","","","","","","","","",""
"comp-q","56","477962","0.0-8.0-7.0-0.0","6156","1","17","Male","approach_avoid_spark_v1","""event"",""trial"",""time""
""fullscreenenter"",""1"",""2784""
","
","
","""event"",""trial"",""time""
""fullscreenenter"",""1"",""2784""
","
","","","","","","1014.3000000119209","<p> <b> True or False? </b> </p><p> You will have as much time as you want to make each choice. </p>","","1","comp_question","","","","","","","","","true","",""
"comp-q","57","483533","0.0-8.0-7.0-1.0","6156","1","17","Male","approach_avoid_spark_v1","""event"",""trial"",""time""
""fullscreenenter"",""1"",""2784""
","
","
","""event"",""trial"",""time""
""fullscreenenter"",""1"",""2784""
","
","","","","","","1534.9000000357628","<p> <b> That's right! </b> You will only have 3 seconds to make each choice. </p>","","0","comp_answer","","","","","","","","","","",""
"comp-q","58","489009","0.0-8.0-8.0-0.0","6156","1","17","Male","approach_avoid_spark_v1","""event"",""trial"",""time""
""fullscreenenter"",""1"",""2784""
","
","
","""event"",""trial"",""time""
""fullscreenenter"",""1"",""2784""
","
","","","","","","801.1000000238419","<p> <b> True or False? </b> </p><p> You should use the '1' and '0' keys to make your choices. </p>","","0","comp_question","","","","","","","","","true","",""
"comp-q","59","496099","0.0-8.0-8.0-1.0","6156","1","17","Male","approach_avoid_spark_v1","""event"",""trial"",""time""
""fullscreenenter"",""1"",""2784""
""blur"",""60"",""737508""
""focus"",""60"",""53398329""
","""event"",""trial"",""time""
""blur"",""60"",""737508""
","""event"",""trial"",""time""
""focus"",""60"",""53398329""
","""event"",""trial"",""time""
""fullscreenenter"",""1"",""2784""
","
","","","","","","2481.400000035763","<p> <b> That's right! </b> You should use the '1' and '0' keys to make each choice. </p>","","0","comp_answer","","","","","","","","","","",""
"learning-instructions","60","53401029","0.0-8.0-9.0-0.0","6156","1","17","Male","approach_avoid_spark_v1","""event"",""trial"",""time""
""fullscreenenter"",""1"",""2784""
""blur"",""60"",""737508""
""focus"",""60"",""53398329""
","""event"",""trial"",""time""
""blur"",""60"",""737508""
","""event"",""trial"",""time""
""focus"",""60"",""53398329""
","""event"",""trial"",""time""
""fullscreenenter"",""1"",""2784""
","
","","","","","","52907665.900000036","<p> It's now time to start the real game. </p>Do your best, because the points you earn in the next rounds will influence your bonus payment. </p>","","0","instructions","","","","","","","","","","",""
"preload","61","53401149","0.0-9.0-0.0","6156","1","17","Male","approach_avoid_spark_v1","""event"",""trial"",""time""
""fullscreenenter"",""1"",""2784""
""blur"",""60"",""737508""
""focus"",""60"",""53398329""
","""event"",""trial"",""time""
""blur"",""60"",""737508""
","""event"",""trial"",""time""
""focus"",""60"",""53398329""
","""event"",""trial"",""time""
""fullscreenenter"",""1"",""2784""
","
","true","false","[]","[]","[]","","","","","","","","","","","","","","","",""
"learning-instructions","62","53409424","0.0-9.0-1.0-0.0","6156","1","17","Male","approach_avoid_spark_v1","""event"",""trial"",""time""
""fullscreenenter"",""1"",""2784""
""blur"",""60"",""737508""
""focus"",""60"",""53398329""
","""event"",""trial"",""time""
""blur"",""60"",""737508""
","""event"",""trial"",""time""
""focus"",""60"",""53398329""
","""event"",""trial"",""time""
""fullscreenenter"",""1"",""2784""
","
","","","","","","2015.6000000238419","<p> Your goal in this round is to take your friend for rides in different vehicles. </p></div>","","0","instructions","","","","","","","","","","",""
"learning-instructions","63","53423487","0.0-9.0-1.0-0.1","6156","1","17","Male","approach_avoid_spark_v1","""event"",""trial"",""time""
""fullscreenenter"",""1"",""2784""
""blur"",""60"",""737508""
""focus"",""60"",""53398329""
","""event"",""trial"",""time""
""blur"",""60"",""737508""
","""event"",""trial"",""time""
""focus"",""60"",""53398329""
","""event"",""trial"",""time""
""fullscreenenter"",""1"",""2784""
","
","","","","","","3407.7999999523163","<p> Your friend enjoys riding in some vehicles but not in others.  </p><p> On each turn, you will see a vehicle.   </p><p> You need to decide whether to take your friend for a ride or not.  </p>","","0","instructions","","","","","","","","","","",""
"learning-instructions","64","53439280","0.0-9.0-1.0-0.2","6156","1","17","Male","approach_avoid_spark_v1","""event"",""trial"",""time""
""fullscreenenter"",""1"",""2784""
""blur"",""60"",""737508""
""focus"",""60"",""53398329""
""fullscreenexit"",""65"",""53667359""
""blur"",""65"",""53669669""
""focus"",""65"",""61867424""
""blur"",""65"",""61870996""
""focus"",""65"",""66635582""
","""event"",""trial"",""time""
""blur"",""60"",""737508""
""blur"",""65"",""53669669""
""blur"",""65"",""61870996""
","""event"",""trial"",""time""
""focus"",""60"",""53398329""
""focus"",""65"",""61867424""
""focus"",""65"",""66635582""
","""event"",""trial"",""time""
""fullscreenenter"",""1"",""2784""
","""event"",""trial"",""time""
""fullscreenexit"",""65"",""53667359""
","","","","","","9230.5","<p> You can take your friend for a ride in the vehicle by pressing 1 and skip the ride by pressing 0. </p><br><div class=""choice-instructions-grid""> <div class=""choice-option""><img src=""images/approach.png"" class=""choice-option-img"" stage=""instructions"" position=""0"" ><div class=""choice-option-text""> Press ""1."" </div></div><div class=""choice-option""><img src=""images/avoid.png"" class=""choice-option-img"" stage=""instructions"" position=""1"" ><div class=""choice-option-text""> Press ""0."" </div></div>","","0","instructions","","","","","","","","","","",""
"learning-instructions","65","66636623","0.0-9.0-1.0-0.3","6156","1","17","Male","approach_avoid_spark_v1","""event"",""trial"",""time""
""fullscreenenter"",""1"",""2784""
""blur"",""60"",""737508""
""focus"",""60"",""53398329""
""fullscreenexit"",""65"",""53667359""
""blur"",""65"",""53669669""
""focus"",""65"",""61867424""
""blur"",""65"",""61870996""
""focus"",""65"",""66635582""
","""event"",""trial"",""time""
""blur"",""60"",""737508""
""blur"",""65"",""53669669""
""blur"",""65"",""61870996""
","""event"",""trial"",""time""
""focus"",""60"",""53398329""
""focus"",""65"",""61867424""
""focus"",""65"",""66635582""
","""event"",""trial"",""time""
""fullscreenenter"",""1"",""2784""
","""event"",""trial"",""time""
""fullscreenexit"",""65"",""53667359""
","","","","","","13186163.800000072","<p> If you take them for a ride in a vehicle they like, they will be thrilled! </p><p> But if you take them for a ride in a vehicle they do not like, they will be upset. </p>","","0","instructions","","","","","","","","","","",""
"learning-instructions","66","66653151","0.0-9.0-1.0-0.4","6156","1","17","Male","approach_avoid_spark_v1","""event"",""trial"",""time""
""fullscreenenter"",""1"",""2784""
""blur"",""60"",""737508""
""focus"",""60"",""53398329""
""fullscreenexit"",""65"",""53667359""
""blur"",""65"",""53669669""
""focus"",""65"",""61867424""
""blur"",""65"",""61870996""
""focus"",""65"",""66635582""
","""event"",""trial"",""time""
""blur"",""60"",""737508""
""blur"",""65"",""53669669""
""blur"",""65"",""61870996""
","""event"",""trial"",""time""
""focus"",""60"",""53398329""
""focus"",""65"",""61867424""
""focus"",""65"",""66635582""
","""event"",""trial"",""time""
""fullscreenenter"",""1"",""2784""
","""event"",""trial"",""time""
""fullscreenexit"",""65"",""53667359""
","","","","","","3379.2000000476837","<p> You will earn points based on how you made your friend feel. </p><p> If you made him thrilled, you will WIN anywhere from 1 - 9 points, </p><p> but if you made him upset, you will LOSE anywhere from 1 - 9 points. </p>","","0","instructions","","","","","","","","","","",""
"learning-instructions","67","66668706","0.0-9.0-1.0-0.5","6156","1","17","Male","approach_avoid_spark_v1","""event"",""trial"",""time""
""fullscreenenter"",""1"",""2784""
""blur"",""60"",""737508""
""focus"",""60"",""53398329""
""fullscreenexit"",""65"",""53667359""
""blur"",""65"",""53669669""
""focus"",""65"",""61867424""
""blur"",""65"",""61870996""
""focus"",""65"",""66635582""
","""event"",""trial"",""time""
""blur"",""60"",""737508""
""blur"",""65"",""53669669""
""blur"",""65"",""61870996""
","""event"",""trial"",""time""
""focus"",""60"",""53398329""
""focus"",""65"",""61867424""
""focus"",""65"",""66635582""
","""event"",""trial"",""time""
""fullscreenenter"",""1"",""2784""
","""event"",""trial"",""time""
""fullscreenexit"",""65"",""53667359""
","","","","","","6284","<p> You will see how many points you won or lost in the center of the screen. </p><p> Here is what you would see if you won 5 points: </p><p style=""color:green;font-size:50px;font-weight:bolder"">5</p>","","0","instructions","","","","","","","","","","",""
"learning-instructions","68","66674845","0.0-9.0-1.0-0.6","6156","1","17","Male","approach_avoid_spark_v1","""event"",""trial"",""time""
""fullscreenenter"",""1"",""2784""
""blur"",""60"",""737508""
""focus"",""60"",""53398329""
""fullscreenexit"",""65"",""53667359""
""blur"",""65"",""53669669""
""focus"",""65"",""61867424""
""blur"",""65"",""61870996""
""focus"",""65"",""66635582""
""blur"",""69"",""66729752""
""focus"",""69"",""66856840""
","""event"",""trial"",""time""
""blur"",""60"",""737508""
""blur"",""65"",""53669669""
""blur"",""65"",""61870996""
""blur"",""69"",""66729752""
","""event"",""trial"",""time""
""focus"",""60"",""53398329""
""focus"",""65"",""61867424""
""focus"",""65"",""66635582""
""focus"",""69"",""66856840""
","""event"",""trial"",""time""
""fullscreenenter"",""1"",""2784""
","""event"",""trial"",""time""
""fullscreenexit"",""65"",""53667359""
","","","","","","2283.3000000715256","<p> And here is what you would see if you lost 3 points: </p><p style=""color:red;font-size:50px;font-weight:bolder"">-3</p>","","0","instructions","","","","","","","","","","",""
"learning-instructions","69","66858939","0.0-9.0-1.0-0.7","6156","1","17","Male","approach_avoid_spark_v1","""event"",""trial"",""time""
""fullscreenenter"",""1"",""2784""
""blur"",""60"",""737508""
""focus"",""60"",""53398329""
""fullscreenexit"",""65"",""53667359""
""blur"",""65"",""53669669""
""focus"",""65"",""61867424""
""blur"",""65"",""61870996""
""focus"",""65"",""66635582""
""blur"",""69"",""66729752""
""focus"",""69"",""66856840""
","""event"",""trial"",""time""
""blur"",""60"",""737508""
""blur"",""65"",""53669669""
""blur"",""65"",""61870996""
""blur"",""69"",""66729752""
","""event"",""trial"",""time""
""focus"",""60"",""53398329""
""focus"",""65"",""61867424""
""focus"",""65"",""66635582""
""focus"",""69"",""66856840""
","""event"",""trial"",""time""
""fullscreenenter"",""1"",""2784""
","""event"",""trial"",""time""
""fullscreenexit"",""65"",""53667359""
","","","","","","165236.79999995232","<p> Some vehicles will make your friend REALLY thrilled or upset. </p><p> These vehicles will make you win or lose LOTS of points. </p><p> Other vehicles will only make him feel a little thrilled or upset. </p><p> These vehicles will make you win or lose small amounts of points. </p>","","0","instructions","","","","","","","","","","",""
"learning-instructions","70","66873340","0.0-9.0-1.0-0.8","6156","1","17","Male","approach_avoid_spark_v1","""event"",""trial"",""time""
""fullscreenenter"",""1"",""2784""
""blur"",""60"",""737508""
""focus"",""60"",""53398329""
""fullscreenexit"",""65"",""53667359""
""blur"",""65"",""53669669""
""focus"",""65"",""61867424""
""blur"",""65"",""61870996""
""focus"",""65"",""66635582""
""blur"",""69"",""66729752""
""focus"",""69"",""66856840""
","""event"",""trial"",""time""
""blur"",""60"",""737508""
""blur"",""65"",""53669669""
""blur"",""65"",""61870996""
""blur"",""69"",""66729752""
","""event"",""trial"",""time""
""focus"",""60"",""53398329""
""focus"",""65"",""61867424""
""focus"",""65"",""66635582""
""focus"",""69"",""66856840""
","""event"",""trial"",""time""
""fullscreenenter"",""1"",""2784""
","""event"",""trial"",""time""
""fullscreenexit"",""65"",""53667359""
","","","","","","1516.2999999523163","<p> If you choose to skip the ride, you will not win or lose any points. </p><p>  However, in the center of the screen, you will see the number of points you WOULD HAVE won or lost if you had taken your friend for a ride. </p>","","0","instructions","","","","","","","","","","",""
"learning-instructions","71","66886256","0.0-9.0-1.0-0.9","6156","1","17","Male","approach_avoid_spark_v1","""event"",""trial"",""time""
""fullscreenenter"",""1"",""2784""
""blur"",""60"",""737508""
""focus"",""60"",""53398329""
""fullscreenexit"",""65"",""53667359""
""blur"",""65"",""53669669""
""focus"",""65"",""61867424""
""blur"",""65"",""61870996""
""focus"",""65"",""66635582""
""blur"",""69"",""66729752""
""focus"",""69"",""66856840""
","""event"",""trial"",""time""
""blur"",""60"",""737508""
""blur"",""65"",""53669669""
""blur"",""65"",""61870996""
""blur"",""69"",""66729752""
","""event"",""trial"",""time""
""focus"",""60"",""53398329""
""focus"",""65"",""61867424""
""focus"",""65"",""66635582""
""focus"",""69"",""66856840""
","""event"",""trial"",""time""
""fullscreenenter"",""1"",""2784""
","""event"",""trial"",""time""
""fullscreenexit"",""65"",""53667359""
","","","","","","2063.0999999046326","<p> Here is what you might see if you did not take your friend for a ride but he would have enjoyed it: </p><p style=""color:grey; font-size:50px; display: inline-block; border-spacing: 15px; border-width:3px; border-style:solid; border-color:red"">  &nbsp; 6 &nbsp; </p><p> Remember, in this case, you would not win or lose ANY points because you skipped the ride.  </p>","","0","instructions","","","","","","","","","","",""
"learning-instructions","72","66895380","0.0-9.0-1.0-0.10","6156","1","17","Male","approach_avoid_spark_v1","""event"",""trial"",""time""
""fullscreenenter"",""1"",""2784""
""blur"",""60"",""737508""
""focus"",""60"",""53398329""
""fullscreenexit"",""65"",""53667359""
""blur"",""65"",""53669669""
""focus"",""65"",""61867424""
""blur"",""65"",""61870996""
""focus"",""65"",""66635582""
""blur"",""69"",""66729752""
""focus"",""69"",""66856840""
","""event"",""trial"",""time""
""blur"",""60"",""737508""
""blur"",""65"",""53669669""
""blur"",""65"",""61870996""
""blur"",""69"",""66729752""
","""event"",""trial"",""time""
""focus"",""60"",""53398329""
""focus"",""65"",""61867424""
""focus"",""65"",""66635582""
""focus"",""69"",""66856840""
","""event"",""trial"",""time""
""fullscreenenter"",""1"",""2784""
","""event"",""trial"",""time""
""fullscreenexit"",""65"",""53667359""
","","","","","","1476.5","<p> Try to make the best choice for each vehicle because </p><p> at the end of the game, you will earn bonus money based on how many points you earned. </p>","","0","instructions","","","","","","","","","","",""
"learning-instructions","73","66904420","0.0-9.0-1.0-0.11","6156","1","17","Male","approach_avoid_spark_v1","""event"",""trial"",""time""
""fullscreenenter"",""1"",""2784""
""blur"",""60"",""737508""
""focus"",""60"",""53398329""
""fullscreenexit"",""65"",""53667359""
""blur"",""65"",""53669669""
""focus"",""65"",""61867424""
""blur"",""65"",""61870996""
""focus"",""65"",""66635582""
""blur"",""69"",""66729752""
""focus"",""69"",""66856840""
","""event"",""trial"",""time""
""blur"",""60"",""737508""
""blur"",""65"",""53669669""
""blur"",""65"",""61870996""
""blur"",""69"",""66729752""
","""event"",""trial"",""time""
""focus"",""60"",""53398329""
""focus"",""65"",""61867424""
""focus"",""65"",""66635582""
""focus"",""69"",""66856840""
","""event"",""trial"",""time""
""fullscreenenter"",""1"",""2784""
","""event"",""trial"",""time""
""fullscreenexit"",""65"",""53667359""
","","","","","","837.6000000238419","<p> You will have 3 seconds to make each choice. Try to respond before time runs out! </p><p> You will lose 5 points each time you do not make a response. </p>","","0","instructions","","","","","","","","","","",""
"html-keyboard-response","74","66905061","0.0-9.0-2.0-0.0","6156","1","17","Male","approach_avoid_spark_v1","""event"",""trial"",""time""
""fullscreenenter"",""1"",""2784""
""blur"",""60"",""737508""
""focus"",""60"",""53398329""
""fullscreenexit"",""65"",""53667359""
""blur"",""65"",""53669669""
""focus"",""65"",""61867424""
""blur"",""65"",""61870996""
""focus"",""65"",""66635582""
""blur"",""69"",""66729752""
""focus"",""69"",""66856840""
","""event"",""trial"",""time""
""blur"",""60"",""737508""
""blur"",""65"",""53669669""
""blur"",""65"",""61870996""
""blur"",""69"",""66729752""
","""event"",""trial"",""time""
""focus"",""60"",""53398329""
""focus"",""65"",""61867424""
""focus"",""65"",""66635582""
""focus"",""69"",""66856840""
","""event"",""trial"",""time""
""fullscreenenter"",""1"",""2784""
","""event"",""trial"",""time""
""fullscreenexit"",""65"",""53667359""
","","","","","","null","<div style=""font-size:60px;"">+</div>","null","","fixation","","","","","","","","","","",""
"aa-learning-trial","75","66908081","0.0-9.0-2.0-1.0","6156","1","17","Male","approach_avoid_spark_v1","""event"",""trial"",""time""
""fullscreenenter"",""1"",""2784""
""blur"",""60"",""737508""
""focus"",""60"",""53398329""
""fullscreenexit"",""65"",""53667359""
""blur"",""65"",""53669669""
""focus"",""65"",""61867424""
""blur"",""65"",""61870996""
""focus"",""65"",""66635582""
""blur"",""69"",""66729752""
""focus"",""69"",""66856840""
","""event"",""trial"",""time""
""blur"",""60"",""737508""
""blur"",""65"",""53669669""
""blur"",""65"",""61870996""
""blur"",""69"",""66729752""
","""event"",""trial"",""time""
""focus"",""60"",""53398329""
""focus"",""65"",""61867424""
""focus"",""65"",""66635582""
""focus"",""69"",""66856840""
","""event"",""trial"",""time""
""fullscreenenter"",""1"",""2784""
","""event"",""trial"",""time""
""fullscreenexit"",""65"",""53667359""
","","","","","","null","images/truck8.png","","","learning","-4","-5","","null","truck","vehicles","1","0","","bad","[-4]"
"html-keyboard-response","76","66908601","0.0-9.0-2.0-0.1","6156","1","17","Male","approach_avoid_spark_v1","""event"",""trial"",""time""
""fullscreenenter"",""1"",""2784""
""blur"",""60"",""737508""
""focus"",""60"",""53398329""
""fullscreenexit"",""65"",""53667359""
""blur"",""65"",""53669669""
""focus"",""65"",""61867424""
""blur"",""65"",""61870996""
""focus"",""65"",""66635582""
""blur"",""69"",""66729752""
""focus"",""69"",""66856840""
","""event"",""trial"",""time""
""blur"",""60"",""737508""
""blur"",""65"",""53669669""
""blur"",""65"",""61870996""
""blur"",""69"",""66729752""
","""event"",""trial"",""time""
""focus"",""60"",""53398329""
""focus"",""65"",""61867424""
""focus"",""65"",""66635582""
""focus"",""69"",""66856840""
","""event"",""trial"",""time""
""fullscreenenter"",""1"",""2784""
","""event"",""trial"",""time""
""fullscreenexit"",""65"",""53667359""
","","","","","","null","<div style=""font-size:60px;"">+</div>","null","","fixation","","","","","","","","","","",""
"aa-learning-trial","77","66911611","0.0-9.0-2.0-1.1","6156","1","17","Male","approach_avoid_spark_v1","""event"",""trial"",""time""
""fullscreenenter"",""1"",""2784""
""blur"",""60"",""737508""
""focus"",""60"",""53398329""
""fullscreenexit"",""65"",""53667359""
""blur"",""65"",""53669669""
""focus"",""65"",""61867424""
""blur"",""65"",""61870996""
""focus"",""65"",""66635582""
""blur"",""69"",""66729752""
""focus"",""69"",""66856840""
","""event"",""trial"",""time""
""blur"",""60"",""737508""
""blur"",""65"",""53669669""
""blur"",""65"",""61870996""
""blur"",""69"",""66729752""
","""event"",""trial"",""time""
""focus"",""60"",""53398329""
""focus"",""65"",""61867424""
""focus"",""65"",""66635582""
""focus"",""69"",""66856840""
","""event"",""trial"",""time""
""fullscreenenter"",""1"",""2784""
","""event"",""trial"",""time""
""fullscreenexit"",""65"",""53667359""
","","","","","","null","images/train2.png","","","learning","1","-5","","null","train","vehicles","1","0","","good","[4]"
"html-keyboard-response","78","66912121","0.0-9.0-2.0-0.2","6156","1","17","Male","approach_avoid_spark_v1","""event"",""trial"",""time""
""fullscreenenter"",""1"",""2784""
""blur"",""60"",""737508""
""focus"",""60"",""53398329""
""fullscreenexit"",""65"",""53667359""
""blur"",""65"",""53669669""
""focus"",""65"",""61867424""
""blur"",""65"",""61870996""
""focus"",""65"",""66635582""
""blur"",""69"",""66729752""
""focus"",""69"",""66856840""
","""event"",""trial"",""time""
""blur"",""60"",""737508""
""blur"",""65"",""53669669""
""blur"",""65"",""61870996""
""blur"",""69"",""66729752""
","""event"",""trial"",""time""
""focus"",""60"",""53398329""
""focus"",""65"",""61867424""
""focus"",""65"",""66635582""
""focus"",""69"",""66856840""
","""event"",""trial"",""time""
""fullscreenenter"",""1"",""2784""
","""event"",""trial"",""time""
""fullscreenexit"",""65"",""53667359""
","","","","","","null","<div style=""font-size:60px;"">+</div>","null","","fixation","","","","","","","","","","",""
"aa-learning-trial","79","66915131","0.0-9.0-2.0-1.2","6156","1","17","Male","approach_avoid_spark_v1","""event"",""trial"",""time""
""fullscreenenter"",""1"",""2784""
""blur"",""60"",""737508""
""focus"",""60"",""53398329""
""fullscreenexit"",""65"",""53667359""
""blur"",""65"",""53669669""
""focus"",""65"",""61867424""
""blur"",""65"",""61870996""
""focus"",""65"",""66635582""
""blur"",""69"",""66729752""
""focus"",""69"",""66856840""
","""event"",""trial"",""time""
""blur"",""60"",""737508""
""blur"",""65"",""53669669""
""blur"",""65"",""61870996""
""blur"",""69"",""66729752""
","""event"",""trial"",""time""
""focus"",""60"",""53398329""
""focus"",""65"",""61867424""
""focus"",""65"",""66635582""
""focus"",""69"",""66856840""
","""event"",""trial"",""time""
""fullscreenenter"",""1"",""2784""
","""event"",""trial"",""time""
""fullscreenexit"",""65"",""53667359""
","","","","","","null","images/truck8.png","","","learning","2","-5","","null","truck","vehicles","1","0","","bad","[-4]"
"html-keyboard-response","80","66915641","0.0-9.0-2.0-0.3","6156","1","17","Male","approach_avoid_spark_v1","""event"",""trial"",""time""
""fullscreenenter"",""1"",""2784""
""blur"",""60"",""737508""
""focus"",""60"",""53398329""
""fullscreenexit"",""65"",""53667359""
""blur"",""65"",""53669669""
""focus"",""65"",""61867424""
""blur"",""65"",""61870996""
""focus"",""65"",""66635582""
""blur"",""69"",""66729752""
""focus"",""69"",""66856840""
","""event"",""trial"",""time""
""blur"",""60"",""737508""
""blur"",""65"",""53669669""
""blur"",""65"",""61870996""
""blur"",""69"",""66729752""
","""event"",""trial"",""time""
""focus"",""60"",""53398329""
""focus"",""65"",""61867424""
""focus"",""65"",""66635582""
""focus"",""69"",""66856840""
","""event"",""trial"",""time""
""fullscreenenter"",""1"",""2784""
","""event"",""trial"",""time""
""fullscreenexit"",""65"",""53667359""
","","","","","","null","<div style=""font-size:60px;"">+</div>","null","","fixation","","","","","","","","","","",""
"aa-learning-trial","81","66918661","0.0-9.0-2.0-1.3","6156","1","17","Male","approach_avoid_spark_v1","""event"",""trial"",""time""
""fullscreenenter"",""1"",""2784""
""blur"",""60"",""737508""
""focus"",""60"",""53398329""
""fullscreenexit"",""65"",""53667359""
""blur"",""65"",""53669669""
""focus"",""65"",""61867424""
""blur"",""65"",""61870996""
""focus"",""65"",""66635582""
""blur"",""69"",""66729752""
""focus"",""69"",""66856840""
","""event"",""trial"",""time""
""blur"",""60"",""737508""
""blur"",""65"",""53669669""
""blur"",""65"",""61870996""
""blur"",""69"",""66729752""
","""event"",""trial"",""time""
""focus"",""60"",""53398329""
""focus"",""65"",""61867424""
""focus"",""65"",""66635582""
""focus"",""69"",""66856840""
","""event"",""trial"",""time""
""fullscreenenter"",""1"",""2784""
","""event"",""trial"",""time""
""fullscreenexit"",""65"",""53667359""
","","","","","","null","images/train4.png","","","learning","4","-5","","null","train","vehicles","1","0","","good","[4]"
"html-keyboard-response","82","66919181","0.0-9.0-2.0-0.4","6156","1","17","Male","approach_avoid_spark_v1","""event"",""trial"",""time""
""fullscreenenter"",""1"",""2784""
""blur"",""60"",""737508""
""focus"",""60"",""53398329""
""fullscreenexit"",""65"",""53667359""
""blur"",""65"",""53669669""
""focus"",""65"",""61867424""
""blur"",""65"",""61870996""
""focus"",""65"",""66635582""
""blur"",""69"",""66729752""
""focus"",""69"",""66856840""
","""event"",""trial"",""time""
""blur"",""60"",""737508""
""blur"",""65"",""53669669""
""blur"",""65"",""61870996""
""blur"",""69"",""66729752""
","""event"",""trial"",""time""
""focus"",""60"",""53398329""
""focus"",""65"",""61867424""
""focus"",""65"",""66635582""
""focus"",""69"",""66856840""
","""event"",""trial"",""time""
""fullscreenenter"",""1"",""2784""
","""event"",""trial"",""time""
""fullscreenexit"",""65"",""53667359""
","","","","","","null","<div style=""font-size:60px;"">+</div>","null","","fixation","","","","","","","","","","",""
"aa-learning-trial","83","66922198","0.0-9.0-2.0-1.4","6156","1","17","Male","approach_avoid_spark_v1","""event"",""trial"",""time""
""fullscreenenter"",""1"",""2784""
""blur"",""60"",""737508""
""focus"",""60"",""53398329""
""fullscreenexit"",""65"",""53667359""
""blur"",""65"",""53669669""
""focus"",""65"",""61867424""
""blur"",""65"",""61870996""
""focus"",""65"",""66635582""
""blur"",""69"",""66729752""
""focus"",""69"",""66856840""
","""event"",""trial"",""time""
""blur"",""60"",""737508""
""blur"",""65"",""53669669""
""blur"",""65"",""61870996""
""blur"",""69"",""66729752""
","""event"",""trial"",""time""
""focus"",""60"",""53398329""
""focus"",""65"",""61867424""
""focus"",""65"",""66635582""
""focus"",""69"",""66856840""
","""event"",""trial"",""time""
""fullscreenenter"",""1"",""2784""
","""event"",""trial"",""time""
""fullscreenexit"",""65"",""53667359""
","","","","","","null","images/train2.png","","","learning","4","-5","","null","train","vehicles","1","0","","good","[4]"
"html-keyboard-response","84","66922711","0.0-9.0-2.0-0.5","6156","1","17","Male","approach_avoid_spark_v1","""event"",""trial"",""time""
""fullscreenenter"",""1"",""2784""
""blur"",""60"",""737508""
""focus"",""60"",""53398329""
""fullscreenexit"",""65"",""53667359""
""blur"",""65"",""53669669""
""focus"",""65"",""61867424""
""blur"",""65"",""61870996""
""focus"",""65"",""66635582""
""blur"",""69"",""66729752""
""focus"",""69"",""66856840""
","""event"",""trial"",""time""
""blur"",""60"",""737508""
""blur"",""65"",""53669669""
""blur"",""65"",""61870996""
""blur"",""69"",""66729752""
","""event"",""trial"",""time""
""focus"",""60"",""53398329""
""focus"",""65"",""61867424""
""focus"",""65"",""66635582""
""focus"",""69"",""66856840""
","""event"",""trial"",""time""
""fullscreenenter"",""1"",""2784""
","""event"",""trial"",""time""
""fullscreenexit"",""65"",""53667359""
","","","","","","null","<div style=""font-size:60px;"">+</div>","null","","fixation","","","","","","","","","","",""
"aa-learning-trial","85","66925721","0.0-9.0-2.0-1.5","6156","1","17","Male","approach_avoid_spark_v1","""event"",""trial"",""time""
""fullscreenenter"",""1"",""2784""
""blur"",""60"",""737508""
""focus"",""60"",""53398329""
""fullscreenexit"",""65"",""53667359""
""blur"",""65"",""53669669""
""focus"",""65"",""61867424""
""blur"",""65"",""61870996""
""focus"",""65"",""66635582""
""blur"",""69"",""66729752""
""focus"",""69"",""66856840""
","""event"",""trial"",""time""
""blur"",""60"",""737508""
""blur"",""65"",""53669669""
""blur"",""65"",""61870996""
""blur"",""69"",""66729752""
","""event"",""trial"",""time""
""focus"",""60"",""53398329""
""focus"",""65"",""61867424""
""focus"",""65"",""66635582""
""focus"",""69"",""66856840""
","""event"",""trial"",""time""
""fullscreenenter"",""1"",""2784""
","""event"",""trial"",""time""
""fullscreenexit"",""65"",""53667359""
","","","","","","null","images/truck3.png","","","learning","-3","-5","","null","truck","vehicles","1","0","","bad","[-4]"
"html-keyboard-response","86","66926241","0.0-9.0-2.0-0.6","6156","1","17","Male","approach_avoid_spark_v1","""event"",""trial"",""time""
""fullscreenenter"",""1"",""2784""
""blur"",""60"",""737508""
""focus"",""60"",""53398329""
""fullscreenexit"",""65"",""53667359""
""blur"",""65"",""53669669""
""focus"",""65"",""61867424""
""blur"",""65"",""61870996""
""focus"",""65"",""66635582""
""blur"",""69"",""66729752""
""focus"",""69"",""66856840""
","""event"",""trial"",""time""
""blur"",""60"",""737508""
""blur"",""65"",""53669669""
""blur"",""65"",""61870996""
""blur"",""69"",""66729752""
","""event"",""trial"",""time""
""focus"",""60"",""53398329""
""focus"",""65"",""61867424""
""focus"",""65"",""66635582""
""focus"",""69"",""66856840""
","""event"",""trial"",""time""
""fullscreenenter"",""1"",""2784""
","""event"",""trial"",""time""
""fullscreenexit"",""65"",""53667359""
","","","","","","null","<div style=""font-size:60px;"">+</div>","null","","fixation","","","","","","","","","","",""
"aa-learning-trial","87","66929261","0.0-9.0-2.0-1.6","6156","1","17","Male","approach_avoid_spark_v1","""event"",""trial"",""time""
""fullscreenenter"",""1"",""2784""
""blur"",""60"",""737508""
""focus"",""60"",""53398329""
""fullscreenexit"",""65"",""53667359""
""blur"",""65"",""53669669""
""focus"",""65"",""61867424""
""blur"",""65"",""61870996""
""focus"",""65"",""66635582""
""blur"",""69"",""66729752""
""focus"",""69"",""66856840""
","""event"",""trial"",""time""
""blur"",""60"",""737508""
""blur"",""65"",""53669669""
""blur"",""65"",""61870996""
""blur"",""69"",""66729752""
","""event"",""trial"",""time""
""focus"",""60"",""53398329""
""focus"",""65"",""61867424""
""focus"",""65"",""66635582""
""focus"",""69"",""66856840""
","""event"",""trial"",""time""
""fullscreenenter"",""1"",""2784""
","""event"",""trial"",""time""
""fullscreenexit"",""65"",""53667359""
","","","","","","null","images/plane8.png","","","learning","2","-5","","null","plane","vehicles","1","0","","neutral","0"
"html-keyboard-response","88","66929781","0.0-9.0-2.0-0.7","6156","1","17","Male","approach_avoid_spark_v1","""event"",""trial"",""time""
""fullscreenenter"",""1"",""2784""
""blur"",""60"",""737508""
""focus"",""60"",""53398329""
""fullscreenexit"",""65"",""53667359""
""blur"",""65"",""53669669""
""focus"",""65"",""61867424""
""blur"",""65"",""61870996""
""focus"",""65"",""66635582""
""blur"",""69"",""66729752""
""focus"",""69"",""66856840""
","""event"",""trial"",""time""
""blur"",""60"",""737508""
""blur"",""65"",""53669669""
""blur"",""65"",""61870996""
""blur"",""69"",""66729752""
","""event"",""trial"",""time""
""focus"",""60"",""53398329""
""focus"",""65"",""61867424""
""focus"",""65"",""66635582""
""focus"",""69"",""66856840""
","""event"",""trial"",""time""
""fullscreenenter"",""1"",""2784""
","""event"",""trial"",""time""
""fullscreenexit"",""65"",""53667359""
","","","","","","null","<div style=""font-size:60px;"">+</div>","null","","fixation","","","","","","","","","","",""
"aa-learning-trial","89","66932793","0.0-9.0-2.0-1.7","6156","1","17","Male","approach_avoid_spark_v1","""event"",""trial"",""time""
""fullscreenenter"",""1"",""2784""
""blur"",""60"",""737508""
""focus"",""60"",""53398329""
""fullscreenexit"",""65"",""53667359""
""blur"",""65"",""53669669""
""focus"",""65"",""61867424""
""blur"",""65"",""61870996""
""focus"",""65"",""66635582""
""blur"",""69"",""66729752""
""focus"",""69"",""66856840""
","""event"",""trial"",""time""
""blur"",""60"",""737508""
""blur"",""65"",""53669669""
""blur"",""65"",""61870996""
""blur"",""69"",""66729752""
","""event"",""trial"",""time""
""focus"",""60"",""53398329""
""focus"",""65"",""61867424""
""focus"",""65"",""66635582""
""focus"",""69"",""66856840""
","""event"",""trial"",""time""
""fullscreenenter"",""1"",""2784""
","""event"",""trial"",""time""
""fullscreenexit"",""65"",""53667359""
","","","","","","null","images/plane6.png","","","learning","-2","-5","","null","plane","vehicles","1","0","","neutral","0"
"html-keyboard-response","90","66933311","0.0-9.0-2.0-0.8","6156","1","17","Male","approach_avoid_spark_v1","""event"",""trial"",""time""
""fullscreenenter"",""1"",""2784""
""blur"",""60"",""737508""
""focus"",""60"",""53398329""
""fullscreenexit"",""65"",""53667359""
""blur"",""65"",""53669669""
""focus"",""65"",""61867424""
""blur"",""65"",""61870996""
""focus"",""65"",""66635582""
""blur"",""69"",""66729752""
""focus"",""69"",""66856840""
","""event"",""trial"",""time""
""blur"",""60"",""737508""
""blur"",""65"",""53669669""
""blur"",""65"",""61870996""
""blur"",""69"",""66729752""
","""event"",""trial"",""time""
""focus"",""60"",""53398329""
""focus"",""65"",""61867424""
""focus"",""65"",""66635582""
""focus"",""69"",""66856840""
","""event"",""trial"",""time""
""fullscreenenter"",""1"",""2784""
","""event"",""trial"",""time""
""fullscreenexit"",""65"",""53667359""
","","","","","","null","<div style=""font-size:60px;"">+</div>","null","","fixation","","","","","","","","","","",""
"aa-learning-trial","91","66936319","0.0-9.0-2.0-1.8","6156","1","17","Male","approach_avoid_spark_v1","""event"",""trial"",""time""
""fullscreenenter"",""1"",""2784""
""blur"",""60"",""737508""
""focus"",""60"",""53398329""
""fullscreenexit"",""65"",""53667359""
""blur"",""65"",""53669669""
""focus"",""65"",""61867424""
""blur"",""65"",""61870996""
""focus"",""65"",""66635582""
""blur"",""69"",""66729752""
""focus"",""69"",""66856840""
","""event"",""trial"",""time""
""blur"",""60"",""737508""
""blur"",""65"",""53669669""
""blur"",""65"",""61870996""
""blur"",""69"",""66729752""
","""event"",""trial"",""time""
""focus"",""60"",""53398329""
""focus"",""65"",""61867424""
""focus"",""65"",""66635582""
""focus"",""69"",""66856840""
","""event"",""trial"",""time""
""fullscreenenter"",""1"",""2784""
","""event"",""trial"",""time""
""fullscreenexit"",""65"",""53667359""
","","","","","","null","images/truck3.png","","","learning","-1","-5","","null","truck","vehicles","1","0","","bad","[-4]"
"html-keyboard-response","92","66936823","0.0-9.0-2.0-0.9","6156","1","17","Male","approach_avoid_spark_v1","""event"",""trial"",""time""
""fullscreenenter"",""1"",""2784""
""blur"",""60"",""737508""
""focus"",""60"",""53398329""
""fullscreenexit"",""65"",""53667359""
""blur"",""65"",""53669669""
""focus"",""65"",""61867424""
""blur"",""65"",""61870996""
""focus"",""65"",""66635582""
""blur"",""69"",""66729752""
""focus"",""69"",""66856840""
","""event"",""trial"",""time""
""blur"",""60"",""737508""
""blur"",""65"",""53669669""
""blur"",""65"",""61870996""
""blur"",""69"",""66729752""
","""event"",""trial"",""time""
""focus"",""60"",""53398329""
""focus"",""65"",""61867424""
""focus"",""65"",""66635582""
""focus"",""69"",""66856840""
","""event"",""trial"",""time""
""fullscreenenter"",""1"",""2784""
","""event"",""trial"",""time""
""fullscreenexit"",""65"",""53667359""
","","","","","","null","<div style=""font-size:60px;"">+</div>","null","","fixation","","","","","","","","","","",""
"aa-learning-trial","93","66939831","0.0-9.0-2.0-1.9","6156","1","17","Male","approach_avoid_spark_v1","""event"",""trial"",""time""
""fullscreenenter"",""1"",""2784""
""blur"",""60"",""737508""
""focus"",""60"",""53398329""
""fullscreenexit"",""65"",""53667359""
""blur"",""65"",""53669669""
""focus"",""65"",""61867424""
""blur"",""65"",""61870996""
""focus"",""65"",""66635582""
""blur"",""69"",""66729752""
""focus"",""69"",""66856840""
","""event"",""trial"",""time""
""blur"",""60"",""737508""
""blur"",""65"",""53669669""
""blur"",""65"",""61870996""
""blur"",""69"",""66729752""
","""event"",""trial"",""time""
""focus"",""60"",""53398329""
""focus"",""65"",""61867424""
""focus"",""65"",""66635582""
""focus"",""69"",""66856840""
","""event"",""trial"",""time""
""fullscreenenter"",""1"",""2784""
","""event"",""trial"",""time""
""fullscreenexit"",""65"",""53667359""
","","","","","","null","images/train7.png","","","learning","3","-5","","null","train","vehicles","1","0","","good","[4]"
"html-keyboard-response","94","66940335","0.0-9.0-2.0-0.10","6156","1","17","Male","approach_avoid_spark_v1","""event"",""trial"",""time""
""fullscreenenter"",""1"",""2784""
""blur"",""60"",""737508""
""focus"",""60"",""53398329""
""fullscreenexit"",""65"",""53667359""
""blur"",""65"",""53669669""
""focus"",""65"",""61867424""
""blur"",""65"",""61870996""
""focus"",""65"",""66635582""
""blur"",""69"",""66729752""
""focus"",""69"",""66856840""
","""event"",""trial"",""time""
""blur"",""60"",""737508""
""blur"",""65"",""53669669""
""blur"",""65"",""61870996""
""blur"",""69"",""66729752""
","""event"",""trial"",""time""
""focus"",""60"",""53398329""
""focus"",""65"",""61867424""
""focus"",""65"",""66635582""
""focus"",""69"",""66856840""
","""event"",""trial"",""time""
""fullscreenenter"",""1"",""2784""
","""event"",""trial"",""time""
""fullscreenexit"",""65"",""53667359""
","","","","","","null","<div style=""font-size:60px;"">+</div>","null","","fixation","","","","","","","","","","",""
"aa-learning-trial","95","66943343","0.0-9.0-2.0-1.10","6156","1","17","Male","approach_avoid_spark_v1","""event"",""trial"",""time""
""fullscreenenter"",""1"",""2784""
""blur"",""60"",""737508""
""focus"",""60"",""53398329""
""fullscreenexit"",""65"",""53667359""
""blur"",""65"",""53669669""
""focus"",""65"",""61867424""
""blur"",""65"",""61870996""
""focus"",""65"",""66635582""
""blur"",""69"",""66729752""
""focus"",""69"",""66856840""
","""event"",""trial"",""time""
""blur"",""60"",""737508""
""blur"",""65"",""53669669""
""blur"",""65"",""61870996""
""blur"",""69"",""66729752""
","""event"",""trial"",""time""
""focus"",""60"",""53398329""
""focus"",""65"",""61867424""
""focus"",""65"",""66635582""
""focus"",""69"",""66856840""
","""event"",""trial"",""time""
""fullscreenenter"",""1"",""2784""
","""event"",""trial"",""time""
""fullscreenexit"",""65"",""53667359""
","","","","","","null","images/plane5.png","","","learning","1","-5","","null","plane","vehicles","1","0","","neutral","0"
"html-keyboard-response","96","66943846","0.0-9.0-2.0-0.11","6156","1","17","Male","approach_avoid_spark_v1","""event"",""trial"",""time""
""fullscreenenter"",""1"",""2784""
""blur"",""60"",""737508""
""focus"",""60"",""53398329""
""fullscreenexit"",""65"",""53667359""
""blur"",""65"",""53669669""
""focus"",""65"",""61867424""
""blur"",""65"",""61870996""
""focus"",""65"",""66635582""
""blur"",""69"",""66729752""
""focus"",""69"",""66856840""
","""event"",""trial"",""time""
""blur"",""60"",""737508""
""blur"",""65"",""53669669""
""blur"",""65"",""61870996""
""blur"",""69"",""66729752""
","""event"",""trial"",""time""
""focus"",""60"",""53398329""
""focus"",""65"",""61867424""
""focus"",""65"",""66635582""
""focus"",""69"",""66856840""
","""event"",""trial"",""time""
""fullscreenenter"",""1"",""2784""
","""event"",""trial"",""time""
""fullscreenexit"",""65"",""53667359""
","","","","","","null","<div style=""font-size:60px;"">+</div>","null","","fixation","","","","","","","","","","",""
"aa-learning-trial","97","66946855","0.0-9.0-2.0-1.11","6156","1","17","Male","approach_avoid_spark_v1","""event"",""trial"",""time""
""fullscreenenter"",""1"",""2784""
""blur"",""60"",""737508""
""focus"",""60"",""53398329""
""fullscreenexit"",""65"",""53667359""
""blur"",""65"",""53669669""
""focus"",""65"",""61867424""
""blur"",""65"",""61870996""
""focus"",""65"",""66635582""
""blur"",""69"",""66729752""
""focus"",""69"",""66856840""
","""event"",""trial"",""time""
""blur"",""60"",""737508""
""blur"",""65"",""53669669""
""blur"",""65"",""61870996""
""blur"",""69"",""66729752""
","""event"",""trial"",""time""
""focus"",""60"",""53398329""
""focus"",""65"",""61867424""
""focus"",""65"",""66635582""
""focus"",""69"",""66856840""
","""event"",""trial"",""time""
""fullscreenenter"",""1"",""2784""
","""event"",""trial"",""time""
""fullscreenexit"",""65"",""53667359""
","","","","","","null","images/truck5.png","","","learning","-3","-5","","null","truck","vehicles","1","0","","bad","[-4]"
"html-keyboard-response","98","66947358","0.0-9.0-2.0-0.12","6156","1","17","Male","approach_avoid_spark_v1","""event"",""trial"",""time""
""fullscreenenter"",""1"",""2784""
""blur"",""60"",""737508""
""focus"",""60"",""53398329""
""fullscreenexit"",""65"",""53667359""
""blur"",""65"",""53669669""
""focus"",""65"",""61867424""
""blur"",""65"",""61870996""
""focus"",""65"",""66635582""
""blur"",""69"",""66729752""
""focus"",""69"",""66856840""
","""event"",""trial"",""time""
""blur"",""60"",""737508""
""blur"",""65"",""53669669""
""blur"",""65"",""61870996""
""blur"",""69"",""66729752""
","""event"",""trial"",""time""
""focus"",""60"",""53398329""
""focus"",""65"",""61867424""
""focus"",""65"",""66635582""
""focus"",""69"",""66856840""
","""event"",""trial"",""time""
""fullscreenenter"",""1"",""2784""
","""event"",""trial"",""time""
""fullscreenexit"",""65"",""53667359""
","","","","","","null","<div style=""font-size:60px;"">+</div>","null","","fixation","","","","","","","","","","",""
"aa-learning-trial","99","66950367","0.0-9.0-2.0-1.12","6156","1","17","Male","approach_avoid_spark_v1","""event"",""trial"",""time""
""fullscreenenter"",""1"",""2784""
""blur"",""60"",""737508""
""focus"",""60"",""53398329""
""fullscreenexit"",""65"",""53667359""
""blur"",""65"",""53669669""
""focus"",""65"",""61867424""
""blur"",""65"",""61870996""
""focus"",""65"",""66635582""
""blur"",""69"",""66729752""
""focus"",""69"",""66856840""
","""event"",""trial"",""time""
""blur"",""60"",""737508""
""blur"",""65"",""53669669""
""blur"",""65"",""61870996""
""blur"",""69"",""66729752""
","""event"",""trial"",""time""
""focus"",""60"",""53398329""
""focus"",""65"",""61867424""
""focus"",""65"",""66635582""
""focus"",""69"",""66856840""
","""event"",""trial"",""time""
""fullscreenenter"",""1"",""2784""
","""event"",""trial"",""time""
""fullscreenexit"",""65"",""53667359""
","","","","","","null","images/train4.png","","","learning","3","-5","","null","train","vehicles","1","0","","good","[4]"
"html-keyboard-response","100","66950870","0.0-9.0-2.0-0.13","6156","1","17","Male","approach_avoid_spark_v1","""event"",""trial"",""time""
""fullscreenenter"",""1"",""2784""
""blur"",""60"",""737508""
""focus"",""60"",""53398329""
""fullscreenexit"",""65"",""53667359""
""blur"",""65"",""53669669""
""focus"",""65"",""61867424""
""blur"",""65"",""61870996""
""focus"",""65"",""66635582""
""blur"",""69"",""66729752""
""focus"",""69"",""66856840""
","""event"",""trial"",""time""
""blur"",""60"",""737508""
""blur"",""65"",""53669669""
""blur"",""65"",""61870996""
""blur"",""69"",""66729752""
","""event"",""trial"",""time""
""focus"",""60"",""53398329""
""focus"",""65"",""61867424""
""focus"",""65"",""66635582""
""focus"",""69"",""66856840""
","""event"",""trial"",""time""
""fullscreenenter"",""1"",""2784""
","""event"",""trial"",""time""
""fullscreenexit"",""65"",""53667359""
","","","","","","null","<div style=""font-size:60px;"">+</div>","null","","fixation","","","","","","","","","","",""
"aa-learning-trial","101","66953886","0.0-9.0-2.0-1.13","6156","1","17","Male","approach_avoid_spark_v1","""event"",""trial"",""time""
""fullscreenenter"",""1"",""2784""
""blur"",""60"",""737508""
""focus"",""60"",""53398329""
""fullscreenexit"",""65"",""53667359""
""blur"",""65"",""53669669""
""focus"",""65"",""61867424""
""blur"",""65"",""61870996""
""focus"",""65"",""66635582""
""blur"",""69"",""66729752""
""focus"",""69"",""66856840""
","""event"",""trial"",""time""
""blur"",""60"",""737508""
""blur"",""65"",""53669669""
""blur"",""65"",""61870996""
""blur"",""69"",""66729752""
","""event"",""trial"",""time""
""focus"",""60"",""53398329""
""focus"",""65"",""61867424""
""focus"",""65"",""66635582""
""focus"",""69"",""66856840""
","""event"",""trial"",""time""
""fullscreenenter"",""1"",""2784""
","""event"",""trial"",""time""
""fullscreenexit"",""65"",""53667359""
","","","","","","null","images/plane8.png","","","learning","[1]","-5","","null","plane","vehicles","1","0","","neutral","0"
"html-keyboard-response","102","66954391","0.0-9.0-2.0-0.14","6156","1","17","Male","approach_avoid_spark_v1","""event"",""trial"",""time""
""fullscreenenter"",""1"",""2784""
""blur"",""60"",""737508""
""focus"",""60"",""53398329""
""fullscreenexit"",""65"",""53667359""
""blur"",""65"",""53669669""
""focus"",""65"",""61867424""
""blur"",""65"",""61870996""
""focus"",""65"",""66635582""
""blur"",""69"",""66729752""
""focus"",""69"",""66856840""
","""event"",""trial"",""time""
""blur"",""60"",""737508""
""blur"",""65"",""53669669""
""blur"",""65"",""61870996""
""blur"",""69"",""66729752""
","""event"",""trial"",""time""
""focus"",""60"",""53398329""
""focus"",""65"",""61867424""
""focus"",""65"",""66635582""
""focus"",""69"",""66856840""
","""event"",""trial"",""time""
""fullscreenenter"",""1"",""2784""
","""event"",""trial"",""time""
""fullscreenexit"",""65"",""53667359""
","","","","","","null","<div style=""font-size:60px;"">+</div>","null","","fixation","","","","","","","","","","",""
"aa-learning-trial","103","66957399","0.0-9.0-2.0-1.14","6156","1","17","Male","approach_avoid_spark_v1","""event"",""trial"",""time""
""fullscreenenter"",""1"",""2784""
""blur"",""60"",""737508""
""focus"",""60"",""53398329""
""fullscreenexit"",""65"",""53667359""
""blur"",""65"",""53669669""
""focus"",""65"",""61867424""
""blur"",""65"",""61870996""
""focus"",""65"",""66635582""
""blur"",""69"",""66729752""
""focus"",""69"",""66856840""
","""event"",""trial"",""time""
""blur"",""60"",""737508""
""blur"",""65"",""53669669""
""blur"",""65"",""61870996""
""blur"",""69"",""66729752""
","""event"",""trial"",""time""
""focus"",""60"",""53398329""
""focus"",""65"",""61867424""
""focus"",""65"",""66635582""
""focus"",""69"",""66856840""
","""event"",""trial"",""time""
""fullscreenenter"",""1"",""2784""
","""event"",""trial"",""time""
""fullscreenexit"",""65"",""53667359""
","","","","","","null","images/plane6.png","","","learning","-1","-5","","null","plane","vehicles","1","0","","neutral","0"
"html-keyboard-response","104","66957902","0.0-9.0-2.0-0.15","6156","1","17","Male","approach_avoid_spark_v1","""event"",""trial"",""time""
""fullscreenenter"",""1"",""2784""
""blur"",""60"",""737508""
""focus"",""60"",""53398329""
""fullscreenexit"",""65"",""53667359""
""blur"",""65"",""53669669""
""focus"",""65"",""61867424""
""blur"",""65"",""61870996""
""focus"",""65"",""66635582""
""blur"",""69"",""66729752""
""focus"",""69"",""66856840""
","""event"",""trial"",""time""
""blur"",""60"",""737508""
""blur"",""65"",""53669669""
""blur"",""65"",""61870996""
""blur"",""69"",""66729752""
","""event"",""trial"",""time""
""focus"",""60"",""53398329""
""focus"",""65"",""61867424""
""focus"",""65"",""66635582""
""focus"",""69"",""66856840""
","""event"",""trial"",""time""
""fullscreenenter"",""1"",""2784""
","""event"",""trial"",""time""
""fullscreenexit"",""65"",""53667359""
","","","","","","null","<div style=""font-size:60px;"">+</div>","null","","fixation","","","","","","","","","","",""
"aa-learning-trial","105","66960910","0.0-9.0-2.0-1.15","6156","1","17","Male","approach_avoid_spark_v1","""event"",""trial"",""time""
""fullscreenenter"",""1"",""2784""
""blur"",""60"",""737508""
""focus"",""60"",""53398329""
""fullscreenexit"",""65"",""53667359""
""blur"",""65"",""53669669""
""focus"",""65"",""61867424""
""blur"",""65"",""61870996""
""focus"",""65"",""66635582""
""blur"",""69"",""66729752""
""focus"",""69"",""66856840""
","""event"",""trial"",""time""
""blur"",""60"",""737508""
""blur"",""65"",""53669669""
""blur"",""65"",""61870996""
""blur"",""69"",""66729752""
","""event"",""trial"",""time""
""focus"",""60"",""53398329""
""focus"",""65"",""61867424""
""focus"",""65"",""66635582""
""focus"",""69"",""66856840""
","""event"",""trial"",""time""
""fullscreenenter"",""1"",""2784""
","""event"",""trial"",""time""
""fullscreenexit"",""65"",""53667359""
","","","","","","null","images/truck5.png","","","learning","-3","-5","","null","truck","vehicles","1","0","","bad","[-4]"
"html-keyboard-response","106","66961414","0.0-9.0-2.0-0.16","6156","1","17","Male","approach_avoid_spark_v1","""event"",""trial"",""time""
""fullscreenenter"",""1"",""2784""
""blur"",""60"",""737508""
""focus"",""60"",""53398329""
""fullscreenexit"",""65"",""53667359""
""blur"",""65"",""53669669""
""focus"",""65"",""61867424""
""blur"",""65"",""61870996""
""focus"",""65"",""66635582""
""blur"",""69"",""66729752""
""focus"",""69"",""66856840""
","""event"",""trial"",""time""
""blur"",""60"",""737508""
""blur"",""65"",""53669669""
""blur"",""65"",""61870996""
""blur"",""69"",""66729752""
","""event"",""trial"",""time""
""focus"",""60"",""53398329""
""focus"",""65"",""61867424""
""focus"",""65"",""66635582""
""focus"",""69"",""66856840""
","""event"",""trial"",""time""
""fullscreenenter"",""1"",""2784""
","""event"",""trial"",""time""
""fullscreenexit"",""65"",""53667359""
","","","","","","null","<div style=""font-size:60px;"">+</div>","null","","fixation","","","","","","","","","","",""
"aa-learning-trial","107","66964422","0.0-9.0-2.0-1.16","6156","1","17","Male","approach_avoid_spark_v1","""event"",""trial"",""time""
""fullscreenenter"",""1"",""2784""
""blur"",""60"",""737508""
""focus"",""60"",""53398329""
""fullscreenexit"",""65"",""53667359""
""blur"",""65"",""53669669""
""focus"",""65"",""61867424""
""blur"",""65"",""61870996""
""focus"",""65"",""66635582""
""blur"",""69"",""66729752""
""focus"",""69"",""66856840""
","""event"",""trial"",""time""
""blur"",""60"",""737508""
""blur"",""65"",""53669669""
""blur"",""65"",""61870996""
""blur"",""69"",""66729752""
","""event"",""trial"",""time""
""focus"",""60"",""53398329""
""focus"",""65"",""61867424""
""focus"",""65"",""66635582""
""focus"",""69"",""66856840""
","""event"",""trial"",""time""
""fullscreenenter"",""1"",""2784""
","""event"",""trial"",""time""
""fullscreenexit"",""65"",""53667359""
","","","","","","null","images/train1.png","","","learning","7","-5","","null","train","vehicles","1","0","","good","[4]"
"html-keyboard-response","108","66964926","0.0-9.0-2.0-0.17","6156","1","17","Male","approach_avoid_spark_v1","""event"",""trial"",""time""
""fullscreenenter"",""1"",""2784""
""blur"",""60"",""737508""
""focus"",""60"",""53398329""
""fullscreenexit"",""65"",""53667359""
""blur"",""65"",""53669669""
""focus"",""65"",""61867424""
""blur"",""65"",""61870996""
""focus"",""65"",""66635582""
""blur"",""69"",""66729752""
""focus"",""69"",""66856840""
","""event"",""trial"",""time""
""blur"",""60"",""737508""
""blur"",""65"",""53669669""
""blur"",""65"",""61870996""
""blur"",""69"",""66729752""
","""event"",""trial"",""time""
""focus"",""60"",""53398329""
""focus"",""65"",""61867424""
""focus"",""65"",""66635582""
""focus"",""69"",""66856840""
","""event"",""trial"",""time""
""fullscreenenter"",""1"",""2784""
","""event"",""trial"",""time""
""fullscreenexit"",""65"",""53667359""
","","","","","","null","<div style=""font-size:60px;"">+</div>","null","","fixation","","","","","","","","","","",""
"aa-learning-trial","109","66967935","0.0-9.0-2.0-1.17","6156","1","17","Male","approach_avoid_spark_v1","""event"",""trial"",""time""
""fullscreenenter"",""1"",""2784""
""blur"",""60"",""737508""
""focus"",""60"",""53398329""
""fullscreenexit"",""65"",""53667359""
""blur"",""65"",""53669669""
""focus"",""65"",""61867424""
""blur"",""65"",""61870996""
""focus"",""65"",""66635582""
""blur"",""69"",""66729752""
""focus"",""69"",""66856840""
","""event"",""trial"",""time""
""blur"",""60"",""737508""
""blur"",""65"",""53669669""
""blur"",""65"",""61870996""
""blur"",""69"",""66729752""
","""event"",""trial"",""time""
""focus"",""60"",""53398329""
""focus"",""65"",""61867424""
""focus"",""65"",""66635582""
""focus"",""69"",""66856840""
","""event"",""trial"",""time""
""fullscreenenter"",""1"",""2784""
","""event"",""trial"",""time""
""fullscreenexit"",""65"",""53667359""
","","","","","","null","images/plane8.png","","","learning","[-1]","-5","","null","plane","vehicles","1","0","","neutral","0"
"html-keyboard-response","110","66968439","0.0-9.0-2.0-0.18","6156","1","17","Male","approach_avoid_spark_v1","""event"",""trial"",""time""
""fullscreenenter"",""1"",""2784""
""blur"",""60"",""737508""
""focus"",""60"",""53398329""
""fullscreenexit"",""65"",""53667359""
""blur"",""65"",""53669669""
""focus"",""65"",""61867424""
""blur"",""65"",""61870996""
""focus"",""65"",""66635582""
""blur"",""69"",""66729752""
""focus"",""69"",""66856840""
","""event"",""trial"",""time""
""blur"",""60"",""737508""
""blur"",""65"",""53669669""
""blur"",""65"",""61870996""
""blur"",""69"",""66729752""
","""event"",""trial"",""time""
""focus"",""60"",""53398329""
""focus"",""65"",""61867424""
""focus"",""65"",""66635582""
""focus"",""69"",""66856840""
","""event"",""trial"",""time""
""fullscreenenter"",""1"",""2784""
","""event"",""trial"",""time""
""fullscreenexit"",""65"",""53667359""
","","","","","","null","<div style=""font-size:60px;"">+</div>","null","","fixation","","","","","","","","","","",""
"aa-learning-trial","111","66971447","0.0-9.0-2.0-1.18","6156","1","17","Male","approach_avoid_spark_v1","""event"",""trial"",""time""
""fullscreenenter"",""1"",""2784""
""blur"",""60"",""737508""
""focus"",""60"",""53398329""
""fullscreenexit"",""65"",""53667359""
""blur"",""65"",""53669669""
""focus"",""65"",""61867424""
""blur"",""65"",""61870996""
""focus"",""65"",""66635582""
""blur"",""69"",""66729752""
""focus"",""69"",""66856840""
","""event"",""trial"",""time""
""blur"",""60"",""737508""
""blur"",""65"",""53669669""
""blur"",""65"",""61870996""
""blur"",""69"",""66729752""
","""event"",""trial"",""time""
""focus"",""60"",""53398329""
""focus"",""65"",""61867424""
""focus"",""65"",""66635582""
""focus"",""69"",""66856840""
","""event"",""trial"",""time""
""fullscreenenter"",""1"",""2784""
","""event"",""trial"",""time""
""fullscreenexit"",""65"",""53667359""
","","","","","","null","images/train4.png","","","learning","4","-5","","null","train","vehicles","1","0","","good","[4]"
"html-keyboard-response","112","66971951","0.0-9.0-2.0-0.19","6156","1","17","Male","approach_avoid_spark_v1","""event"",""trial"",""time""
""fullscreenenter"",""1"",""2784""
""blur"",""60"",""737508""
""focus"",""60"",""53398329""
""fullscreenexit"",""65"",""53667359""
""blur"",""65"",""53669669""
""focus"",""65"",""61867424""
""blur"",""65"",""61870996""
""focus"",""65"",""66635582""
""blur"",""69"",""66729752""
""focus"",""69"",""66856840""
","""event"",""trial"",""time""
""blur"",""60"",""737508""
""blur"",""65"",""53669669""
""blur"",""65"",""61870996""
""blur"",""69"",""66729752""
","""event"",""trial"",""time""
""focus"",""60"",""53398329""
""focus"",""65"",""61867424""
""focus"",""65"",""66635582""
""focus"",""69"",""66856840""
","""event"",""trial"",""time""
""fullscreenenter"",""1"",""2784""
","""event"",""trial"",""time""
""fullscreenexit"",""65"",""53667359""
","","","","","","null","<div style=""font-size:60px;"">+</div>","null","","fixation","","","","","","","","","","",""
"aa-learning-trial","113","66974958","0.0-9.0-2.0-1.19","6156","1","17","Male","approach_avoid_spark_v1","""event"",""trial"",""time""
""fullscreenenter"",""1"",""2784""
""blur"",""60"",""737508""
""focus"",""60"",""53398329""
""fullscreenexit"",""65"",""53667359""
""blur"",""65"",""53669669""
""focus"",""65"",""61867424""
""blur"",""65"",""61870996""
""focus"",""65"",""66635582""
""blur"",""69"",""66729752""
""focus"",""69"",""66856840""
","""event"",""trial"",""time""
""blur"",""60"",""737508""
""blur"",""65"",""53669669""
""blur"",""65"",""61870996""
""blur"",""69"",""66729752""
","""event"",""trial"",""time""
""focus"",""60"",""53398329""
""focus"",""65"",""61867424""
""focus"",""65"",""66635582""
""focus"",""69"",""66856840""
","""event"",""trial"",""time""
""fullscreenenter"",""1"",""2784""
","""event"",""trial"",""time""
""fullscreenexit"",""65"",""53667359""
","","","","","","null","images/truck3.png","","","learning","-4","-5","","null","truck","vehicles","1","0","","bad","[-4]"
"html-keyboard-response","114","66975462","0.0-9.0-2.0-0.20","6156","1","17","Male","approach_avoid_spark_v1","""event"",""trial"",""time""
""fullscreenenter"",""1"",""2784""
""blur"",""60"",""737508""
""focus"",""60"",""53398329""
""fullscreenexit"",""65"",""53667359""
""blur"",""65"",""53669669""
""focus"",""65"",""61867424""
""blur"",""65"",""61870996""
""focus"",""65"",""66635582""
""blur"",""69"",""66729752""
""focus"",""69"",""66856840""
","""event"",""trial"",""time""
""blur"",""60"",""737508""
""blur"",""65"",""53669669""
""blur"",""65"",""61870996""
""blur"",""69"",""66729752""
","""event"",""trial"",""time""
""focus"",""60"",""53398329""
""focus"",""65"",""61867424""
""focus"",""65"",""66635582""
""focus"",""69"",""66856840""
","""event"",""trial"",""time""
""fullscreenenter"",""1"",""2784""
","""event"",""trial"",""time""
""fullscreenexit"",""65"",""53667359""
","","","","","","null","<div style=""font-size:60px;"">+</div>","null","","fixation","","","","","","","","","","",""
"aa-learning-trial","115","66978470","0.0-9.0-2.0-1.20","6156","1","17","Male","approach_avoid_spark_v1","""event"",""trial"",""time""
""fullscreenenter"",""1"",""2784""
""blur"",""60"",""737508""
""focus"",""60"",""53398329""
""fullscreenexit"",""65"",""53667359""
""blur"",""65"",""53669669""
""focus"",""65"",""61867424""
""blur"",""65"",""61870996""
""focus"",""65"",""66635582""
""blur"",""69"",""66729752""
""focus"",""69"",""66856840""
","""event"",""trial"",""time""
""blur"",""60"",""737508""
""blur"",""65"",""53669669""
""blur"",""65"",""61870996""
""blur"",""69"",""66729752""
","""event"",""trial"",""time""
""focus"",""60"",""53398329""
""focus"",""65"",""61867424""
""focus"",""65"",""66635582""
""focus"",""69"",""66856840""
","""event"",""trial"",""time""
""fullscreenenter"",""1"",""2784""
","""event"",""trial"",""time""
""fullscreenexit"",""65"",""53667359""
","","","","","","null","images/truck5.png","","","learning","-6","-5","","null","truck","vehicles","1","0","","bad","[-4]"
"html-keyboard-response","116","66978974","0.0-9.0-2.0-0.21","6156","1","17","Male","approach_avoid_spark_v1","""event"",""trial"",""time""
""fullscreenenter"",""1"",""2784""
""blur"",""60"",""737508""
""focus"",""60"",""53398329""
""fullscreenexit"",""65"",""53667359""
""blur"",""65"",""53669669""
""focus"",""65"",""61867424""
""blur"",""65"",""61870996""
""focus"",""65"",""66635582""
""blur"",""69"",""66729752""
""focus"",""69"",""66856840""
","""event"",""trial"",""time""
""blur"",""60"",""737508""
""blur"",""65"",""53669669""
""blur"",""65"",""61870996""
""blur"",""69"",""66729752""
","""event"",""trial"",""time""
""focus"",""60"",""53398329""
""focus"",""65"",""61867424""
""focus"",""65"",""66635582""
""focus"",""69"",""66856840""
","""event"",""trial"",""time""
""fullscreenenter"",""1"",""2784""
","""event"",""trial"",""time""
""fullscreenexit"",""65"",""53667359""
","","","","","","null","<div style=""font-size:60px;"">+</div>","null","","fixation","","","","","","","","","","",""
"aa-learning-trial","117","66981983","0.0-9.0-2.0-1.21","6156","1","17","Male","approach_avoid_spark_v1","""event"",""trial"",""time""
""fullscreenenter"",""1"",""2784""
""blur"",""60"",""737508""
""focus"",""60"",""53398329""
""fullscreenexit"",""65"",""53667359""
""blur"",""65"",""53669669""
""focus"",""65"",""61867424""
""blur"",""65"",""61870996""
""focus"",""65"",""66635582""
""blur"",""69"",""66729752""
""focus"",""69"",""66856840""
","""event"",""trial"",""time""
""blur"",""60"",""737508""
""blur"",""65"",""53669669""
""blur"",""65"",""61870996""
""blur"",""69"",""66729752""
","""event"",""trial"",""time""
""focus"",""60"",""53398329""
""focus"",""65"",""61867424""
""focus"",""65"",""66635582""
""focus"",""69"",""66856840""
","""event"",""trial"",""time""
""fullscreenenter"",""1"",""2784""
","""event"",""trial"",""time""
""fullscreenexit"",""65"",""53667359""
","","","","","","null","images/truck2.png","","","learning","-1","-5","","null","truck","vehicles","1","0","","bad","[-4]"
"html-keyboard-response","118","66982486","0.0-9.0-2.0-0.22","6156","1","17","Male","approach_avoid_spark_v1","""event"",""trial"",""time""
""fullscreenenter"",""1"",""2784""
""blur"",""60"",""737508""
""focus"",""60"",""53398329""
""fullscreenexit"",""65"",""53667359""
""blur"",""65"",""53669669""
""focus"",""65"",""61867424""
""blur"",""65"",""61870996""
""focus"",""65"",""66635582""
""blur"",""69"",""66729752""
""focus"",""69"",""66856840""
","""event"",""trial"",""time""
""blur"",""60"",""737508""
""blur"",""65"",""53669669""
""blur"",""65"",""61870996""
""blur"",""69"",""66729752""
","""event"",""trial"",""time""
""focus"",""60"",""53398329""
""focus"",""65"",""61867424""
""focus"",""65"",""66635582""
""focus"",""69"",""66856840""
","""event"",""trial"",""time""
""fullscreenenter"",""1"",""2784""
","""event"",""trial"",""time""
""fullscreenexit"",""65"",""53667359""
","","","","","","null","<div style=""font-size:60px;"">+</div>","null","","fixation","","","","","","","","","","",""
"aa-learning-trial","119","66985495","0.0-9.0-2.0-1.22","6156","1","17","Male","approach_avoid_spark_v1","""event"",""trial"",""time""
""fullscreenenter"",""1"",""2784""
""blur"",""60"",""737508""
""focus"",""60"",""53398329""
""fullscreenexit"",""65"",""53667359""
""blur"",""65"",""53669669""
""focus"",""65"",""61867424""
""blur"",""65"",""61870996""
""focus"",""65"",""66635582""
""blur"",""69"",""66729752""
""focus"",""69"",""66856840""
","""event"",""trial"",""time""
""blur"",""60"",""737508""
""blur"",""65"",""53669669""
""blur"",""65"",""61870996""
""blur"",""69"",""66729752""
","""event"",""trial"",""time""
""focus"",""60"",""53398329""
""focus"",""65"",""61867424""
""focus"",""65"",""66635582""
""focus"",""69"",""66856840""
","""event"",""trial"",""time""
""fullscreenenter"",""1"",""2784""
","""event"",""trial"",""time""
""fullscreenexit"",""65"",""53667359""
","","","","","","null","images/train2.png","","","learning","2","-5","","null","train","vehicles","1","0","","good","[4]"
"html-keyboard-response","120","66985998","0.0-9.0-2.0-0.23","6156","1","17","Male","approach_avoid_spark_v1","""event"",""trial"",""time""
""fullscreenenter"",""1"",""2784""
""blur"",""60"",""737508""
""focus"",""60"",""53398329""
""fullscreenexit"",""65"",""53667359""
""blur"",""65"",""53669669""
""focus"",""65"",""61867424""
""blur"",""65"",""61870996""
""focus"",""65"",""66635582""
""blur"",""69"",""66729752""
""focus"",""69"",""66856840""
","""event"",""trial"",""time""
""blur"",""60"",""737508""
""blur"",""65"",""53669669""
""blur"",""65"",""61870996""
""blur"",""69"",""66729752""
","""event"",""trial"",""time""
""focus"",""60"",""53398329""
""focus"",""65"",""61867424""
""focus"",""65"",""66635582""
""focus"",""69"",""66856840""
","""event"",""trial"",""time""
""fullscreenenter"",""1"",""2784""
","""event"",""trial"",""time""
""fullscreenexit"",""65"",""53667359""
","","","","","","null","<div style=""font-size:60px;"">+</div>","null","","fixation","","","","","","","","","","",""
"aa-learning-trial","121","66989006","0.0-9.0-2.0-1.23","6156","1","17","Male","approach_avoid_spark_v1","""event"",""trial"",""time""
""fullscreenenter"",""1"",""2784""
""blur"",""60"",""737508""
""focus"",""60"",""53398329""
""fullscreenexit"",""65"",""53667359""
""blur"",""65"",""53669669""
""focus"",""65"",""61867424""
""blur"",""65"",""61870996""
""focus"",""65"",""66635582""
""blur"",""69"",""66729752""
""focus"",""69"",""66856840""
","""event"",""trial"",""time""
""blur"",""60"",""737508""
""blur"",""65"",""53669669""
""blur"",""65"",""61870996""
""blur"",""69"",""66729752""
","""event"",""trial"",""time""
""focus"",""60"",""53398329""
""focus"",""65"",""61867424""
""focus"",""65"",""66635582""
""focus"",""69"",""66856840""
","""event"",""trial"",""time""
""fullscreenenter"",""1"",""2784""
","""event"",""trial"",""time""
""fullscreenexit"",""65"",""53667359""
","","","","","","null","images/truck8.png","","","learning","-9","-5","","null","truck","vehicles","1","0","","bad","[-4]"
"html-keyboard-response","122","66989511","0.0-9.0-2.0-0.24","6156","1","17","Male","approach_avoid_spark_v1","""event"",""trial"",""time""
""fullscreenenter"",""1"",""2784""
""blur"",""60"",""737508""
""focus"",""60"",""53398329""
""fullscreenexit"",""65"",""53667359""
""blur"",""65"",""53669669""
""focus"",""65"",""61867424""
""blur"",""65"",""61870996""
""focus"",""65"",""66635582""
""blur"",""69"",""66729752""
""focus"",""69"",""66856840""
","""event"",""trial"",""time""
""blur"",""60"",""737508""
""blur"",""65"",""53669669""
""blur"",""65"",""61870996""
""blur"",""69"",""66729752""
","""event"",""trial"",""time""
""focus"",""60"",""53398329""
""focus"",""65"",""61867424""
""focus"",""65"",""66635582""
""focus"",""69"",""66856840""
","""event"",""trial"",""time""
""fullscreenenter"",""1"",""2784""
","""event"",""trial"",""time""
""fullscreenexit"",""65"",""53667359""
","","","","","","null","<div style=""font-size:60px;"">+</div>","null","","fixation","","","","","","","","","","",""
"aa-learning-trial","123","66992519","0.0-9.0-2.0-1.24","6156","1","17","Male","approach_avoid_spark_v1","""event"",""trial"",""time""
""fullscreenenter"",""1"",""2784""
""blur"",""60"",""737508""
""focus"",""60"",""53398329""
""fullscreenexit"",""65"",""53667359""
""blur"",""65"",""53669669""
""focus"",""65"",""61867424""
""blur"",""65"",""61870996""
""focus"",""65"",""66635582""
""blur"",""69"",""66729752""
""focus"",""69"",""66856840""
","""event"",""trial"",""time""
""blur"",""60"",""737508""
""blur"",""65"",""53669669""
""blur"",""65"",""61870996""
""blur"",""69"",""66729752""
","""event"",""trial"",""time""
""focus"",""60"",""53398329""
""focus"",""65"",""61867424""
""focus"",""65"",""66635582""
""focus"",""69"",""66856840""
","""event"",""trial"",""time""
""fullscreenenter"",""1"",""2784""
","""event"",""trial"",""time""
""fullscreenexit"",""65"",""53667359""
","","","","","","null","images/train2.png","","","learning","5","-5","","null","train","vehicles","1","0","","good","[4]"
"html-keyboard-response","124","66993022","0.0-9.0-2.0-0.25","6156","1","17","Male","approach_avoid_spark_v1","""event"",""trial"",""time""
""fullscreenenter"",""1"",""2784""
""blur"",""60"",""737508""
""focus"",""60"",""53398329""
""fullscreenexit"",""65"",""53667359""
""blur"",""65"",""53669669""
""focus"",""65"",""61867424""
""blur"",""65"",""61870996""
""focus"",""65"",""66635582""
""blur"",""69"",""66729752""
""focus"",""69"",""66856840""
","""event"",""trial"",""time""
""blur"",""60"",""737508""
""blur"",""65"",""53669669""
""blur"",""65"",""61870996""
""blur"",""69"",""66729752""
","""event"",""trial"",""time""
""focus"",""60"",""53398329""
""focus"",""65"",""61867424""
""focus"",""65"",""66635582""
""focus"",""69"",""66856840""
","""event"",""trial"",""time""
""fullscreenenter"",""1"",""2784""
","""event"",""trial"",""time""
""fullscreenexit"",""65"",""53667359""
","","","","","","null","<div style=""font-size:60px;"">+</div>","null","","fixation","","","","","","","","","","",""
"aa-learning-trial","125","66996031","0.0-9.0-2.0-1.25","6156","1","17","Male","approach_avoid_spark_v1","""event"",""trial"",""time""
""fullscreenenter"",""1"",""2784""
""blur"",""60"",""737508""
""focus"",""60"",""53398329""
""fullscreenexit"",""65"",""53667359""
""blur"",""65"",""53669669""
""focus"",""65"",""61867424""
""blur"",""65"",""61870996""
""focus"",""65"",""66635582""
""blur"",""69"",""66729752""
""focus"",""69"",""66856840""
","""event"",""trial"",""time""
""blur"",""60"",""737508""
""blur"",""65"",""53669669""
""blur"",""65"",""61870996""
""blur"",""69"",""66729752""
","""event"",""trial"",""time""
""focus"",""60"",""53398329""
""focus"",""65"",""61867424""
""focus"",""65"",""66635582""
""focus"",""69"",""66856840""
","""event"",""trial"",""time""
""fullscreenenter"",""1"",""2784""
","""event"",""trial"",""time""
""fullscreenexit"",""65"",""53667359""
","","","","","","null","images/train4.png","","","learning","4","-5","","null","train","vehicles","1","0","","good","[4]"
"html-keyboard-response","126","66996534","0.0-9.0-2.0-0.26","6156","1","17","Male","approach_avoid_spark_v1","""event"",""trial"",""time""
""fullscreenenter"",""1"",""2784""
""blur"",""60"",""737508""
""focus"",""60"",""53398329""
""fullscreenexit"",""65"",""53667359""
""blur"",""65"",""53669669""
""focus"",""65"",""61867424""
""blur"",""65"",""61870996""
""focus"",""65"",""66635582""
""blur"",""69"",""66729752""
""focus"",""69"",""66856840""
","""event"",""trial"",""time""
""blur"",""60"",""737508""
""blur"",""65"",""53669669""
""blur"",""65"",""61870996""
""blur"",""69"",""66729752""
","""event"",""trial"",""time""
""focus"",""60"",""53398329""
""focus"",""65"",""61867424""
""focus"",""65"",""66635582""
""focus"",""69"",""66856840""
","""event"",""trial"",""time""
""fullscreenenter"",""1"",""2784""
","""event"",""trial"",""time""
""fullscreenexit"",""65"",""53667359""
","","","","","","null","<div style=""font-size:60px;"">+</div>","null","","fixation","","","","","","","","","","",""
"aa-learning-trial","127","66999543","0.0-9.0-2.0-1.26","6156","1","17","Male","approach_avoid_spark_v1","""event"",""trial"",""time""
""fullscreenenter"",""1"",""2784""
""blur"",""60"",""737508""
""focus"",""60"",""53398329""
""fullscreenexit"",""65"",""53667359""
""blur"",""65"",""53669669""
""focus"",""65"",""61867424""
""blur"",""65"",""61870996""
""focus"",""65"",""66635582""
""blur"",""69"",""66729752""
""focus"",""69"",""66856840""
","""event"",""trial"",""time""
""blur"",""60"",""737508""
""blur"",""65"",""53669669""
""blur"",""65"",""61870996""
""blur"",""69"",""66729752""
","""event"",""trial"",""time""
""focus"",""60"",""53398329""
""focus"",""65"",""61867424""
""focus"",""65"",""66635582""
""focus"",""69"",""66856840""
","""event"",""trial"",""time""
""fullscreenenter"",""1"",""2784""
","""event"",""trial"",""time""
""fullscreenexit"",""65"",""53667359""
","","","","","","null","images/plane8.png","","","learning","1","-5","","null","plane","vehicles","1","0","","neutral","0"
"html-keyboard-response","128","67000046","0.0-9.0-2.0-0.27","6156","1","17","Male","approach_avoid_spark_v1","""event"",""trial"",""time""
""fullscreenenter"",""1"",""2784""
""blur"",""60"",""737508""
""focus"",""60"",""53398329""
""fullscreenexit"",""65"",""53667359""
""blur"",""65"",""53669669""
""focus"",""65"",""61867424""
""blur"",""65"",""61870996""
""focus"",""65"",""66635582""
""blur"",""69"",""66729752""
""focus"",""69"",""66856840""
","""event"",""trial"",""time""
""blur"",""60"",""737508""
""blur"",""65"",""53669669""
""blur"",""65"",""61870996""
""blur"",""69"",""66729752""
","""event"",""trial"",""time""
""focus"",""60"",""53398329""
""focus"",""65"",""61867424""
""focus"",""65"",""66635582""
""focus"",""69"",""66856840""
","""event"",""trial"",""time""
""fullscreenenter"",""1"",""2784""
","""event"",""trial"",""time""
""fullscreenexit"",""65"",""53667359""
","","","","","","null","<div style=""font-size:60px;"">+</div>","null","","fixation","","","","","","","","","","",""
"aa-learning-trial","129","67003054","0.0-9.0-2.0-1.27","6156","1","17","Male","approach_avoid_spark_v1","""event"",""trial"",""time""
""fullscreenenter"",""1"",""2784""
""blur"",""60"",""737508""
""focus"",""60"",""53398329""
""fullscreenexit"",""65"",""53667359""
""blur"",""65"",""53669669""
""focus"",""65"",""61867424""
""blur"",""65"",""61870996""
""focus"",""65"",""66635582""
""blur"",""69"",""66729752""
""focus"",""69"",""66856840""
","""event"",""trial"",""time""
""blur"",""60"",""737508""
""blur"",""65"",""53669669""
""blur"",""65"",""61870996""
""blur"",""69"",""66729752""
","""event"",""trial"",""time""
""focus"",""60"",""53398329""
""focus"",""65"",""61867424""
""focus"",""65"",""66635582""
""focus"",""69"",""66856840""
","""event"",""trial"",""time""
""fullscreenenter"",""1"",""2784""
","""event"",""trial"",""time""
""fullscreenexit"",""65"",""53667359""
","","","","","","null","images/train4.png","","","learning","5","-5","","null","train","vehicles","1","0","","good","[4]"
"html-keyboard-response","130","67003558","0.0-9.0-2.0-0.28","6156","1","17","Male","approach_avoid_spark_v1","""event"",""trial"",""time""
""fullscreenenter"",""1"",""2784""
""blur"",""60"",""737508""
""focus"",""60"",""53398329""
