"trial_type","trial_index","time_elapsed","internal_node_id","subject_id","task_condition","age","gender","task_version","interactions","blur_events","focus_events","fullscreenenter_events","fullscreenexit_events","success","timeout","failed_images","failed_audio","failed_video","rt","stimulus","response","button_pressed","task_part","approach_reward","points","key_press","option_selected","stim_cat","task_block","block_condition","block_number","correct","cat_type","mean_cat_reward"
"pavlovia","0","1","0.0-0.0","5191","2","25","Female","approach_avoid_spark_v1","""event"",""trial"",""time""
""fullscreenenter"",""1"",""1787""
","
","
","""event"",""trial"",""time""
""fullscreenenter"",""1"",""1787""
","
","","","","","","","","","","","","","","","","","","","","",""
"fullscreen","1","2776","0.0-1.0","5191","2","25","Female","approach_avoid_spark_v1","""event"",""trial"",""time""
""fullscreenenter"",""1"",""1787""
","
","
","""event"",""trial"",""time""
""fullscreenenter"",""1"",""1787""
","
","true","","","","","","","","","","","","","","","","","","","",""
"preload","2","30419","0.0-2.0","5191","2","25","Female","approach_avoid_spark_v1","""event"",""trial"",""time""
""fullscreenenter"",""1"",""1787""
","
","
","""event"",""trial"",""time""
""fullscreenenter"",""1"",""1787""
","
","true","false","[]","[]","[]","","","","","","","","","","","","","","","",""
"audio-keyboard-response","3","35068","0.0-3.0","5191","2","25","Female","approach_avoid_spark_v1","""event"",""trial"",""time""
""fullscreenenter"",""1"",""1787""
","
","
","""event"",""trial"",""time""
""fullscreenenter"",""1"",""1787""
","
","","","","","","4650.66666666667","audio/beep_loop.wav","audiovolumeup","","","","","","","","","","","","",""
"audio-button-response","4","39435","0.0-4.0","5191","2","25","Female","approach_avoid_spark_v1","""event"",""trial"",""time""
""fullscreenenter"",""1"",""1787""
""fullscreenexit"",""4"",""39987""
","
","
","""event"",""trial"",""time""
""fullscreenenter"",""1"",""1787""
","""event"",""trial"",""time""
""fullscreenexit"",""4"",""39987""
","","","","","","4371","audio/shark.wav","4","","","","","","","","","","","","",""
"audio-button-response","5","45740","0.0-5.0","5191","2","25","Female","approach_avoid_spark_v1","""event"",""trial"",""time""
""fullscreenenter"",""1"",""1787""
""fullscreenexit"",""4"",""39987""
""blur"",""5"",""46688""
""focus"",""6"",""54516""
","""event"",""trial"",""time""
""blur"",""5"",""46688""
","""event"",""trial"",""time""
""focus"",""6"",""54516""
","""event"",""trial"",""time""
""fullscreenenter"",""1"",""1787""
","""event"",""trial"",""time""
""fullscreenexit"",""4"",""39987""
","","","","","","5291","audio/turtle.wav","1","","","","","","","","","","","","",""
"preload","6","70017","0.0-6.0","5191","2","25","Female","approach_avoid_spark_v1","""event"",""trial"",""time""
""fullscreenenter"",""1"",""1787""
""fullscreenexit"",""4"",""39987""
""blur"",""5"",""46688""
""focus"",""6"",""54516""
","""event"",""trial"",""time""
""blur"",""5"",""46688""
","""event"",""trial"",""time""
""focus"",""6"",""54516""
","""event"",""trial"",""time""
""fullscreenenter"",""1"",""1787""
","""event"",""trial"",""time""
""fullscreenexit"",""4"",""39987""
","true","false","[]","[]","[]","","","","","","","","","","","","","","","",""
"html-keyboard-response","7","72028","0.0-7.0","5191","2","25","Female","approach_avoid_spark_v1","""event"",""trial"",""time""
""fullscreenenter"",""1"",""1787""
""fullscreenexit"",""4"",""39987""
""blur"",""5"",""46688""
""focus"",""6"",""54516""
","""event"",""trial"",""time""
""blur"",""5"",""46688""
","""event"",""trial"",""time""
""focus"",""6"",""54516""
","""event"",""trial"",""time""
""fullscreenenter"",""1"",""1787""
","""event"",""trial"",""time""
""fullscreenexit"",""4"",""39987""
","","","","","","2009.1000003814697","Welcome to the experiment. Press any key to begin and to advance the instructions."," ","","","","","","","","","","","","",""
"learning-instructions","8","80483","0.0-8.0-0.0-0.0","5191","2","25","Female","approach_avoid_spark_v1","""event"",""trial"",""time""
""fullscreenenter"",""1"",""1787""
""fullscreenexit"",""4"",""39987""
""blur"",""5"",""46688""
""focus"",""6"",""54516""
""blur"",""9"",""84894""
""focus"",""9"",""95518""
","""event"",""trial"",""time""
""blur"",""5"",""46688""
""blur"",""9"",""84894""
","""event"",""trial"",""time""
""focus"",""6"",""54516""
""focus"",""9"",""95518""
","""event"",""trial"",""time""
""fullscreenenter"",""1"",""1787""
","""event"",""trial"",""time""
""fullscreenexit"",""4"",""39987""
","","","","","","1515","<p> Welcome! Today you are going to play 6 different rounds of a decision-making game. </p><p> Use the mouse to click next to continue. </p>","","0","instructions","","","","","","","","","","",""
"learning-instructions","9","101818","0.0-8.0-0.0-0.1","5191","2","25","Female","approach_avoid_spark_v1","""event"",""trial"",""time""
""fullscreenenter"",""1"",""1787""
""fullscreenexit"",""4"",""39987""
""blur"",""5"",""46688""
""focus"",""6"",""54516""
""blur"",""9"",""84894""
""focus"",""9"",""95518""
","""event"",""trial"",""time""
""blur"",""5"",""46688""
""blur"",""9"",""84894""
","""event"",""trial"",""time""
""focus"",""6"",""54516""
""focus"",""9"",""95518""
","""event"",""trial"",""time""
""fullscreenenter"",""1"",""1787""
","""event"",""trial"",""time""
""fullscreenexit"",""4"",""39987""
","","","","","","18599.300000190735","<p> You will start with a practice round to learn the rules. </p>","","0","instructions","","","","","","","","","","",""
"learning-instructions","10","106884","0.0-8.0-0.0-0.2","5191","2","25","Female","approach_avoid_spark_v1","""event"",""trial"",""time""
""fullscreenenter"",""1"",""1787""
""fullscreenexit"",""4"",""39987""
""blur"",""5"",""46688""
""focus"",""6"",""54516""
""blur"",""9"",""84894""
""focus"",""9"",""95518""
","""event"",""trial"",""time""
""blur"",""5"",""46688""
""blur"",""9"",""84894""
","""event"",""trial"",""time""
""focus"",""6"",""54516""
""focus"",""9"",""95518""
","""event"",""trial"",""time""
""fullscreenenter"",""1"",""1787""
","""event"",""trial"",""time""
""fullscreenexit"",""4"",""39987""
","","","","","","1605.6999998092651","<p> Your goal in this round is to give out sports equipment to kids. </p></div>","","0","instructions","","","","","","","","","","",""
"learning-instructions","11","115044","0.0-8.0-0.0-0.3","5191","2","25","Female","approach_avoid_spark_v1","""event"",""trial"",""time""
""fullscreenenter"",""1"",""1787""
""fullscreenexit"",""4"",""39987""
""blur"",""5"",""46688""
""focus"",""6"",""54516""
""blur"",""9"",""84894""
""focus"",""9"",""95518""
","""event"",""trial"",""time""
""blur"",""5"",""46688""
""blur"",""9"",""84894""
","""event"",""trial"",""time""
""focus"",""6"",""54516""
""focus"",""9"",""95518""
","""event"",""trial"",""time""
""fullscreenenter"",""1"",""1787""
","""event"",""trial"",""time""
""fullscreenexit"",""4"",""39987""
","","","","","","595","<p> The kids only like some of the equipment.  </p><p> On each turn, you will see a piece of sports equipment.   </p><p> You need to decide whether to give it to the kids or not.  </p>","","0","instructions","","","","","","","","","","",""
"learning-instructions","12","120426","0.0-8.0-0.0-0.4","5191","2","25","Female","approach_avoid_spark_v1","""event"",""trial"",""time""
""fullscreenenter"",""1"",""1787""
""fullscreenexit"",""4"",""39987""
""blur"",""5"",""46688""
""focus"",""6"",""54516""
""blur"",""9"",""84894""
""focus"",""9"",""95518""
","""event"",""trial"",""time""
""blur"",""5"",""46688""
""blur"",""9"",""84894""
","""event"",""trial"",""time""
""focus"",""6"",""54516""
""focus"",""9"",""95518""
","""event"",""trial"",""time""
""fullscreenenter"",""1"",""1787""
","""event"",""trial"",""time""
""fullscreenexit"",""4"",""39987""
","","","","","","616.5999994277954","<p> You can give them the equipment by pressing 1 and choose not to give it to them by pressing 0. </p><br><div class=""choice-instructions-grid""> <div class=""choice-option""><img src=""images/approach.png"" class=""choice-option-img"" stage=""instructions"" position=""0"" ><div class=""choice-option-text""> Press ""1."" </div></div><div class=""choice-option""><img src=""images/avoid.png"" class=""choice-option-img"" stage=""instructions"" position=""1"" ><div class=""choice-option-text""> Press ""0."" </div></div>","","0","instructions","","","","","","","","","","",""
"learning-instructions","13","129653","0.0-8.0-0.0-0.5","5191","2","25","Female","approach_avoid_spark_v1","""event"",""trial"",""time""
""fullscreenenter"",""1"",""1787""
""fullscreenexit"",""4"",""39987""
""blur"",""5"",""46688""
""focus"",""6"",""54516""
""blur"",""9"",""84894""
""focus"",""9"",""95518""
","""event"",""trial"",""time""
""blur"",""5"",""46688""
""blur"",""9"",""84894""
","""event"",""trial"",""time""
""focus"",""6"",""54516""
""focus"",""9"",""95518""
","""event"",""trial"",""time""
""fullscreenenter"",""1"",""1787""
","""event"",""trial"",""time""
""fullscreenexit"",""4"",""39987""
","","","","","","1845.0999994277954","<p> If you give them a piece of equipment they like, they will be happy! </p><p> But if you give them a piece of equipment they do not like, they will be sad. </p>","","0","instructions","","","","","","","","","","",""
"learning-instructions","14","141252","0.0-8.0-0.0-0.6","5191","2","25","Female","approach_avoid_spark_v1","""event"",""trial"",""time""
""fullscreenenter"",""1"",""1787""
""fullscreenexit"",""4"",""39987""
""blur"",""5"",""46688""
""focus"",""6"",""54516""
""blur"",""9"",""84894""
""focus"",""9"",""95518""
","""event"",""trial"",""time""
""blur"",""5"",""46688""
""blur"",""9"",""84894""
","""event"",""trial"",""time""
""focus"",""6"",""54516""
""focus"",""9"",""95518""
","""event"",""trial"",""time""
""fullscreenenter"",""1"",""1787""
","""event"",""trial"",""time""
""fullscreenexit"",""4"",""39987""
","","","","","","1072.6999998092651","<p> You will earn points based on how you make kids feel. </p><p> If you make them happy, you will WIN anywhere from 1 - 9 points, </p><p> but if you make them sad, you will LOSE anywhere from 1 - 9 points. </p>","","0","instructions","","","","","","","","","","",""
"learning-instructions","15","151467","0.0-8.0-0.0-0.7","5191","2","25","Female","approach_avoid_spark_v1","""event"",""trial"",""time""
""fullscreenenter"",""1"",""1787""
""fullscreenexit"",""4"",""39987""
""blur"",""5"",""46688""
""focus"",""6"",""54516""
""blur"",""9"",""84894""
""focus"",""9"",""95518""
","""event"",""trial"",""time""
""blur"",""5"",""46688""
""blur"",""9"",""84894""
","""event"",""trial"",""time""
""focus"",""6"",""54516""
""focus"",""9"",""95518""
","""event"",""trial"",""time""
""fullscreenenter"",""1"",""1787""
","""event"",""trial"",""time""
""fullscreenexit"",""4"",""39987""
","","","","","","648.9000005722046","<p> You will see how many points you won or lost in the center of the screen. </p><p> Here is what you would see if you won 6 points: </p><p style=""color:green;font-size:50px;font-weight:bolder"">6</p><p style=""color:green"">The text is GREEN because you WON points.</p>","","0","instructions","","","","","","","","","","",""
"learning-instructions","16","157549","0.0-8.0-0.0-0.8","5191","2","25","Female","approach_avoid_spark_v1","""event"",""trial"",""time""
""fullscreenenter"",""1"",""1787""
""fullscreenexit"",""4"",""39987""
""blur"",""5"",""46688""
""focus"",""6"",""54516""
""blur"",""9"",""84894""
""focus"",""9"",""95518""
","""event"",""trial"",""time""
""blur"",""5"",""46688""
""blur"",""9"",""84894""
","""event"",""trial"",""time""
""focus"",""6"",""54516""
""focus"",""9"",""95518""
","""event"",""trial"",""time""
""fullscreenenter"",""1"",""1787""
","""event"",""trial"",""time""
""fullscreenexit"",""4"",""39987""
","","","","","","580.1000003814697","<p> And here is what you would see if you lost 4 points: </p><p style=""color:red;font-size:50px;font-weight:bolder"">-4</p><p style=""color:red"">The text is RED because you LOST points. </p>","","0","instructions","","","","","","","","","","",""
"learning-instructions","17","176812","0.0-8.0-0.0-0.9","5191","2","25","Female","approach_avoid_spark_v1","""event"",""trial"",""time""
""fullscreenenter"",""1"",""1787""
""fullscreenexit"",""4"",""39987""
""blur"",""5"",""46688""
""focus"",""6"",""54516""
""blur"",""9"",""84894""
""focus"",""9"",""95518""
","""event"",""trial"",""time""
""blur"",""5"",""46688""
""blur"",""9"",""84894""
","""event"",""trial"",""time""
""focus"",""6"",""54516""
""focus"",""9"",""95518""
","""event"",""trial"",""time""
""fullscreenenter"",""1"",""1787""
","""event"",""trial"",""time""
""fullscreenexit"",""4"",""39987""
","","","","","","4533.39999961853","<p> Some of the equipment will make the kids VERY happy or sad. </p><p> These pieces of equipment will make you win or lose LOTS of points. </p><p> Other pieces of equipment will only make the kids a little happy or sad. </p><p> These pieces of equipment will make you win or lose small amounts of points. </p>","","0","instructions","","","","","","","","","","",""
"learning-instructions","18","188539","0.0-8.0-0.0-0.10","5191","2","25","Female","approach_avoid_spark_v1","""event"",""trial"",""time""
""fullscreenenter"",""1"",""1787""
""fullscreenexit"",""4"",""39987""
""blur"",""5"",""46688""
""focus"",""6"",""54516""
""blur"",""9"",""84894""
""focus"",""9"",""95518""
","""event"",""trial"",""time""
""blur"",""5"",""46688""
""blur"",""9"",""84894""
","""event"",""trial"",""time""
""focus"",""6"",""54516""
""focus"",""9"",""95518""
","""event"",""trial"",""time""
""fullscreenenter"",""1"",""1787""
","""event"",""trial"",""time""
""fullscreenexit"",""4"",""39987""
","","","","","","1100.5","<p> If you choose not to give them the equipment, you will not win or lose any points. </p><p>  However, in the center of the screen, you will see the number of points you WOULD HAVE won or lost if you had given them the equipment. </p>","","0","instructions","","","","","","","","","","",""
"learning-instructions","19","211520","0.0-8.0-0.0-0.11","5191","2","25","Female","approach_avoid_spark_v1","""event"",""trial"",""time""
""fullscreenenter"",""1"",""1787""
""fullscreenexit"",""4"",""39987""
""blur"",""5"",""46688""
""focus"",""6"",""54516""
""blur"",""9"",""84894""
""focus"",""9"",""95518""
","""event"",""trial"",""time""
""blur"",""5"",""46688""
""blur"",""9"",""84894""
","""event"",""trial"",""time""
""focus"",""6"",""54516""
""focus"",""9"",""95518""
","""event"",""trial"",""time""
""fullscreenenter"",""1"",""1787""
","""event"",""trial"",""time""
""fullscreenexit"",""4"",""39987""
","","","","","","1441.6000003814697","<p> Here is what you might see if you did not give the equipment to the kids but it would have made them happy: </p><p style=""color:grey; font-size:50px; display: inline-block; border-spacing: 15px; border-width:3px; border-style:solid; border-color:red"">  &nbsp; 7 &nbsp; </p><p> Remember, in this case, you would not win or lose ANY points because you did not give them the equipment.  </p><p style=""color:grey"">The text is GREY because you earned ZERO points. </p><p style=""color:red"">However, choosing to give the kids the equipment would have made you win points. The box around the text is RED because you chose the worse option. </p>","","0","instructions","","","","","","","","","","",""
"learning-instructions","20","233648","0.0-8.0-0.0-0.12","5191","2","25","Female","approach_avoid_spark_v1","""event"",""trial"",""time""
""fullscreenenter"",""1"",""1787""
""fullscreenexit"",""4"",""39987""
""blur"",""5"",""46688""
""focus"",""6"",""54516""
""blur"",""9"",""84894""
""focus"",""9"",""95518""
","""event"",""trial"",""time""
""blur"",""5"",""46688""
""blur"",""9"",""84894""
","""event"",""trial"",""time""
""focus"",""6"",""54516""
""focus"",""9"",""95518""
","""event"",""trial"",""time""
""fullscreenenter"",""1"",""1787""
","""event"",""trial"",""time""
""fullscreenexit"",""4"",""39987""
","","","","","","1048.6999998092651","<p> Here is what you might see if you did not give the equipment to the kids but it would have made them sad: </p><p style=""color:grey;font-size:50px; display: inline-block; border-spacing: 15px; border-width:3px; border-style:solid; border-color:green"">  &nbsp; -8 &nbsp; </p><p> Remember, in this case, you would not win or lose ANY points because you did not give them the equipment.  </p><p style=""color:grey"">The text is GREY because you earned ZERO points. </p><p  style=""color:green""> Choosing to give the kids the equipment would have made you lose points. The box around the text is GREEN because you chose the better option.</p>","","0","instructions","","","","","","","","","","",""
"learning-instructions","21","248751","0.0-8.0-0.0-0.13","5191","2","25","Female","approach_avoid_spark_v1","""event"",""trial"",""time""
""fullscreenenter"",""1"",""1787""
""fullscreenexit"",""4"",""39987""
""blur"",""5"",""46688""
""focus"",""6"",""54516""
""blur"",""9"",""84894""
""focus"",""9"",""95518""
","""event"",""trial"",""time""
""blur"",""5"",""46688""
""blur"",""9"",""84894""
","""event"",""trial"",""time""
""focus"",""6"",""54516""
""focus"",""9"",""95518""
","""event"",""trial"",""time""
""fullscreenenter"",""1"",""1787""
","""event"",""trial"",""time""
""fullscreenexit"",""4"",""39987""
","","","","","","2872.4000005722046","<p> You will have 3 seconds to make each choice. Try to respond before time runs out! </p><p> You will lose 5 points each time you do not make a response. </p>","","0","instructions","","","","","","","","","","",""
"learning-instructions","22","254678","0.0-8.0-0.0-0.14","5191","2","25","Female","approach_avoid_spark_v1","""event"",""trial"",""time""
""fullscreenenter"",""1"",""1787""
""fullscreenexit"",""4"",""39987""
""blur"",""5"",""46688""
""focus"",""6"",""54516""
""blur"",""9"",""84894""
""focus"",""9"",""95518""
","""event"",""trial"",""time""
""blur"",""5"",""46688""
""blur"",""9"",""84894""
","""event"",""trial"",""time""
""focus"",""6"",""54516""
""focus"",""9"",""95518""
","""event"",""trial"",""time""
""fullscreenenter"",""1"",""1787""
","""event"",""trial"",""time""
""fullscreenexit"",""4"",""39987""
","","","","","","500.5","<p> This is just a practice round, but in the real game, your bonus payment will depend on your total number of points.","","0","instructions","","","","","","","","","","",""
"learning-instructions","23","261034","0.0-8.0-0.0-0.15","5191","2","25","Female","approach_avoid_spark_v1","""event"",""trial"",""time""
""fullscreenenter"",""1"",""1787""
""fullscreenexit"",""4"",""39987""
""blur"",""5"",""46688""
""focus"",""6"",""54516""
""blur"",""9"",""84894""
""focus"",""9"",""95518""
","""event"",""trial"",""time""
""blur"",""5"",""46688""
""blur"",""9"",""84894""
","""event"",""trial"",""time""
""focus"",""6"",""54516""
""focus"",""9"",""95518""
","""event"",""trial"",""time""
""fullscreenenter"",""1"",""1787""
","""event"",""trial"",""time""
""fullscreenexit"",""4"",""39987""
","","","","","","594.2000007629395","<p> Remember, you can give them the equipment by pressing 1 and choose not to give it to them by pressing 0. </p><br><div class=""choice-instructions-grid""> <div class=""choice-option""><img src=""images/approach.png"" class=""choice-option-img"" stage=""instructions"" position=""0"" ><div class=""choice-option-text""> Press ""1."" </div></div><div class=""choice-option""><img src=""images/avoid.png"" class=""choice-option-img"" stage=""instructions"" position=""1"" ><div class=""choice-option-text""> Press ""0."" </div></div>","","0","instructions","","","","","","","","","","",""
"html-button-response","24","263759","0.0-8.0-1.0","5191","2","25","Female","approach_avoid_spark_v1","""event"",""trial"",""time""
""fullscreenenter"",""1"",""1787""
""fullscreenexit"",""4"",""39987""
""blur"",""5"",""46688""
""focus"",""6"",""54516""
""blur"",""9"",""84894""
""focus"",""9"",""95518""
","""event"",""trial"",""time""
""blur"",""5"",""46688""
""blur"",""9"",""84894""
","""event"",""trial"",""time""
""focus"",""6"",""54516""
""focus"",""9"",""95518""
","""event"",""trial"",""time""
""fullscreenenter"",""1"",""1787""
","""event"",""trial"",""time""
""fullscreenexit"",""4"",""39987""
","","","","","","2621.3999996185303","<p> Ready to practice? </p>","0","","","","","","","","","","","","",""
"html-keyboard-response","25","264367","0.0-8.0-2.0-0.0","5191","2","25","Female","approach_avoid_spark_v1","""event"",""trial"",""time""
""fullscreenenter"",""1"",""1787""
""fullscreenexit"",""4"",""39987""
""blur"",""5"",""46688""
""focus"",""6"",""54516""
""blur"",""9"",""84894""
""focus"",""9"",""95518""
","""event"",""trial"",""time""
""blur"",""5"",""46688""
""blur"",""9"",""84894""
","""event"",""trial"",""time""
""focus"",""6"",""54516""
""focus"",""9"",""95518""
","""event"",""trial"",""time""
""fullscreenenter"",""1"",""1787""
","""event"",""trial"",""time""
""fullscreenexit"",""4"",""39987""
","","","","","","null","<div style=""font-size:60px;"">+</div>","null","","fixation","","","","","","","","","","",""
"aa-learning-trial","26","267379","0.0-8.0-2.0-1.0","5191","2","25","Female","approach_avoid_spark_v1","""event"",""trial"",""time""
""fullscreenenter"",""1"",""1787""
""fullscreenexit"",""4"",""39987""
""blur"",""5"",""46688""
""focus"",""6"",""54516""
""blur"",""9"",""84894""
""focus"",""9"",""95518""
","""event"",""trial"",""time""
""blur"",""5"",""46688""
""blur"",""9"",""84894""
","""event"",""trial"",""time""
""focus"",""6"",""54516""
""focus"",""9"",""95518""
","""event"",""trial"",""time""
""fullscreenenter"",""1"",""1787""
","""event"",""trial"",""time""
""fullscreenexit"",""4"",""39987""
","","","","","","1468.9000005722046","images/ball1.png","","","learning","-9","-9","1","1","practice","practice","practice","-1","","",""
"html-keyboard-response","27","267892","0.0-8.0-2.0-0.1","5191","2","25","Female","approach_avoid_spark_v1","""event"",""trial"",""time""
""fullscreenenter"",""1"",""1787""
""fullscreenexit"",""4"",""39987""
""blur"",""5"",""46688""
""focus"",""6"",""54516""
""blur"",""9"",""84894""
""focus"",""9"",""95518""
","""event"",""trial"",""time""
""blur"",""5"",""46688""
""blur"",""9"",""84894""
","""event"",""trial"",""time""
""focus"",""6"",""54516""
""focus"",""9"",""95518""
","""event"",""trial"",""time""
""fullscreenenter"",""1"",""1787""
","""event"",""trial"",""time""
""fullscreenexit"",""4"",""39987""
","","","","","","null","<div style=""font-size:60px;"">+</div>","null","","fixation","","","","","","","","","","",""
"aa-learning-trial","28","270901","0.0-8.0-2.0-1.1","5191","2","25","Female","approach_avoid_spark_v1","""event"",""trial"",""time""
""fullscreenenter"",""1"",""1787""
""fullscreenexit"",""4"",""39987""
""blur"",""5"",""46688""
""focus"",""6"",""54516""
""blur"",""9"",""84894""
""focus"",""9"",""95518""
","""event"",""trial"",""time""
""blur"",""5"",""46688""
""blur"",""9"",""84894""
","""event"",""trial"",""time""
""focus"",""6"",""54516""
""focus"",""9"",""95518""
","""event"",""trial"",""time""
""fullscreenenter"",""1"",""1787""
","""event"",""trial"",""time""
""fullscreenexit"",""4"",""39987""
","","","","","","1152.2000007629395","images/racket1.png","","","learning","4","0","0","0","practice","practice","practice","-1","","",""
"html-keyboard-response","29","271415","0.0-8.0-2.0-0.2","5191","2","25","Female","approach_avoid_spark_v1","""event"",""trial"",""time""
""fullscreenenter"",""1"",""1787""
""fullscreenexit"",""4"",""39987""
""blur"",""5"",""46688""
""focus"",""6"",""54516""
""blur"",""9"",""84894""
""focus"",""9"",""95518""
","""event"",""trial"",""time""
""blur"",""5"",""46688""
""blur"",""9"",""84894""
","""event"",""trial"",""time""
""focus"",""6"",""54516""
""focus"",""9"",""95518""
","""event"",""trial"",""time""
""fullscreenenter"",""1"",""1787""
","""event"",""trial"",""time""
""fullscreenexit"",""4"",""39987""
","","","","","","null","<div style=""font-size:60px;"">+</div>","null","","fixation","","","","","","","","","","",""
"aa-learning-trial","30","274433","0.0-8.0-2.0-1.2","5191","2","25","Female","approach_avoid_spark_v1","""event"",""trial"",""time""
""fullscreenenter"",""1"",""1787""
""fullscreenexit"",""4"",""39987""
""blur"",""5"",""46688""
""focus"",""6"",""54516""
""blur"",""9"",""84894""
""focus"",""9"",""95518""
","""event"",""trial"",""time""
""blur"",""5"",""46688""
""blur"",""9"",""84894""
","""event"",""trial"",""time""
""focus"",""6"",""54516""
""focus"",""9"",""95518""
","""event"",""trial"",""time""
""fullscreenenter"",""1"",""1787""
","""event"",""trial"",""time""
""fullscreenexit"",""4"",""39987""
","","","","","","972.5","images/racket2.png","","","learning","-4","-4","1","1","practice","practice","practice","-1","","",""
"html-keyboard-response","31","274946","0.0-8.0-2.0-0.3","5191","2","25","Female","approach_avoid_spark_v1","""event"",""trial"",""time""
""fullscreenenter"",""1"",""1787""
""fullscreenexit"",""4"",""39987""
""blur"",""5"",""46688""
""focus"",""6"",""54516""
""blur"",""9"",""84894""
""focus"",""9"",""95518""
","""event"",""trial"",""time""
""blur"",""5"",""46688""
""blur"",""9"",""84894""
","""event"",""trial"",""time""
""focus"",""6"",""54516""
""focus"",""9"",""95518""
","""event"",""trial"",""time""
""fullscreenenter"",""1"",""1787""
","""event"",""trial"",""time""
""fullscreenexit"",""4"",""39987""
","","","","","","null","<div style=""font-size:60px;"">+</div>","null","","fixation","","","","","","","","","","",""
"aa-learning-trial","32","277963","0.0-8.0-2.0-1.3","5191","2","25","Female","approach_avoid_spark_v1","""event"",""trial"",""time""
""fullscreenenter"",""1"",""1787""
""fullscreenexit"",""4"",""39987""
""blur"",""5"",""46688""
""focus"",""6"",""54516""
""blur"",""9"",""84894""
""focus"",""9"",""95518""
","""event"",""trial"",""time""
""blur"",""5"",""46688""
""blur"",""9"",""84894""
","""event"",""trial"",""time""
""focus"",""6"",""54516""
""focus"",""9"",""95518""
","""event"",""trial"",""time""
""fullscreenenter"",""1"",""1787""
","""event"",""trial"",""time""
""fullscreenexit"",""4"",""39987""
","","","","","","1178.9000005722046","images/ball1.png","","","learning","9","0","0","0","practice","practice","practice","-1","","",""
"html-keyboard-response","33","278479","0.0-8.0-2.0-0.4","5191","2","25","Female","approach_avoid_spark_v1","""event"",""trial"",""time""
""fullscreenenter"",""1"",""1787""
""fullscreenexit"",""4"",""39987""
""blur"",""5"",""46688""
""focus"",""6"",""54516""
""blur"",""9"",""84894""
""focus"",""9"",""95518""
","""event"",""trial"",""time""
""blur"",""5"",""46688""
""blur"",""9"",""84894""
","""event"",""trial"",""time""
""focus"",""6"",""54516""
""focus"",""9"",""95518""
","""event"",""trial"",""time""
""fullscreenenter"",""1"",""1787""
","""event"",""trial"",""time""
""fullscreenexit"",""4"",""39987""
","","","","","","null","<div style=""font-size:60px;"">+</div>","null","","fixation","","","","","","","","","","",""
"aa-learning-trial","34","281503","0.0-8.0-2.0-1.4","5191","2","25","Female","approach_avoid_spark_v1","""event"",""trial"",""time""
""fullscreenenter"",""1"",""1787""
""fullscreenexit"",""4"",""39987""
""blur"",""5"",""46688""
""focus"",""6"",""54516""
""blur"",""9"",""84894""
""focus"",""9"",""95518""
","""event"",""trial"",""time""
""blur"",""5"",""46688""
""blur"",""9"",""84894""
","""event"",""trial"",""time""
""focus"",""6"",""54516""
""focus"",""9"",""95518""
","""event"",""trial"",""time""
""fullscreenenter"",""1"",""1787""
","""event"",""trial"",""time""
""fullscreenexit"",""4"",""39987""
","","","","","","874.8000001907349","images/racket1.png","","","learning","6","6","1","1","practice","practice","practice","-1","","",""
"html-keyboard-response","35","282016","0.0-8.0-2.0-0.5","5191","2","25","Female","approach_avoid_spark_v1","""event"",""trial"",""time""
""fullscreenenter"",""1"",""1787""
""fullscreenexit"",""4"",""39987""
""blur"",""5"",""46688""
""focus"",""6"",""54516""
""blur"",""9"",""84894""
""focus"",""9"",""95518""
","""event"",""trial"",""time""
""blur"",""5"",""46688""
""blur"",""9"",""84894""
","""event"",""trial"",""time""
""focus"",""6"",""54516""
""focus"",""9"",""95518""
","""event"",""trial"",""time""
""fullscreenenter"",""1"",""1787""
","""event"",""trial"",""time""
""fullscreenexit"",""4"",""39987""
","","","","","","null","<div style=""font-size:60px;"">+</div>","null","","fixation","","","","","","","","","","",""
"aa-learning-trial","36","285025","0.0-8.0-2.0-1.5","5191","2","25","Female","approach_avoid_spark_v1","""event"",""trial"",""time""
""fullscreenenter"",""1"",""1787""
""fullscreenexit"",""4"",""39987""
""blur"",""5"",""46688""
""focus"",""6"",""54516""
""blur"",""9"",""84894""
""focus"",""9"",""95518""
","""event"",""trial"",""time""
""blur"",""5"",""46688""
""blur"",""9"",""84894""
","""event"",""trial"",""time""
""focus"",""6"",""54516""
""focus"",""9"",""95518""
","""event"",""trial"",""time""
""fullscreenenter"",""1"",""1787""
","""event"",""trial"",""time""
""fullscreenexit"",""4"",""39987""
","","","","","","613.1000003814697","images/ball3.png","","","learning","-5","-5","1","1","practice","practice","practice","-1","","",""
"html-keyboard-response","37","285538","0.0-8.0-2.0-0.6","5191","2","25","Female","approach_avoid_spark_v1","""event"",""trial"",""time""
""fullscreenenter"",""1"",""1787""
""fullscreenexit"",""4"",""39987""
""blur"",""5"",""46688""
""focus"",""6"",""54516""
""blur"",""9"",""84894""
""focus"",""9"",""95518""
","""event"",""trial"",""time""
""blur"",""5"",""46688""
""blur"",""9"",""84894""
","""event"",""trial"",""time""
""focus"",""6"",""54516""
""focus"",""9"",""95518""
","""event"",""trial"",""time""
""fullscreenenter"",""1"",""1787""
","""event"",""trial"",""time""
""fullscreenexit"",""4"",""39987""
","","","","","","null","<div style=""font-size:60px;"">+</div>","null","","fixation","","","","","","","","","","",""
"aa-learning-trial","38","288554","0.0-8.0-2.0-1.6","5191","2","25","Female","approach_avoid_spark_v1","""event"",""trial"",""time""
""fullscreenenter"",""1"",""1787""
""fullscreenexit"",""4"",""39987""
""blur"",""5"",""46688""
""focus"",""6"",""54516""
""blur"",""9"",""84894""
""focus"",""9"",""95518""
","""event"",""trial"",""time""
""blur"",""5"",""46688""
""blur"",""9"",""84894""
","""event"",""trial"",""time""
""focus"",""6"",""54516""
""focus"",""9"",""95518""
","""event"",""trial"",""time""
""fullscreenenter"",""1"",""1787""
","""event"",""trial"",""time""
""fullscreenexit"",""4"",""39987""
","","","","","","687.1999998092651","images/racket3.png","","","learning","7","7","1","1","practice","practice","practice","-1","","",""
"html-keyboard-response","39","289066","0.0-8.0-2.0-0.7","5191","2","25","Female","approach_avoid_spark_v1","""event"",""trial"",""time""
""fullscreenenter"",""1"",""1787""
""fullscreenexit"",""4"",""39987""
""blur"",""5"",""46688""
""focus"",""6"",""54516""
""blur"",""9"",""84894""
""focus"",""9"",""95518""
","""event"",""trial"",""time""
""blur"",""5"",""46688""
""blur"",""9"",""84894""
","""event"",""trial"",""time""
""focus"",""6"",""54516""
""focus"",""9"",""95518""
","""event"",""trial"",""time""
""fullscreenenter"",""1"",""1787""
","""event"",""trial"",""time""
""fullscreenexit"",""4"",""39987""
","","","","","","null","<div style=""font-size:60px;"">+</div>","null","","fixation","","","","","","","","","","",""
"aa-learning-trial","40","292072","0.0-8.0-2.0-1.7","5191","2","25","Female","approach_avoid_spark_v1","""event"",""trial"",""time""
""fullscreenenter"",""1"",""1787""
""fullscreenexit"",""4"",""39987""
""blur"",""5"",""46688""
""focus"",""6"",""54516""
""blur"",""9"",""84894""
""focus"",""9"",""95518""
","""event"",""trial"",""time""
""blur"",""5"",""46688""
""blur"",""9"",""84894""
","""event"",""trial"",""time""
""focus"",""6"",""54516""
""focus"",""9"",""95518""
","""event"",""trial"",""time""
""fullscreenenter"",""1"",""1787""
","""event"",""trial"",""time""
""fullscreenexit"",""4"",""39987""
","","","","","","944.9000005722046","images/ball1.png","","","learning","-9","-9","1","1","practice","practice","practice","-1","","",""
"html-keyboard-response","41","292576","0.0-8.0-2.0-0.8","5191","2","25","Female","approach_avoid_spark_v1","""event"",""trial"",""time""
""fullscreenenter"",""1"",""1787""
""fullscreenexit"",""4"",""39987""
""blur"",""5"",""46688""
""focus"",""6"",""54516""
""blur"",""9"",""84894""
""focus"",""9"",""95518""
","""event"",""trial"",""time""
""blur"",""5"",""46688""
""blur"",""9"",""84894""
","""event"",""trial"",""time""
""focus"",""6"",""54516""
""focus"",""9"",""95518""
","""event"",""trial"",""time""
""fullscreenenter"",""1"",""1787""
","""event"",""trial"",""time""
""fullscreenexit"",""4"",""39987""
","","","","","","null","<div style=""font-size:60px;"">+</div>","null","","fixation","","","","","","","","","","",""
"aa-learning-trial","42","295584","0.0-8.0-2.0-1.8","5191","2","25","Female","approach_avoid_spark_v1","""event"",""trial"",""time""
""fullscreenenter"",""1"",""1787""
""fullscreenexit"",""4"",""39987""
""blur"",""5"",""46688""
""focus"",""6"",""54516""
""blur"",""9"",""84894""
""focus"",""9"",""95518""
","""event"",""trial"",""time""
""blur"",""5"",""46688""
""blur"",""9"",""84894""
","""event"",""trial"",""time""
""focus"",""6"",""54516""
""focus"",""9"",""95518""
","""event"",""trial"",""time""
""fullscreenenter"",""1"",""1787""
","""event"",""trial"",""time""
""fullscreenexit"",""4"",""39987""
","","","","","","1346.3999996185303","images/ball1.png","","","learning","5","5","1","1","practice","practice","practice","-1","","",""
"html-keyboard-response","43","296087","0.0-8.0-2.0-0.9","5191","2","25","Female","approach_avoid_spark_v1","""event"",""trial"",""time""
""fullscreenenter"",""1"",""1787""
""fullscreenexit"",""4"",""39987""
""blur"",""5"",""46688""
""focus"",""6"",""54516""
""blur"",""9"",""84894""
""focus"",""9"",""95518""
","""event"",""trial"",""time""
""blur"",""5"",""46688""
""blur"",""9"",""84894""
","""event"",""trial"",""time""
""focus"",""6"",""54516""
""focus"",""9"",""95518""
","""event"",""trial"",""time""
""fullscreenenter"",""1"",""1787""
","""event"",""trial"",""time""
""fullscreenexit"",""4"",""39987""
","","","","","","null","<div style=""font-size:60px;"">+</div>","null","","fixation","","","","","","","","","","",""
"aa-learning-trial","44","299096","0.0-8.0-2.0-1.9","5191","2","25","Female","approach_avoid_spark_v1","""event"",""trial"",""time""
""fullscreenenter"",""1"",""1787""
""fullscreenexit"",""4"",""39987""
""blur"",""5"",""46688""
""focus"",""6"",""54516""
""blur"",""9"",""84894""
""focus"",""9"",""95518""
","""event"",""trial"",""time""
""blur"",""5"",""46688""
""blur"",""9"",""84894""
","""event"",""trial"",""time""
""focus"",""6"",""54516""
""focus"",""9"",""95518""
","""event"",""trial"",""time""
""fullscreenenter"",""1"",""1787""
","""event"",""trial"",""time""
""fullscreenexit"",""4"",""39987""
","","","","","","950.5","images/racket4.png","","","learning","4","0","0","0","practice","practice","practice","-1","","",""
"html-keyboard-response","45","299600","0.0-8.0-2.0-0.10","5191","2","25","Female","approach_avoid_spark_v1","""event"",""trial"",""time""
""fullscreenenter"",""1"",""1787""
""fullscreenexit"",""4"",""39987""
""blur"",""5"",""46688""
""focus"",""6"",""54516""
""blur"",""9"",""84894""
""focus"",""9"",""95518""
","""event"",""trial"",""time""
""blur"",""5"",""46688""
""blur"",""9"",""84894""
","""event"",""trial"",""time""
""focus"",""6"",""54516""
""focus"",""9"",""95518""
","""event"",""trial"",""time""
""fullscreenenter"",""1"",""1787""
","""event"",""trial"",""time""
""fullscreenexit"",""4"",""39987""
","","","","","","null","<div style=""font-size:60px;"">+</div>","null","","fixation","","","","","","","","","","",""
"aa-learning-trial","46","302615","0.0-8.0-2.0-1.10","5191","2","25","Female","approach_avoid_spark_v1","""event"",""trial"",""time""
""fullscreenenter"",""1"",""1787""
""fullscreenexit"",""4"",""39987""
""blur"",""5"",""46688""
""focus"",""6"",""54516""
""blur"",""9"",""84894""
""focus"",""9"",""95518""
","""event"",""trial"",""time""
""blur"",""5"",""46688""
""blur"",""9"",""84894""
","""event"",""trial"",""time""
""focus"",""6"",""54516""
""focus"",""9"",""95518""
","""event"",""trial"",""time""
""fullscreenenter"",""1"",""1787""
","""event"",""trial"",""time""
""fullscreenexit"",""4"",""39987""
","","","","","","906.1000003814697","images/ball1.png","","","learning","8","8","1","1","practice","practice","practice","-1","","",""
"html-keyboard-response","47","303119","0.0-8.0-2.0-0.11","5191","2","25","Female","approach_avoid_spark_v1","""event"",""trial"",""time""
""fullscreenenter"",""1"",""1787""
""fullscreenexit"",""4"",""39987""
""blur"",""5"",""46688""
""focus"",""6"",""54516""
""blur"",""9"",""84894""
""focus"",""9"",""95518""
","""event"",""trial"",""time""
""blur"",""5"",""46688""
""blur"",""9"",""84894""
","""event"",""trial"",""time""
""focus"",""6"",""54516""
""focus"",""9"",""95518""
","""event"",""trial"",""time""
""fullscreenenter"",""1"",""1787""
","""event"",""trial"",""time""
""fullscreenexit"",""4"",""39987""
","","","","","","null","<div style=""font-size:60px;"">+</div>","null","","fixation","","","","","","","","","","",""
"aa-learning-trial","48","306129","0.0-8.0-2.0-1.11","5191","2","25","Female","approach_avoid_spark_v1","""event"",""trial"",""time""
""fullscreenenter"",""1"",""1787""
""fullscreenexit"",""4"",""39987""
""blur"",""5"",""46688""
""focus"",""6"",""54516""
""blur"",""9"",""84894""
""focus"",""9"",""95518""
","""event"",""trial"",""time""
""blur"",""5"",""46688""
""blur"",""9"",""84894""
","""event"",""trial"",""time""
""focus"",""6"",""54516""
""focus"",""9"",""95518""
","""event"",""trial"",""time""
""fullscreenenter"",""1"",""1787""
","""event"",""trial"",""time""
""fullscreenexit"",""4"",""39987""
","","","","","","384.69999980926514","images/ball1.png","","","learning","9","9","1","1","practice","practice","practice","-1","","",""
"html-button-response","49","308465","0.0-8.0-3.0","5191","2","25","Female","approach_avoid_spark_v1","""event"",""trial"",""time""
""fullscreenenter"",""1"",""1787""
""fullscreenexit"",""4"",""39987""
""blur"",""5"",""46688""
""focus"",""6"",""54516""
""blur"",""9"",""84894""
""focus"",""9"",""95518""
","""event"",""trial"",""time""
""blur"",""5"",""46688""
""blur"",""9"",""84894""
","""event"",""trial"",""time""
""focus"",""6"",""54516""
""focus"",""9"",""95518""
","""event"",""trial"",""time""
""fullscreenenter"",""1"",""1787""
","""event"",""trial"",""time""
""fullscreenexit"",""4"",""39987""
","","","","","","2331.300000190735","<p> You earned 8 points in the practice round! </p>","0","","break","","","","","","","","","","",""
"learning-instructions","50","316258","0.0-8.0-4.0-0.0","5191","2","25","Female","approach_avoid_spark_v1","""event"",""trial"",""time""
""fullscreenenter"",""1"",""1787""
""fullscreenexit"",""4"",""39987""
""blur"",""5"",""46688""
""focus"",""6"",""54516""
""blur"",""9"",""84894""
""focus"",""9"",""95518""
","""event"",""trial"",""time""
""blur"",""5"",""46688""
""blur"",""9"",""84894""
","""event"",""trial"",""time""
""focus"",""6"",""54516""
""focus"",""9"",""95518""
","""event"",""trial"",""time""
""fullscreenenter"",""1"",""1787""
","""event"",""trial"",""time""
""fullscreenexit"",""4"",""39987""
","","","","","","955.8000001907349","<p> It's almost time to start the real game. </p><p> Before you start, we're going to ask you a few questions about how the game works. </p>","","0","instructions","","","","","","","","","","",""
"preload","51","331583","0.0-8.0-5.0","5191","2","25","Female","approach_avoid_spark_v1","""event"",""trial"",""time""
""fullscreenenter"",""1"",""1787""
""fullscreenexit"",""4"",""39987""
""blur"",""5"",""46688""
""focus"",""6"",""54516""
""blur"",""9"",""84894""
""focus"",""9"",""95518""
","""event"",""trial"",""time""
""blur"",""5"",""46688""
""blur"",""9"",""84894""
","""event"",""trial"",""time""
""focus"",""6"",""54516""
""focus"",""9"",""95518""
","""event"",""trial"",""time""
""fullscreenenter"",""1"",""1787""
","""event"",""trial"",""time""
""fullscreenexit"",""4"",""39987""
","true","false","[]","[]","[]","","","","","","","","","","","","","","","",""
"comp-q","52","337629","0.0-8.0-6.0-0.0","5191","2","25","Female","approach_avoid_spark_v1","""event"",""trial"",""time""
""fullscreenenter"",""1"",""1787""
""fullscreenexit"",""4"",""39987""
""blur"",""5"",""46688""
""focus"",""6"",""54516""
""blur"",""9"",""84894""
""focus"",""9"",""95518""
","""event"",""trial"",""time""
""blur"",""5"",""46688""
""blur"",""9"",""84894""
","""event"",""trial"",""time""
""focus"",""6"",""54516""
""focus"",""9"",""95518""
","""event"",""trial"",""time""
""fullscreenenter"",""1"",""1787""
","""event"",""trial"",""time""
""fullscreenexit"",""4"",""39987""
","","","","","","1046.8000001907349","<p> <b> True or False? </b> </p><p> If you see a number in GREY, that means you earned that many points. </p>","","1","comp_question","","","","","","","","","true","",""
"comp-q","53","348174","0.0-8.0-6.0-1.0","5191","2","25","Female","approach_avoid_spark_v1","""event"",""trial"",""time""
""fullscreenenter"",""1"",""1787""
""fullscreenexit"",""4"",""39987""
""blur"",""5"",""46688""
""focus"",""6"",""54516""
""blur"",""9"",""84894""
""focus"",""9"",""95518""
","""event"",""trial"",""time""
""blur"",""5"",""46688""
""blur"",""9"",""84894""
","""event"",""trial"",""time""
""focus"",""6"",""54516""
""focus"",""9"",""95518""
","""event"",""trial"",""time""
""fullscreenenter"",""1"",""1787""
","""event"",""trial"",""time""
""fullscreenexit"",""4"",""39987""
","","","","","","2180.699999809265","<p><b> That's right! </b> If you see a grey number, it means you earned ZERO points. <br> The grey numbers show the points you WOULD HAVE earned if you had made the other choice. </p>","","0","comp_answer","","","","","","","","","","",""
"comp-q","54","353703","0.0-8.0-7.0-0.0","5191","2","25","Female","approach_avoid_spark_v1","""event"",""trial"",""time""
""fullscreenenter"",""1"",""1787""
""fullscreenexit"",""4"",""39987""
""blur"",""5"",""46688""
""focus"",""6"",""54516""
""blur"",""9"",""84894""
""focus"",""9"",""95518""
","""event"",""trial"",""time""
""blur"",""5"",""46688""
""blur"",""9"",""84894""
","""event"",""trial"",""time""
""focus"",""6"",""54516""
""focus"",""9"",""95518""
","""event"",""trial"",""time""
""fullscreenenter"",""1"",""1787""
","""event"",""trial"",""time""
""fullscreenexit"",""4"",""39987""
","","","","","","831.5","<p> <b> True or False? </b> </p><p> You will have as much time as you want to make each choice. </p>","","1","comp_question","","","","","","","","","true","",""
"comp-q","55","358976","0.0-8.0-7.0-1.0","5191","2","25","Female","approach_avoid_spark_v1","""event"",""trial"",""time""
""fullscreenenter"",""1"",""1787""
""fullscreenexit"",""4"",""39987""
""blur"",""5"",""46688""
""focus"",""6"",""54516""
""blur"",""9"",""84894""
""focus"",""9"",""95518""
","""event"",""trial"",""time""
""blur"",""5"",""46688""
""blur"",""9"",""84894""
","""event"",""trial"",""time""
""focus"",""6"",""54516""
""focus"",""9"",""95518""
","""event"",""trial"",""time""
""fullscreenenter"",""1"",""1787""
","""event"",""trial"",""time""
""fullscreenexit"",""4"",""39987""
","","","","","","1223.4000005722046","<p> <b> That's right! </b> You will only have 3 seconds to make each choice. </p>","","0","comp_answer","","","","","","","","","","",""
"comp-q","56","364748","0.0-8.0-8.0-0.0","5191","2","25","Female","approach_avoid_spark_v1","""event"",""trial"",""time""
""fullscreenenter"",""1"",""1787""
""fullscreenexit"",""4"",""39987""
""blur"",""5"",""46688""
""focus"",""6"",""54516""
""blur"",""9"",""84894""
""focus"",""9"",""95518""
","""event"",""trial"",""time""
""blur"",""5"",""46688""
""blur"",""9"",""84894""
","""event"",""trial"",""time""
""focus"",""6"",""54516""
""focus"",""9"",""95518""
","""event"",""trial"",""time""
""fullscreenenter"",""1"",""1787""
","""event"",""trial"",""time""
""fullscreenexit"",""4"",""39987""
","","","","","","1106.3000001907349","<p> <b> True or False? </b> </p><p> You should use the '1' and '0' keys to make your choices. </p>","","0","comp_question","","","","","","","","","true","",""
"comp-q","57","370918","0.0-8.0-8.0-1.0","5191","2","25","Female","approach_avoid_spark_v1","""event"",""trial"",""time""
""fullscreenenter"",""1"",""1787""
""fullscreenexit"",""4"",""39987""
""blur"",""5"",""46688""
""focus"",""6"",""54516""
""blur"",""9"",""84894""
""focus"",""9"",""95518""
","""event"",""trial"",""time""
""blur"",""5"",""46688""
""blur"",""9"",""84894""
","""event"",""trial"",""time""
""focus"",""6"",""54516""
""focus"",""9"",""95518""
","""event"",""trial"",""time""
""fullscreenenter"",""1"",""1787""
","""event"",""trial"",""time""
""fullscreenexit"",""4"",""39987""
","","","","","","1546.3000001907349","<p> <b> That's right! </b> You should use the '1' and '0' keys to make each choice. </p>","","0","comp_answer","","","","","","","","","","",""
"learning-instructions","58","378752","0.0-8.0-9.0-0.0","5191","2","25","Female","approach_avoid_spark_v1","""event"",""trial"",""time""
""fullscreenenter"",""1"",""1787""
""fullscreenexit"",""4"",""39987""
""blur"",""5"",""46688""
""focus"",""6"",""54516""
""blur"",""9"",""84894""
""focus"",""9"",""95518""
","""event"",""trial"",""time""
""blur"",""5"",""46688""
""blur"",""9"",""84894""
","""event"",""trial"",""time""
""focus"",""6"",""54516""
""focus"",""9"",""95518""
","""event"",""trial"",""time""
""fullscreenenter"",""1"",""1787""
","""event"",""trial"",""time""
""fullscreenexit"",""4"",""39987""
","","","","","","1551","<p> It's now time to start the real game. </p>Do your best, because the points you earn in the next rounds will influence your bonus payment. </p>","","0","instructions","","","","","","","","","","",""
"preload","59","378878","0.0-9.0-0.0","5191","2","25","Female","approach_avoid_spark_v1","""event"",""trial"",""time""
""fullscreenenter"",""1"",""1787""
""fullscreenexit"",""4"",""39987""
""blur"",""5"",""46688""
""focus"",""6"",""54516""
""blur"",""9"",""84894""
""focus"",""9"",""95518""
","""event"",""trial"",""time""
""blur"",""5"",""46688""
""blur"",""9"",""84894""
","""event"",""trial"",""time""
""focus"",""6"",""54516""
""focus"",""9"",""95518""
","""event"",""trial"",""time""
""fullscreenenter"",""1"",""1787""
","""event"",""trial"",""time""
""fullscreenexit"",""4"",""39987""
","true","false","[]","[]","[]","","","","","","","","","","","","","","","",""
"learning-instructions","60","385017","0.0-9.0-1.0-0.0","5191","2","25","Female","approach_avoid_spark_v1","""event"",""trial"",""time""
""fullscreenenter"",""1"",""1787""
""fullscreenexit"",""4"",""39987""
""blur"",""5"",""46688""
""focus"",""6"",""54516""
""blur"",""9"",""84894""
""focus"",""9"",""95518""
","""event"",""trial"",""time""
""blur"",""5"",""46688""
""blur"",""9"",""84894""
","""event"",""trial"",""time""
""focus"",""6"",""54516""
""focus"",""9"",""95518""
","""event"",""trial"",""time""
""fullscreenenter"",""1"",""1787""
","""event"",""trial"",""time""
""fullscreenexit"",""4"",""39987""
","","","","","","1414.5999994277954","<p> Your goal in this round is to take care of lots of farm animals. </p></div>","","0","instructions","","","","","","","","","","",""
"learning-instructions","61","397879","0.0-9.0-1.0-0.1","5191","2","25","Female","approach_avoid_spark_v1","""event"",""trial"",""time""
""fullscreenenter"",""1"",""1787""
""fullscreenexit"",""4"",""39987""
""blur"",""5"",""46688""
""focus"",""6"",""54516""
""blur"",""9"",""84894""
""focus"",""9"",""95518""
","""event"",""trial"",""time""
""blur"",""5"",""46688""
""blur"",""9"",""84894""
","""event"",""trial"",""time""
""focus"",""6"",""54516""
""focus"",""9"",""95518""
","""event"",""trial"",""time""
""fullscreenenter"",""1"",""1787""
","""event"",""trial"",""time""
""fullscreenexit"",""4"",""39987""
","","","","","","1836.6999998092651","<p> Some farm animals are hungry, while other farm animals are already full.  </p><p> On each turn, you will see a farm animal.   </p><p> You need to decide whether to feed it or not.  </p>","","0","instructions","","","","","","","","","","",""
"learning-instructions","62","405985","0.0-9.0-1.0-0.2","5191","2","25","Female","approach_avoid_spark_v1","""event"",""trial"",""time""
""fullscreenenter"",""1"",""1787""
""fullscreenexit"",""4"",""39987""
""blur"",""5"",""46688""
""focus"",""6"",""54516""
""blur"",""9"",""84894""
""focus"",""9"",""95518""
","""event"",""trial"",""time""
""blur"",""5"",""46688""
""blur"",""9"",""84894""
","""event"",""trial"",""time""
""focus"",""6"",""54516""
""focus"",""9"",""95518""
","""event"",""trial"",""time""
""fullscreenenter"",""1"",""1787""
","""event"",""trial"",""time""
""fullscreenexit"",""4"",""39987""
","","","","","","1492.6999998092651","<p> You can feed the farm animal by pressing 1 and leave the farm animal alone by pressing 0. </p><br><div class=""choice-instructions-grid""> <div class=""choice-option""><img src=""images/approach.png"" class=""choice-option-img"" stage=""instructions"" position=""0"" ><div class=""choice-option-text""> Press ""1."" </div></div><div class=""choice-option""><img src=""images/avoid.png"" class=""choice-option-img"" stage=""instructions"" position=""1"" ><div class=""choice-option-text""> Press ""0."" </div></div>","","0","instructions","","","","","","","","","","",""
"learning-instructions","63","417566","0.0-9.0-1.0-0.3","5191","2","25","Female","approach_avoid_spark_v1","""event"",""trial"",""time""
""fullscreenenter"",""1"",""1787""
""fullscreenexit"",""4"",""39987""
""blur"",""5"",""46688""
""focus"",""6"",""54516""
""blur"",""9"",""84894""
""focus"",""9"",""95518""
","""event"",""trial"",""time""
""blur"",""5"",""46688""
""blur"",""9"",""84894""
","""event"",""trial"",""time""
""focus"",""6"",""54516""
""focus"",""9"",""95518""
","""event"",""trial"",""time""
""fullscreenenter"",""1"",""1787""
","""event"",""trial"",""time""
""fullscreenexit"",""4"",""39987""
","","","","","","703.1999998092651","<p> If you feed a hungry farm animal, you will make it feel satisfied! </p><p> But if you feed the farm animal and it was already full, you will make it feel sick. </p>","","0","instructions","","","","","","","","","","",""
"learning-instructions","64","431957","0.0-9.0-1.0-0.4","5191","2","25","Female","approach_avoid_spark_v1","""event"",""trial"",""time""
""fullscreenenter"",""1"",""1787""
""fullscreenexit"",""4"",""39987""
""blur"",""5"",""46688""
""focus"",""6"",""54516""
""blur"",""9"",""84894""
""focus"",""9"",""95518""
","""event"",""trial"",""time""
""blur"",""5"",""46688""
""blur"",""9"",""84894""
","""event"",""trial"",""time""
""focus"",""6"",""54516""
""focus"",""9"",""95518""
","""event"",""trial"",""time""
""fullscreenenter"",""1"",""1787""
","""event"",""trial"",""time""
""fullscreenexit"",""4"",""39987""
","","","","","","584.5","<p> You will earn points based on how you made the farm animal feel. </p><p> If you made it satisfied, you will WIN anywhere from 1 - 9 points, </p><p> but if you made it sick, you will LOSE anywhere from 1 - 9 points. </p>","","0","instructions","","","","","","","","","","",""
"learning-instructions","65","442286","0.0-9.0-1.0-0.5","5191","2","25","Female","approach_avoid_spark_v1","""event"",""trial"",""time""
""fullscreenenter"",""1"",""1787""
""fullscreenexit"",""4"",""39987""
""blur"",""5"",""46688""
""focus"",""6"",""54516""
""blur"",""9"",""84894""
""focus"",""9"",""95518""
","""event"",""trial"",""time""
""blur"",""5"",""46688""
""blur"",""9"",""84894""
","""event"",""trial"",""time""
""focus"",""6"",""54516""
""focus"",""9"",""95518""
","""event"",""trial"",""time""
""fullscreenenter"",""1"",""1787""
","""event"",""trial"",""time""
""fullscreenexit"",""4"",""39987""
","","","","","","1953.8000001907349","<p> You will see how many points you won or lost in the center of the screen. </p><p> Here is what you would see if you won 5 points: </p><p style=""color:green;font-size:50px;font-weight:bolder"">5</p>","","0","instructions","","","","","","","","","","",""
"learning-instructions","66","447556","0.0-9.0-1.0-0.6","5191","2","25","Female","approach_avoid_spark_v1","""event"",""trial"",""time""
""fullscreenenter"",""1"",""1787""
""fullscreenexit"",""4"",""39987""
""blur"",""5"",""46688""
""focus"",""6"",""54516""
""blur"",""9"",""84894""
""focus"",""9"",""95518""
","""event"",""trial"",""time""
""blur"",""5"",""46688""
""blur"",""9"",""84894""
","""event"",""trial"",""time""
""focus"",""6"",""54516""
""focus"",""9"",""95518""
","""event"",""trial"",""time""
""fullscreenenter"",""1"",""1787""
","""event"",""trial"",""time""
""fullscreenexit"",""4"",""39987""
","","","","","","1614.5","<p> And here is what you would see if you lost 3 points: </p><p style=""color:red;font-size:50px;font-weight:bolder"">-3</p>","","0","instructions","","","","","","","","","","",""
"learning-instructions","67","468031","0.0-9.0-1.0-0.7","5191","2","25","Female","approach_avoid_spark_v1","""event"",""trial"",""time""
""fullscreenenter"",""1"",""1787""
""fullscreenexit"",""4"",""39987""
""blur"",""5"",""46688""
""focus"",""6"",""54516""
""blur"",""9"",""84894""
""focus"",""9"",""95518""
","""event"",""trial"",""time""
""blur"",""5"",""46688""
""blur"",""9"",""84894""
","""event"",""trial"",""time""
""focus"",""6"",""54516""
""focus"",""9"",""95518""
","""event"",""trial"",""time""
""fullscreenenter"",""1"",""1787""
","""event"",""trial"",""time""
""fullscreenexit"",""4"",""39987""
","","","","","","2829.800000190735","<p> Some farm animals will become very satisfied or very sick. </p><p> These farm animals will make you win or lose LOTS of points. </p><p> Other farm animals have less strong feelings. </p><p> These farm animals will make you win or lose small amounts of points. </p>","","0","instructions","","","","","","","","","","",""
"learning-instructions","68","482642","0.0-9.0-1.0-0.8","5191","2","25","Female","approach_avoid_spark_v1","""event"",""trial"",""time""
""fullscreenenter"",""1"",""1787""
""fullscreenexit"",""4"",""39987""
""blur"",""5"",""46688""
""focus"",""6"",""54516""
""blur"",""9"",""84894""
""focus"",""9"",""95518""
","""event"",""trial"",""time""
""blur"",""5"",""46688""
""blur"",""9"",""84894""
","""event"",""trial"",""time""
""focus"",""6"",""54516""
""focus"",""9"",""95518""
","""event"",""trial"",""time""
""fullscreenenter"",""1"",""1787""
","""event"",""trial"",""time""
""fullscreenexit"",""4"",""39987""
","","","","","","1241.0999994277954","<p> If you choose to leave the farm animal alone, you will not win or lose any points. </p><p>  However, in the center of the screen, you will see the number of points you WOULD HAVE won or lost if you had fed the farm animal. </p>","","0","instructions","","","","","","","","","","",""
"learning-instructions","69","499515","0.0-9.0-1.0-0.9","5191","2","25","Female","approach_avoid_spark_v1","""event"",""trial"",""time""
""fullscreenenter"",""1"",""1787""
""fullscreenexit"",""4"",""39987""
""blur"",""5"",""46688""
""focus"",""6"",""54516""
""blur"",""9"",""84894""
""focus"",""9"",""95518""
","""event"",""trial"",""time""
""blur"",""5"",""46688""
""blur"",""9"",""84894""
","""event"",""trial"",""time""
""focus"",""6"",""54516""
""focus"",""9"",""95518""
","""event"",""trial"",""time""
""fullscreenenter"",""1"",""1787""
","""event"",""trial"",""time""
""fullscreenexit"",""4"",""39987""
","","","","","","3052.5","<p> Here is what you might see if you did not feed the farm animal but the animal was hungry: </p><p style=""color:grey; font-size:50px; display: inline-block; border-spacing: 15px; border-width:3px; border-style:solid; border-color:red"">  &nbsp; 6 &nbsp; </p><p> Remember, in this case, you would not win or lose ANY points because you did not feed the farm animal.  </p>","","0","instructions","","","","","","","","","","",""
"learning-instructions","70","511615","0.0-9.0-1.0-0.10","5191","2","25","Female","approach_avoid_spark_v1","""event"",""trial"",""time""
""fullscreenenter"",""1"",""1787""
""fullscreenexit"",""4"",""39987""
""blur"",""5"",""46688""
""focus"",""6"",""54516""
""blur"",""9"",""84894""
""focus"",""9"",""95518""
","""event"",""trial"",""time""
""blur"",""5"",""46688""
""blur"",""9"",""84894""
","""event"",""trial"",""time""
""focus"",""6"",""54516""
""focus"",""9"",""95518""
","""event"",""trial"",""time""
""fullscreenenter"",""1"",""1787""
","""event"",""trial"",""time""
""fullscreenexit"",""4"",""39987""
","","","","","","1182.8000001907349","<p> Try to make the best choice for each farm animal because </p><p> at the end of the game, you will earn bonus money based on how many points you earned. </p>","","0","instructions","","","","","","","","","","",""
"learning-instructions","71","520639","0.0-9.0-1.0-0.11","5191","2","25","Female","approach_avoid_spark_v1","""event"",""trial"",""time""
""fullscreenenter"",""1"",""1787""
""fullscreenexit"",""4"",""39987""
""blur"",""5"",""46688""
""focus"",""6"",""54516""
""blur"",""9"",""84894""
""focus"",""9"",""95518""
","""event"",""trial"",""time""
""blur"",""5"",""46688""
""blur"",""9"",""84894""
","""event"",""trial"",""time""
""focus"",""6"",""54516""
""focus"",""9"",""95518""
","""event"",""trial"",""time""
""fullscreenenter"",""1"",""1787""
","""event"",""trial"",""time""
""fullscreenexit"",""4"",""39987""
","","","","","","816.1999998092651","<p> You will have 3 seconds to make each choice. Try to respond before time runs out! </p><p> You will lose 5 points each time you do not make a response. </p>","","0","instructions","","","","","","","","","","",""
"html-keyboard-response","72","521261","0.0-9.0-2.0-0.0","5191","2","25","Female","approach_avoid_spark_v1","""event"",""trial"",""time""
""fullscreenenter"",""1"",""1787""
""fullscreenexit"",""4"",""39987""
""blur"",""5"",""46688""
""focus"",""6"",""54516""
""blur"",""9"",""84894""
""focus"",""9"",""95518""
","""event"",""trial"",""time""
""blur"",""5"",""46688""
""blur"",""9"",""84894""
","""event"",""trial"",""time""
""focus"",""6"",""54516""
""focus"",""9"",""95518""
","""event"",""trial"",""time""
""fullscreenenter"",""1"",""1787""
","""event"",""trial"",""time""
""fullscreenexit"",""4"",""39987""
","","","","","","null","<div style=""font-size:60px;"">+</div>","null","","fixation","","","","","","","","","","",""
"aa-learning-trial","73","524269","0.0-9.0-2.0-1.0","5191","2","25","Female","approach_avoid_spark_v1","""event"",""trial"",""time""
""fullscreenenter"",""1"",""1787""
""fullscreenexit"",""4"",""39987""
""blur"",""5"",""46688""
""focus"",""6"",""54516""
""blur"",""9"",""84894""
""focus"",""9"",""95518""
","""event"",""trial"",""time""
""blur"",""5"",""46688""
""blur"",""9"",""84894""
","""event"",""trial"",""time""
""focus"",""6"",""54516""
""focus"",""9"",""95518""
","""event"",""trial"",""time""
""fullscreenenter"",""1"",""1787""
","""event"",""trial"",""time""
""fullscreenexit"",""4"",""39987""
","","","","","","1505.3999996185303","images/goat5.png","","","learning","7","7","1","1","goat","animals","2","0","","good","[5]"
"html-keyboard-response","74","524785","0.0-9.0-2.0-0.1","5191","2","25","Female","approach_avoid_spark_v1","""event"",""trial"",""time""
""fullscreenenter"",""1"",""1787""
""fullscreenexit"",""4"",""39987""
""blur"",""5"",""46688""
""focus"",""6"",""54516""
""blur"",""9"",""84894""
""focus"",""9"",""95518""
","""event"",""trial"",""time""
""blur"",""5"",""46688""
""blur"",""9"",""84894""
","""event"",""trial"",""time""
""focus"",""6"",""54516""
""focus"",""9"",""95518""
","""event"",""trial"",""time""
""fullscreenenter"",""1"",""1787""
","""event"",""trial"",""time""
""fullscreenexit"",""4"",""39987""
","","","","","","null","<div style=""font-size:60px;"">+</div>","null","","fixation","","","","","","","","","","",""
"aa-learning-trial","75","527792","0.0-9.0-2.0-1.1","5191","2","25","Female","approach_avoid_spark_v1","""event"",""trial"",""time""
""fullscreenenter"",""1"",""1787""
""fullscreenexit"",""4"",""39987""
""blur"",""5"",""46688""
""focus"",""6"",""54516""
""blur"",""9"",""84894""
""focus"",""9"",""95518""
","""event"",""trial"",""time""
""blur"",""5"",""46688""
""blur"",""9"",""84894""
","""event"",""trial"",""time""
""focus"",""6"",""54516""
""focus"",""9"",""95518""
","""event"",""trial"",""time""
""fullscreenenter"",""1"",""1787""
","""event"",""trial"",""time""
""fullscreenexit"",""4"",""39987""
","","","","","","848.2000007629395","images/cow6.png","","","learning","3","3","1","1","cow","animals","2","0","","bad","[-3]"
"html-keyboard-response","76","528308","0.0-9.0-2.0-0.2","5191","2","25","Female","approach_avoid_spark_v1","""event"",""trial"",""time""
""fullscreenenter"",""1"",""1787""
""fullscreenexit"",""4"",""39987""
""blur"",""5"",""46688""
""focus"",""6"",""54516""
""blur"",""9"",""84894""
""focus"",""9"",""95518""
","""event"",""trial"",""time""
""blur"",""5"",""46688""
""blur"",""9"",""84894""
","""event"",""trial"",""time""
""focus"",""6"",""54516""
""focus"",""9"",""95518""
","""event"",""trial"",""time""
""fullscreenenter"",""1"",""1787""
","""event"",""trial"",""time""
""fullscreenexit"",""4"",""39987""
","","","","","","null","<div style=""font-size:60px;"">+</div>","null","","fixation","","","","","","","","","","",""
"aa-learning-trial","77","531315","0.0-9.0-2.0-1.2","5191","2","25","Female","approach_avoid_spark_v1","""event"",""trial"",""time""
""fullscreenenter"",""1"",""1787""
""fullscreenexit"",""4"",""39987""
""blur"",""5"",""46688""
""focus"",""6"",""54516""
""blur"",""9"",""84894""
""focus"",""9"",""95518""
","""event"",""trial"",""time""
""blur"",""5"",""46688""
""blur"",""9"",""84894""
","""event"",""trial"",""time""
""focus"",""6"",""54516""
""focus"",""9"",""95518""
","""event"",""trial"",""time""
""fullscreenenter"",""1"",""1787""
","""event"",""trial"",""time""
""fullscreenexit"",""4"",""39987""
","","","","","","409.3999996185303","images/goat5.png","","","learning","7","0","0","0","goat","animals","2","0","","good","[5]"
"html-keyboard-response","78","531835","0.0-9.0-2.0-0.3","5191","2","25","Female","approach_avoid_spark_v1","""event"",""trial"",""time""
""fullscreenenter"",""1"",""1787""
""fullscreenexit"",""4"",""39987""
""blur"",""5"",""46688""
""focus"",""6"",""54516""
""blur"",""9"",""84894""
""focus"",""9"",""95518""
","""event"",""trial"",""time""
""blur"",""5"",""46688""
""blur"",""9"",""84894""
","""event"",""trial"",""time""
""focus"",""6"",""54516""
""focus"",""9"",""95518""
","""event"",""trial"",""time""
""fullscreenenter"",""1"",""1787""
","""event"",""trial"",""time""
""fullscreenexit"",""4"",""39987""
","","","","","","null","<div style=""font-size:60px;"">+</div>","null","","fixation","","","","","","","","","","",""
"aa-learning-trial","79","534843","0.0-9.0-2.0-1.3","5191","2","25","Female","approach_avoid_spark_v1","""event"",""trial"",""time""
""fullscreenenter"",""1"",""1787""
""fullscreenexit"",""4"",""39987""
""blur"",""5"",""46688""
""focus"",""6"",""54516""
""blur"",""9"",""84894""
""focus"",""9"",""95518""
","""event"",""trial"",""time""
""blur"",""5"",""46688""
""blur"",""9"",""84894""
","""event"",""trial"",""time""
""focus"",""6"",""54516""
""focus"",""9"",""95518""
","""event"",""trial"",""time""
""fullscreenenter"",""1"",""1787""
","""event"",""trial"",""time""
""fullscreenexit"",""4"",""39987""
","","","","","","425.19999980926514","images/sheep6.png","","","learning","4","4","1","1","sheep","animals","2","0","","neutral","0"
"html-keyboard-response","80","535347","0.0-9.0-2.0-0.4","5191","2","25","Female","approach_avoid_spark_v1","""event"",""trial"",""time""
""fullscreenenter"",""1"",""1787""
""fullscreenexit"",""4"",""39987""
""blur"",""5"",""46688""
""focus"",""6"",""54516""
""blur"",""9"",""84894""
""focus"",""9"",""95518""
","""event"",""trial"",""time""
""blur"",""5"",""46688""
""blur"",""9"",""84894""
","""event"",""trial"",""time""
""focus"",""6"",""54516""
""focus"",""9"",""95518""
","""event"",""trial"",""time""
""fullscreenenter"",""1"",""1787""
","""event"",""trial"",""time""
""fullscreenexit"",""4"",""39987""
","","","","","","null","<div style=""font-size:60px;"">+</div>","null","","fixation","","","","","","","","","","",""
"aa-learning-trial","81","538366","0.0-9.0-2.0-1.4","5191","2","25","Female","approach_avoid_spark_v1","""event"",""trial"",""time""
""fullscreenenter"",""1"",""1787""
""fullscreenexit"",""4"",""39987""
""blur"",""5"",""46688""
""focus"",""6"",""54516""
""blur"",""9"",""84894""
""focus"",""9"",""95518""
","""event"",""trial"",""time""
""blur"",""5"",""46688""
""blur"",""9"",""84894""
","""event"",""trial"",""time""
""focus"",""6"",""54516""
""focus"",""9"",""95518""
","""event"",""trial"",""time""
""fullscreenenter"",""1"",""1787""
","""event"",""trial"",""time""
""fullscreenexit"",""4"",""39987""
","","","","","","633.8000001907349","images/sheep1.png","","","learning","-2","-2","1","1","sheep","animals","2","0","","neutral","0"
"html-keyboard-response","82","538886","0.0-9.0-2.0-0.5","5191","2","25","Female","approach_avoid_spark_v1","""event"",""trial"",""time""
""fullscreenenter"",""1"",""1787""
""fullscreenexit"",""4"",""39987""
""blur"",""5"",""46688""
""focus"",""6"",""54516""
""blur"",""9"",""84894""
""focus"",""9"",""95518""
","""event"",""trial"",""time""
""blur"",""5"",""46688""
""blur"",""9"",""84894""
","""event"",""trial"",""time""
""focus"",""6"",""54516""
""focus"",""9"",""95518""
","""event"",""trial"",""time""
""fullscreenenter"",""1"",""1787""
","""event"",""trial"",""time""
""fullscreenexit"",""4"",""39987""
","","","","","","null","<div style=""font-size:60px;"">+</div>","null","","fixation","","","","","","","","","","",""
"aa-learning-trial","83","541903","0.0-9.0-2.0-1.5","5191","2","25","Female","approach_avoid_spark_v1","""event"",""trial"",""time""
""fullscreenenter"",""1"",""1787""
""fullscreenexit"",""4"",""39987""
""blur"",""5"",""46688""
""focus"",""6"",""54516""
""blur"",""9"",""84894""
""focus"",""9"",""95518""
","""event"",""trial"",""time""
""blur"",""5"",""46688""
""blur"",""9"",""84894""
","""event"",""trial"",""time""
""focus"",""6"",""54516""
""focus"",""9"",""95518""
","""event"",""trial"",""time""
""fullscreenenter"",""1"",""1787""
","""event"",""trial"",""time""
""fullscreenexit"",""4"",""39987""
","","","","","","572.4000005722046","images/sheep8.png","","","learning","-7","-7","1","1","sheep","animals","2","0","","neutral","0"
"html-keyboard-response","84","542422","0.0-9.0-2.0-0.6","5191","2","25","Female","approach_avoid_spark_v1","""event"",""trial"",""time""
""fullscreenenter"",""1"",""1787""
""fullscreenexit"",""4"",""39987""
""blur"",""5"",""46688""
""focus"",""6"",""54516""
""blur"",""9"",""84894""
""focus"",""9"",""95518""
","""event"",""trial"",""time""
""blur"",""5"",""46688""
""blur"",""9"",""84894""
","""event"",""trial"",""time""
""focus"",""6"",""54516""
""focus"",""9"",""95518""
","""event"",""trial"",""time""
""fullscreenenter"",""1"",""1787""
","""event"",""trial"",""time""
""fullscreenexit"",""4"",""39987""
","","","","","","null","<div style=""font-size:60px;"">+</div>","null","","fixation","","","","","","","","","","",""
"aa-learning-trial","85","545441","0.0-9.0-2.0-1.6","5191","2","25","Female","approach_avoid_spark_v1","""event"",""trial"",""time""
""fullscreenenter"",""1"",""1787""
""fullscreenexit"",""4"",""39987""
""blur"",""5"",""46688""
""focus"",""6"",""54516""
""blur"",""9"",""84894""
""focus"",""9"",""95518""
","""event"",""trial"",""time""
""blur"",""5"",""46688""
""blur"",""9"",""84894""
","""event"",""trial"",""time""
""focus"",""6"",""54516""
""focus"",""9"",""95518""
","""event"",""trial"",""time""
""fullscreenenter"",""1"",""1787""
","""event"",""trial"",""time""
""fullscreenexit"",""4"",""39987""
","","","","","","415.70000076293945","images/cow5.png","","","learning","-8","-8","1","1","cow","animals","2","0","","bad","[-3]"
"html-keyboard-response","86","545957","0.0-9.0-2.0-0.7","5191","2","25","Female","approach_avoid_spark_v1","""event"",""trial"",""time""
""fullscreenenter"",""1"",""1787""
""fullscreenexit"",""4"",""39987""
""blur"",""5"",""46688""
""focus"",""6"",""54516""
""blur"",""9"",""84894""
""focus"",""9"",""95518""
","""event"",""trial"",""time""
""blur"",""5"",""46688""
""blur"",""9"",""84894""
","""event"",""trial"",""time""
""focus"",""6"",""54516""
""focus"",""9"",""95518""
","""event"",""trial"",""time""
""fullscreenenter"",""1"",""1787""
","""event"",""trial"",""time""
""fullscreenexit"",""4"",""39987""
","","","","","","null","<div style=""font-size:60px;"">+</div>","null","","fixation","","","","","","","","","","",""
"aa-learning-trial","87","548974","0.0-9.0-2.0-1.7","5191","2","25","Female","approach_avoid_spark_v1","""event"",""trial"",""time""
""fullscreenenter"",""1"",""1787""
""fullscreenexit"",""4"",""39987""
""blur"",""5"",""46688""
""focus"",""6"",""54516""
""blur"",""9"",""84894""
""focus"",""9"",""95518""
","""event"",""trial"",""time""
""blur"",""5"",""46688""
""blur"",""9"",""84894""
","""event"",""trial"",""time""
""focus"",""6"",""54516""
""focus"",""9"",""95518""
","""event"",""trial"",""time""
""fullscreenenter"",""1"",""1787""
","""event"",""trial"",""time""
""fullscreenexit"",""4"",""39987""
","","","","","","297","images/goat3.png","","","learning","-6","0","0","0","goat","animals","2","0","","good","[5]"
"html-keyboard-response","88","549488","0.0-9.0-2.0-0.8","5191","2","25","Female","approach_avoid_spark_v1","""event"",""trial"",""time""
""fullscreenenter"",""1"",""1787""
""fullscreenexit"",""4"",""39987""
""blur"",""5"",""46688""
""focus"",""6"",""54516""
""blur"",""9"",""84894""
""focus"",""9"",""95518""
","""event"",""trial"",""time""
""blur"",""5"",""46688""
""blur"",""9"",""84894""
","""event"",""trial"",""time""
""focus"",""6"",""54516""
""focus"",""9"",""95518""
","""event"",""trial"",""time""
""fullscreenenter"",""1"",""1787""
","""event"",""trial"",""time""
""fullscreenexit"",""4"",""39987""
","","","","","","null","<div style=""font-size:60px;"">+</div>","null","","fixation","","","","","","","","","","",""
"aa-learning-trial","89","552496","0.0-9.0-2.0-1.8","5191","2","25","Female","approach_avoid_spark_v1","""event"",""trial"",""time""
""fullscreenenter"",""1"",""1787""
""fullscreenexit"",""4"",""39987""
""blur"",""5"",""46688""
""focus"",""6"",""54516""
""blur"",""9"",""84894""
""focus"",""9"",""95518""
","""event"",""trial"",""time""
""blur"",""5"",""46688""
""blur"",""9"",""84894""
","""event"",""trial"",""time""
""focus"",""6"",""54516""
""focus"",""9"",""95518""
","""event"",""trial"",""time""
""fullscreenenter"",""1"",""1787""
","""event"",""trial"",""time""
""fullscreenexit"",""4"",""39987""
","","","","","","308","images/goat3.png","","","learning","-6","-6","1","1","goat","animals","2","0","","good","[5]"
"html-keyboard-response","90","553000","0.0-9.0-2.0-0.9","5191","2","25","Female","approach_avoid_spark_v1","""event"",""trial"",""time""
""fullscreenenter"",""1"",""1787""
""fullscreenexit"",""4"",""39987""
""blur"",""5"",""46688""
""focus"",""6"",""54516""
""blur"",""9"",""84894""
""focus"",""9"",""95518""
","""event"",""trial"",""time""
""blur"",""5"",""46688""
""blur"",""9"",""84894""
","""event"",""trial"",""time""
""focus"",""6"",""54516""
""focus"",""9"",""95518""
","""event"",""trial"",""time""
""fullscreenenter"",""1"",""1787""
","""event"",""trial"",""time""
""fullscreenexit"",""4"",""39987""
","","","","","","null","<div style=""font-size:60px;"">+</div>","null","","fixation","","","","","","","","","","",""
"aa-learning-trial","91","556008","0.0-9.0-2.0-1.9","5191","2","25","Female","approach_avoid_spark_v1","""event"",""trial"",""time""
""fullscreenenter"",""1"",""1787""
""fullscreenexit"",""4"",""39987""
""blur"",""5"",""46688""
""focus"",""6"",""54516""
""blur"",""9"",""84894""
""focus"",""9"",""95518""
","""event"",""trial"",""time""
""blur"",""5"",""46688""
""blur"",""9"",""84894""
","""event"",""trial"",""time""
""focus"",""6"",""54516""
""focus"",""9"",""95518""
","""event"",""trial"",""time""
""fullscreenenter"",""1"",""1787""
","""event"",""trial"",""time""
""fullscreenexit"",""4"",""39987""
","","","","","","502.6000003814697","images/cow1.png","","","learning","1","1","1","1","cow","animals","2","0","","bad","[-3]"
"html-keyboard-response","92","556512","0.0-9.0-2.0-0.10","5191","2","25","Female","approach_avoid_spark_v1","""event"",""trial"",""time""
""fullscreenenter"",""1"",""1787""
""fullscreenexit"",""4"",""39987""
""blur"",""5"",""46688""
""focus"",""6"",""54516""
""blur"",""9"",""84894""
""focus"",""9"",""95518""
","""event"",""trial"",""time""
""blur"",""5"",""46688""
""blur"",""9"",""84894""
","""event"",""trial"",""time""
""focus"",""6"",""54516""
""focus"",""9"",""95518""
","""event"",""trial"",""time""
""fullscreenenter"",""1"",""1787""
","""event"",""trial"",""time""
""fullscreenexit"",""4"",""39987""
","","","","","","null","<div style=""font-size:60px;"">+</div>","null","","fixation","","","","","","","","","","",""
"aa-learning-trial","93","559520","0.0-9.0-2.0-1.10","5191","2","25","Female","approach_avoid_spark_v1","""event"",""trial"",""time""
""fullscreenenter"",""1"",""1787""
""fullscreenexit"",""4"",""39987""
""blur"",""5"",""46688""
""focus"",""6"",""54516""
""blur"",""9"",""84894""
""focus"",""9"",""95518""
","""event"",""trial"",""time""
""blur"",""5"",""46688""
""blur"",""9"",""84894""
","""event"",""trial"",""time""
""focus"",""6"",""54516""
""focus"",""9"",""95518""
","""event"",""trial"",""time""
""fullscreenenter"",""1"",""1787""
","""event"",""trial"",""time""
""fullscreenexit"",""4"",""39987""
","","","","","","685.2999992370605","images/cow6.png","","","learning","3","3","1","1","cow","animals","2","0","","bad","[-3]"
"html-keyboard-response","94","560025","0.0-9.0-2.0-0.11","5191","2","25","Female","approach_avoid_spark_v1","""event"",""trial"",""time""
""fullscreenenter"",""1"",""1787""
""fullscreenexit"",""4"",""39987""
""blur"",""5"",""46688""
""focus"",""6"",""54516""
""blur"",""9"",""84894""
""focus"",""9"",""95518""
","""event"",""trial"",""time""
""blur"",""5"",""46688""
""blur"",""9"",""84894""
","""event"",""trial"",""time""
""focus"",""6"",""54516""
""focus"",""9"",""95518""
","""event"",""trial"",""time""
""fullscreenenter"",""1"",""1787""
","""event"",""trial"",""time""
""fullscreenexit"",""4"",""39987""
","","","","","","null","<div style=""font-size:60px;"">+</div>","null","","fixation","","","","","","","","","","",""
"aa-learning-trial","95","563032","0.0-9.0-2.0-1.11","5191","2","25","Female","approach_avoid_spark_v1","""event"",""trial"",""time""
""fullscreenenter"",""1"",""1787""
""fullscreenexit"",""4"",""39987""
""blur"",""5"",""46688""
""focus"",""6"",""54516""
""blur"",""9"",""84894""
""focus"",""9"",""95518""
","""event"",""trial"",""time""
""blur"",""5"",""46688""
""blur"",""9"",""84894""
","""event"",""trial"",""time""
""focus"",""6"",""54516""
""focus"",""9"",""95518""
","""event"",""trial"",""time""
""fullscreenenter"",""1"",""1787""
","""event"",""trial"",""time""
""fullscreenexit"",""4"",""39987""
","","","","","","680.5","images/cow1.png","","","learning","1","1","1","1","cow","animals","2","0","","bad","[-3]"
"html-keyboard-response","96","563536","0.0-9.0-2.0-0.12","5191","2","25","Female","approach_avoid_spark_v1","""event"",""trial"",""time""
""fullscreenenter"",""1"",""1787""
""fullscreenexit"",""4"",""39987""
""blur"",""5"",""46688""
""focus"",""6"",""54516""
""blur"",""9"",""84894""
""focus"",""9"",""95518""
","""event"",""trial"",""time""
""blur"",""5"",""46688""
""blur"",""9"",""84894""
","""event"",""trial"",""time""
""focus"",""6"",""54516""
""focus"",""9"",""95518""
","""event"",""trial"",""time""
""fullscreenenter"",""1"",""1787""
","""event"",""trial"",""time""
""fullscreenexit"",""4"",""39987""
","","","","","","null","<div style=""font-size:60px;"">+</div>","null","","fixation","","","","","","","","","","",""
"aa-learning-trial","97","566558","0.0-9.0-2.0-1.12","5191","2","25","Female","approach_avoid_spark_v1","""event"",""trial"",""time""
""fullscreenenter"",""1"",""1787""
""fullscreenexit"",""4"",""39987""
""blur"",""5"",""46688""
""focus"",""6"",""54516""
""blur"",""9"",""84894""
""focus"",""9"",""95518""
","""event"",""trial"",""time""
""blur"",""5"",""46688""
""blur"",""9"",""84894""
","""event"",""trial"",""time""
""focus"",""6"",""54516""
""focus"",""9"",""95518""
","""event"",""trial"",""time""
""fullscreenenter"",""1"",""1787""
","""event"",""trial"",""time""
""fullscreenexit"",""4"",""39987""
","","","","","","598","images/sheep1.png","","","learning","-2","0","0","0","sheep","animals","2","0","","neutral","0"
"html-keyboard-response","98","567064","0.0-9.0-2.0-0.13","5191","2","25","Female","approach_avoid_spark_v1","""event"",""trial"",""time""
""fullscreenenter"",""1"",""1787""
""fullscreenexit"",""4"",""39987""
""blur"",""5"",""46688""
""focus"",""6"",""54516""
""blur"",""9"",""84894""
""focus"",""9"",""95518""
","""event"",""trial"",""time""
""blur"",""5"",""46688""
""blur"",""9"",""84894""
","""event"",""trial"",""time""
""focus"",""6"",""54516""
""focus"",""9"",""95518""
","""event"",""trial"",""time""
""fullscreenenter"",""1"",""1787""
","""event"",""trial"",""time""
""fullscreenexit"",""4"",""39987""
","","","","","","null","<div style=""font-size:60px;"">+</div>","null","","fixation","","","","","","","","","","",""
"aa-learning-trial","99","570077","0.0-9.0-2.0-1.13","5191","2","25","Female","approach_avoid_spark_v1","""event"",""trial"",""time""
""fullscreenenter"",""1"",""1787""
""fullscreenexit"",""4"",""39987""
""blur"",""5"",""46688""
""focus"",""6"",""54516""
""blur"",""9"",""84894""
""focus"",""9"",""95518""
","""event"",""trial"",""time""
""blur"",""5"",""46688""
""blur"",""9"",""84894""
","""event"",""trial"",""time""
""focus"",""6"",""54516""
""focus"",""9"",""95518""
","""event"",""trial"",""time""
""fullscreenenter"",""1"",""1787""
","""event"",""trial"",""time""
""fullscreenexit"",""4"",""39987""
","","","","","","584.3999996185303","images/sheep8.png","","","learning","-7","0","0","0","sheep","animals","2","0","","neutral","0"
"html-keyboard-response","100","570584","0.0-9.0-2.0-0.14","5191","2","25","Female","approach_avoid_spark_v1","""event"",""trial"",""time""
""fullscreenenter"",""1"",""1787""
""fullscreenexit"",""4"",""39987""
""blur"",""5"",""46688""
""focus"",""6"",""54516""
""blur"",""9"",""84894""
""focus"",""9"",""95518""
","""event"",""trial"",""time""
""blur"",""5"",""46688""
""blur"",""9"",""84894""
","""event"",""trial"",""time""
""focus"",""6"",""54516""
""focus"",""9"",""95518""
","""event"",""trial"",""time""
""fullscreenenter"",""1"",""1787""
","""event"",""trial"",""time""
""fullscreenexit"",""4"",""39987""
","","","","","","null","<div style=""font-size:60px;"">+</div>","null","","fixation","","","","","","","","","","",""
"aa-learning-trial","101","573592","0.0-9.0-2.0-1.14","5191","2","25","Female","approach_avoid_spark_v1","""event"",""trial"",""time""
""fullscreenenter"",""1"",""1787""
""fullscreenexit"",""4"",""39987""
""blur"",""5"",""46688""
""focus"",""6"",""54516""
""blur"",""9"",""84894""
""focus"",""9"",""95518""
","""event"",""trial"",""time""
""blur"",""5"",""46688""
""blur"",""9"",""84894""
","""event"",""trial"",""time""
""focus"",""6"",""54516""
""focus"",""9"",""95518""
","""event"",""trial"",""time""
""fullscreenenter"",""1"",""1787""
","""event"",""trial"",""time""
""fullscreenexit"",""4"",""39987""
","","","","","","674.5","images/goat2.png","","","learning","-1","-1","1","1","goat","animals","2","0","","good","[5]"
"html-keyboard-response","102","574096","0.0-9.0-2.0-0.15","5191","2","25","Female","approach_avoid_spark_v1","""event"",""trial"",""time""
""fullscreenenter"",""1"",""1787""
""fullscreenexit"",""4"",""39987""
""blur"",""5"",""46688""
""focus"",""6"",""54516""
""blur"",""9"",""84894""
""focus"",""9"",""95518""
","""event"",""trial"",""time""
""blur"",""5"",""46688""
""blur"",""9"",""84894""
","""event"",""trial"",""time""
""focus"",""6"",""54516""
""focus"",""9"",""95518""
","""event"",""trial"",""time""
""fullscreenenter"",""1"",""1787""
","""event"",""trial"",""time""
""fullscreenexit"",""4"",""39987""
","","","","","","null","<div style=""font-size:60px;"">+</div>","null","","fixation","","","","","","","","","","",""
"aa-learning-trial","103","577104","0.0-9.0-2.0-1.15","5191","2","25","Female","approach_avoid_spark_v1","""event"",""trial"",""time""
""fullscreenenter"",""1"",""1787""
""fullscreenexit"",""4"",""39987""
""blur"",""5"",""46688""
""focus"",""6"",""54516""
""blur"",""9"",""84894""
""focus"",""9"",""95518""
","""event"",""trial"",""time""
""blur"",""5"",""46688""
""blur"",""9"",""84894""
","""event"",""trial"",""time""
""focus"",""6"",""54516""
""focus"",""9"",""95518""
","""event"",""trial"",""time""
""fullscreenenter"",""1"",""1787""
","""event"",""trial"",""time""
""fullscreenexit"",""4"",""39987""
","","","","","","755.8000001907349","images/cow3.png","","","learning","-4","-4","1","1","cow","animals","2","0","","bad","[-3]"
"html-keyboard-response","104","577608","0.0-9.0-2.0-0.16","5191","2","25","Female","approach_avoid_spark_v1","""event"",""trial"",""time""
""fullscreenenter"",""1"",""1787""
""fullscreenexit"",""4"",""39987""
""blur"",""5"",""46688""
""focus"",""6"",""54516""
""blur"",""9"",""84894""
""focus"",""9"",""95518""
","""event"",""trial"",""time""
""blur"",""5"",""46688""
""blur"",""9"",""84894""
","""event"",""trial"",""time""
""focus"",""6"",""54516""
""focus"",""9"",""95518""
","""event"",""trial"",""time""
""fullscreenenter"",""1"",""1787""
","""event"",""trial"",""time""
""fullscreenexit"",""4"",""39987""
","","","","","","null","<div style=""font-size:60px;"">+</div>","null","","fixation","","","","","","","","","","",""
"aa-learning-trial","105","580630","0.0-9.0-2.0-1.16","5191","2","25","Female","approach_avoid_spark_v1","""event"",""trial"",""time""
""fullscreenenter"",""1"",""1787""
""fullscreenexit"",""4"",""39987""
""blur"",""5"",""46688""
""focus"",""6"",""54516""
""blur"",""9"",""84894""
""focus"",""9"",""95518""
","""event"",""trial"",""time""
""blur"",""5"",""46688""
""blur"",""9"",""84894""
","""event"",""trial"",""time""
""focus"",""6"",""54516""
""focus"",""9"",""95518""
","""event"",""trial"",""time""
""fullscreenenter"",""1"",""1787""
","""event"",""trial"",""time""
""fullscreenexit"",""4"",""39987""
","","","","","","1450.1000003814697","images/sheep6.png","","","learning","4","-5","-","","sheep","animals","2","0","","neutral","0"
"html-keyboard-response","106","581136","0.0-9.0-2.0-0.17","5191","2","25","Female","approach_avoid_spark_v1","""event"",""trial"",""time""
""fullscreenenter"",""1"",""1787""
""fullscreenexit"",""4"",""39987""
""blur"",""5"",""46688""
""focus"",""6"",""54516""
""blur"",""9"",""84894""
""focus"",""9"",""95518""
","""event"",""trial"",""time""
""blur"",""5"",""46688""
""blur"",""9"",""84894""
","""event"",""trial"",""time""
""focus"",""6"",""54516""
""focus"",""9"",""95518""
","""event"",""trial"",""time""
""fullscreenenter"",""1"",""1787""
","""event"",""trial"",""time""
""fullscreenexit"",""4"",""39987""
","","","","","","null","<div style=""font-size:60px;"">+</div>","null","","fixation","","","","","","","","","","",""
"aa-learning-trial","107","584145","0.0-9.0-2.0-1.17","5191","2","25","Female","approach_avoid_spark_v1","""event"",""trial"",""time""
""fullscreenenter"",""1"",""1787""
""fullscreenexit"",""4"",""39987""
""blur"",""5"",""46688""
""focus"",""6"",""54516""
""blur"",""9"",""84894""
""focus"",""9"",""95518""
","""event"",""trial"",""time""
""blur"",""5"",""46688""
""blur"",""9"",""84894""
","""event"",""trial"",""time""
""focus"",""6"",""54516""
""focus"",""9"",""95518""
","""event"",""trial"",""time""
""fullscreenenter"",""1"",""1787""
","""event"",""trial"",""time""
""fullscreenexit"",""4"",""39987""
","","","","","","1092.8999996185303","images/cow6.png","","","learning","3","3","1","1","cow","animals","2","0","","bad","[-3]"
"html-keyboard-response","108","584648","0.0-9.0-2.0-0.18","5191","2","25","Female","approach_avoid_spark_v1","""event"",""trial"",""time""
""fullscreenenter"",""1"",""1787""
""fullscreenexit"",""4"",""39987""
""blur"",""5"",""46688""
""focus"",""6"",""54516""
""blur"",""9"",""84894""
""focus"",""9"",""95518""
","""event"",""trial"",""time""
""blur"",""5"",""46688""
""blur"",""9"",""84894""
","""event"",""trial"",""time""
""focus"",""6"",""54516""
""focus"",""9"",""95518""
","""event"",""trial"",""time""
""fullscreenenter"",""1"",""1787""
","""event"",""trial"",""time""
""fullscreenexit"",""4"",""39987""
","","","","","","null","<div style=""font-size:60px;"">+</div>","null","","fixation","","","","","","","","","","",""
"aa-learning-trial","109","587656","0.0-9.0-2.0-1.18","5191","2","25","Female","approach_avoid_spark_v1","""event"",""trial"",""time""
""fullscreenenter"",""1"",""1787""
""fullscreenexit"",""4"",""39987""
""blur"",""5"",""46688""
""focus"",""6"",""54516""
""blur"",""9"",""84894""
""focus"",""9"",""95518""
","""event"",""trial"",""time""
""blur"",""5"",""46688""
""blur"",""9"",""84894""
","""event"",""trial"",""time""
""focus"",""6"",""54516""
""focus"",""9"",""95518""
","""event"",""trial"",""time""
""fullscreenenter"",""1"",""1787""
","""event"",""trial"",""time""
""fullscreenexit"",""4"",""39987""
","","","","","","918.3000001907349","images/sheep8.png","","","learning","-7","-7","1","1","sheep","animals","2","0","","neutral","0"
"html-keyboard-response","110","588160","0.0-9.0-2.0-0.19","5191","2","25","Female","approach_avoid_spark_v1","""event"",""trial"",""time""
""fullscreenenter"",""1"",""1787""
""fullscreenexit"",""4"",""39987""
""blur"",""5"",""46688""
""focus"",""6"",""54516""
""blur"",""9"",""84894""
""focus"",""9"",""95518""
","""event"",""trial"",""time""
""blur"",""5"",""46688""
""blur"",""9"",""84894""
","""event"",""trial"",""time""
""focus"",""6"",""54516""
""focus"",""9"",""95518""
","""event"",""trial"",""time""
""fullscreenenter"",""1"",""1787""
","""event"",""trial"",""time""
""fullscreenexit"",""4"",""39987""
","","","","","","null","<div style=""font-size:60px;"">+</div>","null","","fixation","","","","","","","","","","",""
"aa-learning-trial","111","591173","0.0-9.0-2.0-1.19","5191","2","25","Female","approach_avoid_spark_v1","""event"",""trial"",""time""
""fullscreenenter"",""1"",""1787""
""fullscreenexit"",""4"",""39987""
""blur"",""5"",""46688""
""focus"",""6"",""54516""
""blur"",""9"",""84894""
""focus"",""9"",""95518""
","""event"",""trial"",""time""
""blur"",""5"",""46688""
""blur"",""9"",""84894""
","""event"",""trial"",""time""
""focus"",""6"",""54516""
""focus"",""9"",""95518""
","""event"",""trial"",""time""
""fullscreenenter"",""1"",""1787""
","""event"",""trial"",""time""
""fullscreenexit"",""4"",""39987""
","","","","","","564.4000005722046","images/cow6.png","","","learning","3","3","1","1","cow","animals","2","0","","bad","[-3]"
"html-keyboard-response","112","591680","0.0-9.0-2.0-0.20","5191","2","25","Female","approach_avoid_spark_v1","""event"",""trial"",""time""
""fullscreenenter"",""1"",""1787""
""fullscreenexit"",""4"",""39987""
""blur"",""5"",""46688""
""focus"",""6"",""54516""
""blur"",""9"",""84894""
""focus"",""9"",""95518""
","""event"",""trial"",""time""
""blur"",""5"",""46688""
""blur"",""9"",""84894""
","""event"",""trial"",""time""
""focus"",""6"",""54516""
""focus"",""9"",""95518""
","""event"",""trial"",""time""
""fullscreenenter"",""1"",""1787""
","""event"",""trial"",""time""
""fullscreenexit"",""4"",""39987""
","","","","","","null","<div style=""font-size:60px;"">+</div>","null","","fixation","","","","","","","","","","",""
"aa-learning-trial","113","594688","0.0-9.0-2.0-1.20","5191","2","25","Female","approach_avoid_spark_v1","""event"",""trial"",""time""
""fullscreenenter"",""1"",""1787""
""fullscreenexit"",""4"",""39987""
""blur"",""5"",""46688""
""focus"",""6"",""54516""
""blur"",""9"",""84894""
""focus"",""9"",""95518""
","""event"",""trial"",""time""
""blur"",""5"",""46688""
""blur"",""9"",""84894""
","""event"",""trial"",""time""
""focus"",""6"",""54516""
""focus"",""9"",""95518""
","""event"",""trial"",""time""
""fullscreenenter"",""1"",""1787""
","""event"",""trial"",""time""
""fullscreenexit"",""4"",""39987""
","","","","","","510.1000003814697","images/goat5.png","","","learning","7","7","1","1","goat","animals","2","0","","good","[5]"
"html-keyboard-response","114","595191","0.0-9.0-2.0-0.21","5191","2","25","Female","approach_avoid_spark_v1","""event"",""trial"",""time""
""fullscreenenter"",""1"",""1787""
""fullscreenexit"",""4"",""39987""
""blur"",""5"",""46688""
""focus"",""6"",""54516""
""blur"",""9"",""84894""
""focus"",""9"",""95518""
","""event"",""trial"",""time""
""blur"",""5"",""46688""
""blur"",""9"",""84894""
","""event"",""trial"",""time""
""focus"",""6"",""54516""
""focus"",""9"",""95518""
","""event"",""trial"",""time""
""fullscreenenter"",""1"",""1787""
","""event"",""trial"",""time""
""fullscreenexit"",""4"",""39987""
","","","","","","null","<div style=""font-size:60px;"">+</div>","null","","fixation","","","","","","","","","","",""
"aa-learning-trial","115","598200","0.0-9.0-2.0-1.21","5191","2","25","Female","approach_avoid_spark_v1","""event"",""trial"",""time""
""fullscreenenter"",""1"",""1787""
""fullscreenexit"",""4"",""39987""
""blur"",""5"",""46688""
""focus"",""6"",""54516""
""blur"",""9"",""84894""
""focus"",""9"",""95518""
","""event"",""trial"",""time""
""blur"",""5"",""46688""
""blur"",""9"",""84894""
","""event"",""trial"",""time""
""focus"",""6"",""54516""
""focus"",""9"",""95518""
","""event"",""trial"",""time""
""fullscreenenter"",""1"",""1787""
","""event"",""trial"",""time""
""fullscreenexit"",""4"",""39987""
","","","","","","999.3000001907349","images/cow1.png","","","learning","1","1","1","1","cow","animals","2","0","","bad","[-3]"
"html-keyboard-response","116","598704","0.0-9.0-2.0-0.22","5191","2","25","Female","approach_avoid_spark_v1","""event"",""trial"",""time""
""fullscreenenter"",""1"",""1787""
""fullscreenexit"",""4"",""39987""
""blur"",""5"",""46688""
""focus"",""6"",""54516""
""blur"",""9"",""84894""
""focus"",""9"",""95518""
","""event"",""trial"",""time""
""blur"",""5"",""46688""
""blur"",""9"",""84894""
","""event"",""trial"",""time""
""focus"",""6"",""54516""
""focus"",""9"",""95518""
","""event"",""trial"",""time""
""fullscreenenter"",""1"",""1787""
","""event"",""trial"",""time""
""fullscreenexit"",""4"",""39987""
","","","","","","null","<div style=""font-size:60px;"">+</div>","null","","fixation","","","","","","","","","","",""
"aa-learning-trial","117","601711","0.0-9.0-2.0-1.22","5191","2","25","Female","approach_avoid_spark_v1","""event"",""trial"",""time""
""fullscreenenter"",""1"",""1787""
""fullscreenexit"",""4"",""39987""
""blur"",""5"",""46688""
""focus"",""6"",""54516""
""blur"",""9"",""84894""
""focus"",""9"",""95518""
","""event"",""trial"",""time""
""blur"",""5"",""46688""
""blur"",""9"",""84894""
","""event"",""trial"",""time""
""focus"",""6"",""54516""
""focus"",""9"",""95518""
","""event"",""trial"",""time""
""fullscreenenter"",""1"",""1787""
","""event"",""trial"",""time""
""fullscreenexit"",""4"",""39987""
","","","","","","910.5","images/cow6.png","","","learning","3","3","1","1","cow","animals","2","0","","bad","[-3]"
"html-keyboard-response","118","602216","0.0-9.0-2.0-0.23","5191","2","25","Female","approach_avoid_spark_v1","""event"",""trial"",""time""
""fullscreenenter"",""1"",""1787""
""fullscreenexit"",""4"",""39987""
""blur"",""5"",""46688""
""focus"",""6"",""54516""
""blur"",""9"",""84894""
""focus"",""9"",""95518""
","""event"",""trial"",""time""
""blur"",""5"",""46688""
""blur"",""9"",""84894""
","""event"",""trial"",""time""
""focus"",""6"",""54516""
""focus"",""9"",""95518""
","""event"",""trial"",""time""
""fullscreenenter"",""1"",""1787""
","""event"",""trial"",""time""
""fullscreenexit"",""4"",""39987""
","","","","","","null","<div style=""font-size:60px;"">+</div>","null","","fixation","","","","","","","","","","",""
"aa-learning-trial","119","605224","0.0-9.0-2.0-1.23","5191","2","25","Female","approach_avoid_spark_v1","""event"",""trial"",""time""
""fullscreenenter"",""1"",""1787""
""fullscreenexit"",""4"",""39987""
""blur"",""5"",""46688""
""focus"",""6"",""54516""
""blur"",""9"",""84894""
""focus"",""9"",""95518""
","""event"",""trial"",""time""
""blur"",""5"",""46688""
""blur"",""9"",""84894""
","""event"",""trial"",""time""
""focus"",""6"",""54516""
""focus"",""9"",""95518""
","""event"",""trial"",""time""
""fullscreenenter"",""1"",""1787""
","""event"",""trial"",""time""
""fullscreenexit"",""4"",""39987""
","","","","","","494.30000019073486","images/sheep8.png","","","learning","-7","0","0","0","sheep","animals","2","0","","neutral","0"
"html-keyboard-response","120","605728","0.0-9.0-2.0-0.24","5191","2","25","Female","approach_avoid_spark_v1","""event"",""trial"",""time""
""fullscreenenter"",""1"",""1787""
""fullscreenexit"",""4"",""39987""
""blur"",""5"",""46688""
""focus"",""6"",""54516""
""blur"",""9"",""84894""
""focus"",""9"",""95518""
","""event"",""trial"",""time""
""blur"",""5"",""46688""
""blur"",""9"",""84894""
","""event"",""trial"",""time""
""focus"",""6"",""54516""
""focus"",""9"",""95518""
","""event"",""trial"",""time""
""fullscreenenter"",""1"",""1787""
","""event"",""trial"",""time""
""fullscreenexit"",""4"",""39987""
","","","","","","null","<div style=""font-size:60px;"">+</div>","null","","fixation","","","","","","","","","","",""
"aa-learning-trial","121","608737","0.0-9.0-2.0-1.24","5191","2","25","Female","approach_avoid_spark_v1","""event"",""trial"",""time""
""fullscreenenter"",""1"",""1787""
""fullscreenexit"",""4"",""39987""
""blur"",""5"",""46688""
""focus"",""6"",""54516""
""blur"",""9"",""84894""
""focus"",""9"",""95518""
","""event"",""trial"",""time""
""blur"",""5"",""46688""
""blur"",""9"",""84894""
","""event"",""trial"",""time""
""focus"",""6"",""54516""
""focus"",""9"",""95518""
","""event"",""trial"",""time""
""fullscreenenter"",""1"",""1787""
","""event"",""trial"",""time""
""fullscreenexit"",""4"",""39987""
","","","","","","568.5","images/cow1.png","","","learning","1","1","1","1","cow","animals","2","0","","bad","[-3]"
"html-keyboard-response","122","609240","0.0-9.0-2.0-0.25","5191","2","25","Female","approach_avoid_spark_v1","""event"",""trial"",""time""
""fullscreenenter"",""1"",""1787""
""fullscreenexit"",""4"",""39987""
""blur"",""5"",""46688""
""focus"",""6"",""54516""
""blur"",""9"",""84894""
""focus"",""9"",""95518""
","""event"",""trial"",""time""
""blur"",""5"",""46688""
""blur"",""9"",""84894""
","""event"",""trial"",""time""
""focus"",""6"",""54516""
""focus"",""9"",""95518""
","""event"",""trial"",""time""
""fullscreenenter"",""1"",""1787""
","""event"",""trial"",""time""
""fullscreenexit"",""4"",""39987""
","","","","","","null","<div style=""font-size:60px;"">+</div>","null","","fixation","","","","","","","","","","",""
"aa-learning-trial","123","612261","0.0-9.0-2.0-1.25","5191","2","25","Female","approach_avoid_spark_v1","""event"",""trial"",""time""
""fullscreenenter"",""1"",""1787""
""fullscreenexit"",""4"",""39987""
""blur"",""5"",""46688""
""focus"",""6"",""54516""
""blur"",""9"",""84894""
""focus"",""9"",""95518""
","""event"",""trial"",""time""
""blur"",""5"",""46688""
""blur"",""9"",""84894""
","""event"",""trial"",""time""
""focus"",""6"",""54516""
""focus"",""9"",""95518""
","""event"",""trial"",""time""
""fullscreenenter"",""1"",""1787""
","""event"",""trial"",""time""
""fullscreenexit"",""4"",""39987""
","","","","","","762","images/sheep1.png","","","learning","-2","0","0","0","sheep","animals","2","0","","neutral","0"
"html-keyboard-response","124","612768","0.0-9.0-2.0-0.26","5191","2","25","Female","approach_avoid_spark_v1","""event"",""trial"",""time""
""fullscreenenter"",""1"",""1787""
""fullscreenexit"",""4"",""39987""
""blur"",""5"",""46688""
""focus"",""6"",""54516""
""blur"",""9"",""84894""
""focus"",""9"",""95518""
","""event"",""trial"",""time""
""blur"",""5"",""46688""
""blur"",""9"",""84894""
","""event"",""trial"",""time""
""focus"",""6"",""54516""
""focus"",""9"",""95518""
","""event"",""trial"",""time""
""fullscreenenter"",""1"",""1787""
","""event"",""trial"",""time""
""fullscreenexit"",""4"",""39987""
","","","","","","null","<div style=""font-size:60px;"">+</div>","null","","fixation","","","","","","","","","","",""
"aa-learning-trial","125","615776","0.0-9.0-2.0-1.26","5191","2","25","Female","approach_avoid_spark_v1","""event"",""trial"",""time""
""fullscreenenter"",""1"",""1787""
""fullscreenexit"",""4"",""39987""
""blur"",""5"",""46688""
""focus"",""6"",""54516""
""blur"",""9"",""84894""
""focus"",""9"",""95518""
","""event"",""trial"",""time""
""blur"",""5"",""46688""
""blur"",""9"",""84894""
","""event"",""trial"",""time""
""focus"",""6"",""54516""
""focus"",""9"",""95518""
","""event"",""trial"",""time""
""fullscreenenter"",""1"",""1787""
","""event"",""trial"",""time""
""fullscreenexit"",""4"",""39987""
","","","","","","555.8000001907349","images/cow6.png","","","learning","3","3","1","1","cow","animals","2","0","","bad","[-3]"
"html-keyboard-response","126","616280","0.0-9.0-2.0-0.27","5191","2","25","Female","approach_avoid_spark_v1","""event"",""trial"",""time""
""fullscreenenter"",""1"",""1787""
""fullscreenexit"",""4"",""39987""
""blur"",""5"",""46688""
""focus"",""6"",""54516""
""blur"",""9"",""84894""
""focus"",""9"",""95518""
","""event"",""trial"",""time""
""blur"",""5"",""46688""
""blur"",""9"",""84894""
","""event"",""trial"",""time""
""focus"",""6"",""54516""
""focus"",""9"",""95518""
","""event"",""trial"",""time""
""fullscreenenter"",""1"",""1787""
