"trial_type","trial_index","time_elapsed","internal_node_id","subject_id","task_condition","age","gender","task_version","interactions","blur_events","focus_events","fullscreenenter_events","fullscreenexit_events","success","timeout","failed_images","failed_audio","failed_video","rt","stimulus","response","button_pressed","task_part","approach_reward","points","key_press","option_selected","stim_cat","task_block","block_condition","block_number","correct","cat_type","mean_cat_reward"
"pavlovia","0","1","0.0-0.0","3886","2","20","Male","approach_avoid_spark_v1","""event"",""trial"",""time""
""fullscreenenter"",""1"",""1278""
","
","
","""event"",""trial"",""time""
""fullscreenenter"",""1"",""1278""
","
","","","","","","","","","","","","","","","","","","","","",""
"fullscreen","1","2280","0.0-1.0","3886","2","20","Male","approach_avoid_spark_v1","""event"",""trial"",""time""
""fullscreenenter"",""1"",""1278""
","
","
","""event"",""trial"",""time""
""fullscreenenter"",""1"",""1278""
","
","true","","","","","","","","","","","","","","","","","","","",""
"preload","2","5542","0.0-2.0","3886","2","20","Male","approach_avoid_spark_v1","""event"",""trial"",""time""
""fullscreenenter"",""1"",""1278""
","
","
","""event"",""trial"",""time""
""fullscreenenter"",""1"",""1278""
","
","true","false","[]","[]","[]","","","","","","","","","","","","","","","",""
"audio-keyboard-response","3","8691","0.0-3.0","3886","2","20","Male","approach_avoid_spark_v1","""event"",""trial"",""time""
""fullscreenenter"",""1"",""1278""
","
","
","""event"",""trial"",""time""
""fullscreenenter"",""1"",""1278""
","
","","","","","","3146.6666666666665","audio/beep_loop.wav"," ","","","","","","","","","","","","",""
"audio-button-response","4","10016","0.0-4.0","3886","2","20","Male","approach_avoid_spark_v1","""event"",""trial"",""time""
""fullscreenenter"",""1"",""1278""
","
","
","""event"",""trial"",""time""
""fullscreenenter"",""1"",""1278""
","
","","","","","","1323","audio/shark.wav","4","","","","","","","","","","","","",""
"audio-button-response","5","12382","0.0-5.0","3886","2","20","Male","approach_avoid_spark_v1","""event"",""trial"",""time""
""fullscreenenter"",""1"",""1278""
","
","
","""event"",""trial"",""time""
""fullscreenenter"",""1"",""1278""
","
","","","","","","1355","audio/turtle.wav","1","","","","","","","","","","","","",""
"preload","6","14835","0.0-6.0","3886","2","20","Male","approach_avoid_spark_v1","""event"",""trial"",""time""
""fullscreenenter"",""1"",""1278""
","
","
","""event"",""trial"",""time""
""fullscreenenter"",""1"",""1278""
","
","true","false","[]","[]","[]","","","","","","","","","","","","","","","",""
"html-keyboard-response","7","17123","0.0-7.0","3886","2","20","Male","approach_avoid_spark_v1","""event"",""trial"",""time""
""fullscreenenter"",""1"",""1278""
","
","
","""event"",""trial"",""time""
""fullscreenenter"",""1"",""1278""
","
","","","","","","2286.0999999940395","Welcome to the experiment. Press any key to begin and to advance the instructions."," ","","","","","","","","","","","","",""
"learning-instructions","8","25434","0.0-8.0-0.0-0.0","3886","2","20","Male","approach_avoid_spark_v1","""event"",""trial"",""time""
""fullscreenenter"",""1"",""1278""
","
","
","""event"",""trial"",""time""
""fullscreenenter"",""1"",""1278""
","
","","","","","","1353.5999999940395","<p> Welcome! Today you are going to play 6 different rounds of a decision-making game. </p><p> Use the mouse to click next to continue. </p>","","0","instructions","","","","","","","","","","",""
"learning-instructions","9","29249","0.0-8.0-0.0-0.1","3886","2","20","Male","approach_avoid_spark_v1","""event"",""trial"",""time""
""fullscreenenter"",""1"",""1278""
","
","
","""event"",""trial"",""time""
""fullscreenenter"",""1"",""1278""
","
","","","","","","1084.1000000089407","<p> You will start with a practice round to learn the rules. </p>","","0","instructions","","","","","","","","","","",""
"learning-instructions","10","33183","0.0-8.0-0.0-0.2","3886","2","20","Male","approach_avoid_spark_v1","""event"",""trial"",""time""
""fullscreenenter"",""1"",""1278""
""blur"",""11"",""36020""
""focus"",""11"",""41700""
","""event"",""trial"",""time""
""blur"",""11"",""36020""
","""event"",""trial"",""time""
""focus"",""11"",""41700""
","""event"",""trial"",""time""
""fullscreenenter"",""1"",""1278""
","
","","","","","","473.80000001192093","<p> Your goal in this round is to give out sports equipment to kids. </p></div>","","0","instructions","","","","","","","","","","",""
"learning-instructions","11","41833","0.0-8.0-0.0-0.3","3886","2","20","Male","approach_avoid_spark_v1","""event"",""trial"",""time""
""fullscreenenter"",""1"",""1278""
""blur"",""11"",""36020""
""focus"",""11"",""41700""
","""event"",""trial"",""time""
""blur"",""11"",""36020""
","""event"",""trial"",""time""
""focus"",""11"",""41700""
","""event"",""trial"",""time""
""fullscreenenter"",""1"",""1278""
","
","","","","","","1103.199999988079","<p> The kids only like some of the equipment.  </p><p> On each turn, you will see a piece of sports equipment.   </p><p> You need to decide whether to give it to the kids or not.  </p>","","0","instructions","","","","","","","","","","",""
"learning-instructions","12","47266","0.0-8.0-0.0-0.4","3886","2","20","Male","approach_avoid_spark_v1","""event"",""trial"",""time""
""fullscreenenter"",""1"",""1278""
""blur"",""11"",""36020""
""focus"",""11"",""41700""
","""event"",""trial"",""time""
""blur"",""11"",""36020""
","""event"",""trial"",""time""
""focus"",""11"",""41700""
","""event"",""trial"",""time""
""fullscreenenter"",""1"",""1278""
","
","","","","","","668.7999999970198","<p> You can give them the equipment by pressing 1 and choose not to give it to them by pressing 0. </p><br><div class=""choice-instructions-grid""> <div class=""choice-option""><img src=""images/approach.png"" class=""choice-option-img"" stage=""instructions"" position=""0"" ><div class=""choice-option-text""> Press ""1."" </div></div><div class=""choice-option""><img src=""images/avoid.png"" class=""choice-option-img"" stage=""instructions"" position=""1"" ><div class=""choice-option-text""> Press ""0."" </div></div>","","0","instructions","","","","","","","","","","",""
"learning-instructions","13","55083","0.0-8.0-0.0-0.5","3886","2","20","Male","approach_avoid_spark_v1","""event"",""trial"",""time""
""fullscreenenter"",""1"",""1278""
""blur"",""11"",""36020""
""focus"",""11"",""41700""
","""event"",""trial"",""time""
""blur"",""11"",""36020""
","""event"",""trial"",""time""
""focus"",""11"",""41700""
","""event"",""trial"",""time""
""fullscreenenter"",""1"",""1278""
","
","","","","","","422.70000000298023","<p> If you give them a piece of equipment they like, they will be happy! </p><p> But if you give them a piece of equipment they do not like, they will be sad. </p>","","0","instructions","","","","","","","","","","",""
"learning-instructions","14","66016","0.0-8.0-0.0-0.6","3886","2","20","Male","approach_avoid_spark_v1","""event"",""trial"",""time""
""fullscreenenter"",""1"",""1278""
""blur"",""11"",""36020""
""focus"",""11"",""41700""
","""event"",""trial"",""time""
""blur"",""11"",""36020""
","""event"",""trial"",""time""
""focus"",""11"",""41700""
","""event"",""trial"",""time""
""fullscreenenter"",""1"",""1278""
","
","","","","","","412.79999999701977","<p> You will earn points based on how you make kids feel. </p><p> If you make them happy, you will WIN anywhere from 1 - 9 points, </p><p> but if you make them sad, you will LOSE anywhere from 1 - 9 points. </p>","","0","instructions","","","","","","","","","","",""
"learning-instructions","15","76866","0.0-8.0-0.0-0.7","3886","2","20","Male","approach_avoid_spark_v1","""event"",""trial"",""time""
""fullscreenenter"",""1"",""1278""
""blur"",""11"",""36020""
""focus"",""11"",""41700""
","""event"",""trial"",""time""
""blur"",""11"",""36020""
","""event"",""trial"",""time""
""focus"",""11"",""41700""
","""event"",""trial"",""time""
""fullscreenenter"",""1"",""1278""
","
","","","","","","1289.6000000089407","<p> You will see how many points you won or lost in the center of the screen. </p><p> Here is what you would see if you won 6 points: </p><p style=""color:green;font-size:50px;font-weight:bolder"">6</p><p style=""color:green"">The text is GREEN because you WON points.</p>","","0","instructions","","","","","","","","","","",""
"learning-instructions","16","82949","0.0-8.0-0.0-0.8","3886","2","20","Male","approach_avoid_spark_v1","""event"",""trial"",""time""
""fullscreenenter"",""1"",""1278""
""blur"",""11"",""36020""
""focus"",""11"",""41700""
","""event"",""trial"",""time""
""blur"",""11"",""36020""
","""event"",""trial"",""time""
""focus"",""11"",""41700""
","""event"",""trial"",""time""
""fullscreenenter"",""1"",""1278""
","
","","","","","","577.7999999970198","<p> And here is what you would see if you lost 4 points: </p><p style=""color:red;font-size:50px;font-weight:bolder"">-4</p><p style=""color:red"">The text is RED because you LOST points. </p>","","0","instructions","","","","","","","","","","",""
"learning-instructions","17","98333","0.0-8.0-0.0-0.9","3886","2","20","Male","approach_avoid_spark_v1","""event"",""trial"",""time""
""fullscreenenter"",""1"",""1278""
""blur"",""11"",""36020""
""focus"",""11"",""41700""
""blur"",""18"",""101905""
""focus"",""18"",""107123""
","""event"",""trial"",""time""
""blur"",""11"",""36020""
""blur"",""18"",""101905""
","""event"",""trial"",""time""
""focus"",""11"",""41700""
""focus"",""18"",""107123""
","""event"",""trial"",""time""
""fullscreenenter"",""1"",""1278""
","
","","","","","","666.5","<p> Some of the equipment will make the kids VERY happy or sad. </p><p> These pieces of equipment will make you win or lose LOTS of points. </p><p> Other pieces of equipment will only make the kids a little happy or sad. </p><p> These pieces of equipment will make you win or lose small amounts of points. </p>","","0","instructions","","","","","","","","","","",""
"learning-instructions","18","109814","0.0-8.0-0.0-0.10","3886","2","20","Male","approach_avoid_spark_v1","""event"",""trial"",""time""
""fullscreenenter"",""1"",""1278""
""blur"",""11"",""36020""
""focus"",""11"",""41700""
""blur"",""18"",""101905""
""focus"",""18"",""107123""
""blur"",""19"",""117487""
""focus"",""19"",""128166""
","""event"",""trial"",""time""
""blur"",""11"",""36020""
""blur"",""18"",""101905""
""blur"",""19"",""117487""
","""event"",""trial"",""time""
""focus"",""11"",""41700""
""focus"",""18"",""107123""
""focus"",""19"",""128166""
","""event"",""trial"",""time""
""fullscreenenter"",""1"",""1278""
","
","","","","","","842.2000000029802","<p> If you choose not to give them the equipment, you will not win or lose any points. </p><p>  However, in the center of the screen, you will see the number of points you WOULD HAVE won or lost if you had given them the equipment. </p>","","0","instructions","","","","","","","","","","",""
"learning-instructions","19","132282","0.0-8.0-0.0-0.11","3886","2","20","Male","approach_avoid_spark_v1","""event"",""trial"",""time""
""fullscreenenter"",""1"",""1278""
""blur"",""11"",""36020""
""focus"",""11"",""41700""
""blur"",""18"",""101905""
""focus"",""18"",""107123""
""blur"",""19"",""117487""
""focus"",""19"",""128166""
","""event"",""trial"",""time""
""blur"",""11"",""36020""
""blur"",""18"",""101905""
""blur"",""19"",""117487""
","""event"",""trial"",""time""
""focus"",""11"",""41700""
""focus"",""18"",""107123""
""focus"",""19"",""128166""
","""event"",""trial"",""time""
""fullscreenenter"",""1"",""1278""
","
","","","","","","931.5999999940395","<p> Here is what you might see if you did not give the equipment to the kids but it would have made them happy: </p><p style=""color:grey; font-size:50px; display: inline-block; border-spacing: 15px; border-width:3px; border-style:solid; border-color:red"">  &nbsp; 7 &nbsp; </p><p> Remember, in this case, you would not win or lose ANY points because you did not give them the equipment.  </p><p style=""color:grey"">The text is GREY because you earned ZERO points. </p><p style=""color:red"">However, choosing to give the kids the equipment would have made you win points. The box around the text is RED because you chose the worse option. </p>","","0","instructions","","","","","","","","","","",""
"learning-instructions","20","153867","0.0-8.0-0.0-0.12","3886","2","20","Male","approach_avoid_spark_v1","""event"",""trial"",""time""
""fullscreenenter"",""1"",""1278""
""blur"",""11"",""36020""
""focus"",""11"",""41700""
""blur"",""18"",""101905""
""focus"",""18"",""107123""
""blur"",""19"",""117487""
""focus"",""19"",""128166""
","""event"",""trial"",""time""
""blur"",""11"",""36020""
""blur"",""18"",""101905""
""blur"",""19"",""117487""
","""event"",""trial"",""time""
""focus"",""11"",""41700""
""focus"",""18"",""107123""
""focus"",""19"",""128166""
","""event"",""trial"",""time""
""fullscreenenter"",""1"",""1278""
","
","","","","","","512.7000000029802","<p> Here is what you might see if you did not give the equipment to the kids but it would have made them sad: </p><p style=""color:grey;font-size:50px; display: inline-block; border-spacing: 15px; border-width:3px; border-style:solid; border-color:green"">  &nbsp; -8 &nbsp; </p><p> Remember, in this case, you would not win or lose ANY points because you did not give them the equipment.  </p><p style=""color:grey"">The text is GREY because you earned ZERO points. </p><p  style=""color:green""> Choosing to give the kids the equipment would have made you lose points. The box around the text is GREEN because you chose the better option.</p>","","0","instructions","","","","","","","","","","",""
"learning-instructions","21","163466","0.0-8.0-0.0-0.13","3886","2","20","Male","approach_avoid_spark_v1","""event"",""trial"",""time""
""fullscreenenter"",""1"",""1278""
""blur"",""11"",""36020""
""focus"",""11"",""41700""
""blur"",""18"",""101905""
""focus"",""18"",""107123""
""blur"",""19"",""117487""
""focus"",""19"",""128166""
""blur"",""22"",""165452""
""focus"",""22"",""180926""
","""event"",""trial"",""time""
""blur"",""11"",""36020""
""blur"",""18"",""101905""
""blur"",""19"",""117487""
""blur"",""22"",""165452""
","""event"",""trial"",""time""
""focus"",""11"",""41700""
""focus"",""18"",""107123""
""focus"",""19"",""128166""
""focus"",""22"",""180926""
","""event"",""trial"",""time""
""fullscreenenter"",""1"",""1278""
","
","","","","","","725.2000000029802","<p> You will have 3 seconds to make each choice. Try to respond before time runs out! </p><p> You will lose 5 points each time you do not make a response. </p>","","0","instructions","","","","","","","","","","",""
"learning-instructions","22","181748","0.0-8.0-0.0-0.14","3886","2","20","Male","approach_avoid_spark_v1","""event"",""trial"",""time""
""fullscreenenter"",""1"",""1278""
""blur"",""11"",""36020""
""focus"",""11"",""41700""
""blur"",""18"",""101905""
""focus"",""18"",""107123""
""blur"",""19"",""117487""
""focus"",""19"",""128166""
""blur"",""22"",""165452""
""focus"",""22"",""180926""
","""event"",""trial"",""time""
""blur"",""11"",""36020""
""blur"",""18"",""101905""
""blur"",""19"",""117487""
""blur"",""22"",""165452""
","""event"",""trial"",""time""
""focus"",""11"",""41700""
""focus"",""18"",""107123""
""focus"",""19"",""128166""
""focus"",""22"",""180926""
","""event"",""trial"",""time""
""fullscreenenter"",""1"",""1278""
","
","","","","","","12864.5","<p> This is just a practice round, but in the real game, your bonus payment will depend on your total number of points.","","0","instructions","","","","","","","","","","",""
"learning-instructions","23","188333","0.0-8.0-0.0-0.15","3886","2","20","Male","approach_avoid_spark_v1","""event"",""trial"",""time""
""fullscreenenter"",""1"",""1278""
""blur"",""11"",""36020""
""focus"",""11"",""41700""
""blur"",""18"",""101905""
""focus"",""18"",""107123""
""blur"",""19"",""117487""
""focus"",""19"",""128166""
""blur"",""22"",""165452""
""focus"",""22"",""180926""
","""event"",""trial"",""time""
""blur"",""11"",""36020""
""blur"",""18"",""101905""
""blur"",""19"",""117487""
""blur"",""22"",""165452""
","""event"",""trial"",""time""
""focus"",""11"",""41700""
""focus"",""18"",""107123""
""focus"",""19"",""128166""
""focus"",""22"",""180926""
","""event"",""trial"",""time""
""fullscreenenter"",""1"",""1278""
","
","","","","","","815","<p> Remember, you can give them the equipment by pressing 1 and choose not to give it to them by pressing 0. </p><br><div class=""choice-instructions-grid""> <div class=""choice-option""><img src=""images/approach.png"" class=""choice-option-img"" stage=""instructions"" position=""0"" ><div class=""choice-option-text""> Press ""1."" </div></div><div class=""choice-option""><img src=""images/avoid.png"" class=""choice-option-img"" stage=""instructions"" position=""1"" ><div class=""choice-option-text""> Press ""0."" </div></div>","","0","instructions","","","","","","","","","","",""
"html-button-response","24","189466","0.0-8.0-1.0","3886","2","20","Male","approach_avoid_spark_v1","""event"",""trial"",""time""
""fullscreenenter"",""1"",""1278""
""blur"",""11"",""36020""
""focus"",""11"",""41700""
""blur"",""18"",""101905""
""focus"",""18"",""107123""
""blur"",""19"",""117487""
""focus"",""19"",""128166""
""blur"",""22"",""165452""
""focus"",""22"",""180926""
","""event"",""trial"",""time""
""blur"",""11"",""36020""
""blur"",""18"",""101905""
""blur"",""19"",""117487""
""blur"",""22"",""165452""
","""event"",""trial"",""time""
""focus"",""11"",""41700""
""focus"",""18"",""107123""
""focus"",""19"",""128166""
""focus"",""22"",""180926""
","""event"",""trial"",""time""
""fullscreenenter"",""1"",""1278""
","
","","","","","","1025.7000000029802","<p> Ready to practice? </p>","0","","","","","","","","","","","","",""
"html-keyboard-response","25","190078","0.0-8.0-2.0-0.0","3886","2","20","Male","approach_avoid_spark_v1","""event"",""trial"",""time""
""fullscreenenter"",""1"",""1278""
""blur"",""11"",""36020""
""focus"",""11"",""41700""
""blur"",""18"",""101905""
""focus"",""18"",""107123""
""blur"",""19"",""117487""
""focus"",""19"",""128166""
""blur"",""22"",""165452""
""focus"",""22"",""180926""
","""event"",""trial"",""time""
""blur"",""11"",""36020""
""blur"",""18"",""101905""
""blur"",""19"",""117487""
""blur"",""22"",""165452""
","""event"",""trial"",""time""
""focus"",""11"",""41700""
""focus"",""18"",""107123""
""focus"",""19"",""128166""
""focus"",""22"",""180926""
","""event"",""trial"",""time""
""fullscreenenter"",""1"",""1278""
","
","","","","","","null","<div style=""font-size:60px;"">+</div>","null","","fixation","","","","","","","","","","",""
"aa-learning-trial","26","193085","0.0-8.0-2.0-1.0","3886","2","20","Male","approach_avoid_spark_v1","""event"",""trial"",""time""
""fullscreenenter"",""1"",""1278""
""blur"",""11"",""36020""
""focus"",""11"",""41700""
""blur"",""18"",""101905""
""focus"",""18"",""107123""
""blur"",""19"",""117487""
""focus"",""19"",""128166""
""blur"",""22"",""165452""
""focus"",""22"",""180926""
","""event"",""trial"",""time""
""blur"",""11"",""36020""
""blur"",""18"",""101905""
""blur"",""19"",""117487""
""blur"",""22"",""165452""
","""event"",""trial"",""time""
""focus"",""11"",""41700""
""focus"",""18"",""107123""
""focus"",""19"",""128166""
""focus"",""22"",""180926""
","""event"",""trial"",""time""
""fullscreenenter"",""1"",""1278""
","
","","","","","","897.1000000089407","images/racket1.png","","","learning","8","8","1","1","practice","practice","practice","-1","","",""
"html-keyboard-response","27","193588","0.0-8.0-2.0-0.1","3886","2","20","Male","approach_avoid_spark_v1","""event"",""trial"",""time""
""fullscreenenter"",""1"",""1278""
""blur"",""11"",""36020""
""focus"",""11"",""41700""
""blur"",""18"",""101905""
""focus"",""18"",""107123""
""blur"",""19"",""117487""
""focus"",""19"",""128166""
""blur"",""22"",""165452""
""focus"",""22"",""180926""
","""event"",""trial"",""time""
""blur"",""11"",""36020""
""blur"",""18"",""101905""
""blur"",""19"",""117487""
""blur"",""22"",""165452""
","""event"",""trial"",""time""
""focus"",""11"",""41700""
""focus"",""18"",""107123""
""focus"",""19"",""128166""
""focus"",""22"",""180926""
","""event"",""trial"",""time""
""fullscreenenter"",""1"",""1278""
","
","","","","","","null","<div style=""font-size:60px;"">+</div>","null","","fixation","","","","","","","","","","",""
"aa-learning-trial","28","196596","0.0-8.0-2.0-1.1","3886","2","20","Male","approach_avoid_spark_v1","""event"",""trial"",""time""
""fullscreenenter"",""1"",""1278""
""blur"",""11"",""36020""
""focus"",""11"",""41700""
""blur"",""18"",""101905""
""focus"",""18"",""107123""
""blur"",""19"",""117487""
""focus"",""19"",""128166""
""blur"",""22"",""165452""
""focus"",""22"",""180926""
","""event"",""trial"",""time""
""blur"",""11"",""36020""
""blur"",""18"",""101905""
""blur"",""19"",""117487""
""blur"",""22"",""165452""
","""event"",""trial"",""time""
""focus"",""11"",""41700""
""focus"",""18"",""107123""
""focus"",""19"",""128166""
""focus"",""22"",""180926""
","""event"",""trial"",""time""
""fullscreenenter"",""1"",""1278""
","
","","","","","","922.2999999970198","images/racket1.png","","","learning","-5","-5","1","1","practice","practice","practice","-1","","",""
"html-keyboard-response","29","197104","0.0-8.0-2.0-0.2","3886","2","20","Male","approach_avoid_spark_v1","""event"",""trial"",""time""
""fullscreenenter"",""1"",""1278""
""blur"",""11"",""36020""
""focus"",""11"",""41700""
""blur"",""18"",""101905""
""focus"",""18"",""107123""
""blur"",""19"",""117487""
""focus"",""19"",""128166""
""blur"",""22"",""165452""
""focus"",""22"",""180926""
","""event"",""trial"",""time""
""blur"",""11"",""36020""
""blur"",""18"",""101905""
""blur"",""19"",""117487""
""blur"",""22"",""165452""
","""event"",""trial"",""time""
""focus"",""11"",""41700""
""focus"",""18"",""107123""
""focus"",""19"",""128166""
""focus"",""22"",""180926""
","""event"",""trial"",""time""
""fullscreenenter"",""1"",""1278""
","
","","","","","","null","<div style=""font-size:60px;"">+</div>","null","","fixation","","","","","","","","","","",""
"aa-learning-trial","30","200118","0.0-8.0-2.0-1.2","3886","2","20","Male","approach_avoid_spark_v1","""event"",""trial"",""time""
""fullscreenenter"",""1"",""1278""
""blur"",""11"",""36020""
""focus"",""11"",""41700""
""blur"",""18"",""101905""
""focus"",""18"",""107123""
""blur"",""19"",""117487""
""focus"",""19"",""128166""
""blur"",""22"",""165452""
""focus"",""22"",""180926""
","""event"",""trial"",""time""
""blur"",""11"",""36020""
""blur"",""18"",""101905""
""blur"",""19"",""117487""
""blur"",""22"",""165452""
","""event"",""trial"",""time""
""focus"",""11"",""41700""
""focus"",""18"",""107123""
""focus"",""19"",""128166""
""focus"",""22"",""180926""
","""event"",""trial"",""time""
""fullscreenenter"",""1"",""1278""
","
","","","","","","819.5","images/ball3.png","","","learning","-8","0","0","0","practice","practice","practice","-1","","",""
"html-keyboard-response","31","200620","0.0-8.0-2.0-0.3","3886","2","20","Male","approach_avoid_spark_v1","""event"",""trial"",""time""
""fullscreenenter"",""1"",""1278""
""blur"",""11"",""36020""
""focus"",""11"",""41700""
""blur"",""18"",""101905""
""focus"",""18"",""107123""
""blur"",""19"",""117487""
""focus"",""19"",""128166""
""blur"",""22"",""165452""
""focus"",""22"",""180926""
","""event"",""trial"",""time""
""blur"",""11"",""36020""
""blur"",""18"",""101905""
""blur"",""19"",""117487""
""blur"",""22"",""165452""
","""event"",""trial"",""time""
""focus"",""11"",""41700""
""focus"",""18"",""107123""
""focus"",""19"",""128166""
""focus"",""22"",""180926""
","""event"",""trial"",""time""
""fullscreenenter"",""1"",""1278""
","
","","","","","","null","<div style=""font-size:60px;"">+</div>","null","","fixation","","","","","","","","","","",""
"aa-learning-trial","32","203632","0.0-8.0-2.0-1.3","3886","2","20","Male","approach_avoid_spark_v1","""event"",""trial"",""time""
""fullscreenenter"",""1"",""1278""
""blur"",""11"",""36020""
""focus"",""11"",""41700""
""blur"",""18"",""101905""
""focus"",""18"",""107123""
""blur"",""19"",""117487""
""focus"",""19"",""128166""
""blur"",""22"",""165452""
""focus"",""22"",""180926""
","""event"",""trial"",""time""
""blur"",""11"",""36020""
""blur"",""18"",""101905""
""blur"",""19"",""117487""
""blur"",""22"",""165452""
","""event"",""trial"",""time""
""focus"",""11"",""41700""
""focus"",""18"",""107123""
""focus"",""19"",""128166""
""focus"",""22"",""180926""
","""event"",""trial"",""time""
""fullscreenenter"",""1"",""1278""
","
","","","","","","650.5999999940395","images/racket1.png","","","learning","1","1","1","1","practice","practice","practice","-1","","",""
"html-keyboard-response","33","204140","0.0-8.0-2.0-0.4","3886","2","20","Male","approach_avoid_spark_v1","""event"",""trial"",""time""
""fullscreenenter"",""1"",""1278""
""blur"",""11"",""36020""
""focus"",""11"",""41700""
""blur"",""18"",""101905""
""focus"",""18"",""107123""
""blur"",""19"",""117487""
""focus"",""19"",""128166""
""blur"",""22"",""165452""
""focus"",""22"",""180926""
","""event"",""trial"",""time""
""blur"",""11"",""36020""
""blur"",""18"",""101905""
""blur"",""19"",""117487""
""blur"",""22"",""165452""
","""event"",""trial"",""time""
""focus"",""11"",""41700""
""focus"",""18"",""107123""
""focus"",""19"",""128166""
""focus"",""22"",""180926""
","""event"",""trial"",""time""
""fullscreenenter"",""1"",""1278""
","
","","","","","","null","<div style=""font-size:60px;"">+</div>","null","","fixation","","","","","","","","","","",""
"aa-learning-trial","34","207152","0.0-8.0-2.0-1.4","3886","2","20","Male","approach_avoid_spark_v1","""event"",""trial"",""time""
""fullscreenenter"",""1"",""1278""
""blur"",""11"",""36020""
""focus"",""11"",""41700""
""blur"",""18"",""101905""
""focus"",""18"",""107123""
""blur"",""19"",""117487""
""focus"",""19"",""128166""
""blur"",""22"",""165452""
""focus"",""22"",""180926""
","""event"",""trial"",""time""
""blur"",""11"",""36020""
""blur"",""18"",""101905""
""blur"",""19"",""117487""
""blur"",""22"",""165452""
","""event"",""trial"",""time""
""focus"",""11"",""41700""
""focus"",""18"",""107123""
""focus"",""19"",""128166""
""focus"",""22"",""180926""
","""event"",""trial"",""time""
""fullscreenenter"",""1"",""1278""
","
","","","","","","892.5","images/ball2.png","","","learning","1","1","1","1","practice","practice","practice","-1","","",""
"html-keyboard-response","35","207663","0.0-8.0-2.0-0.5","3886","2","20","Male","approach_avoid_spark_v1","""event"",""trial"",""time""
""fullscreenenter"",""1"",""1278""
""blur"",""11"",""36020""
""focus"",""11"",""41700""
""blur"",""18"",""101905""
""focus"",""18"",""107123""
""blur"",""19"",""117487""
""focus"",""19"",""128166""
""blur"",""22"",""165452""
""focus"",""22"",""180926""
","""event"",""trial"",""time""
""blur"",""11"",""36020""
""blur"",""18"",""101905""
""blur"",""19"",""117487""
""blur"",""22"",""165452""
","""event"",""trial"",""time""
""focus"",""11"",""41700""
""focus"",""18"",""107123""
""focus"",""19"",""128166""
""focus"",""22"",""180926""
","""event"",""trial"",""time""
""fullscreenenter"",""1"",""1278""
","
","","","","","","null","<div style=""font-size:60px;"">+</div>","null","","fixation","","","","","","","","","","",""
"aa-learning-trial","36","210676","0.0-8.0-2.0-1.5","3886","2","20","Male","approach_avoid_spark_v1","""event"",""trial"",""time""
""fullscreenenter"",""1"",""1278""
""blur"",""11"",""36020""
""focus"",""11"",""41700""
""blur"",""18"",""101905""
""focus"",""18"",""107123""
""blur"",""19"",""117487""
""focus"",""19"",""128166""
""blur"",""22"",""165452""
""focus"",""22"",""180926""
","""event"",""trial"",""time""
""blur"",""11"",""36020""
""blur"",""18"",""101905""
""blur"",""19"",""117487""
""blur"",""22"",""165452""
","""event"",""trial"",""time""
""focus"",""11"",""41700""
""focus"",""18"",""107123""
""focus"",""19"",""128166""
""focus"",""22"",""180926""
","""event"",""trial"",""time""
""fullscreenenter"",""1"",""1278""
","
","","","","","","1128.5999999940395","images/racket2.png","","","learning","2","2","1","1","practice","practice","practice","-1","","",""
"html-keyboard-response","37","211182","0.0-8.0-2.0-0.6","3886","2","20","Male","approach_avoid_spark_v1","""event"",""trial"",""time""
""fullscreenenter"",""1"",""1278""
""blur"",""11"",""36020""
""focus"",""11"",""41700""
""blur"",""18"",""101905""
""focus"",""18"",""107123""
""blur"",""19"",""117487""
""focus"",""19"",""128166""
""blur"",""22"",""165452""
""focus"",""22"",""180926""
","""event"",""trial"",""time""
""blur"",""11"",""36020""
""blur"",""18"",""101905""
""blur"",""19"",""117487""
""blur"",""22"",""165452""
","""event"",""trial"",""time""
""focus"",""11"",""41700""
""focus"",""18"",""107123""
""focus"",""19"",""128166""
""focus"",""22"",""180926""
","""event"",""trial"",""time""
""fullscreenenter"",""1"",""1278""
","
","","","","","","null","<div style=""font-size:60px;"">+</div>","null","","fixation","","","","","","","","","","",""
"aa-learning-trial","38","214190","0.0-8.0-2.0-1.6","3886","2","20","Male","approach_avoid_spark_v1","""event"",""trial"",""time""
""fullscreenenter"",""1"",""1278""
""blur"",""11"",""36020""
""focus"",""11"",""41700""
""blur"",""18"",""101905""
""focus"",""18"",""107123""
""blur"",""19"",""117487""
""focus"",""19"",""128166""
""blur"",""22"",""165452""
""focus"",""22"",""180926""
","""event"",""trial"",""time""
""blur"",""11"",""36020""
""blur"",""18"",""101905""
""blur"",""19"",""117487""
""blur"",""22"",""165452""
","""event"",""trial"",""time""
""focus"",""11"",""41700""
""focus"",""18"",""107123""
""focus"",""19"",""128166""
""focus"",""22"",""180926""
","""event"",""trial"",""time""
""fullscreenenter"",""1"",""1278""
","
","","","","","","1078.4000000059605","images/racket4.png","","","learning","-8","-8","1","1","practice","practice","practice","-1","","",""
"html-keyboard-response","39","214703","0.0-8.0-2.0-0.7","3886","2","20","Male","approach_avoid_spark_v1","""event"",""trial"",""time""
""fullscreenenter"",""1"",""1278""
""blur"",""11"",""36020""
""focus"",""11"",""41700""
""blur"",""18"",""101905""
""focus"",""18"",""107123""
""blur"",""19"",""117487""
""focus"",""19"",""128166""
""blur"",""22"",""165452""
""focus"",""22"",""180926""
","""event"",""trial"",""time""
""blur"",""11"",""36020""
""blur"",""18"",""101905""
""blur"",""19"",""117487""
""blur"",""22"",""165452""
","""event"",""trial"",""time""
""focus"",""11"",""41700""
""focus"",""18"",""107123""
""focus"",""19"",""128166""
""focus"",""22"",""180926""
","""event"",""trial"",""time""
""fullscreenenter"",""1"",""1278""
","
","","","","","","null","<div style=""font-size:60px;"">+</div>","null","","fixation","","","","","","","","","","",""
"aa-learning-trial","40","217709","0.0-8.0-2.0-1.7","3886","2","20","Male","approach_avoid_spark_v1","""event"",""trial"",""time""
""fullscreenenter"",""1"",""1278""
""blur"",""11"",""36020""
""focus"",""11"",""41700""
""blur"",""18"",""101905""
""focus"",""18"",""107123""
""blur"",""19"",""117487""
""focus"",""19"",""128166""
""blur"",""22"",""165452""
""focus"",""22"",""180926""
","""event"",""trial"",""time""
""blur"",""11"",""36020""
""blur"",""18"",""101905""
""blur"",""19"",""117487""
""blur"",""22"",""165452""
","""event"",""trial"",""time""
""focus"",""11"",""41700""
""focus"",""18"",""107123""
""focus"",""19"",""128166""
""focus"",""22"",""180926""
","""event"",""trial"",""time""
""fullscreenenter"",""1"",""1278""
","
","","","","","","2798.7999999970198","images/ball2.png","","","learning","3","0","0","0","practice","practice","practice","-1","","",""
"html-keyboard-response","41","218221","0.0-8.0-2.0-0.8","3886","2","20","Male","approach_avoid_spark_v1","""event"",""trial"",""time""
""fullscreenenter"",""1"",""1278""
""blur"",""11"",""36020""
""focus"",""11"",""41700""
""blur"",""18"",""101905""
""focus"",""18"",""107123""
""blur"",""19"",""117487""
""focus"",""19"",""128166""
""blur"",""22"",""165452""
""focus"",""22"",""180926""
","""event"",""trial"",""time""
""blur"",""11"",""36020""
""blur"",""18"",""101905""
""blur"",""19"",""117487""
""blur"",""22"",""165452""
","""event"",""trial"",""time""
""focus"",""11"",""41700""
""focus"",""18"",""107123""
""focus"",""19"",""128166""
""focus"",""22"",""180926""
","""event"",""trial"",""time""
""fullscreenenter"",""1"",""1278""
","
","","","","","","null","<div style=""font-size:60px;"">+</div>","null","","fixation","","","","","","","","","","",""
"aa-learning-trial","42","221231","0.0-8.0-2.0-1.8","3886","2","20","Male","approach_avoid_spark_v1","""event"",""trial"",""time""
""fullscreenenter"",""1"",""1278""
""blur"",""11"",""36020""
""focus"",""11"",""41700""
""blur"",""18"",""101905""
""focus"",""18"",""107123""
""blur"",""19"",""117487""
""focus"",""19"",""128166""
""blur"",""22"",""165452""
""focus"",""22"",""180926""
","""event"",""trial"",""time""
""blur"",""11"",""36020""
""blur"",""18"",""101905""
""blur"",""19"",""117487""
""blur"",""22"",""165452""
","""event"",""trial"",""time""
""focus"",""11"",""41700""
""focus"",""18"",""107123""
""focus"",""19"",""128166""
""focus"",""22"",""180926""
","""event"",""trial"",""time""
""fullscreenenter"",""1"",""1278""
","
","","","","","","1674.0999999940395","images/racket4.png","","","learning","2","0","0","0","practice","practice","practice","-1","","",""
"html-keyboard-response","43","221739","0.0-8.0-2.0-0.9","3886","2","20","Male","approach_avoid_spark_v1","""event"",""trial"",""time""
""fullscreenenter"",""1"",""1278""
""blur"",""11"",""36020""
""focus"",""11"",""41700""
""blur"",""18"",""101905""
""focus"",""18"",""107123""
""blur"",""19"",""117487""
""focus"",""19"",""128166""
""blur"",""22"",""165452""
""focus"",""22"",""180926""
","""event"",""trial"",""time""
""blur"",""11"",""36020""
""blur"",""18"",""101905""
""blur"",""19"",""117487""
""blur"",""22"",""165452""
","""event"",""trial"",""time""
""focus"",""11"",""41700""
""focus"",""18"",""107123""
""focus"",""19"",""128166""
""focus"",""22"",""180926""
","""event"",""trial"",""time""
""fullscreenenter"",""1"",""1278""
","
","","","","","","null","<div style=""font-size:60px;"">+</div>","null","","fixation","","","","","","","","","","",""
"aa-learning-trial","44","224747","0.0-8.0-2.0-1.9","3886","2","20","Male","approach_avoid_spark_v1","""event"",""trial"",""time""
""fullscreenenter"",""1"",""1278""
""blur"",""11"",""36020""
""focus"",""11"",""41700""
""blur"",""18"",""101905""
""focus"",""18"",""107123""
""blur"",""19"",""117487""
""focus"",""19"",""128166""
""blur"",""22"",""165452""
""focus"",""22"",""180926""
","""event"",""trial"",""time""
""blur"",""11"",""36020""
""blur"",""18"",""101905""
""blur"",""19"",""117487""
""blur"",""22"",""165452""
","""event"",""trial"",""time""
""focus"",""11"",""41700""
""focus"",""18"",""107123""
""focus"",""19"",""128166""
""focus"",""22"",""180926""
","""event"",""trial"",""time""
""fullscreenenter"",""1"",""1278""
","
","","","","","","897.5","images/racket2.png","","","learning","-4","-4","1","1","practice","practice","practice","-1","","",""
"html-keyboard-response","45","225253","0.0-8.0-2.0-0.10","3886","2","20","Male","approach_avoid_spark_v1","""event"",""trial"",""time""
""fullscreenenter"",""1"",""1278""
""blur"",""11"",""36020""
""focus"",""11"",""41700""
""blur"",""18"",""101905""
""focus"",""18"",""107123""
""blur"",""19"",""117487""
""focus"",""19"",""128166""
""blur"",""22"",""165452""
""focus"",""22"",""180926""
","""event"",""trial"",""time""
""blur"",""11"",""36020""
""blur"",""18"",""101905""
""blur"",""19"",""117487""
""blur"",""22"",""165452""
","""event"",""trial"",""time""
""focus"",""11"",""41700""
""focus"",""18"",""107123""
""focus"",""19"",""128166""
""focus"",""22"",""180926""
","""event"",""trial"",""time""
""fullscreenenter"",""1"",""1278""
","
","","","","","","null","<div style=""font-size:60px;"">+</div>","null","","fixation","","","","","","","","","","",""
"aa-learning-trial","46","228258","0.0-8.0-2.0-1.10","3886","2","20","Male","approach_avoid_spark_v1","""event"",""trial"",""time""
""fullscreenenter"",""1"",""1278""
""blur"",""11"",""36020""
""focus"",""11"",""41700""
""blur"",""18"",""101905""
""focus"",""18"",""107123""
""blur"",""19"",""117487""
""focus"",""19"",""128166""
""blur"",""22"",""165452""
""focus"",""22"",""180926""
","""event"",""trial"",""time""
""blur"",""11"",""36020""
""blur"",""18"",""101905""
""blur"",""19"",""117487""
""blur"",""22"",""165452""
","""event"",""trial"",""time""
""focus"",""11"",""41700""
""focus"",""18"",""107123""
""focus"",""19"",""128166""
""focus"",""22"",""180926""
","""event"",""trial"",""time""
""fullscreenenter"",""1"",""1278""
","
","","","","","","932.7000000029802","images/ball3.png","","","learning","-9","0","0","0","practice","practice","practice","-1","","",""
"html-keyboard-response","47","228765","0.0-8.0-2.0-0.11","3886","2","20","Male","approach_avoid_spark_v1","""event"",""trial"",""time""
""fullscreenenter"",""1"",""1278""
""blur"",""11"",""36020""
""focus"",""11"",""41700""
""blur"",""18"",""101905""
""focus"",""18"",""107123""
""blur"",""19"",""117487""
""focus"",""19"",""128166""
""blur"",""22"",""165452""
""focus"",""22"",""180926""
","""event"",""trial"",""time""
""blur"",""11"",""36020""
""blur"",""18"",""101905""
""blur"",""19"",""117487""
""blur"",""22"",""165452""
","""event"",""trial"",""time""
""focus"",""11"",""41700""
""focus"",""18"",""107123""
""focus"",""19"",""128166""
""focus"",""22"",""180926""
","""event"",""trial"",""time""
""fullscreenenter"",""1"",""1278""
","
","","","","","","null","<div style=""font-size:60px;"">+</div>","null","","fixation","","","","","","","","","","",""
"aa-learning-trial","48","231772","0.0-8.0-2.0-1.11","3886","2","20","Male","approach_avoid_spark_v1","""event"",""trial"",""time""
""fullscreenenter"",""1"",""1278""
""blur"",""11"",""36020""
""focus"",""11"",""41700""
""blur"",""18"",""101905""
""focus"",""18"",""107123""
""blur"",""19"",""117487""
""focus"",""19"",""128166""
""blur"",""22"",""165452""
""focus"",""22"",""180926""
","""event"",""trial"",""time""
""blur"",""11"",""36020""
""blur"",""18"",""101905""
""blur"",""19"",""117487""
""blur"",""22"",""165452""
","""event"",""trial"",""time""
""focus"",""11"",""41700""
""focus"",""18"",""107123""
""focus"",""19"",""128166""
""focus"",""22"",""180926""
","""event"",""trial"",""time""
""fullscreenenter"",""1"",""1278""
","
","","","","","","635.0999999940395","images/racket3.png","","","learning","1","1","1","1","practice","practice","practice","-1","","",""
"html-button-response","49","234331","0.0-8.0-3.0","3886","2","20","Male","approach_avoid_spark_v1","""event"",""trial"",""time""
""fullscreenenter"",""1"",""1278""
""blur"",""11"",""36020""
""focus"",""11"",""41700""
""blur"",""18"",""101905""
""focus"",""18"",""107123""
""blur"",""19"",""117487""
""focus"",""19"",""128166""
""blur"",""22"",""165452""
""focus"",""22"",""180926""
","""event"",""trial"",""time""
""blur"",""11"",""36020""
""blur"",""18"",""101905""
""blur"",""19"",""117487""
""blur"",""22"",""165452""
","""event"",""trial"",""time""
""focus"",""11"",""41700""
""focus"",""18"",""107123""
""focus"",""19"",""128166""
""focus"",""22"",""180926""
","""event"",""trial"",""time""
""fullscreenenter"",""1"",""1278""
","
","","","","","","2556.0999999940395","<p> You earned -4 points in the practice round! </p>","0","","break","","","","","","","","","","",""
"learning-instructions","50","241532","0.0-8.0-4.0-0.0","3886","2","20","Male","approach_avoid_spark_v1","""event"",""trial"",""time""
""fullscreenenter"",""1"",""1278""
""blur"",""11"",""36020""
""focus"",""11"",""41700""
""blur"",""18"",""101905""
""focus"",""18"",""107123""
""blur"",""19"",""117487""
""focus"",""19"",""128166""
""blur"",""22"",""165452""
""focus"",""22"",""180926""
","""event"",""trial"",""time""
""blur"",""11"",""36020""
""blur"",""18"",""101905""
""blur"",""19"",""117487""
""blur"",""22"",""165452""
","""event"",""trial"",""time""
""focus"",""11"",""41700""
""focus"",""18"",""107123""
""focus"",""19"",""128166""
""focus"",""22"",""180926""
","""event"",""trial"",""time""
""fullscreenenter"",""1"",""1278""
","
","","","","","","1219.2000000029802","<p> It's almost time to start the real game. </p><p> Before you start, we're going to ask you a few questions about how the game works. </p>","","0","instructions","","","","","","","","","","",""
"preload","51","243076","0.0-8.0-5.0","3886","2","20","Male","approach_avoid_spark_v1","""event"",""trial"",""time""
""fullscreenenter"",""1"",""1278""
""blur"",""11"",""36020""
""focus"",""11"",""41700""
""blur"",""18"",""101905""
""focus"",""18"",""107123""
""blur"",""19"",""117487""
""focus"",""19"",""128166""
""blur"",""22"",""165452""
""focus"",""22"",""180926""
","""event"",""trial"",""time""
""blur"",""11"",""36020""
""blur"",""18"",""101905""
""blur"",""19"",""117487""
""blur"",""22"",""165452""
","""event"",""trial"",""time""
""focus"",""11"",""41700""
""focus"",""18"",""107123""
""focus"",""19"",""128166""
""focus"",""22"",""180926""
","""event"",""trial"",""time""
""fullscreenenter"",""1"",""1278""
","
","true","false","[]","[]","[]","","","","","","","","","","","","","","","",""
"comp-q","52","249049","0.0-8.0-6.0-0.0","3886","2","20","Male","approach_avoid_spark_v1","""event"",""trial"",""time""
""fullscreenenter"",""1"",""1278""
""blur"",""11"",""36020""
""focus"",""11"",""41700""
""blur"",""18"",""101905""
""focus"",""18"",""107123""
""blur"",""19"",""117487""
""focus"",""19"",""128166""
""blur"",""22"",""165452""
""focus"",""22"",""180926""
","""event"",""trial"",""time""
""blur"",""11"",""36020""
""blur"",""18"",""101905""
""blur"",""19"",""117487""
""blur"",""22"",""165452""
","""event"",""trial"",""time""
""focus"",""11"",""41700""
""focus"",""18"",""107123""
""focus"",""19"",""128166""
""focus"",""22"",""180926""
","""event"",""trial"",""time""
""fullscreenenter"",""1"",""1278""
","
","","","","","","970.5","<p> <b> True or False? </b> </p><p> If you see a number in GREY, that means you earned that many points. </p>","","1","comp_question","","","","","","","","","true","",""
"comp-q","53","259149","0.0-8.0-6.0-1.0","3886","2","20","Male","approach_avoid_spark_v1","""event"",""trial"",""time""
""fullscreenenter"",""1"",""1278""
""blur"",""11"",""36020""
""focus"",""11"",""41700""
""blur"",""18"",""101905""
""focus"",""18"",""107123""
""blur"",""19"",""117487""
""focus"",""19"",""128166""
""blur"",""22"",""165452""
""focus"",""22"",""180926""
","""event"",""trial"",""time""
""blur"",""11"",""36020""
""blur"",""18"",""101905""
""blur"",""19"",""117487""
""blur"",""22"",""165452""
","""event"",""trial"",""time""
""focus"",""11"",""41700""
""focus"",""18"",""107123""
""focus"",""19"",""128166""
""focus"",""22"",""180926""
","""event"",""trial"",""time""
""fullscreenenter"",""1"",""1278""
","
","","","","","","1737.699999988079","<p><b> That's right! </b> If you see a grey number, it means you earned ZERO points. <br> The grey numbers show the points you WOULD HAVE earned if you had made the other choice. </p>","","0","comp_answer","","","","","","","","","","",""
"comp-q","54","264498","0.0-8.0-7.0-0.0","3886","2","20","Male","approach_avoid_spark_v1","""event"",""trial"",""time""
""fullscreenenter"",""1"",""1278""
""blur"",""11"",""36020""
""focus"",""11"",""41700""
""blur"",""18"",""101905""
""focus"",""18"",""107123""
""blur"",""19"",""117487""
""focus"",""19"",""128166""
""blur"",""22"",""165452""
""focus"",""22"",""180926""
","""event"",""trial"",""time""
""blur"",""11"",""36020""
""blur"",""18"",""101905""
""blur"",""19"",""117487""
""blur"",""22"",""165452""
","""event"",""trial"",""time""
""focus"",""11"",""41700""
""focus"",""18"",""107123""
""focus"",""19"",""128166""
""focus"",""22"",""180926""
","""event"",""trial"",""time""
""fullscreenenter"",""1"",""1278""
","
","","","","","","655.7999999970198","<p> <b> True or False? </b> </p><p> You will have as much time as you want to make each choice. </p>","","1","comp_question","","","","","","","","","true","",""
"comp-q","55","269816","0.0-8.0-7.0-1.0","3886","2","20","Male","approach_avoid_spark_v1","""event"",""trial"",""time""
""fullscreenenter"",""1"",""1278""
""blur"",""11"",""36020""
""focus"",""11"",""41700""
""blur"",""18"",""101905""
""focus"",""18"",""107123""
""blur"",""19"",""117487""
""focus"",""19"",""128166""
""blur"",""22"",""165452""
""focus"",""22"",""180926""
","""event"",""trial"",""time""
""blur"",""11"",""36020""
""blur"",""18"",""101905""
""blur"",""19"",""117487""
""blur"",""22"",""165452""
","""event"",""trial"",""time""
""focus"",""11"",""41700""
""focus"",""18"",""107123""
""focus"",""19"",""128166""
""focus"",""22"",""180926""
","""event"",""trial"",""time""
""fullscreenenter"",""1"",""1278""
","
","","","","","","1281","<p> <b> That's right! </b> You will only have 3 seconds to make each choice. </p>","","0","comp_answer","","","","","","","","","","",""
"comp-q","56","276283","0.0-8.0-8.0-0.0","3886","2","20","Male","approach_avoid_spark_v1","""event"",""trial"",""time""
""fullscreenenter"",""1"",""1278""
""blur"",""11"",""36020""
""focus"",""11"",""41700""
""blur"",""18"",""101905""
""focus"",""18"",""107123""
""blur"",""19"",""117487""
""focus"",""19"",""128166""
""blur"",""22"",""165452""
""focus"",""22"",""180926""
","""event"",""trial"",""time""
""blur"",""11"",""36020""
""blur"",""18"",""101905""
""blur"",""19"",""117487""
""blur"",""22"",""165452""
","""event"",""trial"",""time""
""focus"",""11"",""41700""
""focus"",""18"",""107123""
""focus"",""19"",""128166""
""focus"",""22"",""180926""
","""event"",""trial"",""time""
""fullscreenenter"",""1"",""1278""
","
","","","","","","1806.7999999970198","<p> <b> True or False? </b> </p><p> You should use the '1' and '0' keys to make your choices. </p>","","0","comp_question","","","","","","","","","true","",""
"comp-q","57","282266","0.0-8.0-8.0-1.0","3886","2","20","Male","approach_avoid_spark_v1","""event"",""trial"",""time""
""fullscreenenter"",""1"",""1278""
""blur"",""11"",""36020""
""focus"",""11"",""41700""
""blur"",""18"",""101905""
""focus"",""18"",""107123""
""blur"",""19"",""117487""
""focus"",""19"",""128166""
""blur"",""22"",""165452""
""focus"",""22"",""180926""
","""event"",""trial"",""time""
""blur"",""11"",""36020""
""blur"",""18"",""101905""
""blur"",""19"",""117487""
""blur"",""22"",""165452""
","""event"",""trial"",""time""
""focus"",""11"",""41700""
""focus"",""18"",""107123""
""focus"",""19"",""128166""
""focus"",""22"",""180926""
","""event"",""trial"",""time""
""fullscreenenter"",""1"",""1278""
","
","","","","","","1368.0999999940395","<p> <b> That's right! </b> You should use the '1' and '0' keys to make each choice. </p>","","0","comp_answer","","","","","","","","","","",""
"learning-instructions","58","289916","0.0-8.0-9.0-0.0","3886","2","20","Male","approach_avoid_spark_v1","""event"",""trial"",""time""
""fullscreenenter"",""1"",""1278""
""blur"",""11"",""36020""
""focus"",""11"",""41700""
""blur"",""18"",""101905""
""focus"",""18"",""107123""
""blur"",""19"",""117487""
""focus"",""19"",""128166""
""blur"",""22"",""165452""
""focus"",""22"",""180926""
","""event"",""trial"",""time""
""blur"",""11"",""36020""
""blur"",""18"",""101905""
""blur"",""19"",""117487""
""blur"",""22"",""165452""
","""event"",""trial"",""time""
""focus"",""11"",""41700""
""focus"",""18"",""107123""
""focus"",""19"",""128166""
""focus"",""22"",""180926""
","""event"",""trial"",""time""
""fullscreenenter"",""1"",""1278""
","
","","","","","","1380.9000000059605","<p> It's now time to start the real game. </p>Do your best, because the points you earn in the next rounds will influence your bonus payment. </p>","","0","instructions","","","","","","","","","","",""
"preload","59","290047","0.0-9.0-0.0","3886","2","20","Male","approach_avoid_spark_v1","""event"",""trial"",""time""
""fullscreenenter"",""1"",""1278""
""blur"",""11"",""36020""
""focus"",""11"",""41700""
""blur"",""18"",""101905""
""focus"",""18"",""107123""
""blur"",""19"",""117487""
""focus"",""19"",""128166""
""blur"",""22"",""165452""
""focus"",""22"",""180926""
","""event"",""trial"",""time""
""blur"",""11"",""36020""
""blur"",""18"",""101905""
""blur"",""19"",""117487""
""blur"",""22"",""165452""
","""event"",""trial"",""time""
""focus"",""11"",""41700""
""focus"",""18"",""107123""
""focus"",""19"",""128166""
""focus"",""22"",""180926""
","""event"",""trial"",""time""
""fullscreenenter"",""1"",""1278""
","
","true","false","[]","[]","[]","","","","","","","","","","","","","","","",""
"learning-instructions","60","295864","0.0-9.0-1.0-0.0","3886","2","20","Male","approach_avoid_spark_v1","""event"",""trial"",""time""
""fullscreenenter"",""1"",""1278""
""blur"",""11"",""36020""
""focus"",""11"",""41700""
""blur"",""18"",""101905""
""focus"",""18"",""107123""
""blur"",""19"",""117487""
""focus"",""19"",""128166""
""blur"",""22"",""165452""
""focus"",""22"",""180926""
","""event"",""trial"",""time""
""blur"",""11"",""36020""
""blur"",""18"",""101905""
""blur"",""19"",""117487""
""blur"",""22"",""165452""
","""event"",""trial"",""time""
""focus"",""11"",""41700""
""focus"",""18"",""107123""
""focus"",""19"",""128166""
""focus"",""22"",""180926""
","""event"",""trial"",""time""
""fullscreenenter"",""1"",""1278""
","
","","","","","","673.7999999970198","<p> Your goal in this round is to decorate your friend's new house with furniture. </p></div>","","0","instructions","","","","","","","","","","",""
"learning-instructions","61","305881","0.0-9.0-1.0-0.1","3886","2","20","Male","approach_avoid_spark_v1","""event"",""trial"",""time""
""fullscreenenter"",""1"",""1278""
""blur"",""11"",""36020""
""focus"",""11"",""41700""
""blur"",""18"",""101905""
""focus"",""18"",""107123""
""blur"",""19"",""117487""
""focus"",""19"",""128166""
""blur"",""22"",""165452""
""focus"",""22"",""180926""
","""event"",""trial"",""time""
""blur"",""11"",""36020""
""blur"",""18"",""101905""
""blur"",""19"",""117487""
""blur"",""22"",""165452""
","""event"",""trial"",""time""
""focus"",""11"",""41700""
""focus"",""18"",""107123""
""focus"",""19"",""128166""
""focus"",""22"",""180926""
","""event"",""trial"",""time""
""fullscreenenter"",""1"",""1278""
","
","","","","","","408.5","<p> Your friend likes some pieces of furniture but not others.  </p><p> On each turn, you will see a piece of furniture.   </p><p> You need to decide whether to put it in your friend's house or not.  </p>","","0","instructions","","","","","","","","","","",""
"learning-instructions","62","312299","0.0-9.0-1.0-0.2","3886","2","20","Male","approach_avoid_spark_v1","""event"",""trial"",""time""
""fullscreenenter"",""1"",""1278""
""blur"",""11"",""36020""
""focus"",""11"",""41700""
""blur"",""18"",""101905""
""focus"",""18"",""107123""
""blur"",""19"",""117487""
""focus"",""19"",""128166""
""blur"",""22"",""165452""
""focus"",""22"",""180926""
","""event"",""trial"",""time""
""blur"",""11"",""36020""
""blur"",""18"",""101905""
""blur"",""19"",""117487""
""blur"",""22"",""165452""
","""event"",""trial"",""time""
""focus"",""11"",""41700""
""focus"",""18"",""107123""
""focus"",""19"",""128166""
""focus"",""22"",""180926""
","""event"",""trial"",""time""
""fullscreenenter"",""1"",""1278""
","
","","","","","","723.3000000119209","<p> You can put the furniture in her house by pressing 1 and deliver it elsewhere by pressing 0. </p><br><div class=""choice-instructions-grid""> <div class=""choice-option""><img src=""images/approach.png"" class=""choice-option-img"" stage=""instructions"" position=""0"" ><div class=""choice-option-text""> Press ""1."" </div></div><div class=""choice-option""><img src=""images/avoid.png"" class=""choice-option-img"" stage=""instructions"" position=""1"" ><div class=""choice-option-text""> Press ""0."" </div></div>","","0","instructions","","","","","","","","","","",""
"learning-instructions","63","321582","0.0-9.0-1.0-0.3","3886","2","20","Male","approach_avoid_spark_v1","""event"",""trial"",""time""
""fullscreenenter"",""1"",""1278""
""blur"",""11"",""36020""
""focus"",""11"",""41700""
""blur"",""18"",""101905""
""focus"",""18"",""107123""
""blur"",""19"",""117487""
""focus"",""19"",""128166""
""blur"",""22"",""165452""
""focus"",""22"",""180926""
","""event"",""trial"",""time""
""blur"",""11"",""36020""
""blur"",""18"",""101905""
""blur"",""19"",""117487""
""blur"",""22"",""165452""
","""event"",""trial"",""time""
""focus"",""11"",""41700""
""focus"",""18"",""107123""
""focus"",""19"",""128166""
""focus"",""22"",""180926""
","""event"",""trial"",""time""
""fullscreenenter"",""1"",""1278""
","
","","","","","","653.3999999910593","<p> If you decorate your friend's house with furniture she likes, she will be happy! </p><p> But if you give her furniture that she does not like, she will be annoyed. </p>","","0","instructions","","","","","","","","","","",""
"learning-instructions","64","334115","0.0-9.0-1.0-0.4","3886","2","20","Male","approach_avoid_spark_v1","""event"",""trial"",""time""
""fullscreenenter"",""1"",""1278""
""blur"",""11"",""36020""
""focus"",""11"",""41700""
""blur"",""18"",""101905""
""focus"",""18"",""107123""
""blur"",""19"",""117487""
""focus"",""19"",""128166""
""blur"",""22"",""165452""
""focus"",""22"",""180926""
","""event"",""trial"",""time""
""blur"",""11"",""36020""
""blur"",""18"",""101905""
""blur"",""19"",""117487""
""blur"",""22"",""165452""
","""event"",""trial"",""time""
""focus"",""11"",""41700""
""focus"",""18"",""107123""
""focus"",""19"",""128166""
""focus"",""22"",""180926""
","""event"",""trial"",""time""
""fullscreenenter"",""1"",""1278""
","
","","","","","","537","<p> You will earn points based on how you made your friend feel. </p><p> If you made her happy, you will WIN anywhere from 1 - 9 points, </p><p> but if you made her annoyed you will LOSE anywhere from 1 - 9 points. </p>","","0","instructions","","","","","","","","","","",""
"learning-instructions","65","342348","0.0-9.0-1.0-0.5","3886","2","20","Male","approach_avoid_spark_v1","""event"",""trial"",""time""
""fullscreenenter"",""1"",""1278""
""blur"",""11"",""36020""
""focus"",""11"",""41700""
""blur"",""18"",""101905""
""focus"",""18"",""107123""
""blur"",""19"",""117487""
""focus"",""19"",""128166""
""blur"",""22"",""165452""
""focus"",""22"",""180926""
","""event"",""trial"",""time""
""blur"",""11"",""36020""
""blur"",""18"",""101905""
""blur"",""19"",""117487""
""blur"",""22"",""165452""
","""event"",""trial"",""time""
""focus"",""11"",""41700""
""focus"",""18"",""107123""
""focus"",""19"",""128166""
""focus"",""22"",""180926""
","""event"",""trial"",""time""
""fullscreenenter"",""1"",""1278""
","
","","","","","","834.0999999940395","<p> You will see how many points you won or lost in the center of the screen. </p><p> Here is what you would see if you won 5 points: </p><p style=""color:green;font-size:50px;font-weight:bolder"">5</p>","","0","instructions","","","","","","","","","","",""
"learning-instructions","66","347065","0.0-9.0-1.0-0.6","3886","2","20","Male","approach_avoid_spark_v1","""event"",""trial"",""time""
""fullscreenenter"",""1"",""1278""
""blur"",""11"",""36020""
""focus"",""11"",""41700""
""blur"",""18"",""101905""
""focus"",""18"",""107123""
""blur"",""19"",""117487""
""focus"",""19"",""128166""
""blur"",""22"",""165452""
""focus"",""22"",""180926""
""blur"",""67"",""353614""
""focus"",""67"",""362059""
","""event"",""trial"",""time""
""blur"",""11"",""36020""
""blur"",""18"",""101905""
""blur"",""19"",""117487""
""blur"",""22"",""165452""
""blur"",""67"",""353614""
","""event"",""trial"",""time""
""focus"",""11"",""41700""
""focus"",""18"",""107123""
""focus"",""19"",""128166""
""focus"",""22"",""180926""
""focus"",""67"",""362059""
","""event"",""trial"",""time""
""fullscreenenter"",""1"",""1278""
","
","","","","","","1177.300000011921","<p> And here is what you would see if you lost 3 points: </p><p style=""color:red;font-size:50px;font-weight:bolder"">-3</p>","","0","instructions","","","","","","","","","","",""
"learning-instructions","67","365316","0.0-9.0-1.0-0.7","3886","2","20","Male","approach_avoid_spark_v1","""event"",""trial"",""time""
""fullscreenenter"",""1"",""1278""
""blur"",""11"",""36020""
""focus"",""11"",""41700""
""blur"",""18"",""101905""
""focus"",""18"",""107123""
""blur"",""19"",""117487""
""focus"",""19"",""128166""
""blur"",""22"",""165452""
""focus"",""22"",""180926""
""blur"",""67"",""353614""
""focus"",""67"",""362059""
","""event"",""trial"",""time""
""blur"",""11"",""36020""
""blur"",""18"",""101905""
""blur"",""19"",""117487""
""blur"",""22"",""165452""
""blur"",""67"",""353614""
","""event"",""trial"",""time""
""focus"",""11"",""41700""
""focus"",""18"",""107123""
""focus"",""19"",""128166""
""focus"",""22"",""180926""
""focus"",""67"",""362059""
","""event"",""trial"",""time""
""fullscreenenter"",""1"",""1278""
","
","","","","","","1263.3999999910593","<p> Some pieces of furniture will make her feel very happy or very annoyed. </p><p> These pieces of furniture will make you win or lose LOTS of points. </p><p> Other pieces of furniture will only make her feel a little happy or a little annoyed. </p><p> These pieces of furniture will make you win or lose small amounts of points. </p>","","0","instructions","","","","","","","","","","",""
"learning-instructions","68","378732","0.0-9.0-1.0-0.8","3886","2","20","Male","approach_avoid_spark_v1","""event"",""trial"",""time""
""fullscreenenter"",""1"",""1278""
""blur"",""11"",""36020""
""focus"",""11"",""41700""
""blur"",""18"",""101905""
""focus"",""18"",""107123""
""blur"",""19"",""117487""
""focus"",""19"",""128166""
""blur"",""22"",""165452""
""focus"",""22"",""180926""
""blur"",""67"",""353614""
""focus"",""67"",""362059""
","""event"",""trial"",""time""
""blur"",""11"",""36020""
""blur"",""18"",""101905""
""blur"",""19"",""117487""
""blur"",""22"",""165452""
""blur"",""67"",""353614""
","""event"",""trial"",""time""
""focus"",""11"",""41700""
""focus"",""18"",""107123""
""focus"",""19"",""128166""
""focus"",""22"",""180926""
""focus"",""67"",""362059""
","""event"",""trial"",""time""
""fullscreenenter"",""1"",""1278""
","
","","","","","","867.0999999940395","<p> If you choose to deliver a piece of furniture elsewhere, you will not win or lose any points. </p><p>  However, in the center of the screen, you will see the number of points you WOULD HAVE won or lost if you had given the furniture to your friend. </p>","","0","instructions","","","","","","","","","","",""
"learning-instructions","69","392714","0.0-9.0-1.0-0.9","3886","2","20","Male","approach_avoid_spark_v1","""event"",""trial"",""time""
""fullscreenenter"",""1"",""1278""
""blur"",""11"",""36020""
""focus"",""11"",""41700""
""blur"",""18"",""101905""
""focus"",""18"",""107123""
""blur"",""19"",""117487""
""focus"",""19"",""128166""
""blur"",""22"",""165452""
""focus"",""22"",""180926""
""blur"",""67"",""353614""
""focus"",""67"",""362059""
","""event"",""trial"",""time""
""blur"",""11"",""36020""
""blur"",""18"",""101905""
""blur"",""19"",""117487""
""blur"",""22"",""165452""
""blur"",""67"",""353614""
","""event"",""trial"",""time""
""focus"",""11"",""41700""
""focus"",""18"",""107123""
""focus"",""19"",""128166""
""focus"",""22"",""180926""
""focus"",""67"",""362059""
","""event"",""trial"",""time""
""fullscreenenter"",""1"",""1278""
","
","","","","","","2562","<p> Here is what you might see if you did not give a piece of furniture to your friend that would have made her happy: </p><p style=""color:grey; font-size:50px; display: inline-block; border-spacing: 15px; border-width:3px; border-style:solid; border-color:red"">  &nbsp; 6 &nbsp; </p><p> Remember, in this case, you would not win or lose ANY points because you did not give her the furniture.  </p>","","0","instructions","","","","","","","","","","",""
"learning-instructions","70","403098","0.0-9.0-1.0-0.10","3886","2","20","Male","approach_avoid_spark_v1","""event"",""trial"",""time""
""fullscreenenter"",""1"",""1278""
""blur"",""11"",""36020""
""focus"",""11"",""41700""
""blur"",""18"",""101905""
""focus"",""18"",""107123""
""blur"",""19"",""117487""
""focus"",""19"",""128166""
""blur"",""22"",""165452""
""focus"",""22"",""180926""
""blur"",""67"",""353614""
""focus"",""67"",""362059""
","""event"",""trial"",""time""
""blur"",""11"",""36020""
""blur"",""18"",""101905""
""blur"",""19"",""117487""
""blur"",""22"",""165452""
""blur"",""67"",""353614""
","""event"",""trial"",""time""
""focus"",""11"",""41700""
""focus"",""18"",""107123""
""focus"",""19"",""128166""
""focus"",""22"",""180926""
""focus"",""67"",""362059""
","""event"",""trial"",""time""
""fullscreenenter"",""1"",""1278""
","
","","","","","","2866.8999999910593","<p> Try to make the best choice for each piece of furniture because </p><p> at the end of the game, you will earn bonus money based on how many points you earned. </p>","","0","instructions","","","","","","","","","","",""
"learning-instructions","71","412049","0.0-9.0-1.0-0.11","3886","2","20","Male","approach_avoid_spark_v1","""event"",""trial"",""time""
""fullscreenenter"",""1"",""1278""
""blur"",""11"",""36020""
""focus"",""11"",""41700""
""blur"",""18"",""101905""
""focus"",""18"",""107123""
""blur"",""19"",""117487""
""focus"",""19"",""128166""
""blur"",""22"",""165452""
""focus"",""22"",""180926""
""blur"",""67"",""353614""
""focus"",""67"",""362059""
","""event"",""trial"",""time""
""blur"",""11"",""36020""
""blur"",""18"",""101905""
""blur"",""19"",""117487""
""blur"",""22"",""165452""
""blur"",""67"",""353614""
","""event"",""trial"",""time""
""focus"",""11"",""41700""
""focus"",""18"",""107123""
""focus"",""19"",""128166""
""focus"",""22"",""180926""
""focus"",""67"",""362059""
","""event"",""trial"",""time""
""fullscreenenter"",""1"",""1278""
","
","","","","","","756","<p> You will have 3 seconds to make each choice. Try to respond before time runs out! </p><p> You will lose 5 points each time you do not make a response. </p>","","0","instructions","","","","","","","","","","",""
"html-keyboard-response","72","412667","0.0-9.0-2.0-0.0","3886","2","20","Male","approach_avoid_spark_v1","""event"",""trial"",""time""
""fullscreenenter"",""1"",""1278""
""blur"",""11"",""36020""
""focus"",""11"",""41700""
""blur"",""18"",""101905""
""focus"",""18"",""107123""
""blur"",""19"",""117487""
""focus"",""19"",""128166""
""blur"",""22"",""165452""
""focus"",""22"",""180926""
""blur"",""67"",""353614""
""focus"",""67"",""362059""
","""event"",""trial"",""time""
""blur"",""11"",""36020""
""blur"",""18"",""101905""
""blur"",""19"",""117487""
""blur"",""22"",""165452""
""blur"",""67"",""353614""
","""event"",""trial"",""time""
""focus"",""11"",""41700""
""focus"",""18"",""107123""
""focus"",""19"",""128166""
""focus"",""22"",""180926""
""focus"",""67"",""362059""
","""event"",""trial"",""time""
""fullscreenenter"",""1"",""1278""
","
","","","","","","null","<div style=""font-size:60px;"">+</div>","null","","fixation","","","","","","","","","","",""
"aa-learning-trial","73","415675","0.0-9.0-2.0-1.0","3886","2","20","Male","approach_avoid_spark_v1","""event"",""trial"",""time""
""fullscreenenter"",""1"",""1278""
""blur"",""11"",""36020""
""focus"",""11"",""41700""
""blur"",""18"",""101905""
""focus"",""18"",""107123""
""blur"",""19"",""117487""
""focus"",""19"",""128166""
""blur"",""22"",""165452""
""focus"",""22"",""180926""
""blur"",""67"",""353614""
""focus"",""67"",""362059""
","""event"",""trial"",""time""
""blur"",""11"",""36020""
""blur"",""18"",""101905""
""blur"",""19"",""117487""
""blur"",""22"",""165452""
""blur"",""67"",""353614""
","""event"",""trial"",""time""
""focus"",""11"",""41700""
""focus"",""18"",""107123""
""focus"",""19"",""128166""
""focus"",""22"",""180926""
""focus"",""67"",""362059""
","""event"",""trial"",""time""
""fullscreenenter"",""1"",""1278""
","
","","","","","","1743.9000000059605","images/bed4.png","","","learning","9","9","1","1","bed","furniture","2","0","","neutral","0"
"html-keyboard-response","74","416189","0.0-9.0-2.0-0.1","3886","2","20","Male","approach_avoid_spark_v1","""event"",""trial"",""time""
""fullscreenenter"",""1"",""1278""
""blur"",""11"",""36020""
""focus"",""11"",""41700""
""blur"",""18"",""101905""
""focus"",""18"",""107123""
""blur"",""19"",""117487""
""focus"",""19"",""128166""
""blur"",""22"",""165452""
""focus"",""22"",""180926""
""blur"",""67"",""353614""
""focus"",""67"",""362059""
","""event"",""trial"",""time""
""blur"",""11"",""36020""
""blur"",""18"",""101905""
""blur"",""19"",""117487""
""blur"",""22"",""165452""
""blur"",""67"",""353614""
","""event"",""trial"",""time""
""focus"",""11"",""41700""
""focus"",""18"",""107123""
""focus"",""19"",""128166""
""focus"",""22"",""180926""
""focus"",""67"",""362059""
","""event"",""trial"",""time""
""fullscreenenter"",""1"",""1278""
","
","","","","","","null","<div style=""font-size:60px;"">+</div>","null","","fixation","","","","","","","","","","",""
"aa-learning-trial","75","419194","0.0-9.0-2.0-1.1","3886","2","20","Male","approach_avoid_spark_v1","""event"",""trial"",""time""
""fullscreenenter"",""1"",""1278""
""blur"",""11"",""36020""
""focus"",""11"",""41700""
""blur"",""18"",""101905""
""focus"",""18"",""107123""
""blur"",""19"",""117487""
""focus"",""19"",""128166""
""blur"",""22"",""165452""
""focus"",""22"",""180926""
""blur"",""67"",""353614""
""focus"",""67"",""362059""
","""event"",""trial"",""time""
""blur"",""11"",""36020""
""blur"",""18"",""101905""
""blur"",""19"",""117487""
""blur"",""22"",""165452""
""blur"",""67"",""353614""
","""event"",""trial"",""time""
""focus"",""11"",""41700""
""focus"",""18"",""107123""
""focus"",""19"",""128166""
""focus"",""22"",""180926""
""focus"",""67"",""362059""
","""event"",""trial"",""time""
""fullscreenenter"",""1"",""1278""
","
","","","","","","1314.7000000029802","images/bed4.png","","","learning","9","9","1","1","bed","furniture","2","0","","neutral","0"
"html-keyboard-response","76","419698","0.0-9.0-2.0-0.2","3886","2","20","Male","approach_avoid_spark_v1","""event"",""trial"",""time""
""fullscreenenter"",""1"",""1278""
""blur"",""11"",""36020""
""focus"",""11"",""41700""
""blur"",""18"",""101905""
""focus"",""18"",""107123""
""blur"",""19"",""117487""
""focus"",""19"",""128166""
""blur"",""22"",""165452""
""focus"",""22"",""180926""
""blur"",""67"",""353614""
""focus"",""67"",""362059""
","""event"",""trial"",""time""
""blur"",""11"",""36020""
""blur"",""18"",""101905""
""blur"",""19"",""117487""
""blur"",""22"",""165452""
""blur"",""67"",""353614""
","""event"",""trial"",""time""
""focus"",""11"",""41700""
""focus"",""18"",""107123""
""focus"",""19"",""128166""
""focus"",""22"",""180926""
""focus"",""67"",""362059""
","""event"",""trial"",""time""
""fullscreenenter"",""1"",""1278""
","
","","","","","","null","<div style=""font-size:60px;"">+</div>","null","","fixation","","","","","","","","","","",""
"aa-learning-trial","77","422710","0.0-9.0-2.0-1.2","3886","2","20","Male","approach_avoid_spark_v1","""event"",""trial"",""time""
""fullscreenenter"",""1"",""1278""
""blur"",""11"",""36020""
""focus"",""11"",""41700""
""blur"",""18"",""101905""
""focus"",""18"",""107123""
""blur"",""19"",""117487""
""focus"",""19"",""128166""
""blur"",""22"",""165452""
""focus"",""22"",""180926""
""blur"",""67"",""353614""
""focus"",""67"",""362059""
","""event"",""trial"",""time""
""blur"",""11"",""36020""
""blur"",""18"",""101905""
""blur"",""19"",""117487""
""blur"",""22"",""165452""
""blur"",""67"",""353614""
","""event"",""trial"",""time""
""focus"",""11"",""41700""
""focus"",""18"",""107123""
""focus"",""19"",""128166""
""focus"",""22"",""180926""
""focus"",""67"",""362059""
","""event"",""trial"",""time""
""fullscreenenter"",""1"",""1278""
","
","","","","","","1505.2999999970198","images/table6.png","","","learning","-1","-1","1","1","table","furniture","2","0","","good","[4]"
"html-keyboard-response","78","423222","0.0-9.0-2.0-0.3","3886","2","20","Male","approach_avoid_spark_v1","""event"",""trial"",""time""
""fullscreenenter"",""1"",""1278""
""blur"",""11"",""36020""
""focus"",""11"",""41700""
""blur"",""18"",""101905""
""focus"",""18"",""107123""
""blur"",""19"",""117487""
""focus"",""19"",""128166""
""blur"",""22"",""165452""
""focus"",""22"",""180926""
""blur"",""67"",""353614""
""focus"",""67"",""362059""
","""event"",""trial"",""time""
""blur"",""11"",""36020""
""blur"",""18"",""101905""
""blur"",""19"",""117487""
""blur"",""22"",""165452""
""blur"",""67"",""353614""
","""event"",""trial"",""time""
""focus"",""11"",""41700""
""focus"",""18"",""107123""
""focus"",""19"",""128166""
""focus"",""22"",""180926""
""focus"",""67"",""362059""
","""event"",""trial"",""time""
""fullscreenenter"",""1"",""1278""
","
","","","","","","null","<div style=""font-size:60px;"">+</div>","null","","fixation","","","","","","","","","","",""
"aa-learning-trial","79","426235","0.0-9.0-2.0-1.3","3886","2","20","Male","approach_avoid_spark_v1","""event"",""trial"",""time""
""fullscreenenter"",""1"",""1278""
""blur"",""11"",""36020""
""focus"",""11"",""41700""
""blur"",""18"",""101905""
""focus"",""18"",""107123""
""blur"",""19"",""117487""
""focus"",""19"",""128166""
""blur"",""22"",""165452""
""focus"",""22"",""180926""
""blur"",""67"",""353614""
""focus"",""67"",""362059""
","""event"",""trial"",""time""
""blur"",""11"",""36020""
""blur"",""18"",""101905""
""blur"",""19"",""117487""
""blur"",""22"",""165452""
""blur"",""67"",""353614""
","""event"",""trial"",""time""
""focus"",""11"",""41700""
""focus"",""18"",""107123""
""focus"",""19"",""128166""
""focus"",""22"",""180926""
""focus"",""67"",""362059""
","""event"",""trial"",""time""
""fullscreenenter"",""1"",""1278""
","
","","","","","","646.4000000059605","images/bed2.png","","","learning","5","0","0","0","bed","furniture","2","0","","neutral","0"
"html-keyboard-response","80","426750","0.0-9.0-2.0-0.4","3886","2","20","Male","approach_avoid_spark_v1","""event"",""trial"",""time""
""fullscreenenter"",""1"",""1278""
""blur"",""11"",""36020""
""focus"",""11"",""41700""
""blur"",""18"",""101905""
""focus"",""18"",""107123""
""blur"",""19"",""117487""
""focus"",""19"",""128166""
""blur"",""22"",""165452""
""focus"",""22"",""180926""
""blur"",""67"",""353614""
""focus"",""67"",""362059""
","""event"",""trial"",""time""
""blur"",""11"",""36020""
""blur"",""18"",""101905""
""blur"",""19"",""117487""
""blur"",""22"",""165452""
""blur"",""67"",""353614""
","""event"",""trial"",""time""
""focus"",""11"",""41700""
""focus"",""18"",""107123""
""focus"",""19"",""128166""
""focus"",""22"",""180926""
""focus"",""67"",""362059""
","""event"",""trial"",""time""
""fullscreenenter"",""1"",""1278""
","
","","","","","","null","<div style=""font-size:60px;"">+</div>","null","","fixation","","","","","","","","","","",""
"aa-learning-trial","81","429762","0.0-9.0-2.0-1.4","3886","2","20","Male","approach_avoid_spark_v1","""event"",""trial"",""time""
""fullscreenenter"",""1"",""1278""
""blur"",""11"",""36020""
""focus"",""11"",""41700""
""blur"",""18"",""101905""
""focus"",""18"",""107123""
""blur"",""19"",""117487""
""focus"",""19"",""128166""
""blur"",""22"",""165452""
""focus"",""22"",""180926""
""blur"",""67"",""353614""
""focus"",""67"",""362059""
","""event"",""trial"",""time""
""blur"",""11"",""36020""
""blur"",""18"",""101905""
""blur"",""19"",""117487""
""blur"",""22"",""165452""
""blur"",""67"",""353614""
","""event"",""trial"",""time""
""focus"",""11"",""41700""
""focus"",""18"",""107123""
""focus"",""19"",""128166""
""focus"",""22"",""180926""
""focus"",""67"",""362059""
","""event"",""trial"",""time""
""fullscreenenter"",""1"",""1278""
","
","","","","","","1517.5","images/table6.png","","","learning","-1","0","0","0","table","furniture","2","0","","good","[4]"
"html-keyboard-response","82","430267","0.0-9.0-2.0-0.5","3886","2","20","Male","approach_avoid_spark_v1","""event"",""trial"",""time""
""fullscreenenter"",""1"",""1278""
""blur"",""11"",""36020""
""focus"",""11"",""41700""
""blur"",""18"",""101905""
""focus"",""18"",""107123""
""blur"",""19"",""117487""
""focus"",""19"",""128166""
""blur"",""22"",""165452""
""focus"",""22"",""180926""
""blur"",""67"",""353614""
""focus"",""67"",""362059""
","""event"",""trial"",""time""
""blur"",""11"",""36020""
""blur"",""18"",""101905""
""blur"",""19"",""117487""
""blur"",""22"",""165452""
""blur"",""67"",""353614""
","""event"",""trial"",""time""
""focus"",""11"",""41700""
""focus"",""18"",""107123""
""focus"",""19"",""128166""
""focus"",""22"",""180926""
""focus"",""67"",""362059""
","""event"",""trial"",""time""
""fullscreenenter"",""1"",""1278""
","
","","","","","","null","<div style=""font-size:60px;"">+</div>","null","","fixation","","","","","","","","","","",""
"aa-learning-trial","83","433274","0.0-9.0-2.0-1.5","3886","2","20","Male","approach_avoid_spark_v1","""event"",""trial"",""time""
""fullscreenenter"",""1"",""1278""
""blur"",""11"",""36020""
""focus"",""11"",""41700""
""blur"",""18"",""101905""
""focus"",""18"",""107123""
""blur"",""19"",""117487""
""focus"",""19"",""128166""
""blur"",""22"",""165452""
""focus"",""22"",""180926""
""blur"",""67"",""353614""
""focus"",""67"",""362059""
","""event"",""trial"",""time""
""blur"",""11"",""36020""
""blur"",""18"",""101905""
""blur"",""19"",""117487""
""blur"",""22"",""165452""
""blur"",""67"",""353614""
","""event"",""trial"",""time""
""focus"",""11"",""41700""
""focus"",""18"",""107123""
""focus"",""19"",""128166""
""focus"",""22"",""180926""
""focus"",""67"",""362059""
","""event"",""trial"",""time""
""fullscreenenter"",""1"",""1278""
","
","","","","","","931.5","images/sofa2.png","","","learning","-4","-4","1","1","sofa","furniture","2","0","","bad","[-6]"
"html-keyboard-response","84","433779","0.0-9.0-2.0-0.6","3886","2","20","Male","approach_avoid_spark_v1","""event"",""trial"",""time""
""fullscreenenter"",""1"",""1278""
""blur"",""11"",""36020""
""focus"",""11"",""41700""
""blur"",""18"",""101905""
""focus"",""18"",""107123""
""blur"",""19"",""117487""
""focus"",""19"",""128166""
""blur"",""22"",""165452""
""focus"",""22"",""180926""
""blur"",""67"",""353614""
""focus"",""67"",""362059""
","""event"",""trial"",""time""
""blur"",""11"",""36020""
""blur"",""18"",""101905""
""blur"",""19"",""117487""
""blur"",""22"",""165452""
""blur"",""67"",""353614""
","""event"",""trial"",""time""
""focus"",""11"",""41700""
""focus"",""18"",""107123""
""focus"",""19"",""128166""
""focus"",""22"",""180926""
""focus"",""67"",""362059""
","""event"",""trial"",""time""
""fullscreenenter"",""1"",""1278""
","
","","","","","","null","<div style=""font-size:60px;"">+</div>","null","","fixation","","","","","","","","","","",""
"aa-learning-trial","85","436786","0.0-9.0-2.0-1.6","3886","2","20","Male","approach_avoid_spark_v1","""event"",""trial"",""time""
""fullscreenenter"",""1"",""1278""
""blur"",""11"",""36020""
""focus"",""11"",""41700""
""blur"",""18"",""101905""
""focus"",""18"",""107123""
""blur"",""19"",""117487""
""focus"",""19"",""128166""
""blur"",""22"",""165452""
""focus"",""22"",""180926""
""blur"",""67"",""353614""
""focus"",""67"",""362059""
","""event"",""trial"",""time""
""blur"",""11"",""36020""
""blur"",""18"",""101905""
""blur"",""19"",""117487""
""blur"",""22"",""165452""
""blur"",""67"",""353614""
","""event"",""trial"",""time""
""focus"",""11"",""41700""
""focus"",""18"",""107123""
""focus"",""19"",""128166""
""focus"",""22"",""180926""
""focus"",""67"",""362059""
","""event"",""trial"",""time""
""fullscreenenter"",""1"",""1278""
","
","","","","","","964.0999999940395","images/sofa8.png","","","learning","4","4","1","1","sofa","furniture","2","0","","bad","[-6]"
"html-keyboard-response","86","437297","0.0-9.0-2.0-0.7","3886","2","20","Male","approach_avoid_spark_v1","""event"",""trial"",""time""
""fullscreenenter"",""1"",""1278""
""blur"",""11"",""36020""
""focus"",""11"",""41700""
""blur"",""18"",""101905""
""focus"",""18"",""107123""
""blur"",""19"",""117487""
""focus"",""19"",""128166""
""blur"",""22"",""165452""
""focus"",""22"",""180926""
""blur"",""67"",""353614""
""focus"",""67"",""362059""
","""event"",""trial"",""time""
""blur"",""11"",""36020""
""blur"",""18"",""101905""
""blur"",""19"",""117487""
""blur"",""22"",""165452""
""blur"",""67"",""353614""
","""event"",""trial"",""time""
""focus"",""11"",""41700""
""focus"",""18"",""107123""
""focus"",""19"",""128166""
""focus"",""22"",""180926""
""focus"",""67"",""362059""
","""event"",""trial"",""time""
""fullscreenenter"",""1"",""1278""
","
","","","","","","null","<div style=""font-size:60px;"">+</div>","null","","fixation","","","","","","","","","","",""
"aa-learning-trial","87","440308","0.0-9.0-2.0-1.7","3886","2","20","Male","approach_avoid_spark_v1","""event"",""trial"",""time""
""fullscreenenter"",""1"",""1278""
""blur"",""11"",""36020""
""focus"",""11"",""41700""
""blur"",""18"",""101905""
""focus"",""18"",""107123""
""blur"",""19"",""117487""
""focus"",""19"",""128166""
""blur"",""22"",""165452""
""focus"",""22"",""180926""
""blur"",""67"",""353614""
""focus"",""67"",""362059""
","""event"",""trial"",""time""
""blur"",""11"",""36020""
""blur"",""18"",""101905""
""blur"",""19"",""117487""
""blur"",""22"",""165452""
""blur"",""67"",""353614""
","""event"",""trial"",""time""
""focus"",""11"",""41700""
""focus"",""18"",""107123""
""focus"",""19"",""128166""
""focus"",""22"",""180926""
""focus"",""67"",""362059""
","""event"",""trial"",""time""
""fullscreenenter"",""1"",""1278""
","
","","","","","","1070.2999999970198","images/sofa8.png","","","learning","4","4","1","1","sofa","furniture","2","0","","bad","[-6]"
"html-keyboard-response","88","440821","0.0-9.0-2.0-0.8","3886","2","20","Male","approach_avoid_spark_v1","""event"",""trial"",""time""
""fullscreenenter"",""1"",""1278""
""blur"",""11"",""36020""
""focus"",""11"",""41700""
""blur"",""18"",""101905""
""focus"",""18"",""107123""
""blur"",""19"",""117487""
""focus"",""19"",""128166""
""blur"",""22"",""165452""
""focus"",""22"",""180926""
""blur"",""67"",""353614""
""focus"",""67"",""362059""
","""event"",""trial"",""time""
""blur"",""11"",""36020""
""blur"",""18"",""101905""
""blur"",""19"",""117487""
""blur"",""22"",""165452""
""blur"",""67"",""353614""
","""event"",""trial"",""time""
""focus"",""11"",""41700""
""focus"",""18"",""107123""
""focus"",""19"",""128166""
""focus"",""22"",""180926""
""focus"",""67"",""362059""
","""event"",""trial"",""time""
""fullscreenenter"",""1"",""1278""
","
","","","","","","null","<div style=""font-size:60px;"">+</div>","null","","fixation","","","","","","","","","","",""
"aa-learning-trial","89","443826","0.0-9.0-2.0-1.8","3886","2","20","Male","approach_avoid_spark_v1","""event"",""trial"",""time""
""fullscreenenter"",""1"",""1278""
""blur"",""11"",""36020""
""focus"",""11"",""41700""
""blur"",""18"",""101905""
""focus"",""18"",""107123""
""blur"",""19"",""117487""
""focus"",""19"",""128166""
""blur"",""22"",""165452""
""focus"",""22"",""180926""
""blur"",""67"",""353614""
""focus"",""67"",""362059""
","""event"",""trial"",""time""
""blur"",""11"",""36020""
""blur"",""18"",""101905""
""blur"",""19"",""117487""
""blur"",""22"",""165452""
""blur"",""67"",""353614""
","""event"",""trial"",""time""
""focus"",""11"",""41700""
""focus"",""18"",""107123""
""focus"",""19"",""128166""
""focus"",""22"",""180926""
""focus"",""67"",""362059""
","""event"",""trial"",""time""
""fullscreenenter"",""1"",""1278""
","
","","","","","","1676.4000000059605","images/table7.png","","","learning","3","3","1","1","table","furniture","2","0","","good","[4]"
"html-keyboard-response","90","444328","0.0-9.0-2.0-0.9","3886","2","20","Male","approach_avoid_spark_v1","""event"",""trial"",""time""
""fullscreenenter"",""1"",""1278""
""blur"",""11"",""36020""
""focus"",""11"",""41700""
""blur"",""18"",""101905""
""focus"",""18"",""107123""
""blur"",""19"",""117487""
""focus"",""19"",""128166""
""blur"",""22"",""165452""
""focus"",""22"",""180926""
""blur"",""67"",""353614""
""focus"",""67"",""362059""
","""event"",""trial"",""time""
""blur"",""11"",""36020""
""blur"",""18"",""101905""
""blur"",""19"",""117487""
""blur"",""22"",""165452""
""blur"",""67"",""353614""
","""event"",""trial"",""time""
""focus"",""11"",""41700""
""focus"",""18"",""107123""
""focus"",""19"",""128166""
""focus"",""22"",""180926""
""focus"",""67"",""362059""
","""event"",""trial"",""time""
""fullscreenenter"",""1"",""1278""
","
","","","","","","null","<div style=""font-size:60px;"">+</div>","null","","fixation","","","","","","","","","","",""
"aa-learning-trial","91","447337","0.0-9.0-2.0-1.9","3886","2","20","Male","approach_avoid_spark_v1","""event"",""trial"",""time""
""fullscreenenter"",""1"",""1278""
""blur"",""11"",""36020""
""focus"",""11"",""41700""
""blur"",""18"",""101905""
""focus"",""18"",""107123""
""blur"",""19"",""117487""
""focus"",""19"",""128166""
""blur"",""22"",""165452""
""focus"",""22"",""180926""
""blur"",""67"",""353614""
""focus"",""67"",""362059""
","""event"",""trial"",""time""
""blur"",""11"",""36020""
""blur"",""18"",""101905""
""blur"",""19"",""117487""
""blur"",""22"",""165452""
""blur"",""67"",""353614""
","""event"",""trial"",""time""
""focus"",""11"",""41700""
""focus"",""18"",""107123""
""focus"",""19"",""128166""
""focus"",""22"",""180926""
""focus"",""67"",""362059""
","""event"",""trial"",""time""
""fullscreenenter"",""1"",""1278""
","
","","","","","","1391.6000000089407","images/sofa7.png","","","learning","8","0","0","0","sofa","furniture","2","0","","bad","[-6]"
"html-keyboard-response","92","447843","0.0-9.0-2.0-0.10","3886","2","20","Male","approach_avoid_spark_v1","""event"",""trial"",""time""
""fullscreenenter"",""1"",""1278""
""blur"",""11"",""36020""
""focus"",""11"",""41700""
""blur"",""18"",""101905""
""focus"",""18"",""107123""
""blur"",""19"",""117487""
""focus"",""19"",""128166""
""blur"",""22"",""165452""
""focus"",""22"",""180926""
""blur"",""67"",""353614""
""focus"",""67"",""362059""
","""event"",""trial"",""time""
""blur"",""11"",""36020""
""blur"",""18"",""101905""
""blur"",""19"",""117487""
""blur"",""22"",""165452""
""blur"",""67"",""353614""
","""event"",""trial"",""time""
""focus"",""11"",""41700""
""focus"",""18"",""107123""
""focus"",""19"",""128166""
""focus"",""22"",""180926""
""focus"",""67"",""362059""
","""event"",""trial"",""time""
""fullscreenenter"",""1"",""1278""
","
","","","","","","null","<div style=""font-size:60px;"">+</div>","null","","fixation","","","","","","","","","","",""
"aa-learning-trial","93","450849","0.0-9.0-2.0-1.10","3886","2","20","Male","approach_avoid_spark_v1","""event"",""trial"",""time""
""fullscreenenter"",""1"",""1278""
""blur"",""11"",""36020""
""focus"",""11"",""41700""
""blur"",""18"",""101905""
""focus"",""18"",""107123""
""blur"",""19"",""117487""
""focus"",""19"",""128166""
""blur"",""22"",""165452""
""focus"",""22"",""180926""
""blur"",""67"",""353614""
""focus"",""67"",""362059""
","""event"",""trial"",""time""
""blur"",""11"",""36020""
""blur"",""18"",""101905""
""blur"",""19"",""117487""
""blur"",""22"",""165452""
""blur"",""67"",""353614""
","""event"",""trial"",""time""
""focus"",""11"",""41700""
""focus"",""18"",""107123""
""focus"",""19"",""128166""
""focus"",""22"",""180926""
""focus"",""67"",""362059""
","""event"",""trial"",""time""
""fullscreenenter"",""1"",""1278""
","
","","","","","","541.8000000119209","images/table7.png","","","learning","3","3","1","1","table","furniture","2","0","","good","[4]"
"html-keyboard-response","94","451354","0.0-9.0-2.0-0.11","3886","2","20","Male","approach_avoid_spark_v1","""event"",""trial"",""time""
""fullscreenenter"",""1"",""1278""
""blur"",""11"",""36020""
""focus"",""11"",""41700""
""blur"",""18"",""101905""
""focus"",""18"",""107123""
""blur"",""19"",""117487""
""focus"",""19"",""128166""
""blur"",""22"",""165452""
""focus"",""22"",""180926""
""blur"",""67"",""353614""
""focus"",""67"",""362059""
","""event"",""trial"",""time""
""blur"",""11"",""36020""
""blur"",""18"",""101905""
""blur"",""19"",""117487""
""blur"",""22"",""165452""
""blur"",""67"",""353614""
","""event"",""trial"",""time""
""focus"",""11"",""41700""
""focus"",""18"",""107123""
""focus"",""19"",""128166""
""focus"",""22"",""180926""
""focus"",""67"",""362059""
","""event"",""trial"",""time""
""fullscreenenter"",""1"",""1278""
","
","","","","","","null","<div style=""font-size:60px;"">+</div>","null","","fixation","","","","","","","","","","",""
"aa-learning-trial","95","454363","0.0-9.0-2.0-1.11","3886","2","20","Male","approach_avoid_spark_v1","""event"",""trial"",""time""
""fullscreenenter"",""1"",""1278""
""blur"",""11"",""36020""
""focus"",""11"",""41700""
""blur"",""18"",""101905""
""focus"",""18"",""107123""
""blur"",""19"",""117487""
""focus"",""19"",""128166""
""blur"",""22"",""165452""
""focus"",""22"",""180926""
""blur"",""67"",""353614""
""focus"",""67"",""362059""
","""event"",""trial"",""time""
""blur"",""11"",""36020""
""blur"",""18"",""101905""
""blur"",""19"",""117487""
""blur"",""22"",""165452""
""blur"",""67"",""353614""
","""event"",""trial"",""time""
""focus"",""11"",""41700""
""focus"",""18"",""107123""
""focus"",""19"",""128166""
""focus"",""22"",""180926""
""focus"",""67"",""362059""
","""event"",""trial"",""time""
""fullscreenenter"",""1"",""1278""
","
","","","","","","1051.4000000059605","images/table8.png","","","learning","7","7","1","1","table","furniture","2","0","","good","[4]"
"html-keyboard-response","96","454875","0.0-9.0-2.0-0.12","3886","2","20","Male","approach_avoid_spark_v1","""event"",""trial"",""time""
""fullscreenenter"",""1"",""1278""
""blur"",""11"",""36020""
""focus"",""11"",""41700""
""blur"",""18"",""101905""
""focus"",""18"",""107123""
""blur"",""19"",""117487""
""focus"",""19"",""128166""
""blur"",""22"",""165452""
""focus"",""22"",""180926""
""blur"",""67"",""353614""
""focus"",""67"",""362059""
","""event"",""trial"",""time""
""blur"",""11"",""36020""
""blur"",""18"",""101905""
""blur"",""19"",""117487""
""blur"",""22"",""165452""
""blur"",""67"",""353614""
","""event"",""trial"",""time""
""focus"",""11"",""41700""
""focus"",""18"",""107123""
""focus"",""19"",""128166""
""focus"",""22"",""180926""
""focus"",""67"",""362059""
","""event"",""trial"",""time""
""fullscreenenter"",""1"",""1278""
","
","","","","","","null","<div style=""font-size:60px;"">+</div>","null","","fixation","","","","","","","","","","",""
"aa-learning-trial","97","457883","0.0-9.0-2.0-1.12","3886","2","20","Male","approach_avoid_spark_v1","""event"",""trial"",""time""
""fullscreenenter"",""1"",""1278""
""blur"",""11"",""36020""
""focus"",""11"",""41700""
""blur"",""18"",""101905""
""focus"",""18"",""107123""
""blur"",""19"",""117487""
""focus"",""19"",""128166""
""blur"",""22"",""165452""
""focus"",""22"",""180926""
""blur"",""67"",""353614""
""focus"",""67"",""362059""
","""event"",""trial"",""time""
""blur"",""11"",""36020""
""blur"",""18"",""101905""
""blur"",""19"",""117487""
""blur"",""22"",""165452""
""blur"",""67"",""353614""
","""event"",""trial"",""time""
""focus"",""11"",""41700""
""focus"",""18"",""107123""
""focus"",""19"",""128166""
""focus"",""22"",""180926""
""focus"",""67"",""362059""
","""event"",""trial"",""time""
""fullscreenenter"",""1"",""1278""
","
","","","","","","604.5","images/bed2.png","","","learning","5","0","0","0","bed","furniture","2","0","","neutral","0"
"html-keyboard-response","98","458392","0.0-9.0-2.0-0.13","3886","2","20","Male","approach_avoid_spark_v1","""event"",""trial"",""time""
""fullscreenenter"",""1"",""1278""
""blur"",""11"",""36020""
""focus"",""11"",""41700""
""blur"",""18"",""101905""
""focus"",""18"",""107123""
""blur"",""19"",""117487""
""focus"",""19"",""128166""
""blur"",""22"",""165452""
""focus"",""22"",""180926""
""blur"",""67"",""353614""
""focus"",""67"",""362059""
","""event"",""trial"",""time""
""blur"",""11"",""36020""
""blur"",""18"",""101905""
""blur"",""19"",""117487""
""blur"",""22"",""165452""
""blur"",""67"",""353614""
","""event"",""trial"",""time""
""focus"",""11"",""41700""
""focus"",""18"",""107123""
""focus"",""19"",""128166""
""focus"",""22"",""180926""
""focus"",""67"",""362059""
","""event"",""trial"",""time""
""fullscreenenter"",""1"",""1278""
","
","","","","","","null","<div style=""font-size:60px;"">+</div>","null","","fixation","","","","","","","","","","",""
"aa-learning-trial","99","461396","0.0-9.0-2.0-1.13","3886","2","20","Male","approach_avoid_spark_v1","""event"",""trial"",""time""
""fullscreenenter"",""1"",""1278""
""blur"",""11"",""36020""
""focus"",""11"",""41700""
""blur"",""18"",""101905""
""focus"",""18"",""107123""
""blur"",""19"",""117487""
""focus"",""19"",""128166""
""blur"",""22"",""165452""
""focus"",""22"",""180926""
""blur"",""67"",""353614""
""focus"",""67"",""362059""
","""event"",""trial"",""time""
""blur"",""11"",""36020""
""blur"",""18"",""101905""
""blur"",""19"",""117487""
""blur"",""22"",""165452""
""blur"",""67"",""353614""
","""event"",""trial"",""time""
""focus"",""11"",""41700""
""focus"",""18"",""107123""
""focus"",""19"",""128166""
""focus"",""22"",""180926""
""focus"",""67"",""362059""
","""event"",""trial"",""time""
""fullscreenenter"",""1"",""1278""
","
","","","","","","883.2000000029802","images/sofa7.png","","","learning","8","8","1","1","sofa","furniture","2","0","","bad","[-6]"
"html-keyboard-response","100","461907","0.0-9.0-2.0-0.14","3886","2","20","Male","approach_avoid_spark_v1","""event"",""trial"",""time""
""fullscreenenter"",""1"",""1278""
""blur"",""11"",""36020""
""focus"",""11"",""41700""
""blur"",""18"",""101905""
""focus"",""18"",""107123""
""blur"",""19"",""117487""
""focus"",""19"",""128166""
""blur"",""22"",""165452""
""focus"",""22"",""180926""
""blur"",""67"",""353614""
""focus"",""67"",""362059""
","""event"",""trial"",""time""
""blur"",""11"",""36020""
""blur"",""18"",""101905""
""blur"",""19"",""117487""
""blur"",""22"",""165452""
""blur"",""67"",""353614""
","""event"",""trial"",""time""
""focus"",""11"",""41700""
""focus"",""18"",""107123""
""focus"",""19"",""128166""
""focus"",""22"",""180926""
""focus"",""67"",""362059""
","""event"",""trial"",""time""
""fullscreenenter"",""1"",""1278""
","
","","","","","","null","<div style=""font-size:60px;"">+</div>","null","","fixation","","","","","","","","","","",""
"aa-learning-trial","101","464912","0.0-9.0-2.0-1.14","3886","2","20","Male","approach_avoid_spark_v1","""event"",""trial"",""time""
""fullscreenenter"",""1"",""1278""
""blur"",""11"",""36020""
""focus"",""11"",""41700""
""blur"",""18"",""101905""
""focus"",""18"",""107123""
""blur"",""19"",""117487""
""focus"",""19"",""128166""
""blur"",""22"",""165452""
""focus"",""22"",""180926""
""blur"",""67"",""353614""
""focus"",""67"",""362059""
","""event"",""trial"",""time""
""blur"",""11"",""36020""
""blur"",""18"",""101905""
""blur"",""19"",""117487""
""blur"",""22"",""165452""
""blur"",""67"",""353614""
","""event"",""trial"",""time""
""focus"",""11"",""41700""
""focus"",""18"",""107123""
""focus"",""19"",""128166""
""focus"",""22"",""180926""
""focus"",""67"",""362059""
","""event"",""trial"",""time""
""fullscreenenter"",""1"",""1278""
","
","","","","","","857.5","images/bed7.png","","","learning","-3","-3","1","1","bed","furniture","2","0","","neutral","0"
"html-keyboard-response","102","465416","0.0-9.0-2.0-0.15","3886","2","20","Male","approach_avoid_spark_v1","""event"",""trial"",""time""
""fullscreenenter"",""1"",""1278""
""blur"",""11"",""36020""
""focus"",""11"",""41700""
""blur"",""18"",""101905""
""focus"",""18"",""107123""
""blur"",""19"",""117487""
""focus"",""19"",""128166""
""blur"",""22"",""165452""
""focus"",""22"",""180926""
""blur"",""67"",""353614""
""focus"",""67"",""362059""
","""event"",""trial"",""time""
""blur"",""11"",""36020""
""blur"",""18"",""101905""
""blur"",""19"",""117487""
""blur"",""22"",""165452""
""blur"",""67"",""353614""
","""event"",""trial"",""time""
""focus"",""11"",""41700""
""focus"",""18"",""107123""
""focus"",""19"",""128166""
""focus"",""22"",""180926""
""focus"",""67"",""362059""
","""event"",""trial"",""time""
""fullscreenenter"",""1"",""1278""
","
","","","","","","null","<div style=""font-size:60px;"">+</div>","null","","fixation","","","","","","","","","","",""
"aa-learning-trial","103","468426","0.0-9.0-2.0-1.15","3886","2","20","Male","approach_avoid_spark_v1","""event"",""trial"",""time""
""fullscreenenter"",""1"",""1278""
""blur"",""11"",""36020""
""focus"",""11"",""41700""
""blur"",""18"",""101905""
""focus"",""18"",""107123""
""blur"",""19"",""117487""
""focus"",""19"",""128166""
""blur"",""22"",""165452""
""focus"",""22"",""180926""
""blur"",""67"",""353614""
""focus"",""67"",""362059""
","""event"",""trial"",""time""
""blur"",""11"",""36020""
""blur"",""18"",""101905""
""blur"",""19"",""117487""
""blur"",""22"",""165452""
""blur"",""67"",""353614""
","""event"",""trial"",""time""
""focus"",""11"",""41700""
""focus"",""18"",""107123""
""focus"",""19"",""128166""
""focus"",""22"",""180926""
""focus"",""67"",""362059""
","""event"",""trial"",""time""
""fullscreenenter"",""1"",""1278""
","
","","","","","","713.3999999910593","images/bed2.png","","","learning","5","0","0","0","bed","furniture","2","0","","neutral","0"
"html-keyboard-response","104","468936","0.0-9.0-2.0-0.16","3886","2","20","Male","approach_avoid_spark_v1","""event"",""trial"",""time""
""fullscreenenter"",""1"",""1278""
""blur"",""11"",""36020""
""focus"",""11"",""41700""
""blur"",""18"",""101905""
""focus"",""18"",""107123""
""blur"",""19"",""117487""
""focus"",""19"",""128166""
""blur"",""22"",""165452""
""focus"",""22"",""180926""
""blur"",""67"",""353614""
""focus"",""67"",""362059""
","""event"",""trial"",""time""
""blur"",""11"",""36020""
""blur"",""18"",""101905""
""blur"",""19"",""117487""
""blur"",""22"",""165452""
""blur"",""67"",""353614""
","""event"",""trial"",""time""
""focus"",""11"",""41700""
""focus"",""18"",""107123""
""focus"",""19"",""128166""
""focus"",""22"",""180926""
""focus"",""67"",""362059""
","""event"",""trial"",""time""
""fullscreenenter"",""1"",""1278""
","
","","","","","","null","<div style=""font-size:60px;"">+</div>","null","","fixation","","","","","","","","","","",""
"aa-learning-trial","105","471944","0.0-9.0-2.0-1.16","3886","2","20","Male","approach_avoid_spark_v1","""event"",""trial"",""time""
""fullscreenenter"",""1"",""1278""
""blur"",""11"",""36020""
""focus"",""11"",""41700""
""blur"",""18"",""101905""
""focus"",""18"",""107123""
""blur"",""19"",""117487""
""focus"",""19"",""128166""
""blur"",""22"",""165452""
""focus"",""22"",""180926""
""blur"",""67"",""353614""
""focus"",""67"",""362059""
","""event"",""trial"",""time""
""blur"",""11"",""36020""
""blur"",""18"",""101905""
""blur"",""19"",""117487""
""blur"",""22"",""165452""
""blur"",""67"",""353614""
","""event"",""trial"",""time""
""focus"",""11"",""41700""
""focus"",""18"",""107123""
""focus"",""19"",""128166""
""focus"",""22"",""180926""
""focus"",""67"",""362059""
","""event"",""trial"",""time""
""fullscreenenter"",""1"",""1278""
","
","","","","","","666.1000000089407","images/table8.png","","","learning","7","7","1","1","table","furniture","2","0","","good","[4]"
"html-keyboard-response","106","472447","0.0-9.0-2.0-0.17","3886","2","20","Male","approach_avoid_spark_v1","""event"",""trial"",""time""
""fullscreenenter"",""1"",""1278""
""blur"",""11"",""36020""
""focus"",""11"",""41700""
""blur"",""18"",""101905""
""focus"",""18"",""107123""
""blur"",""19"",""117487""
""focus"",""19"",""128166""
""blur"",""22"",""165452""
""focus"",""22"",""180926""
""blur"",""67"",""353614""
""focus"",""67"",""362059""
","""event"",""trial"",""time""
""blur"",""11"",""36020""
""blur"",""18"",""101905""
""blur"",""19"",""117487""
""blur"",""22"",""165452""
""blur"",""67"",""353614""
","""event"",""trial"",""time""
""focus"",""11"",""41700""
""focus"",""18"",""107123""
""focus"",""19"",""128166""
""focus"",""22"",""180926""
""focus"",""67"",""362059""
","""event"",""trial"",""time""
""fullscreenenter"",""1"",""1278""
","
","","","","","","null","<div style=""font-size:60px;"">+</div>","null","","fixation","","","","","","","","","","",""
"aa-learning-trial","107","475456","0.0-9.0-2.0-1.17","3886","2","20","Male","approach_avoid_spark_v1","""event"",""trial"",""time""
""fullscreenenter"",""1"",""1278""
""blur"",""11"",""36020""
""focus"",""11"",""41700""
""blur"",""18"",""101905""
""focus"",""18"",""107123""
""blur"",""19"",""117487""
""focus"",""19"",""128166""
""blur"",""22"",""165452""
""focus"",""22"",""180926""
""blur"",""67"",""353614""
""focus"",""67"",""362059""
","""event"",""trial"",""time""
""blur"",""11"",""36020""
""blur"",""18"",""101905""
""blur"",""19"",""117487""
""blur"",""22"",""165452""
""blur"",""67"",""353614""
","""event"",""trial"",""time""
""focus"",""11"",""41700""
""focus"",""18"",""107123""
""focus"",""19"",""128166""
""focus"",""22"",""180926""
""focus"",""67"",""362059""
","""event"",""trial"",""time""
""fullscreenenter"",""1"",""1278""
","
","","","","","","680.0999999940395","images/bed7.png","","","learning","-3","-3","1","1","bed","furniture","2","0","","neutral","0"
"html-keyboard-response","108","475960","0.0-9.0-2.0-0.18","3886","2","20","Male","approach_avoid_spark_v1","""event"",""trial"",""time""
""fullscreenenter"",""1"",""1278""
