"trial_type","trial_index","time_elapsed","internal_node_id","subject_id","task_condition","age","gender","task_version","interactions","blur_events","focus_events","fullscreenenter_events","fullscreenexit_events","success","timeout","failed_images","failed_audio","failed_video","rt","stimulus","response","button_pressed","task_part","approach_reward","points","key_press","option_selected","stim_cat","task_block","block_condition","block_number","correct","cat_type","mean_cat_reward"
"pavlovia","0","5","0.0-0.0","7909","1","12","Female","approach_avoid_spark_v1","""event"",""trial"",""time""
""fullscreenenter"",""1"",""6330""
","
","
","""event"",""trial"",""time""
""fullscreenenter"",""1"",""6330""
","
","","","","","","","","","","","","","","","","","","","","",""
"fullscreen","1","7274","0.0-1.0","7909","1","12","Female","approach_avoid_spark_v1","""event"",""trial"",""time""
""fullscreenenter"",""1"",""6330""
","
","
","""event"",""trial"",""time""
""fullscreenenter"",""1"",""6330""
","
","true","","","","","","","","","","","","","","","","","","","",""
"preload","2","20199","0.0-2.0","7909","1","12","Female","approach_avoid_spark_v1","""event"",""trial"",""time""
""fullscreenenter"",""1"",""6330""
","
","
","""event"",""trial"",""time""
""fullscreenenter"",""1"",""6330""
","
","true","false","[]","[]","[]","","","","","","","","","","","","","","","",""
"audio-keyboard-response","3","23283","0.0-3.0","7909","1","12","Female","approach_avoid_spark_v1","""event"",""trial"",""time""
""fullscreenenter"",""1"",""6330""
","
","
","""event"",""trial"",""time""
""fullscreenenter"",""1"",""6330""
","
","","","","","","3082.6666666666665","audio/beep_loop.wav"," ","","","","","","","","","","","","",""
"audio-button-response","4","26844","0.0-4.0","7909","1","12","Female","approach_avoid_spark_v1","""event"",""trial"",""time""
""fullscreenenter"",""1"",""6330""
","
","
","""event"",""trial"",""time""
""fullscreenenter"",""1"",""6330""
","
","","","","","","3563","audio/shark.wav","4","","","","","","","","","","","","",""
"audio-button-response","5","29258","0.0-5.0","7909","1","12","Female","approach_avoid_spark_v1","""event"",""trial"",""time""
""fullscreenenter"",""1"",""6330""
","
","
","""event"",""trial"",""time""
""fullscreenenter"",""1"",""6330""
","
","","","","","","1408","audio/turtle.wav","1","","","","","","","","","","","","",""
"preload","6","33477","0.0-6.0","7909","1","12","Female","approach_avoid_spark_v1","""event"",""trial"",""time""
""fullscreenenter"",""1"",""6330""
","
","
","""event"",""trial"",""time""
""fullscreenenter"",""1"",""6330""
","
","true","false","[]","[]","[]","","","","","","","","","","","","","","","",""
"html-keyboard-response","7","37635","0.0-7.0","7909","1","12","Female","approach_avoid_spark_v1","""event"",""trial"",""time""
""fullscreenenter"",""1"",""6330""
","
","
","""event"",""trial"",""time""
""fullscreenenter"",""1"",""6330""
","
","","","","","","4156.700000047684","Welcome to the experiment. Press any key to begin and to advance the instructions.","enter","","","","","","","","","","","","",""
"learning-instructions","8","46152","0.0-8.0-0.0-0.0","7909","1","12","Female","approach_avoid_spark_v1","""event"",""trial"",""time""
""fullscreenenter"",""1"",""6330""
","
","
","""event"",""trial"",""time""
""fullscreenenter"",""1"",""6330""
","
","","","","","","1563.800000011921","<p> Welcome! Today you are going to play 6 different rounds of a decision-making game. </p><p> Use the mouse to click next to continue. </p>","","0","instructions","","","","","","","","","","",""
"learning-instructions","9","50167","0.0-8.0-0.0-0.1","7909","1","12","Female","approach_avoid_spark_v1","""event"",""trial"",""time""
""fullscreenenter"",""1"",""6330""
","
","
","""event"",""trial"",""time""
""fullscreenenter"",""1"",""6330""
","
","","","","","","1280.300000011921","<p> You will start with a practice round to learn the rules. </p>","","0","instructions","","","","","","","","","","",""
"learning-instructions","10","55294","0.0-8.0-0.0-0.2","7909","1","12","Female","approach_avoid_spark_v1","""event"",""trial"",""time""
""fullscreenenter"",""1"",""6330""
","
","
","""event"",""trial"",""time""
""fullscreenenter"",""1"",""6330""
","
","","","","","","1681.699999988079","<p> Your goal in this round is to give out sports equipment to kids. </p></div>","","0","instructions","","","","","","","","","","",""
"learning-instructions","11","63702","0.0-8.0-0.0-0.3","7909","1","12","Female","approach_avoid_spark_v1","""event"",""trial"",""time""
""fullscreenenter"",""1"",""6330""
","
","
","""event"",""trial"",""time""
""fullscreenenter"",""1"",""6330""
","
","","","","","","863.4000000357628","<p> The kids only like some of the equipment.  </p><p> On each turn, you will see a piece of sports equipment.   </p><p> You need to decide whether to give it to the kids or not.  </p>","","0","instructions","","","","","","","","","","",""
"learning-instructions","12","69667","0.0-8.0-0.0-0.4","7909","1","12","Female","approach_avoid_spark_v1","""event"",""trial"",""time""
""fullscreenenter"",""1"",""6330""
","
","
","""event"",""trial"",""time""
""fullscreenenter"",""1"",""6330""
","
","","","","","","1217.4000000357628","<p> You can give them the equipment by pressing 1 and choose not to give it to them by pressing 0. </p><br><div class=""choice-instructions-grid""> <div class=""choice-option""><img src=""images/approach.png"" class=""choice-option-img"" stage=""instructions"" position=""0"" ><div class=""choice-option-text""> Press ""1."" </div></div><div class=""choice-option""><img src=""images/avoid.png"" class=""choice-option-img"" stage=""instructions"" position=""1"" ><div class=""choice-option-text""> Press ""0."" </div></div>","","0","instructions","","","","","","","","","","",""
"learning-instructions","13","78029","0.0-8.0-0.0-0.5","7909","1","12","Female","approach_avoid_spark_v1","""event"",""trial"",""time""
""fullscreenenter"",""1"",""6330""
","
","
","""event"",""trial"",""time""
""fullscreenenter"",""1"",""6330""
","
","","","","","","982","<p> If you give them a piece of equipment they like, they will be happy! </p><p> But if you give them a piece of equipment they do not like, they will be sad. </p>","","0","instructions","","","","","","","","","","",""
"learning-instructions","14","89282","0.0-8.0-0.0-0.6","7909","1","12","Female","approach_avoid_spark_v1","""event"",""trial"",""time""
""fullscreenenter"",""1"",""6330""
","
","
","""event"",""trial"",""time""
""fullscreenenter"",""1"",""6330""
","
","","","","","","747.3999999761581","<p> You will earn points based on how you make kids feel. </p><p> If you make them happy, you will WIN anywhere from 1 - 9 points, </p><p> but if you make them sad, you will LOSE anywhere from 1 - 9 points. </p>","","0","instructions","","","","","","","","","","",""
"learning-instructions","15","99710","0.0-8.0-0.0-0.7","7909","1","12","Female","approach_avoid_spark_v1","""event"",""trial"",""time""
""fullscreenenter"",""1"",""6330""
","
","
","""event"",""trial"",""time""
""fullscreenenter"",""1"",""6330""
","
","","","","","","871.6000000238419","<p> You will see how many points you won or lost in the center of the screen. </p><p> Here is what you would see if you won 6 points: </p><p style=""color:green;font-size:50px;font-weight:bolder"">6</p><p style=""color:green"">The text is GREEN because you WON points.</p>","","0","instructions","","","","","","","","","","",""
"learning-instructions","16","106392","0.0-8.0-0.0-0.8","7909","1","12","Female","approach_avoid_spark_v1","""event"",""trial"",""time""
""fullscreenenter"",""1"",""6330""
","
","
","""event"",""trial"",""time""
""fullscreenenter"",""1"",""6330""
","
","","","","","","1164.4000000357628","<p> And here is what you would see if you lost 4 points: </p><p style=""color:red;font-size:50px;font-weight:bolder"">-4</p><p style=""color:red"">The text is RED because you LOST points. </p>","","0","instructions","","","","","","","","","","",""
"learning-instructions","17","121910","0.0-8.0-0.0-0.9","7909","1","12","Female","approach_avoid_spark_v1","""event"",""trial"",""time""
""fullscreenenter"",""1"",""6330""
","
","
","""event"",""trial"",""time""
""fullscreenenter"",""1"",""6330""
","
","","","","","","799.8000000119209","<p> Some of the equipment will make the kids VERY happy or sad. </p><p> These pieces of equipment will make you win or lose LOTS of points. </p><p> Other pieces of equipment will only make the kids a little happy or sad. </p><p> These pieces of equipment will make you win or lose small amounts of points. </p>","","0","instructions","","","","","","","","","","",""
"learning-instructions","18","134280","0.0-8.0-0.0-0.10","7909","1","12","Female","approach_avoid_spark_v1","""event"",""trial"",""time""
""fullscreenenter"",""1"",""6330""
","
","
","""event"",""trial"",""time""
""fullscreenenter"",""1"",""6330""
","
","","","","","","1734.199999988079","<p> If you choose not to give them the equipment, you will not win or lose any points. </p><p>  However, in the center of the screen, you will see the number of points you WOULD HAVE won or lost if you had given them the equipment. </p>","","0","instructions","","","","","","","","","","",""
"learning-instructions","19","157927","0.0-8.0-0.0-0.11","7909","1","12","Female","approach_avoid_spark_v1","""event"",""trial"",""time""
""fullscreenenter"",""1"",""6330""
","
","
","""event"",""trial"",""time""
""fullscreenenter"",""1"",""6330""
","
","","","","","","2107","<p> Here is what you might see if you did not give the equipment to the kids but it would have made them happy: </p><p style=""color:grey; font-size:50px; display: inline-block; border-spacing: 15px; border-width:3px; border-style:solid; border-color:red"">  &nbsp; 7 &nbsp; </p><p> Remember, in this case, you would not win or lose ANY points because you did not give them the equipment.  </p><p style=""color:grey"">The text is GREY because you earned ZERO points. </p><p style=""color:red"">However, choosing to give the kids the equipment would have made you win points. The box around the text is RED because you chose the worse option. </p>","","0","instructions","","","","","","","","","","",""
"learning-instructions","20","180311","0.0-8.0-0.0-0.12","7909","1","12","Female","approach_avoid_spark_v1","""event"",""trial"",""time""
""fullscreenenter"",""1"",""6330""
","
","
","""event"",""trial"",""time""
""fullscreenenter"",""1"",""6330""
","
","","","","","","1312.8999999761581","<p> Here is what you might see if you did not give the equipment to the kids but it would have made them sad: </p><p style=""color:grey;font-size:50px; display: inline-block; border-spacing: 15px; border-width:3px; border-style:solid; border-color:green"">  &nbsp; -8 &nbsp; </p><p> Remember, in this case, you would not win or lose ANY points because you did not give them the equipment.  </p><p style=""color:grey"">The text is GREY because you earned ZERO points. </p><p  style=""color:green""> Choosing to give the kids the equipment would have made you lose points. The box around the text is GREEN because you chose the better option.</p>","","0","instructions","","","","","","","","","","",""
"learning-instructions","21","190528","0.0-8.0-0.0-0.13","7909","1","12","Female","approach_avoid_spark_v1","""event"",""trial"",""time""
""fullscreenenter"",""1"",""6330""
","
","
","""event"",""trial"",""time""
""fullscreenenter"",""1"",""6330""
","
","","","","","","1321.699999988079","<p> You will have 3 seconds to make each choice. Try to respond before time runs out! </p><p> You will lose 5 points each time you do not make a response. </p>","","0","instructions","","","","","","","","","","",""
"learning-instructions","22","197738","0.0-8.0-0.0-0.14","7909","1","12","Female","approach_avoid_spark_v1","""event"",""trial"",""time""
""fullscreenenter"",""1"",""6330""
","
","
","""event"",""trial"",""time""
""fullscreenenter"",""1"",""6330""
","
","","","","","","1801.300000011921","<p> This is just a practice round, but in the real game, your bonus payment will depend on your total number of points.","","0","instructions","","","","","","","","","","",""
"learning-instructions","23","204615","0.0-8.0-0.0-0.15","7909","1","12","Female","approach_avoid_spark_v1","""event"",""trial"",""time""
""fullscreenenter"",""1"",""6330""
","
","
","""event"",""trial"",""time""
""fullscreenenter"",""1"",""6330""
","
","","","","","","1104.8999999761581","<p> Remember, you can give them the equipment by pressing 1 and choose not to give it to them by pressing 0. </p><br><div class=""choice-instructions-grid""> <div class=""choice-option""><img src=""images/approach.png"" class=""choice-option-img"" stage=""instructions"" position=""0"" ><div class=""choice-option-text""> Press ""1."" </div></div><div class=""choice-option""><img src=""images/avoid.png"" class=""choice-option-img"" stage=""instructions"" position=""1"" ><div class=""choice-option-text""> Press ""0."" </div></div>","","0","instructions","","","","","","","","","","",""
"html-button-response","24","205963","0.0-8.0-1.0","7909","1","12","Female","approach_avoid_spark_v1","""event"",""trial"",""time""
""fullscreenenter"",""1"",""6330""
","
","
","""event"",""trial"",""time""
""fullscreenenter"",""1"",""6330""
","
","","","","","","1232.300000011921","<p> Ready to practice? </p>","0","","","","","","","","","","","","",""
"html-keyboard-response","25","206576","0.0-8.0-2.0-0.0","7909","1","12","Female","approach_avoid_spark_v1","""event"",""trial"",""time""
""fullscreenenter"",""1"",""6330""
","
","
","""event"",""trial"",""time""
""fullscreenenter"",""1"",""6330""
","
","","","","","","null","<div style=""font-size:60px;"">+</div>","null","","fixation","","","","","","","","","","",""
"aa-learning-trial","26","209580","0.0-8.0-2.0-1.0","7909","1","12","Female","approach_avoid_spark_v1","""event"",""trial"",""time""
""fullscreenenter"",""1"",""6330""
","
","
","""event"",""trial"",""time""
""fullscreenenter"",""1"",""6330""
","
","","","","","","null","images/racket3.png","","","learning","2","-5","","null","practice","practice","practice","-1","","",""
"html-keyboard-response","27","210080","0.0-8.0-2.0-0.1","7909","1","12","Female","approach_avoid_spark_v1","""event"",""trial"",""time""
""fullscreenenter"",""1"",""6330""
","
","
","""event"",""trial"",""time""
""fullscreenenter"",""1"",""6330""
","
","","","","","","null","<div style=""font-size:60px;"">+</div>","null","","fixation","","","","","","","","","","",""
"aa-learning-trial","28","213084","0.0-8.0-2.0-1.1","7909","1","12","Female","approach_avoid_spark_v1","""event"",""trial"",""time""
""fullscreenenter"",""1"",""6330""
","
","
","""event"",""trial"",""time""
""fullscreenenter"",""1"",""6330""
","
","","","","","","null","images/racket3.png","","","learning","-9","-5","","null","practice","practice","practice","-1","","",""
"html-keyboard-response","29","213593","0.0-8.0-2.0-0.2","7909","1","12","Female","approach_avoid_spark_v1","""event"",""trial"",""time""
""fullscreenenter"",""1"",""6330""
","
","
","""event"",""trial"",""time""
""fullscreenenter"",""1"",""6330""
","
","","","","","","null","<div style=""font-size:60px;"">+</div>","null","","fixation","","","","","","","","","","",""
"aa-learning-trial","30","216607","0.0-8.0-2.0-1.2","7909","1","12","Female","approach_avoid_spark_v1","""event"",""trial"",""time""
""fullscreenenter"",""1"",""6330""
","
","
","""event"",""trial"",""time""
""fullscreenenter"",""1"",""6330""
","
","","","","","","669.6000000238419","images/racket2.png","","","learning","2","2","1","1","practice","practice","practice","-1","","",""
"html-keyboard-response","31","217121","0.0-8.0-2.0-0.3","7909","1","12","Female","approach_avoid_spark_v1","""event"",""trial"",""time""
""fullscreenenter"",""1"",""6330""
","
","
","""event"",""trial"",""time""
""fullscreenenter"",""1"",""6330""
","
","","","","","","null","<div style=""font-size:60px;"">+</div>","null","","fixation","","","","","","","","","","",""
"aa-learning-trial","32","220135","0.0-8.0-2.0-1.3","7909","1","12","Female","approach_avoid_spark_v1","""event"",""trial"",""time""
""fullscreenenter"",""1"",""6330""
","
","
","""event"",""trial"",""time""
""fullscreenenter"",""1"",""6330""
","
","","","","","","1225.6000000238419","images/ball4.png","","","learning","5","0","0","0","practice","practice","practice","-1","","",""
"html-keyboard-response","33","220647","0.0-8.0-2.0-0.4","7909","1","12","Female","approach_avoid_spark_v1","""event"",""trial"",""time""
""fullscreenenter"",""1"",""6330""
","
","
","""event"",""trial"",""time""
""fullscreenenter"",""1"",""6330""
","
","","","","","","null","<div style=""font-size:60px;"">+</div>","null","","fixation","","","","","","","","","","",""
"aa-learning-trial","34","223665","0.0-8.0-2.0-1.4","7909","1","12","Female","approach_avoid_spark_v1","""event"",""trial"",""time""
""fullscreenenter"",""1"",""6330""
","
","
","""event"",""trial"",""time""
""fullscreenenter"",""1"",""6330""
","
","","","","","","617.1999999880791","images/ball2.png","","","learning","9","9","1","1","practice","practice","practice","-1","","",""
"html-keyboard-response","35","224167","0.0-8.0-2.0-0.5","7909","1","12","Female","approach_avoid_spark_v1","""event"",""trial"",""time""
""fullscreenenter"",""1"",""6330""
","
","
","""event"",""trial"",""time""
""fullscreenenter"",""1"",""6330""
","
","","","","","","null","<div style=""font-size:60px;"">+</div>","null","","fixation","","","","","","","","","","",""
"aa-learning-trial","36","227172","0.0-8.0-2.0-1.5","7909","1","12","Female","approach_avoid_spark_v1","""event"",""trial"",""time""
""fullscreenenter"",""1"",""6330""
","
","
","""event"",""trial"",""time""
""fullscreenenter"",""1"",""6330""
","
","","","","","","1072.6000000238419","images/racket3.png","","","learning","-7","-7","1","1","practice","practice","practice","-1","","",""
"html-keyboard-response","37","227675","0.0-8.0-2.0-0.6","7909","1","12","Female","approach_avoid_spark_v1","""event"",""trial"",""time""
""fullscreenenter"",""1"",""6330""
","
","
","""event"",""trial"",""time""
""fullscreenenter"",""1"",""6330""
","
","","","","","","null","<div style=""font-size:60px;"">+</div>","null","","fixation","","","","","","","","","","",""
"aa-learning-trial","38","230688","0.0-8.0-2.0-1.6","7909","1","12","Female","approach_avoid_spark_v1","""event"",""trial"",""time""
""fullscreenenter"",""1"",""6330""
","
","
","""event"",""trial"",""time""
""fullscreenenter"",""1"",""6330""
","
","","","","","","1445.1000000238419","images/ball1.png","","","learning","-6","0","0","0","practice","practice","practice","-1","","",""
"html-keyboard-response","39","231192","0.0-8.0-2.0-0.7","7909","1","12","Female","approach_avoid_spark_v1","""event"",""trial"",""time""
""fullscreenenter"",""1"",""6330""
","
","
","""event"",""trial"",""time""
""fullscreenenter"",""1"",""6330""
","
","","","","","","null","<div style=""font-size:60px;"">+</div>","null","","fixation","","","","","","","","","","",""
"aa-learning-trial","40","234195","0.0-8.0-2.0-1.7","7909","1","12","Female","approach_avoid_spark_v1","""event"",""trial"",""time""
""fullscreenenter"",""1"",""6330""
","
","
","""event"",""trial"",""time""
""fullscreenenter"",""1"",""6330""
","
","","","","","","966.8999999761581","images/ball4.png","","","learning","4","0","0","0","practice","practice","practice","-1","","",""
"html-keyboard-response","41","234696","0.0-8.0-2.0-0.8","7909","1","12","Female","approach_avoid_spark_v1","""event"",""trial"",""time""
""fullscreenenter"",""1"",""6330""
","
","
","""event"",""trial"",""time""
""fullscreenenter"",""1"",""6330""
","
","","","","","","null","<div style=""font-size:60px;"">+</div>","null","","fixation","","","","","","","","","","",""
"aa-learning-trial","42","237698","0.0-8.0-2.0-1.8","7909","1","12","Female","approach_avoid_spark_v1","""event"",""trial"",""time""
""fullscreenenter"",""1"",""6330""
","
","
","""event"",""trial"",""time""
""fullscreenenter"",""1"",""6330""
","
","","","","","","2038","images/racket2.png","","","learning","-4","-4","1","1","practice","practice","practice","-1","","",""
"html-keyboard-response","43","238199","0.0-8.0-2.0-0.9","7909","1","12","Female","approach_avoid_spark_v1","""event"",""trial"",""time""
""fullscreenenter"",""1"",""6330""
","
","
","""event"",""trial"",""time""
""fullscreenenter"",""1"",""6330""
","
","","","","","","null","<div style=""font-size:60px;"">+</div>","null","","fixation","","","","","","","","","","",""
"aa-learning-trial","44","241202","0.0-8.0-2.0-1.9","7909","1","12","Female","approach_avoid_spark_v1","""event"",""trial"",""time""
""fullscreenenter"",""1"",""6330""
","
","
","""event"",""trial"",""time""
""fullscreenenter"",""1"",""6330""
","
","","","","","","607.5","images/ball1.png","","","learning","9","0","0","0","practice","practice","practice","-1","","",""
"html-keyboard-response","45","241704","0.0-8.0-2.0-0.10","7909","1","12","Female","approach_avoid_spark_v1","""event"",""trial"",""time""
""fullscreenenter"",""1"",""6330""
","
","
","""event"",""trial"",""time""
""fullscreenenter"",""1"",""6330""
","
","","","","","","null","<div style=""font-size:60px;"">+</div>","null","","fixation","","","","","","","","","","",""
"aa-learning-trial","46","244708","0.0-8.0-2.0-1.10","7909","1","12","Female","approach_avoid_spark_v1","""event"",""trial"",""time""
""fullscreenenter"",""1"",""6330""
","
","
","""event"",""trial"",""time""
""fullscreenenter"",""1"",""6330""
","
","","","","","","646.4000000357628","images/ball3.png","","","learning","-9","-9","1","1","practice","practice","practice","-1","","",""
"html-keyboard-response","47","245210","0.0-8.0-2.0-0.11","7909","1","12","Female","approach_avoid_spark_v1","""event"",""trial"",""time""
""fullscreenenter"",""1"",""6330""
","
","
","""event"",""trial"",""time""
""fullscreenenter"",""1"",""6330""
","
","","","","","","null","<div style=""font-size:60px;"">+</div>","null","","fixation","","","","","","","","","","",""
"aa-learning-trial","48","248214","0.0-8.0-2.0-1.11","7909","1","12","Female","approach_avoid_spark_v1","""event"",""trial"",""time""
""fullscreenenter"",""1"",""6330""
","
","
","""event"",""trial"",""time""
""fullscreenenter"",""1"",""6330""
","
","","","","","","808.8000000119209","images/ball3.png","","","learning","-5","-5","1","1","practice","practice","practice","-1","","",""
"html-button-response","49","258992","0.0-8.0-3.0","7909","1","12","Female","approach_avoid_spark_v1","""event"",""trial"",""time""
""fullscreenenter"",""1"",""6330""
","
","
","""event"",""trial"",""time""
""fullscreenenter"",""1"",""6330""
","
","","","","","","10775.100000023842","<p> You earned -24 points in the practice round! </p>","0","","break","","","","","","","","","","",""
"learning-instructions","50","267507","0.0-8.0-4.0-0.0","7909","1","12","Female","approach_avoid_spark_v1","""event"",""trial"",""time""
""fullscreenenter"",""1"",""6330""
","
","
","""event"",""trial"",""time""
""fullscreenenter"",""1"",""6330""
","
","","","","","","2103.699999988079","<p> It's almost time to start the real game. </p><p> Before you start, we're going to ask you a few questions about how the game works. </p>","","0","instructions","","","","","","","","","","",""
"preload","51","268843","0.0-8.0-5.0","7909","1","12","Female","approach_avoid_spark_v1","""event"",""trial"",""time""
""fullscreenenter"",""1"",""6330""
","
","
","""event"",""trial"",""time""
""fullscreenenter"",""1"",""6330""
","
","true","false","[]","[]","[]","","","","","","","","","","","","","","","",""
"comp-q","52","275142","0.0-8.0-6.0-0.0","7909","1","12","Female","approach_avoid_spark_v1","""event"",""trial"",""time""
""fullscreenenter"",""1"",""6330""
","
","
","""event"",""trial"",""time""
""fullscreenenter"",""1"",""6330""
","
","","","","","","1300.6000000238419","<p> <b> True or False? </b> </p><p> If you see a number in GREY, that means you earned that many points. </p>","","1","comp_question","","","","","","","","","true","",""
"comp-q","53","284659","0.0-8.0-6.0-1.0","7909","1","12","Female","approach_avoid_spark_v1","""event"",""trial"",""time""
""fullscreenenter"",""1"",""6330""
","
","
","""event"",""trial"",""time""
""fullscreenenter"",""1"",""6330""
","
","","","","","","1154.5","<p><b> That's right! </b> If you see a grey number, it means you earned ZERO points. <br> The grey numbers show the points you WOULD HAVE earned if you had made the other choice. </p>","","0","comp_answer","","","","","","","","","","",""
"comp-q","54","290060","0.0-8.0-7.0-0.0","7909","1","12","Female","approach_avoid_spark_v1","""event"",""trial"",""time""
""fullscreenenter"",""1"",""6330""
","
","
","""event"",""trial"",""time""
""fullscreenenter"",""1"",""6330""
","
","","","","","","709.6000000238419","<p> <b> True or False? </b> </p><p> You will have as much time as you want to make each choice. </p>","","1","comp_question","","","","","","","","","true","",""
"comp-q","55","295389","0.0-8.0-7.0-1.0","7909","1","12","Female","approach_avoid_spark_v1","""event"",""trial"",""time""
""fullscreenenter"",""1"",""6330""
","
","
","""event"",""trial"",""time""
""fullscreenenter"",""1"",""6330""
","
","","","","","","1292.1000000238419","<p> <b> That's right! </b> You will only have 3 seconds to make each choice. </p>","","0","comp_answer","","","","","","","","","","",""
"comp-q","56","301092","0.0-8.0-8.0-0.0","7909","1","12","Female","approach_avoid_spark_v1","""event"",""trial"",""time""
""fullscreenenter"",""1"",""6330""
","
","
","""event"",""trial"",""time""
""fullscreenenter"",""1"",""6330""
","
","","","","","","1043","<p> <b> True or False? </b> </p><p> You should use the '1' and '0' keys to make your choices. </p>","","0","comp_question","","","","","","","","","true","",""
"comp-q","57","306952","0.0-8.0-8.0-1.0","7909","1","12","Female","approach_avoid_spark_v1","""event"",""trial"",""time""
""fullscreenenter"",""1"",""6330""
","
","
","""event"",""trial"",""time""
""fullscreenenter"",""1"",""6330""
","
","","","","","","1239","<p> <b> That's right! </b> You should use the '1' and '0' keys to make each choice. </p>","","0","comp_answer","","","","","","","","","","",""
"learning-instructions","58","321216","0.0-8.0-9.0-0.0","7909","1","12","Female","approach_avoid_spark_v1","""event"",""trial"",""time""
""fullscreenenter"",""1"",""6330""
","
","
","""event"",""trial"",""time""
""fullscreenenter"",""1"",""6330""
","
","","","","","","7993.099999964237","<p> It's now time to start the real game. </p>Do your best, because the points you earn in the next rounds will influence your bonus payment. </p>","","0","instructions","","","","","","","","","","",""
"preload","59","321350","0.0-9.0-0.0","7909","1","12","Female","approach_avoid_spark_v1","""event"",""trial"",""time""
""fullscreenenter"",""1"",""6330""
","
","
","""event"",""trial"",""time""
""fullscreenenter"",""1"",""6330""
","
","true","false","[]","[]","[]","","","","","","","","","","","","","","","",""
"learning-instructions","60","327763","0.0-9.0-1.0-0.0","7909","1","12","Female","approach_avoid_spark_v1","""event"",""trial"",""time""
""fullscreenenter"",""1"",""6330""
","
","
","""event"",""trial"",""time""
""fullscreenenter"",""1"",""6330""
","
","","","","","","1453.300000011921","<p> Your goal in this round is to sell different plants to a picky customer. </p></div>","","0","instructions","","","","","","","","","","",""
"learning-instructions","61","340693","0.0-9.0-1.0-0.1","7909","1","12","Female","approach_avoid_spark_v1","""event"",""trial"",""time""
""fullscreenenter"",""1"",""6330""
","
","
","""event"",""trial"",""time""
""fullscreenenter"",""1"",""6330""
","
","","","","","","3695","<p> The customer likes some plants and dislikes others.  </p><p> On each turn, you will see a plant.   </p><p> You need to decide whether to offer it to the customer or not.  </p>","","0","instructions","","","","","","","","","","",""
"learning-instructions","62","347731","0.0-9.0-1.0-0.2","7909","1","12","Female","approach_avoid_spark_v1","""event"",""trial"",""time""
""fullscreenenter"",""1"",""6330""
","
","
","""event"",""trial"",""time""
""fullscreenenter"",""1"",""6330""
","
","","","","","","1569.800000011921","<p> You can offer the plant by pressing 1 and decide to not offer it by pressing 0. </p><br><div class=""choice-instructions-grid""> <div class=""choice-option""><img src=""images/approach.png"" class=""choice-option-img"" stage=""instructions"" position=""0"" ><div class=""choice-option-text""> Press ""1."" </div></div><div class=""choice-option""><img src=""images/avoid.png"" class=""choice-option-img"" stage=""instructions"" position=""1"" ><div class=""choice-option-text""> Press ""0."" </div></div>","","0","instructions","","","","","","","","","","",""
"learning-instructions","63","362777","0.0-9.0-1.0-0.3","7909","1","12","Female","approach_avoid_spark_v1","""event"",""trial"",""time""
""fullscreenenter"",""1"",""6330""
","
","
","""event"",""trial"",""time""
""fullscreenenter"",""1"",""6330""
","
","","","","","","6269.599999964237","<p> If you offer a plant to the customer that she likes, she will be very pleased! </p><p> But if you offer a plant that she does NOT like, she will be annoyed. </p>","","0","instructions","","","","","","","","","","",""
"learning-instructions","64","376423","0.0-9.0-1.0-0.4","7909","1","12","Female","approach_avoid_spark_v1","""event"",""trial"",""time""
""fullscreenenter"",""1"",""6330""
","
","
","""event"",""trial"",""time""
""fullscreenenter"",""1"",""6330""
","
","","","","","","1377.199999988079","<p> You will earn points based on how you made the customer feel. </p><p> If you made her pleased, you will WIN anywhere from 1 - 9 points, </p><p> but if you made her annoyed, you will LOSE anywhere from 1 - 9 points. </p>","","0","instructions","","","","","","","","","","",""
"learning-instructions","65","384828","0.0-9.0-1.0-0.5","7909","1","12","Female","approach_avoid_spark_v1","""event"",""trial"",""time""
""fullscreenenter"",""1"",""6330""
","
","
","""event"",""trial"",""time""
""fullscreenenter"",""1"",""6330""
","
","","","","","","1002.6000000238419","<p> You will see how many points you won or lost in the center of the screen. </p><p> Here is what you would see if you won 5 points: </p><p style=""color:green;font-size:50px;font-weight:bolder"">5</p>","","0","instructions","","","","","","","","","","",""
"learning-instructions","66","389251","0.0-9.0-1.0-0.6","7909","1","12","Female","approach_avoid_spark_v1","""event"",""trial"",""time""
""fullscreenenter"",""1"",""6330""
","
","
","""event"",""trial"",""time""
""fullscreenenter"",""1"",""6330""
","
","","","","","","1095.199999988079","<p> And here is what you would see if you lost 3 points: </p><p style=""color:red;font-size:50px;font-weight:bolder"">-3</p>","","0","instructions","","","","","","","","","","",""
"learning-instructions","67","405506","0.0-9.0-1.0-0.7","7909","1","12","Female","approach_avoid_spark_v1","""event"",""trial"",""time""
""fullscreenenter"",""1"",""6330""
","
","
","""event"",""trial"",""time""
""fullscreenenter"",""1"",""6330""
","
","","","","","","1766.6000000238419","<p> Some plants will make the customer VERY pleased or annoyed. </p><p> These plants will make you win or lose LOTS of points. </p><p> The customer will have less strong feelings about other plants. </p><p> These plants will make you win or lose small amounts of points. </p>","","0","instructions","","","","","","","","","","",""
"learning-instructions","68","419543","0.0-9.0-1.0-0.8","7909","1","12","Female","approach_avoid_spark_v1","""event"",""trial"",""time""
""fullscreenenter"",""1"",""6330""
","
","
","""event"",""trial"",""time""
""fullscreenenter"",""1"",""6330""
","
","","","","","","1659.9000000357628","<p> If you choose to not offer the plant to the customer, you will not win or lose any points. </p><p>  However, in the center of the screen, you will see the number of points you WOULD HAVE won or lost if you had offered the plant. </p>","","0","instructions","","","","","","","","","","",""
"learning-instructions","69","431906","0.0-9.0-1.0-0.9","7909","1","12","Female","approach_avoid_spark_v1","""event"",""trial"",""time""
""fullscreenenter"",""1"",""6330""
","
","
","""event"",""trial"",""time""
""fullscreenenter"",""1"",""6330""
","
","","","","","","1029.7999999523163","<p> Here is what you might see if you did not offer the plant but the customer would have liked it: </p><p style=""color:grey; font-size:50px; display: inline-block; border-spacing: 15px; border-width:3px; border-style:solid; border-color:red"">  &nbsp; 6 &nbsp; </p><p> Remember, in this case, you would not win or lose ANY points because you did not offer the plant.  </p>","","0","instructions","","","","","","","","","","",""
"learning-instructions","70","440883","0.0-9.0-1.0-0.10","7909","1","12","Female","approach_avoid_spark_v1","""event"",""trial"",""time""
""fullscreenenter"",""1"",""6330""
","
","
","""event"",""trial"",""time""
""fullscreenenter"",""1"",""6330""
","
","","","","","","1549.2999999523163","<p> Try to make the best choice for each plant because </p><p> at the end of the game, you will earn bonus money based on how many points you earned. </p>","","0","instructions","","","","","","","","","","",""
"learning-instructions","71","450969","0.0-9.0-1.0-0.11","7909","1","12","Female","approach_avoid_spark_v1","""event"",""trial"",""time""
""fullscreenenter"",""1"",""6330""
","
","
","""event"",""trial"",""time""
""fullscreenenter"",""1"",""6330""
","
","","","","","","1896.4000000357628","<p> You will have 3 seconds to make each choice. Try to respond before time runs out! </p><p> You will lose 5 points each time you do not make a response. </p>","","0","instructions","","","","","","","","","","",""
"html-keyboard-response","72","451589","0.0-9.0-2.0-0.0","7909","1","12","Female","approach_avoid_spark_v1","""event"",""trial"",""time""
""fullscreenenter"",""1"",""6330""
","
","
","""event"",""trial"",""time""
""fullscreenenter"",""1"",""6330""
","
","","","","","","null","<div style=""font-size:60px;"">+</div>","null","","fixation","","","","","","","","","","",""
"aa-learning-trial","73","454594","0.0-9.0-2.0-1.0","7909","1","12","Female","approach_avoid_spark_v1","""event"",""trial"",""time""
""fullscreenenter"",""1"",""6330""
","
","
","""event"",""trial"",""time""
""fullscreenenter"",""1"",""6330""
","
","","","","","","1459.300000011921","images/cactus4.png","","","learning","1","1","1","1","cactus","plants","1","0","","neutral","0"
"html-keyboard-response","74","455104","0.0-9.0-2.0-0.1","7909","1","12","Female","approach_avoid_spark_v1","""event"",""trial"",""time""
""fullscreenenter"",""1"",""6330""
","
","
","""event"",""trial"",""time""
""fullscreenenter"",""1"",""6330""
","
","","","","","","null","<div style=""font-size:60px;"">+</div>","null","","fixation","","","","","","","","","","",""
"aa-learning-trial","75","458112","0.0-9.0-2.0-1.1","7909","1","12","Female","approach_avoid_spark_v1","""event"",""trial"",""time""
""fullscreenenter"",""1"",""6330""
","
","
","""event"",""trial"",""time""
""fullscreenenter"",""1"",""6330""
","
","","","","","","1123.6000000238419","images/cactus5.png","","","learning","[1]","0","0","0","cactus","plants","1","0","","neutral","0"
"html-keyboard-response","76","458621","0.0-9.0-2.0-0.2","7909","1","12","Female","approach_avoid_spark_v1","""event"",""trial"",""time""
""fullscreenenter"",""1"",""6330""
","
","
","""event"",""trial"",""time""
""fullscreenenter"",""1"",""6330""
","
","","","","","","null","<div style=""font-size:60px;"">+</div>","null","","fixation","","","","","","","","","","",""
"aa-learning-trial","77","461632","0.0-9.0-2.0-1.2","7909","1","12","Female","approach_avoid_spark_v1","""event"",""trial"",""time""
""fullscreenenter"",""1"",""6330""
","
","
","""event"",""trial"",""time""
""fullscreenenter"",""1"",""6330""
","
","","","","","","660.6999999880791","images/flower4.png","","","learning","-7","-7","1","1","flower","plants","1","0","","bad","[-5]"
"html-keyboard-response","78","462143","0.0-9.0-2.0-0.3","7909","1","12","Female","approach_avoid_spark_v1","""event"",""trial"",""time""
""fullscreenenter"",""1"",""6330""
","
","
","""event"",""trial"",""time""
""fullscreenenter"",""1"",""6330""
","
","","","","","","null","<div style=""font-size:60px;"">+</div>","null","","fixation","","","","","","","","","","",""
"aa-learning-trial","79","465152","0.0-9.0-2.0-1.3","7909","1","12","Female","approach_avoid_spark_v1","""event"",""trial"",""time""
""fullscreenenter"",""1"",""6330""
","
","
","""event"",""trial"",""time""
""fullscreenenter"",""1"",""6330""
","
","","","","","","1099.5","images/tree2.png","","","learning","7","0","0","0","tree","plants","1","0","","good","[4]"
"html-keyboard-response","80","465661","0.0-9.0-2.0-0.4","7909","1","12","Female","approach_avoid_spark_v1","""event"",""trial"",""time""
""fullscreenenter"",""1"",""6330""
","
","
","""event"",""trial"",""time""
""fullscreenenter"",""1"",""6330""
","
","","","","","","null","<div style=""font-size:60px;"">+</div>","null","","fixation","","","","","","","","","","",""
"aa-learning-trial","81","468673","0.0-9.0-2.0-1.4","7909","1","12","Female","approach_avoid_spark_v1","""event"",""trial"",""time""
""fullscreenenter"",""1"",""6330""
","
","
","""event"",""trial"",""time""
""fullscreenenter"",""1"",""6330""
","
","","","","","","1302.1000000238419","images/flower7.png","","","learning","-5","-5","1","1","flower","plants","1","0","","bad","[-5]"
"html-keyboard-response","82","469180","0.0-9.0-2.0-0.5","7909","1","12","Female","approach_avoid_spark_v1","""event"",""trial"",""time""
""fullscreenenter"",""1"",""6330""
","
","
","""event"",""trial"",""time""
""fullscreenenter"",""1"",""6330""
","
","","","","","","null","<div style=""font-size:60px;"">+</div>","null","","fixation","","","","","","","","","","",""
"aa-learning-trial","83","472188","0.0-9.0-2.0-1.5","7909","1","12","Female","approach_avoid_spark_v1","""event"",""trial"",""time""
""fullscreenenter"",""1"",""6330""
","
","
","""event"",""trial"",""time""
""fullscreenenter"",""1"",""6330""
","
","","","","","","946.6000000238419","images/flower7.png","","","learning","-3","0","0","0","flower","plants","1","0","","bad","[-5]"
"html-keyboard-response","84","472699","0.0-9.0-2.0-0.6","7909","1","12","Female","approach_avoid_spark_v1","""event"",""trial"",""time""
""fullscreenenter"",""1"",""6330""
","
","
","""event"",""trial"",""time""
""fullscreenenter"",""1"",""6330""
","
","","","","","","null","<div style=""font-size:60px;"">+</div>","null","","fixation","","","","","","","","","","",""
"aa-learning-trial","85","475707","0.0-9.0-2.0-1.6","7909","1","12","Female","approach_avoid_spark_v1","""event"",""trial"",""time""
""fullscreenenter"",""1"",""6330""
","
","
","""event"",""trial"",""time""
""fullscreenenter"",""1"",""6330""
","
","","","","","","1767.1000000238419","images/flower3.png","","","learning","-4","0","0","0","flower","plants","1","0","","bad","[-5]"
"html-keyboard-response","86","476210","0.0-9.0-2.0-0.7","7909","1","12","Female","approach_avoid_spark_v1","""event"",""trial"",""time""
""fullscreenenter"",""1"",""6330""
","
","
","""event"",""trial"",""time""
""fullscreenenter"",""1"",""6330""
","
","","","","","","null","<div style=""font-size:60px;"">+</div>","null","","fixation","","","","","","","","","","",""
"aa-learning-trial","87","479213","0.0-9.0-2.0-1.7","7909","1","12","Female","approach_avoid_spark_v1","""event"",""trial"",""time""
""fullscreenenter"",""1"",""6330""
","
","
","""event"",""trial"",""time""
""fullscreenenter"",""1"",""6330""
","
","","","","","","1448.0999999642372","images/cactus8.png","","","learning","-1","-1","1","1","cactus","plants","1","0","","neutral","0"
"html-keyboard-response","88","479714","0.0-9.0-2.0-0.8","7909","1","12","Female","approach_avoid_spark_v1","""event"",""trial"",""time""
""fullscreenenter"",""1"",""6330""
","
","
","""event"",""trial"",""time""
""fullscreenenter"",""1"",""6330""
","
","","","","","","null","<div style=""font-size:60px;"">+</div>","null","","fixation","","","","","","","","","","",""
"aa-learning-trial","89","482717","0.0-9.0-2.0-1.8","7909","1","12","Female","approach_avoid_spark_v1","""event"",""trial"",""time""
""fullscreenenter"",""1"",""6330""
","
","
","""event"",""trial"",""time""
""fullscreenenter"",""1"",""6330""
","
","","","","","","875.5","images/tree7.png","","","learning","5","0","0","0","tree","plants","1","0","","good","[4]"
"html-keyboard-response","90","483218","0.0-9.0-2.0-0.9","7909","1","12","Female","approach_avoid_spark_v1","""event"",""trial"",""time""
""fullscreenenter"",""1"",""6330""
","
","
","""event"",""trial"",""time""
""fullscreenenter"",""1"",""6330""
","
","","","","","","null","<div style=""font-size:60px;"">+</div>","null","","fixation","","","","","","","","","","",""
"aa-learning-trial","91","486220","0.0-9.0-2.0-1.9","7909","1","12","Female","approach_avoid_spark_v1","""event"",""trial"",""time""
""fullscreenenter"",""1"",""6330""
","
","
","""event"",""trial"",""time""
""fullscreenenter"",""1"",""6330""
","
","","","","","","1533.699999988079","images/tree7.png","","","learning","5","5","1","1","tree","plants","1","0","","good","[4]"
"html-keyboard-response","92","486722","0.0-9.0-2.0-0.10","7909","1","12","Female","approach_avoid_spark_v1","""event"",""trial"",""time""
""fullscreenenter"",""1"",""6330""
","
","
","""event"",""trial"",""time""
""fullscreenenter"",""1"",""6330""
","
","","","","","","null","<div style=""font-size:60px;"">+</div>","null","","fixation","","","","","","","","","","",""
"aa-learning-trial","93","489725","0.0-9.0-2.0-1.10","7909","1","12","Female","approach_avoid_spark_v1","""event"",""trial"",""time""
""fullscreenenter"",""1"",""6330""
","
","
","""event"",""trial"",""time""
""fullscreenenter"",""1"",""6330""
","
","","","","","","1224.800000011921","images/flower4.png","","","learning","-4","0","0","0","flower","plants","1","0","","bad","[-5]"
"html-keyboard-response","94","490226","0.0-9.0-2.0-0.11","7909","1","12","Female","approach_avoid_spark_v1","""event"",""trial"",""time""
""fullscreenenter"",""1"",""6330""
","
","
","""event"",""trial"",""time""
""fullscreenenter"",""1"",""6330""
","
","","","","","","null","<div style=""font-size:60px;"">+</div>","null","","fixation","","","","","","","","","","",""
"aa-learning-trial","95","493231","0.0-9.0-2.0-1.11","7909","1","12","Female","approach_avoid_spark_v1","""event"",""trial"",""time""
""fullscreenenter"",""1"",""6330""
","
","
","""event"",""trial"",""time""
""fullscreenenter"",""1"",""6330""
","
","","","","","","892.8000000119209","images/cactus4.png","","","learning","-2","-2","1","1","cactus","plants","1","0","","neutral","0"
"html-keyboard-response","96","493733","0.0-9.0-2.0-0.12","7909","1","12","Female","approach_avoid_spark_v1","""event"",""trial"",""time""
""fullscreenenter"",""1"",""6330""
","
","
","""event"",""trial"",""time""
""fullscreenenter"",""1"",""6330""
","
","","","","","","null","<div style=""font-size:60px;"">+</div>","null","","fixation","","","","","","","","","","",""
"aa-learning-trial","97","496738","0.0-9.0-2.0-1.12","7909","1","12","Female","approach_avoid_spark_v1","""event"",""trial"",""time""
""fullscreenenter"",""1"",""6330""
","
","
","""event"",""trial"",""time""
""fullscreenenter"",""1"",""6330""
","
","","","","","","961.8999999761581","images/tree5.png","","","learning","2","0","0","0","tree","plants","1","0","","good","[4]"
"html-keyboard-response","98","497239","0.0-9.0-2.0-0.13","7909","1","12","Female","approach_avoid_spark_v1","""event"",""trial"",""time""
""fullscreenenter"",""1"",""6330""
","
","
","""event"",""trial"",""time""
""fullscreenenter"",""1"",""6330""
","
","","","","","","null","<div style=""font-size:60px;"">+</div>","null","","fixation","","","","","","","","","","",""
"aa-learning-trial","99","500243","0.0-9.0-2.0-1.13","7909","1","12","Female","approach_avoid_spark_v1","""event"",""trial"",""time""
""fullscreenenter"",""1"",""6330""
","
","
","""event"",""trial"",""time""
""fullscreenenter"",""1"",""6330""
","
","","","","","","1264.5999999642372","images/cactus5.png","","","learning","1","0","0","0","cactus","plants","1","0","","neutral","0"
"html-keyboard-response","100","500744","0.0-9.0-2.0-0.14","7909","1","12","Female","approach_avoid_spark_v1","""event"",""trial"",""time""
""fullscreenenter"",""1"",""6330""
","
","
","""event"",""trial"",""time""
""fullscreenenter"",""1"",""6330""
","
","","","","","","null","<div style=""font-size:60px;"">+</div>","null","","fixation","","","","","","","","","","",""
"aa-learning-trial","101","503748","0.0-9.0-2.0-1.14","7909","1","12","Female","approach_avoid_spark_v1","""event"",""trial"",""time""
""fullscreenenter"",""1"",""6330""
","
","
","""event"",""trial"",""time""
""fullscreenenter"",""1"",""6330""
","
","","","","","","1437.800000011921","images/tree2.png","","","learning","3","3","1","1","tree","plants","1","0","","good","[4]"
"html-keyboard-response","102","504250","0.0-9.0-2.0-0.15","7909","1","12","Female","approach_avoid_spark_v1","""event"",""trial"",""time""
""fullscreenenter"",""1"",""6330""
","
","
","""event"",""trial"",""time""
""fullscreenenter"",""1"",""6330""
","
","","","","","","null","<div style=""font-size:60px;"">+</div>","null","","fixation","","","","","","","","","","",""
"aa-learning-trial","103","507253","0.0-9.0-2.0-1.15","7909","1","12","Female","approach_avoid_spark_v1","""event"",""trial"",""time""
""fullscreenenter"",""1"",""6330""
","
","
","""event"",""trial"",""time""
""fullscreenenter"",""1"",""6330""
","
","","","","","","960.5","images/flower4.png","","","learning","-7","0","0","0","flower","plants","1","0","","bad","[-5]"
"html-keyboard-response","104","507763","0.0-9.0-2.0-0.16","7909","1","12","Female","approach_avoid_spark_v1","""event"",""trial"",""time""
""fullscreenenter"",""1"",""6330""
","
","
","""event"",""trial"",""time""
""fullscreenenter"",""1"",""6330""
","
","","","","","","null","<div style=""font-size:60px;"">+</div>","null","","fixation","","","","","","","","","","",""
"aa-learning-trial","105","510767","0.0-9.0-2.0-1.16","7909","1","12","Female","approach_avoid_spark_v1","""event"",""trial"",""time""
""fullscreenenter"",""1"",""6330""
","
","
","""event"",""trial"",""time""
""fullscreenenter"",""1"",""6330""
","
","","","","","","1393.5999999642372","images/cactus4.png","","","learning","[-1]","0","0","0","cactus","plants","1","0","","neutral","0"
"html-keyboard-response","106","511268","0.0-9.0-2.0-0.17","7909","1","12","Female","approach_avoid_spark_v1","""event"",""trial"",""time""
""fullscreenenter"",""1"",""6330""
","
","
","""event"",""trial"",""time""
""fullscreenenter"",""1"",""6330""
","
","","","","","","null","<div style=""font-size:60px;"">+</div>","null","","fixation","","","","","","","","","","",""
"aa-learning-trial","107","514271","0.0-9.0-2.0-1.17","7909","1","12","Female","approach_avoid_spark_v1","""event"",""trial"",""time""
""fullscreenenter"",""1"",""6330""
","
","
","""event"",""trial"",""time""
""fullscreenenter"",""1"",""6330""
","
","","","","","","1064","images/cactus5.png","","","learning","-1","-1","1","1","cactus","plants","1","0","","neutral","0"
"html-keyboard-response","108","514773","0.0-9.0-2.0-0.18","7909","1","12","Female","approach_avoid_spark_v1","""event"",""trial"",""time""
""fullscreenenter"",""1"",""6330""
","
","
","""event"",""trial"",""time""
""fullscreenenter"",""1"",""6330""
","
","","","","","","null","<div style=""font-size:60px;"">+</div>","null","","fixation","","","","","","","","","","",""
"aa-learning-trial","109","517777","0.0-9.0-2.0-1.18","7909","1","12","Female","approach_avoid_spark_v1","""event"",""trial"",""time""
""fullscreenenter"",""1"",""6330""
","
","
","""event"",""trial"",""time""
""fullscreenenter"",""1"",""6330""
","
","","","","","","1295.7000000476837","images/flower3.png","","","learning","-1","0","0","0","flower","plants","1","0","","bad","[-5]"
"html-keyboard-response","110","518279","0.0-9.0-2.0-0.19","7909","1","12","Female","approach_avoid_spark_v1","""event"",""trial"",""time""
""fullscreenenter"",""1"",""6330""
","
","
","""event"",""trial"",""time""
""fullscreenenter"",""1"",""6330""
","
","","","","","","null","<div style=""font-size:60px;"">+</div>","null","","fixation","","","","","","","","","","",""
"aa-learning-trial","111","521283","0.0-9.0-2.0-1.19","7909","1","12","Female","approach_avoid_spark_v1","""event"",""trial"",""time""
""fullscreenenter"",""1"",""6330""
","
","
","""event"",""trial"",""time""
""fullscreenenter"",""1"",""6330""
","
","","","","","","1444.8999999761581","images/cactus4.png","","","learning","[1]","0","0","0","cactus","plants","1","0","","neutral","0"
"html-keyboard-response","112","521784","0.0-9.0-2.0-0.20","7909","1","12","Female","approach_avoid_spark_v1","""event"",""trial"",""time""
""fullscreenenter"",""1"",""6330""
","
","
","""event"",""trial"",""time""
""fullscreenenter"",""1"",""6330""
","
","","","","","","null","<div style=""font-size:60px;"">+</div>","null","","fixation","","","","","","","","","","",""
"aa-learning-trial","113","524788","0.0-9.0-2.0-1.20","7909","1","12","Female","approach_avoid_spark_v1","""event"",""trial"",""time""
""fullscreenenter"",""1"",""6330""
","
","
","""event"",""trial"",""time""
""fullscreenenter"",""1"",""6330""
","
","","","","","","1266.5","images/cactus8.png","","","learning","-2","0","0","0","cactus","plants","1","0","","neutral","0"
"html-keyboard-response","114","525289","0.0-9.0-2.0-0.21","7909","1","12","Female","approach_avoid_spark_v1","""event"",""trial"",""time""
""fullscreenenter"",""1"",""6330""
","
","
","""event"",""trial"",""time""
""fullscreenenter"",""1"",""6330""
","
","","","","","","null","<div style=""font-size:60px;"">+</div>","null","","fixation","","","","","","","","","","",""
"aa-learning-trial","115","528292","0.0-9.0-2.0-1.21","7909","1","12","Female","approach_avoid_spark_v1","""event"",""trial"",""time""
""fullscreenenter"",""1"",""6330""
","
","
","""event"",""trial"",""time""
""fullscreenenter"",""1"",""6330""
","
","","","","","","1243.4000000357628","images/tree5.png","","","learning","3","3","1","1","tree","plants","1","0","","good","[4]"
"html-keyboard-response","116","528793","0.0-9.0-2.0-0.22","7909","1","12","Female","approach_avoid_spark_v1","""event"",""trial"",""time""
""fullscreenenter"",""1"",""6330""
","
","
","""event"",""trial"",""time""
""fullscreenenter"",""1"",""6330""
","
","","","","","","null","<div style=""font-size:60px;"">+</div>","null","","fixation","","","","","","","","","","",""
"aa-learning-trial","117","531798","0.0-9.0-2.0-1.22","7909","1","12","Female","approach_avoid_spark_v1","""event"",""trial"",""time""
""fullscreenenter"",""1"",""6330""
","
","
","""event"",""trial"",""time""
""fullscreenenter"",""1"",""6330""
","
","","","","","","692.2000000476837","images/tree5.png","","","learning","5","5","1","1","tree","plants","1","0","","good","[4]"
"html-keyboard-response","118","532299","0.0-9.0-2.0-0.23","7909","1","12","Female","approach_avoid_spark_v1","""event"",""trial"",""time""
""fullscreenenter"",""1"",""6330""
","
","
","""event"",""trial"",""time""
""fullscreenenter"",""1"",""6330""
","
","","","","","","null","<div style=""font-size:60px;"">+</div>","null","","fixation","","","","","","","","","","",""
"aa-learning-trial","119","535303","0.0-9.0-2.0-1.23","7909","1","12","Female","approach_avoid_spark_v1","""event"",""trial"",""time""
""fullscreenenter"",""1"",""6330""
","
","
","""event"",""trial"",""time""
""fullscreenenter"",""1"",""6330""
","
","","","","","","1252.3999999761581","images/tree7.png","","","learning","3","0","0","0","tree","plants","1","0","","good","[4]"
"html-keyboard-response","120","535813","0.0-9.0-2.0-0.24","7909","1","12","Female","approach_avoid_spark_v1","""event"",""trial"",""time""
""fullscreenenter"",""1"",""6330""
","
","
","""event"",""trial"",""time""
""fullscreenenter"",""1"",""6330""
","
","","","","","","null","<div style=""font-size:60px;"">+</div>","null","","fixation","","","","","","","","","","",""
"aa-learning-trial","121","538817","0.0-9.0-2.0-1.24","7909","1","12","Female","approach_avoid_spark_v1","""event"",""trial"",""time""
""fullscreenenter"",""1"",""6330""
","
","
","""event"",""trial"",""time""
""fullscreenenter"",""1"",""6330""
","
","","","","","","643.5","images/tree7.png","","","learning","3","3","1","1","tree","plants","1","0","","good","[4]"
"html-keyboard-response","122","539318","0.0-9.0-2.0-0.25","7909","1","12","Female","approach_avoid_spark_v1","""event"",""trial"",""time""
""fullscreenenter"",""1"",""6330""
","
","
","""event"",""trial"",""time""
""fullscreenenter"",""1"",""6330""
","
","","","","","","null","<div style=""font-size:60px;"">+</div>","null","","fixation","","","","","","","","","","",""
"aa-learning-trial","123","542320","0.0-9.0-2.0-1.25","7909","1","12","Female","approach_avoid_spark_v1","""event"",""trial"",""time""
""fullscreenenter"",""1"",""6330""
","
","
","""event"",""trial"",""time""
""fullscreenenter"",""1"",""6330""
","
","","","","","","921.1000000238419","images/flower7.png","","","learning","-7","0","0","0","flower","plants","1","0","","bad","[-5]"
"html-keyboard-response","124","542823","0.0-9.0-2.0-0.26","7909","1","12","Female","approach_avoid_spark_v1","""event"",""trial"",""time""
""fullscreenenter"",""1"",""6330""
","
","
","""event"",""trial"",""time""
""fullscreenenter"",""1"",""6330""
","
","","","","","","null","<div style=""font-size:60px;"">+</div>","null","","fixation","","","","","","","","","","",""
"aa-learning-trial","125","545825","0.0-9.0-2.0-1.26","7909","1","12","Female","approach_avoid_spark_v1","""event"",""trial"",""time""
""fullscreenenter"",""1"",""6330""
","
","
","""event"",""trial"",""time""
""fullscreenenter"",""1"",""6330""
","
","","","","","","1462.0999999642372","images/cactus4.png","","","learning","[1]","0","0","0","cactus","plants","1","0","","neutral","0"
"html-keyboard-response","126","546327","0.0-9.0-2.0-0.27","7909","1","12","Female","approach_avoid_spark_v1","""event"",""trial"",""time""
""fullscreenenter"",""1"",""6330""
","
","
","""event"",""trial"",""time""
""fullscreenenter"",""1"",""6330""
","
","","","","","","null","<div style=""font-size:60px;"">+</div>","null","","fixation","","","","","","","","","","",""
"aa-learning-trial","127","549331","0.0-9.0-2.0-1.27","7909","1","12","Female","approach_avoid_spark_v1","""event"",""trial"",""time""
""fullscreenenter"",""1"",""6330""
","
","
","""event"",""trial"",""time""
""fullscreenenter"",""1"",""6330""
","
","","","","","","1472.3999999761581","images/cactus5.png","","","learning","[1]","1","1","1","cactus","plants","1","0","","neutral","0"
"html-keyboard-response","128","549832","0.0-9.0-2.0-0.28","7909","1","12","Female","approach_avoid_spark_v1","""event"",""trial"",""time""
""fullscreenenter"",""1"",""6330""
","
","
","""event"",""trial"",""time""
""fullscreenenter"",""1"",""6330""
","
","","","","","","null","<div style=""font-size:60px;"">+</div>","null","","fixation","","","","","","","","","","",""
"aa-learning-trial","129","552836","0.0-9.0-2.0-1.28","7909","1","12","Female","approach_avoid_spark_v1","""event"",""trial"",""time""
""fullscreenenter"",""1"",""6330""
","
","
","""event"",""trial"",""time""
""fullscreenenter"",""1"",""6330""
","
","","","","","","784.5999999642372","images/flower3.png","","","learning","-6","0","0","0","flower","plants","1","0","","bad","[-5]"
"html-keyboard-response","130","553338","0.0-9.0-2.0-0.29","7909","1","12","Female","approach_avoid_spark_v1","""event"",""trial"",""time""
""fullscreenenter"",""1"",""6330""
","
","
","""event"",""trial"",""time""
""fullscreenenter"",""1"",""6330""
","
","","","","","","null","<div style=""font-size:60px;"">+</div>","null","","fixation","","","","","","","","","","",""
"aa-learning-trial","131","556341","0.0-9.0-2.0-1.29","7909","1","12","Female","approach_avoid_spark_v1","""event"",""trial"",""time""
""fullscreenenter"",""1"",""6330""
","
","
","""event"",""trial"",""time""
""fullscreenenter"",""1"",""6330""
","
","","","","","","680.8000000119209","images/flower7.png","","","learning","-2","0","0","0","flower","plants","1","0","","bad","[-5]"
"html-keyboard-response","132","556842","0.0-9.0-2.0-0.30","7909","1","12","Female","approach_avoid_spark_v1","""event"",""trial"",""time""
""fullscreenenter"",""1"",""6330""
","
","
","""event"",""trial"",""time""
""fullscreenenter"",""1"",""6330""
","
","","","","","","null","<div style=""font-size:60px;"">+</div>","null","","fixation","","","","","","","","","","",""
"aa-learning-trial","133","559846","0.0-9.0-2.0-1.30","7909","1","12","Female","approach_avoid_spark_v1","""event"",""trial"",""time""
""fullscreenenter"",""1"",""6330""
","
","
","""event"",""trial"",""time""
""fullscreenenter"",""1"",""6330""
","
","","","","","","773.3000000119209","images/flower8.png","","","learning","-7","0","0","0","flower","plants","1","0","","bad","[-5]"
"html-keyboard-response","134","560349","0.0-9.0-2.0-0.31","7909","1","12","Female","approach_avoid_spark_v1","""event"",""trial"",""time""
""fullscreenenter"",""1"",""6330""
","
","
","""event"",""trial"",""time""
""fullscreenenter"",""1"",""6330""
","
","","","","","","null","<div style=""font-size:60px;"">+</div>","null","","fixation","","","","","","","","","","",""
"aa-learning-trial","135","563352","0.0-9.0-2.0-1.31","7909","1","12","Female","approach_avoid_spark_v1","""event"",""trial"",""time""
""fullscreenenter"",""1"",""6330""
","
","
","""event"",""trial"",""time""
""fullscreenenter"",""1"",""6330""
","
","","","","","","1252.300000011921","images/tree6.png","","","learning","1","1","1","1","tree","plants","1","0","","good","[4]"
"html-keyboard-response","136","563853","0.0-9.0-2.0-0.32","7909","1","12","Female","approach_avoid_spark_v1","""event"",""trial"",""time""
""fullscreenenter"",""1"",""6330""
","
","
","""event"",""trial"",""time""
""fullscreenenter"",""1"",""6330""
","
","","","","","","null","<div style=""font-size:60px;"">+</div>","null","","fixation","","","","","","","","","","",""
"aa-learning-trial","137","566857","0.0-9.0-2.0-1.32","7909","1","12","Female","approach_avoid_spark_v1","""event"",""trial"",""time""
""fullscreenenter"",""1"",""6330""
","
","
","""event"",""trial"",""time""
""fullscreenenter"",""1"",""6330""
","
","","","","","","1260.0999999642372","images/tree2.png","","","learning","2","0","0","0","tree","plants","1","0","","good","[4]"
"html-keyboard-response","138","567359","0.0-9.0-2.0-0.33","7909","1","12","Female","approach_avoid_spark_v1","""event"",""trial"",""time""
""fullscreenenter"",""1"",""6330""
","
","
","""event"",""trial"",""time""
""fullscreenenter"",""1"",""6330""
","
","","","","","","null","<div style=""font-size:60px;"">+</div>","null","","fixation","","","","","","","","","","",""
"aa-learning-trial","139","570362","0.0-9.0-2.0-1.33","7909","1","12","Female","approach_avoid_spark_v1","""event"",""trial"",""time""
""fullscreenenter"",""1"",""6330""
","
","
","""event"",""trial"",""time""
""fullscreenenter"",""1"",""6330""
","
","","","","","","1116.2000000476837","images/cactus4.png","","","learning","-1","0","0","0","cactus","plants","1","0","","neutral","0"
"html-keyboard-response","140","570865","0.0-9.0-2.0-0.34","7909","1","12","Female","approach_avoid_spark_v1","""event"",""trial"",""time""
""fullscreenenter"",""1"",""6330""
","
","
","""event"",""trial"",""time""
""fullscreenenter"",""1"",""6330""
","
","","","","","","null","<div style=""font-size:60px;"">+</div>","null","","fixation","","","","","","","","","","",""
"aa-learning-trial","141","573868","0.0-9.0-2.0-1.34","7909","1","12","Female","approach_avoid_spark_v1","""event"",""trial"",""time""
""fullscreenenter"",""1"",""6330""
","
","
","""event"",""trial"",""time""
""fullscreenenter"",""1"",""6330""
","
","","","","","","956.6999999880791","images/cactus1.png","","","learning","1","1","1","1","cactus","plants","1","0","","neutral","0"
"html-keyboard-response","142","574370","0.0-9.0-2.0-0.35","7909","1","12","Female","approach_avoid_spark_v1","""event"",""trial"",""time""
""fullscreenenter"",""1"",""6330""
","
","
","""event"",""trial"",""time""
""fullscreenenter"",""1"",""6330""
","
","","","","","","null","<div style=""font-size:60px;"">+</div>","null","","fixation","","","","","","","","","","",""
"aa-learning-trial","143","577373","0.0-9.0-2.0-1.35","7909","1","12","Female","approach_avoid_spark_v1","""event"",""trial"",""time""
""fullscreenenter"",""1"",""6330""
","
","
","""event"",""trial"",""time""
""fullscreenenter"",""1"",""6330""
","
","","","","","","888.1000000238419","images/tree7.png","","","learning","1","1","1","1","tree","plants","1","0","","good","[4]"
"html-keyboard-response","144","577875","0.0-9.0-2.0-0.36","7909","1","12","Female","approach_avoid_spark_v1","""event"",""trial"",""time""
""fullscreenenter"",""1"",""6330""
","
","
","""event"",""trial"",""time""
""fullscreenenter"",""1"",""6330""
","
","","","","","","null","<div style=""font-size:60px;"">+</div>","null","","fixation","","","","","","","","","","",""
"aa-learning-trial","145","580878","0.0-9.0-2.0-1.36","7909","1","12","Female","approach_avoid_spark_v1","""event"",""trial"",""time""
""fullscreenenter"",""1"",""6330""
","
","
","""event"",""trial"",""time""
""fullscreenenter"",""1"",""6330""
","
","","","","","","785.1000000238419","images/flower4.png","","","learning","-5","0","0","0","flower","plants","1","0","","bad","[-5]"
"html-keyboard-response","146","581379","0.0-9.0-2.0-0.37","7909","1","12","Female","approach_avoid_spark_v1","""event"",""trial"",""time""
""fullscreenenter"",""1"",""6330""
","
","
","""event"",""trial"",""time""
""fullscreenenter"",""1"",""6330""
","
","","","","","","null","<div style=""font-size:60px;"">+</div>","null","","fixation","","","","","","","","","","",""
"aa-learning-trial","147","584382","0.0-9.0-2.0-1.37","7909","1","12","Female","approach_avoid_spark_v1","""event"",""trial"",""time""
""fullscreenenter"",""1"",""6330""
","
","
","""event"",""trial"",""time""
""fullscreenenter"",""1"",""6330""
","
","","","","","","702.1000000238419","images/flower4.png","","","learning","-4","0","0","0","flower","plants","1","0","","bad","[-5]"
"html-keyboard-response","148","584884","0.0-9.0-2.0-0.38","7909","1","12","Female","approach_avoid_spark_v1","""event"",""trial"",""time""
""fullscreenenter"",""1"",""6330""
","
","
","""event"",""trial"",""time""
""fullscreenenter"",""1"",""6330""
","
","","","","","","null","<div style=""font-size:60px;"">+</div>","null","","fixation","","","","","","","","","","",""
"aa-learning-trial","149","587888","0.0-9.0-2.0-1.38","7909","1","12","Female","approach_avoid_spark_v1","""event"",""trial"",""time""
""fullscreenenter"",""1"",""6330""
","
","
","""event"",""trial"",""time""
""fullscreenenter"",""1"",""6330""
","
","","","","","","946.5","images/cactus7.png","","","learning","-1","0","0","0","cactus","plants","1","0","","neutral","0"
"html-keyboard-response","150","588390","0.0-9.0-2.0-0.39","7909","1","12","Female","approach_avoid_spark_v1","""event"",""trial"",""time""
""fullscreenenter"",""1"",""6330""
","
","
","""event"",""trial"",""time""
""fullscreenenter"",""1"",""6330""
","
","","","","","","null","<div style=""font-size:60px;"">+</div>","null","","fixation","","","","","","","","","","",""
"aa-learning-trial","151","591394","0.0-9.0-2.0-1.39","7909","1","12","Female","approach_avoid_spark_v1","""event"",""trial"",""time""
""fullscreenenter"",""1"",""6330""
","
","
","""event"",""trial"",""time""
""fullscreenenter"",""1"",""6330""
","
","","","","","","1023.3000000119209","images/tree2.png","","","learning","4","4","1","1","tree","plants","1","0","","good","[4]"
"html-keyboard-response","152","591895","0.0-9.0-2.0-0.40","7909","1","12","Female","approach_avoid_spark_v1","""event"",""trial"",""time""
""fullscreenenter"",""1"",""6330""
","
","
","""event"",""trial"",""time""
""fullscreenenter"",""1"",""6330""
","
","","","","","","null","<div style=""font-size:60px;"">+</div>","null","","fixation","","","","","","","","","","",""
"aa-learning-trial","153","594899","0.0-9.0-2.0-1.40","7909","1","12","Female","approach_avoid_spark_v1","""event"",""trial"",""time""
""fullscreenenter"",""1"",""6330""
","
","
","""event"",""trial"",""time""
""fullscreenenter"",""1"",""6330""
","
","","","","","","629.0999999642372","images/tree2.png","","","learning","4","4","1","1","tree","plants","1","0","","good","[4]"
"html-keyboard-response","154","595401","0.0-9.0-2.0-0.41","7909","1","12","Female","approach_avoid_spark_v1","""event"",""trial"",""time""
""fullscreenenter"",""1"",""6330""
","
","
","""event"",""trial"",""time""
""fullscreenenter"",""1"",""6330""
","
","","","","","","null","<div style=""font-size:60px;"">+</div>","null","","fixation","","","","","","","","","","",""
"aa-learning-trial","155","598404","0.0-9.0-2.0-1.41","7909","1","12","Female","approach_avoid_spark_v1","""event"",""trial"",""time""
""fullscreenenter"",""1"",""6330""
","
","
","""event"",""trial"",""time""
""fullscreenenter"",""1"",""6330""
","
","","","","","","650.8999999761581","images/flower7.png","","","learning","-3","0","0","0","flower","plants","1","0","","bad","[-5]"
"html-keyboard-response","156","598905","0.0-9.0-2.0-0.42","7909","1","12","Female","approach_avoid_spark_v1","""event"",""trial"",""time""
""fullscreenenter"",""1"",""6330""
","
","
","""event"",""trial"",""time""
""fullscreenenter"",""1"",""6330""
","
","","","","","","null","<div style=""font-size:60px;"">+</div>","null","","fixation","","","","","","","","","","",""
"aa-learning-trial","157","601909","0.0-9.0-2.0-1.42","7909","1","12","Female","approach_avoid_spark_v1","""event"",""trial"",""time""
""fullscreenenter"",""1"",""6330""
","
","
","""event"",""trial"",""time""
""fullscreenenter"",""1"",""6330""
","
","","","","","","568.5","images/flower7.png","","","learning","-8","0","0","0","flower","plants","1","0","","bad","[-5]"
"html-keyboard-response","158","602410","0.0-9.0-2.0-0.43","7909","1","12","Female","approach_avoid_spark_v1","""event"",""trial"",""time""
""fullscreenenter"",""1"",""6330""
","
","
","""event"",""trial"",""time""
""fullscreenenter"",""1"",""6330""
","
","","","","","","null","<div style=""font-size:60px;"">+</div>","null","","fixation","","","","","","","","","","",""
"aa-learning-trial","159","605414","0.0-9.0-2.0-1.43","7909","1","12","Female","approach_avoid_spark_v1","""event"",""trial"",""time""
""fullscreenenter"",""1"",""6330""
","
","
","""event"",""trial"",""time""
""fullscreenenter"",""1"",""6330""
","
","","","","","","1213.5","images/cactus5.png","","","learning","-2","0","0","0","cactus","plants","1","0","","neutral","0"
"html-keyboard-response","160","605916","0.0-9.0-2.0-0.44","7909","1","12","Female","approach_avoid_spark_v1","""event"",""trial"",""time""
""fullscreenenter"",""1"",""6330""
","
","
","""event"",""trial"",""time""
""fullscreenenter"",""1"",""6330""
","
","","","","","","null","<div style=""font-size:60px;"">+</div>","null","","fixation","","","","","","","","","","",""
"aa-learning-trial","161","608921","0.0-9.0-2.0-1.44","7909","1","12","Female","approach_avoid_spark_v1","""event"",""trial"",""time""
""fullscreenenter"",""1"",""6330""
","
","
","""event"",""trial"",""time""
""fullscreenenter"",""1"",""6330""
","
","","","","","","678.7000000476837","images/tree7.png","","","learning","4","4","1","1","tree","plants","1","0","","good","[4]"
"html-keyboard-response","162","609423","0.0-9.0-2.0-0.45","7909","1","12","Female","approach_avoid_spark_v1","""event"",""trial"",""time""
""fullscreenenter"",""1"",""6330""
","
","
","""event"",""trial"",""time""
""fullscreenenter"",""1"",""6330""
","
","","","","","","null","<div style=""font-size:60px;"">+</div>","null","","fixation","","","","","","","","","","",""
"aa-learning-trial","163","612426","0.0-9.0-2.0-1.45","7909","1","12","Female","approach_avoid_spark_v1","""event"",""trial"",""time""
""fullscreenenter"",""1"",""6330""
","
","
","""event"",""trial"",""time""
""fullscreenenter"",""1"",""6330""
","
","","","","","","835.3000000119209","images/tree1.png","","","learning","5","0","0","0","tree","plants","1","0","","good","[4]"
"html-keyboard-response","164","612927","0.0-9.0-2.0-0.46","7909","1","12","Female","approach_avoid_spark_v1","""event"",""trial"",""time""
""fullscreenenter"",""1"",""6330""
","
","
","""event"",""trial"",""time""
""fullscreenenter"",""1"",""6330""
","
","","","","","","null","<div style=""font-size:60px;"">+</div>","null","","fixation","","","","","","","","","","",""
"aa-learning-trial","165","615931","0.0-9.0-2.0-1.46","7909","1","12","Female","approach_avoid_spark_v1","""event"",""trial"",""time""
""fullscreenenter"",""1"",""6330""
","
","
","""event"",""trial"",""time""
""fullscreenenter"",""1"",""6330""
","
","","","","","","891.1999999880791","images/cactus8.png","","","learning","1","1","1","1","cactus","plants","1","0","","neutral","0"
"html-keyboard-response","166","616432","0.0-9.0-2.0-0.47","7909","1","12","Female","approach_avoid_spark_v1","""event"",""trial"",""time""
""fullscreenenter"",""1"",""6330""
","
","
","""event"",""trial"",""time""
""fullscreenenter"",""1"",""6330""
","
","","","","","","null","<div style=""font-size:60px;"">+</div>","null","","fixation","","","","","","","","","","",""
"aa-learning-trial","167","619436","0.0-9.0-2.0-1.47","7909","1","12","Female","approach_avoid_spark_v1","""event"",""trial"",""time""
""fullscreenenter"",""1"",""6330""
","
","
","""event"",""trial"",""time""
""fullscreenenter"",""1"",""6330""
","
","","","","","","681.8000000119209","images/flower1.png","","","learning","-4","0","0","0","flower","plants","1","0","","bad","[-5]"
"html-keyboard-response","168","619937","0.0-9.0-2.0-0.48","7909","1","12","Female","approach_avoid_spark_v1","""event"",""trial"",""time""
""fullscreenenter"",""1"",""6330""
","
","
","""event"",""trial"",""time""
""fullscreenenter"",""1"",""6330""
","
","","","","","","null","<div style=""font-size:60px;"">+</div>","null","","fixation","","","","","","","","","","",""
"aa-learning-trial","169","622941","0.0-9.0-2.0-1.48","7909","1","12","Female","approach_avoid_spark_v1","""event"",""trial"",""time""
""fullscreenenter"",""1"",""6330""
","
","
","""event"",""trial"",""time""
""fullscreenenter"",""1"",""6330""
","
","","","","","","583.8000000119209","images/flower4.png","","","learning","-3","0","0","0","flower","plants","1","0","","bad","[-5]"
"html-keyboard-response","170","623444","0.0-9.0-2.0-0.49","7909","1","12","Female","approach_avoid_spark_v1","""event"",""trial"",""time""
""fullscreenenter"",""1"",""6330""
","
","
","""event"",""trial"",""time""
""fullscreenenter"",""1"",""6330""
","
","","","","","","null","<div style=""font-size:60px;"">+</div>","null","","fixation","","","","","","","","","","",""
"aa-learning-trial","171","626447","0.0-9.0-2.0-1.49","7909","1","12","Female","approach_avoid_spark_v1","""event"",""trial"",""time""
""fullscreenenter"",""1"",""6330""
","
","
","""event"",""trial"",""time""
""fullscreenenter"",""1"",""6330""
","
","","","","","","883.2999999523163","images/cactus5.png","","","learning","1","1","1","1","cactus","plants","1","0","","neutral","0"
"html-keyboard-response","172","626948","0.0-9.0-2.0-0.50","7909","1","12","Female","approach_avoid_spark_v1","""event"",""trial"",""time""
""fullscreenenter"",""1"",""6330""
","
","
","""event"",""trial"",""time""
""fullscreenenter"",""1"",""6330""
","
","","","","","","null","<div style=""font-size:60px;"">+</div>","null","","fixation","","","","","","","","","","",""
"aa-learning-trial","173","629952","0.0-9.0-2.0-1.50","7909","1","12","Female","approach_avoid_spark_v1","""event"",""trial"",""time""
""fullscreenenter"",""1"",""6330""
","
","
","""event"",""trial"",""time""
""fullscreenenter"",""1"",""6330""
","
","","","","","","1054.5","images/tree2.png","","","learning","2","2","1","1","tree","plants","1","0","","good","[4]"
"html-button-response","174","637175","0.0-9.0-3.0","7909","1","12","Female","approach_avoid_spark_v1","""event"",""trial"",""time""
""fullscreenenter"",""1"",""6330""
","
","
","""event"",""trial"",""time""
""fullscreenenter"",""1"",""6330""
","
","","","","","","7221.399999976158","<p> You have completed the round! <p> In this round, you earned 24 points! </p>","0","","break","","","","","","","","","","",""
"html-button-response","175","639343","0.0-10.0","7909","1","12","Female","approach_avoid_spark_v1","""event"",""trial"",""time""
""fullscreenenter"",""1"",""6330""
","
","
","""event"",""trial"",""time""
""fullscreenenter"",""1"",""6330""
","
","","","","","","2166.5","<p> Now it's time to play another round. </p>","0","","transition_screen","","","","","","","","","","",""
"preload","176","639469","0.0-11.0-0.0","7909","1","12","Female","approach_avoid_spark_v1","""event"",""trial"",""time""
""fullscreenenter"",""1"",""6330""
","
","
","""event"",""trial"",""time""
""fullscreenenter"",""1"",""6330""
","
","true","false","[]","[]","[]","","","","","","","","","","","","","","","",""
"learning-instructions","177","647305","0.0-11.0-1.0-0.0","7909","1","12","Female","approach_avoid_spark_v1","""event"",""trial"",""time""
""fullscreenenter"",""1"",""6330""
","
","
","""event"",""trial"",""time""
""fullscreenenter"",""1"",""6330""
","
","","","","","","2352.300000011921","<p> Your goal in this round is to decorate your friend's new house with furniture. </p></div>","","0","instructions","","","","","","","","","","",""
"learning-instructions","178","658473","0.0-11.0-1.0-0.1","7909","1","12","Female","approach_avoid_spark_v1","""event"",""trial"",""time""
""fullscreenenter"",""1"",""6330""
","
","
","""event"",""trial"",""time""
""fullscreenenter"",""1"",""6330""
","
","","","","","","1552.699999988079","<p> Your friend likes some pieces of furniture but not others.  </p><p> On each turn, you will see a piece of furniture.   </p><p> You need to decide whether to put it in your friend's house or not.  </p>","","0","instructions","","","","","","","","","","",""
"learning-instructions","179","665162","0.0-11.0-1.0-0.2","7909","1","12","Female","approach_avoid_spark_v1","""event"",""trial"",""time""
""fullscreenenter"",""1"",""6330""
","
","
","""event"",""trial"",""time""
""fullscreenenter"",""1"",""6330""
","
","","","","","","592.7000000476837","<p> You can put the furniture in her house by pressing 1 and deliver it elsewhere by pressing 0. </p><br><div class=""choice-instructions-grid""> <div class=""choice-option""><img src=""images/approach.png"" class=""choice-option-img"" stage=""instructions"" position=""0"" ><div class=""choice-option-text""> Press ""1."" </div></div><div class=""choice-option""><img src=""images/avoid.png"" class=""choice-option-img"" stage=""instructions"" position=""1"" ><div class=""choice-option-text""> Press ""0."" </div></div>","","0","instructions","","","","","","","","","","",""
"learning-instructions","180","675381","0.0-11.0-1.0-0.3","7909","1","12","Female","approach_avoid_spark_v1","""event"",""trial"",""time""
""fullscreenenter"",""1"",""6330""
","
","
","""event"",""trial"",""time""
""fullscreenenter"",""1"",""6330""
","
","","","","","","1340.300000011921","<p> If you decorate your friend's house with furniture she likes, she will be happy! </p><p> But if you give her furniture that she does not like, she will be annoyed. </p>","","0","instructions","","","","","","","","","","",""
"learning-instructions","181","689561","0.0-11.0-1.0-0.4","7909","1","12","Female","approach_avoid_spark_v1","""event"",""trial"",""time""
""fullscreenenter"",""1"",""6330""
","
","
","""event"",""trial"",""time""
""fullscreenenter"",""1"",""6330""
","
","","","","","","1739.2999999523163","<p> You will earn points based on how you made your friend feel. </p><p> If you made her happy, you will WIN anywhere from 1 - 9 points, </p><p> but if you made her annoyed you will LOSE anywhere from 1 - 9 points. </p>","","0","instructions","","","","","","","","","","",""
"learning-instructions","182","697122","0.0-11.0-1.0-0.5","7909","1","12","Female","approach_avoid_spark_v1","""event"",""trial"",""time""
""fullscreenenter"",""1"",""6330""
","
","
","""event"",""trial"",""time""
""fullscreenenter"",""1"",""6330""
","
","","","","","","905.8999999761581","<p> You will see how many points you won or lost in the center of the screen. </p><p> Here is what you would see if you won 5 points: </p><p style=""color:green;font-size:50px;font-weight:bolder"">5</p>","","0","instructions","","","","","","","","","","",""
"learning-instructions","183","700427","0.0-11.0-1.0-0.6","7909","1","12","Female","approach_avoid_spark_v1","""event"",""trial"",""time""
""fullscreenenter"",""1"",""6330""
","
","
","""event"",""trial"",""time""
""fullscreenenter"",""1"",""6330""
","
","","","","","","477.5","<p> And here is what you would see if you lost 3 points: </p><p style=""color:red;font-size:50px;font-weight:bolder"">-3</p>","","0","instructions","","","","","","","","","","",""
"learning-instructions","184","718893","0.0-11.0-1.0-0.7","7909","1","12","Female","approach_avoid_spark_v1","""event"",""trial"",""time""
""fullscreenenter"",""1"",""6330""
","
","
","""event"",""trial"",""time""
""fullscreenenter"",""1"",""6330""
","
","","","","","","788.8999999761581","<p> Some pieces of furniture will make her feel very happy or very annoyed. </p><p> These pieces of furniture will make you win or lose LOTS of points. </p><p> Other pieces of furniture will only make her feel a little happy or a little annoyed. </p><p> These pieces of furniture will make you win or lose small amounts of points. </p>","","0","instructions","","","","","","","","","","",""
"learning-instructions","185","737048","0.0-11.0-1.0-0.8","7909","1","12","Female","approach_avoid_spark_v1","""event"",""trial"",""time""
""fullscreenenter"",""1"",""6330""
","
","
","""event"",""trial"",""time""
""fullscreenenter"",""1"",""6330""
","
","","","","","","4916.399999976158","<p> If you choose to deliver a piece of furniture elsewhere, you will not win or lose any points. </p><p>  However, in the center of the screen, you will see the number of points you WOULD HAVE won or lost if you had given the furniture to your friend. </p>","","0","instructions","","","","","","","","","","",""
"learning-instructions","186","752133","0.0-11.0-1.0-0.9","7909","1","12","Female","approach_avoid_spark_v1","""event"",""trial"",""time""
""fullscreenenter"",""1"",""6330""
","
","
","""event"",""trial"",""time""
""fullscreenenter"",""1"",""6330""
","
","","","","","","3617.699999988079","<p> Here is what you might see if you did not give a piece of furniture to your friend that would have made her happy: </p><p style=""color:grey; font-size:50px; display: inline-block; border-spacing: 15px; border-width:3px; border-style:solid; border-color:red"">  &nbsp; 6 &nbsp; </p><p> Remember, in this case, you would not win or lose ANY points because you did not give her the furniture.  </p>","","0","instructions","","","","","","","","","","",""
"learning-instructions","187","761013","0.0-11.0-1.0-0.10","7909","1","12","Female","approach_avoid_spark_v1","""event"",""trial"",""time""
""fullscreenenter"",""1"",""6330""
","
","
","""event"",""trial"",""time""
""fullscreenenter"",""1"",""6330""
","
","","","","","","1489.800000011921","<p> Try to make the best choice for each piece of furniture because </p><p> at the end of the game, you will earn bonus money based on how many points you earned. </p>","","0","instructions","","","","","","","","","","",""
"learning-instructions","188","769800","0.0-11.0-1.0-0.11","7909","1","12","Female","approach_avoid_spark_v1","""event"",""trial"",""time""
""fullscreenenter"",""1"",""6330""
","
","
","""event"",""trial"",""time""
""fullscreenenter"",""1"",""6330""
","
","","","","","","601.5","<p> You will have 3 seconds to make each choice. Try to respond before time runs out! </p><p> You will lose 5 points each time you do not make a response. </p>","","0","instructions","","","","","","","","","","",""
"html-keyboard-response","189","770420","0.0-11.0-2.0-0.0","7909","1","12","Female","approach_avoid_spark_v1","""event"",""trial"",""time""
""fullscreenenter"",""1"",""6330""
","
","
","""event"",""trial"",""time""
""fullscreenenter"",""1"",""6330""
","
","","","","","","null","<div style=""font-size:60px;"">+</div>","null","","fixation","","","","","","","","","","",""
"aa-learning-trial","190","773439","0.0-11.0-2.0-1.0","7909","1","12","Female","approach_avoid_spark_v1","""event"",""trial"",""time""
""fullscreenenter"",""1"",""6330""
","
","
","""event"",""trial"",""time""
""fullscreenenter"",""1"",""6330""
","
","","","","","","919.8999999761581","images/chair5.png","","","learning","2","2","1","1","chair","furniture","2","1","","good","[6]"
"html-keyboard-response","191","773951","0.0-11.0-2.0-0.1","7909","1","12","Female","approach_avoid_spark_v1","""event"",""trial"",""time""
""fullscreenenter"",""1"",""6330""
","
","
","""event"",""trial"",""time""
""fullscreenenter"",""1"",""6330""
","
","","","","","","null","<div style=""font-size:60px;"">+</div>","null","","fixation","","","","","","","","","","",""
"aa-learning-trial","192","776963","0.0-11.0-2.0-1.1","7909","1","12","Female","approach_avoid_spark_v1","""event"",""trial"",""time""
""fullscreenenter"",""1"",""6330""
","
","
","""event"",""trial"",""time""
""fullscreenenter"",""1"",""6330""
","
","","","","","","665.8000000119209","images/bed3.png","","","learning","-9","0","0","0","bed","furniture","2","1","","neutral","0"
"html-keyboard-response","193","777474","0.0-11.0-2.0-0.2","7909","1","12","Female","approach_avoid_spark_v1","""event"",""trial"",""time""
""fullscreenenter"",""1"",""6330""
","
","
","""event"",""trial"",""time""
""fullscreenenter"",""1"",""6330""
","
","","","","","","null","<div style=""font-size:60px;"">+</div>","null","","fixation","","","","","","","","","","",""
"aa-learning-trial","194","780480","0.0-11.0-2.0-1.2","7909","1","12","Female","approach_avoid_spark_v1","""event"",""trial"",""time""
""fullscreenenter"",""1"",""6330""
","
","
","""event"",""trial"",""time""
""fullscreenenter"",""1"",""6330""
","
","","","","","","1083.6000000238419","images/bed7.png","","","learning","5","5","1","1","bed","furniture","2","1","","neutral","0"
"html-keyboard-response","195","780995","0.0-11.0-2.0-0.3","7909","1","12","Female","approach_avoid_spark_v1","""event"",""trial"",""time""
""fullscreenenter"",""1"",""6330""
","
","
","""event"",""trial"",""time""
""fullscreenenter"",""1"",""6330""
","
","","","","","","null","<div style=""font-size:60px;"">+</div>","null","","fixation","","","","","","","","","","",""
"aa-learning-trial","196","784008","0.0-11.0-2.0-1.3","7909","1","12","Female","approach_avoid_spark_v1","""event"",""trial"",""time""
""fullscreenenter"",""1"",""6330""
","
","
","""event"",""trial"",""time""
""fullscreenenter"",""1"",""6330""
","
","","","","","","1039.6000000238419","images/chair3.png","","","learning","-8","0","0","0","chair","furniture","2","1","","good","[6]"
"html-keyboard-response","197","784520","0.0-11.0-2.0-0.4","7909","1","12","Female","approach_avoid_spark_v1","""event"",""trial"",""time""
""fullscreenenter"",""1"",""6330""
","
","
","""event"",""trial"",""time""
""fullscreenenter"",""1"",""6330""
","
","","","","","","null","<div style=""font-size:60px;"">+</div>","null","","fixation","","","","","","","","","","",""
"aa-learning-trial","198","787535","0.0-11.0-2.0-1.4","7909","1","12","Female","approach_avoid_spark_v1","""event"",""trial"",""time""
""fullscreenenter"",""1"",""6330""
","
","
","""event"",""trial"",""time""
""fullscreenenter"",""1"",""6330""
","
","","","","","","914.0999999642372","images/sofa3.png","","","learning","3","0","0","0","sofa","furniture","2","1","","bad","[-3]"
"html-keyboard-response","199","788046","0.0-11.0-2.0-0.5","7909","1","12","Female","approach_avoid_spark_v1","""event"",""trial"",""time""
""fullscreenenter"",""1"",""6330""
","
","
","""event"",""trial"",""time""
""fullscreenenter"",""1"",""6330""
","
","","","","","","null","<div style=""font-size:60px;"">+</div>","null","","fixation","","","","","","","","","","",""
"aa-learning-trial","200","791056","0.0-11.0-2.0-1.5","7909","1","12","Female","approach_avoid_spark_v1","""event"",""trial"",""time""
""fullscreenenter"",""1"",""6330""
","
","
","""event"",""trial"",""time""
""fullscreenenter"",""1"",""6330""
","
","","","","","","750.5","images/chair5.png","","","learning","2","2","1","1","chair","furniture","2","1","","good","[6]"
"html-keyboard-response","201","791568","0.0-11.0-2.0-0.6","7909","1","12","Female","approach_avoid_spark_v1","""event"",""trial"",""time""
""fullscreenenter"",""1"",""6330""
","
","
","""event"",""trial"",""time""
""fullscreenenter"",""1"",""6330""
","
","","","","","","null","<div style=""font-size:60px;"">+</div>","null","","fixation","","","","","","","","","","",""
"aa-learning-trial","202","794576","0.0-11.0-2.0-1.6","7909","1","12","Female","approach_avoid_spark_v1","""event"",""trial"",""time""
""fullscreenenter"",""1"",""6330""
","
","
","""event"",""trial"",""time""
""fullscreenenter"",""1"",""6330""
","
","","","","","","889","images/sofa1.png","","","learning","-7","0","0","0","sofa","furniture","2","1","","bad","[-3]"
"html-keyboard-response","203","795087","0.0-11.0-2.0-0.7","7909","1","12","Female","approach_avoid_spark_v1","""event"",""trial"",""time""
""fullscreenenter"",""1"",""6330""
","
","
","""event"",""trial"",""time""
""fullscreenenter"",""1"",""6330""
","
","","","","","","null","<div style=""font-size:60px;"">+</div>","null","","fixation","","","","","","","","","","",""
"aa-learning-trial","204","798099","0.0-11.0-2.0-1.7","7909","1","12","Female","approach_avoid_spark_v1","""event"",""trial"",""time""
""fullscreenenter"",""1"",""6330""
","
","
","""event"",""trial"",""time""
""fullscreenenter"",""1"",""6330""
","
","","","","","","1331.5","images/bed3.png","","","learning","-9","0","0","0","bed","furniture","2","1","","neutral","0"
"html-keyboard-response","205","798612","0.0-11.0-2.0-0.8","7909","1","12","Female","approach_avoid_spark_v1","""event"",""trial"",""time""
""fullscreenenter"",""1"",""6330""
","
","
","""event"",""trial"",""time""
""fullscreenenter"",""1"",""6330""
","
","","","","","","null","<div style=""font-size:60px;"">+</div>","null","","fixation","","","","","","","","","","",""
"aa-learning-trial","206","801615","0.0-11.0-2.0-1.8","7909","1","12","Female","approach_avoid_spark_v1","""event"",""trial"",""time""
""fullscreenenter"",""1"",""6330""
","
","
","""event"",""trial"",""time""
""fullscreenenter"",""1"",""6330""
","
","","","","","","1062","images/chair7.png","","","learning","6","0","0","0","chair","furniture","2","1","","good","[6]"
"html-keyboard-response","207","802118","0.0-11.0-2.0-0.9","7909","1","12","Female","approach_avoid_spark_v1","""event"",""trial"",""time""
""fullscreenenter"",""1"",""6330""
","
","
","""event"",""trial"",""time""
""fullscreenenter"",""1"",""6330""
","
","","","","","","null","<div style=""font-size:60px;"">+</div>","null","","fixation","","","","","","","","","","",""
"aa-learning-trial","208","805121","0.0-11.0-2.0-1.9","7909","1","12","Female","approach_avoid_spark_v1","""event"",""trial"",""time""
""fullscreenenter"",""1"",""6330""
","
","
","""event"",""trial"",""time""
""fullscreenenter"",""1"",""6330""
","
","","","","","","728.7000000476837","images/sofa3.png","","","learning","3","3","1","1","sofa","furniture","2","1","","bad","[-3]"
"html-keyboard-response","209","805623","0.0-11.0-2.0-0.10","7909","1","12","Female","approach_avoid_spark_v1","""event"",""trial"",""time""
""fullscreenenter"",""1"",""6330""
","
","
","""event"",""trial"",""time""
""fullscreenenter"",""1"",""6330""
","
","","","","","","null","<div style=""font-size:60px;"">+</div>","null","","fixation","","","","","","","","","","",""
"aa-learning-trial","210","808626","0.0-11.0-2.0-1.10","7909","1","12","Female","approach_avoid_spark_v1","""event"",""trial"",""time""
""fullscreenenter"",""1"",""6330""
","
","
","""event"",""trial"",""time""
""fullscreenenter"",""1"",""6330""
","
","","","","","","1159.699999988079","images/chair7.png","","","learning","6","6","1","1","chair","furniture","2","1","","good","[6]"
"html-keyboard-response","211","809128","0.0-11.0-2.0-0.11","7909","1","12","Female","approach_avoid_spark_v1","""event"",""trial"",""time""
""fullscreenenter"",""1"",""6330""
","
","
","""event"",""trial"",""time""
""fullscreenenter"",""1"",""6330""
","
","","","","","","null","<div style=""font-size:60px;"">+</div>","null","","fixation","","","","","","","","","","",""
"aa-learning-trial","212","812131","0.0-11.0-2.0-1.11","7909","1","12","Female","approach_avoid_spark_v1","""event"",""trial"",""time""
""fullscreenenter"",""1"",""6330""
","
","
","""event"",""trial"",""time""
""fullscreenenter"",""1"",""6330""
","
","","","","","","805.1999999880791","images/sofa6.png","","","learning","-5","0","0","0","sofa","furniture","2","1","","bad","[-3]"
"html-keyboard-response","213","812632","0.0-11.0-2.0-0.12","7909","1","12","Female","approach_avoid_spark_v1","""event"",""trial"",""time""
""fullscreenenter"",""1"",""6330""
","
","
","""event"",""trial"",""time""
""fullscreenenter"",""1"",""6330""
","
","","","","","","null","<div style=""font-size:60px;"">+</div>","null","","fixation","","","","","","","","","","",""
"aa-learning-trial","214","815636","0.0-11.0-2.0-1.12","7909","1","12","Female","approach_avoid_spark_v1","""event"",""trial"",""time""
""fullscreenenter"",""1"",""6330""
","
","
","""event"",""trial"",""time""
""fullscreenenter"",""1"",""6330""
","
","","","","","","1017.9000000357628","images/bed5.png","","","learning","-1","0","0","0","bed","furniture","2","1","","neutral","0"
"html-keyboard-response","215","816137","0.0-11.0-2.0-0.13","7909","1","12","Female","approach_avoid_spark_v1","""event"",""trial"",""time""
""fullscreenenter"",""1"",""6330""
","
","
","""event"",""trial"",""time""
""fullscreenenter"",""1"",""6330""
","
","","","","","","null","<div style=""font-size:60px;"">+</div>","null","","fixation","","","","","","","","","","",""
"aa-learning-trial","216","819140","0.0-11.0-2.0-1.13","7909","1","12","Female","approach_avoid_spark_v1","""event"",""trial"",""time""
""fullscreenenter"",""1"",""6330""
","
","
","""event"",""trial"",""time""
""fullscreenenter"",""1"",""6330""
","
","","","","","","1529.0999999642372","images/sofa1.png","","","learning","-7","0","0","0","sofa","furniture","2","1","","bad","[-3]"
"html-keyboard-response","217","819642","0.0-11.0-2.0-0.14","7909","1","12","Female","approach_avoid_spark_v1","""event"",""trial"",""time""
""fullscreenenter"",""1"",""6330""
","
","
","""event"",""trial"",""time""
""fullscreenenter"",""1"",""6330""
","
","","","","","","null","<div style=""font-size:60px;"">+</div>","null","","fixation","","","","","","","","","","",""
"aa-learning-trial","218","822645","0.0-11.0-2.0-1.14","7909","1","12","Female","approach_avoid_spark_v1","""event"",""trial"",""time""
""fullscreenenter"",""1"",""6330""
","
","
","""event"",""trial"",""time""
""fullscreenenter"",""1"",""6330""
","
","","","","","","974.5999999642372","images/bed5.png","","","learning","-1","0","0","0","bed","furniture","2","1","","neutral","0"
"html-keyboard-response","219","823148","0.0-11.0-2.0-0.15","7909","1","12","Female","approach_avoid_spark_v1","""event"",""trial"",""time""
""fullscreenenter"",""1"",""6330""
","
","
","""event"",""trial"",""time""
""fullscreenenter"",""1"",""6330""
","
","","","","","","null","<div style=""font-size:60px;"">+</div>","null","","fixation","","","","","","","","","","",""
"aa-learning-trial","220","826151","0.0-11.0-2.0-1.15","7909","1","12","Female","approach_avoid_spark_v1","""event"",""trial"",""time""
""fullscreenenter"",""1"",""6330""
","
","
","""event"",""trial"",""time""
""fullscreenenter"",""1"",""6330""
","
","","","","","","897","images/bed7.png","","","learning","5","5","1","1","bed","furniture","2","1","","neutral","0"
"html-keyboard-response","221","826653","0.0-11.0-2.0-0.16","7909","1","12","Female","approach_avoid_spark_v1","""event"",""trial"",""time""
""fullscreenenter"",""1"",""6330""
","
","
","""event"",""trial"",""time""
""fullscreenenter"",""1"",""6330""
","
","","","","","","null","<div style=""font-size:60px;"">+</div>","null","","fixation","","","","","","","","","","",""
"aa-learning-trial","222","829656","0.0-11.0-2.0-1.16","7909","1","12","Female","approach_avoid_spark_v1","""event"",""trial"",""time""
""fullscreenenter"",""1"",""6330""
","
","
","""event"",""trial"",""time""
""fullscreenenter"",""1"",""6330""
","
","","","","","","1252.199999988079","images/sofa1.png","","","learning","-7","0","0","0","sofa","furniture","2","1","","bad","[-3]"
"html-keyboard-response","223","830158","0.0-11.0-2.0-0.17","7909","1","12","Female","approach_avoid_spark_v1","""event"",""trial"",""time""
""fullscreenenter"",""1"",""6330""
","
","
","""event"",""trial"",""time""
""fullscreenenter"",""1"",""6330""
","
","","","","","","null","<div style=""font-size:60px;"">+</div>","null","","fixation","","","","","","","","","","",""
"aa-learning-trial","224","833161","0.0-11.0-2.0-1.17","7909","1","12","Female","approach_avoid_spark_v1","""event"",""trial"",""time""
""fullscreenenter"",""1"",""6330""
","
","
","""event"",""trial"",""time""
""fullscreenenter"",""1"",""6330""
","
","","","","","","724","images/sofa1.png","","","learning","-7","0","0","0","sofa","furniture","2","1","","bad","[-3]"
"html-keyboard-response","225","833664","0.0-11.0-2.0-0.18","7909","1","12","Female","approach_avoid_spark_v1","""event"",""trial"",""time""
""fullscreenenter"",""1"",""6330""
","
","
","""event"",""trial"",""time""
""fullscreenenter"",""1"",""6330""
","
","","","","","","null","<div style=""font-size:60px;"">+</div>","null","","fixation","","","","","","","","","","",""
"aa-learning-trial","226","836668","0.0-11.0-2.0-1.18","7909","1","12","Female","approach_avoid_spark_v1","""event"",""trial"",""time""
""fullscreenenter"",""1"",""6330""
","
","
","""event"",""trial"",""time""
""fullscreenenter"",""1"",""6330""
","
","","","","","","1152.6000000238419","images/sofa6.png","","","learning","-5","0","0","0","sofa","furniture","2","1","","bad","[-3]"
"html-keyboard-response","227","837169","0.0-11.0-2.0-0.19","7909","1","12","Female","approach_avoid_spark_v1","""event"",""trial"",""time""
""fullscreenenter"",""1"",""6330""
","
","
","""event"",""trial"",""time""
""fullscreenenter"",""1"",""6330""
","
","","","","","","null","<div style=""font-size:60px;"">+</div>","null","","fixation","","","","","","","","","","",""
"aa-learning-trial","228","840173","0.0-11.0-2.0-1.19","7909","1","12","Female","approach_avoid_spark_v1","""event"",""trial"",""time""
""fullscreenenter"",""1"",""6330""
","
","
","""event"",""trial"",""time""
""fullscreenenter"",""1"",""6330""
","
","","","","","","744.5","images/sofa3.png","","","learning","3","3","1","1","sofa","furniture","2","1","","bad","[-3]"
"html-keyboard-response","229","840675","0.0-11.0-2.0-0.20","7909","1","12","Female","approach_avoid_spark_v1","""event"",""trial"",""time""
""fullscreenenter"",""1"",""6330""
","
","
","""event"",""trial"",""time""
""fullscreenenter"",""1"",""6330""
","
","","","","","","null","<div style=""font-size:60px;"">+</div>","null","","fixation","","","","","","","","","","",""
"aa-learning-trial","230","843678","0.0-11.0-2.0-1.20","7909","1","12","Female","approach_avoid_spark_v1","""event"",""trial"",""time""
""fullscreenenter"",""1"",""6330""
","
","
","""event"",""trial"",""time""
""fullscreenenter"",""1"",""6330""
","
","","","","","","945.4000000357628","images/chair3.png","","","learning","-8","0","0","0","chair","furniture","2","1","","good","[6]"
"html-keyboard-response","231","844179","0.0-11.0-2.0-0.21","7909","1","12","Female","approach_avoid_spark_v1","""event"",""trial"",""time""
""fullscreenenter"",""1"",""6330""
","
","
","""event"",""trial"",""time""
""fullscreenenter"",""1"",""6330""
","
","","","","","","null","<div style=""font-size:60px;"">+</div>","null","","fixation","","","","","","","","","","",""
"aa-learning-trial","232","847183","0.0-11.0-2.0-1.21","7909","1","12","Female","approach_avoid_spark_v1","""event"",""trial"",""time""
""fullscreenenter"",""1"",""6330""
","
","
","""event"",""trial"",""time""
""fullscreenenter"",""1"",""6330""
","
","","","","","","943.3999999761581","images/bed3.png","","","learning","-9","0","0","0","bed","furniture","2","1","","neutral","0"
"html-keyboard-response","233","847685","0.0-11.0-2.0-0.22","7909","1","12","Female","approach_avoid_spark_v1","""event"",""trial"",""time""
""fullscreenenter"",""1"",""6330""
","
","
","""event"",""trial"",""time""
""fullscreenenter"",""1"",""6330""
","
","","","","","","null","<div style=""font-size:60px;"">+</div>","null","","fixation","","","","","","","","","","",""
"aa-learning-trial","234","850689","0.0-11.0-2.0-1.22","7909","1","12","Female","approach_avoid_spark_v1","""event"",""trial"",""time""
""fullscreenenter"",""1"",""6330""
","
","
","""event"",""trial"",""time""
""fullscreenenter"",""1"",""6330""
","
","","","","","","663","images/chair7.png","","","learning","6","6","1","1","chair","furniture","2","1","","good","[6]"
"html-keyboard-response","235","851190","0.0-11.0-2.0-0.23","7909","1","12","Female","approach_avoid_spark_v1","""event"",""trial"",""time""
""fullscreenenter"",""1"",""6330""
","
","
","""event"",""trial"",""time""
""fullscreenenter"",""1"",""6330""
","
","","","","","","null","<div style=""font-size:60px;"">+</div>","null","","fixation","","","","","","","","","","",""
