"trial_type","trial_index","time_elapsed","internal_node_id","subject_id","task_condition","age","gender","task_version","interactions","blur_events","focus_events","fullscreenenter_events","fullscreenexit_events","success","timeout","failed_images","failed_audio","failed_video","rt","stimulus","response","button_pressed","task_part","approach_reward","points","key_press","option_selected","stim_cat","task_block","block_condition","block_number","correct","cat_type","mean_cat_reward"
"pavlovia","0","13","0.0-0.0","3768","2","8","Male","approach_avoid_spark_v1","""event"",""trial"",""time""
""focus"",""0"",""2""
""fullscreenenter"",""1"",""2392""
","
","""event"",""trial"",""time""
""focus"",""0"",""2""
","""event"",""trial"",""time""
""fullscreenenter"",""1"",""2392""
","
","","","","","","","","","","","","","","","","","","","","",""
"fullscreen","1","3362","0.0-1.0","3768","2","8","Male","approach_avoid_spark_v1","""event"",""trial"",""time""
""focus"",""0"",""2""
""fullscreenenter"",""1"",""2392""
","
","""event"",""trial"",""time""
""focus"",""0"",""2""
","""event"",""trial"",""time""
""fullscreenenter"",""1"",""2392""
","
","true","","","","","","","","","","","","","","","","","","","",""
"preload","2","32687","0.0-2.0","3768","2","8","Male","approach_avoid_spark_v1","""event"",""trial"",""time""
""focus"",""0"",""2""
""fullscreenenter"",""1"",""2392""
","
","""event"",""trial"",""time""
""focus"",""0"",""2""
","""event"",""trial"",""time""
""fullscreenenter"",""1"",""2392""
","
","true","false","[]","[]","[]","","","","","","","","","","","","","","","",""
"audio-keyboard-response","3","37444","0.0-3.0","3768","2","8","Male","approach_avoid_spark_v1","""event"",""trial"",""time""
""focus"",""0"",""2""
""fullscreenenter"",""1"",""2392""
","
","""event"",""trial"",""time""
""focus"",""0"",""2""
","""event"",""trial"",""time""
""fullscreenenter"",""1"",""2392""
","
","","","","","","4759.999999999998","audio/beep_loop.wav"," ","","","","","","","","","","","","",""
"audio-button-response","4","40759","0.0-4.0","3768","2","8","Male","approach_avoid_spark_v1","""event"",""trial"",""time""
""focus"",""0"",""2""
""fullscreenenter"",""1"",""2392""
","
","""event"",""trial"",""time""
""focus"",""0"",""2""
","""event"",""trial"",""time""
""fullscreenenter"",""1"",""2392""
","
","","","","","","3320","audio/shark.wav","4","","","","","","","","","","","","",""
"audio-button-response","5","43143","0.0-5.0","3768","2","8","Male","approach_avoid_spark_v1","""event"",""trial"",""time""
""focus"",""0"",""2""
""fullscreenenter"",""1"",""2392""
","
","""event"",""trial"",""time""
""focus"",""0"",""2""
","""event"",""trial"",""time""
""fullscreenenter"",""1"",""2392""
","
","","","","","","1379","audio/turtle.wav","1","","","","","","","","","","","","",""
"preload","6","53304","0.0-6.0","3768","2","8","Male","approach_avoid_spark_v1","""event"",""trial"",""time""
""focus"",""0"",""2""
""fullscreenenter"",""1"",""2392""
","
","""event"",""trial"",""time""
""focus"",""0"",""2""
","""event"",""trial"",""time""
""fullscreenenter"",""1"",""2392""
","
","true","false","[]","[]","[]","","","","","","","","","","","","","","","",""
"html-keyboard-response","7","55619","0.0-7.0","3768","2","8","Male","approach_avoid_spark_v1","""event"",""trial"",""time""
""focus"",""0"",""2""
""fullscreenenter"",""1"",""2392""
","
","""event"",""trial"",""time""
""focus"",""0"",""2""
","""event"",""trial"",""time""
""fullscreenenter"",""1"",""2392""
","
","","","","","","2315","Welcome to the experiment. Press any key to begin and to advance the instructions."," ","","","","","","","","","","","","",""
"learning-instructions","8","63910","0.0-8.0-0.0-0.0","3768","2","8","Male","approach_avoid_spark_v1","""event"",""trial"",""time""
""focus"",""0"",""2""
""fullscreenenter"",""1"",""2392""
","
","""event"",""trial"",""time""
""focus"",""0"",""2""
","""event"",""trial"",""time""
""fullscreenenter"",""1"",""2392""
","
","","","","","","1322","<p> Welcome! Today you are going to play 6 different rounds of a decision-making game. </p><p> Use the mouse to click next to continue. </p>","","0","instructions","","","","","","","","","","",""
"learning-instructions","9","67189","0.0-8.0-0.0-0.1","3768","2","8","Male","approach_avoid_spark_v1","""event"",""trial"",""time""
""focus"",""0"",""2""
""fullscreenenter"",""1"",""2392""
","
","""event"",""trial"",""time""
""focus"",""0"",""2""
","""event"",""trial"",""time""
""fullscreenenter"",""1"",""2392""
","
","","","","","","544","<p> You will start with a practice round to learn the rules. </p>","","0","instructions","","","","","","","","","","",""
"learning-instructions","10","71061","0.0-8.0-0.0-0.2","3768","2","8","Male","approach_avoid_spark_v1","""event"",""trial"",""time""
""focus"",""0"",""2""
""fullscreenenter"",""1"",""2392""
","
","""event"",""trial"",""time""
""focus"",""0"",""2""
","""event"",""trial"",""time""
""fullscreenenter"",""1"",""2392""
","
","","","","","","414","<p> Your goal in this round is to give out sports equipment to kids. </p></div>","","0","instructions","","","","","","","","","","",""
"learning-instructions","11","79071","0.0-8.0-0.0-0.3","3768","2","8","Male","approach_avoid_spark_v1","""event"",""trial"",""time""
""focus"",""0"",""2""
""fullscreenenter"",""1"",""2392""
","
","""event"",""trial"",""time""
""focus"",""0"",""2""
","""event"",""trial"",""time""
""fullscreenenter"",""1"",""2392""
","
","","","","","","444","<p> The kids only like some of the equipment.  </p><p> On each turn, you will see a piece of sports equipment.   </p><p> You need to decide whether to give it to the kids or not.  </p>","","0","instructions","","","","","","","","","","",""
"learning-instructions","12","85005","0.0-8.0-0.0-0.4","3768","2","8","Male","approach_avoid_spark_v1","""event"",""trial"",""time""
""focus"",""0"",""2""
""fullscreenenter"",""1"",""2392""
","
","""event"",""trial"",""time""
""focus"",""0"",""2""
","""event"",""trial"",""time""
""fullscreenenter"",""1"",""2392""
","
","","","","","","1178","<p> You can give them the equipment by pressing 1 and choose not to give it to them by pressing 0. </p><br><div class=""choice-instructions-grid""> <div class=""choice-option""><img src=""images/approach.png"" class=""choice-option-img"" stage=""instructions"" position=""0"" ><div class=""choice-option-text""> Press ""1."" </div></div><div class=""choice-option""><img src=""images/avoid.png"" class=""choice-option-img"" stage=""instructions"" position=""1"" ><div class=""choice-option-text""> Press ""0."" </div></div>","","0","instructions","","","","","","","","","","",""
"learning-instructions","13","92764","0.0-8.0-0.0-0.5","3768","2","8","Male","approach_avoid_spark_v1","""event"",""trial"",""time""
""focus"",""0"",""2""
""fullscreenenter"",""1"",""2392""
","
","""event"",""trial"",""time""
""focus"",""0"",""2""
","""event"",""trial"",""time""
""fullscreenenter"",""1"",""2392""
","
","","","","","","370","<p> If you give them a piece of equipment they like, they will be happy! </p><p> But if you give them a piece of equipment they do not like, they will be sad. </p>","","0","instructions","","","","","","","","","","",""
"learning-instructions","14","104180","0.0-8.0-0.0-0.6","3768","2","8","Male","approach_avoid_spark_v1","""event"",""trial"",""time""
""focus"",""0"",""2""
""fullscreenenter"",""1"",""2392""
","
","""event"",""trial"",""time""
""focus"",""0"",""2""
","""event"",""trial"",""time""
""fullscreenenter"",""1"",""2392""
","
","","","","","","895","<p> You will earn points based on how you make kids feel. </p><p> If you make them happy, you will WIN anywhere from 1 - 9 points, </p><p> but if you make them sad, you will LOSE anywhere from 1 - 9 points. </p>","","0","instructions","","","","","","","","","","",""
"learning-instructions","15","114989","0.0-8.0-0.0-0.7","3768","2","8","Male","approach_avoid_spark_v1","""event"",""trial"",""time""
""focus"",""0"",""2""
""fullscreenenter"",""1"",""2392""
","
","""event"",""trial"",""time""
""focus"",""0"",""2""
","""event"",""trial"",""time""
""fullscreenenter"",""1"",""2392""
","
","","","","","","1253","<p> You will see how many points you won or lost in the center of the screen. </p><p> Here is what you would see if you won 6 points: </p><p style=""color:green;font-size:50px;font-weight:bolder"">6</p><p style=""color:green"">The text is GREEN because you WON points.</p>","","0","instructions","","","","","","","","","","",""
"learning-instructions","16","122428","0.0-8.0-0.0-0.8","3768","2","8","Male","approach_avoid_spark_v1","""event"",""trial"",""time""
""focus"",""0"",""2""
""fullscreenenter"",""1"",""2392""
","
","""event"",""trial"",""time""
""focus"",""0"",""2""
","""event"",""trial"",""time""
""fullscreenenter"",""1"",""2392""
","
","","","","","","1933","<p> And here is what you would see if you lost 4 points: </p><p style=""color:red;font-size:50px;font-weight:bolder"">-4</p><p style=""color:red"">The text is RED because you LOST points. </p>","","0","instructions","","","","","","","","","","",""
"learning-instructions","17","137604","0.0-8.0-0.0-0.9","3768","2","8","Male","approach_avoid_spark_v1","""event"",""trial"",""time""
""focus"",""0"",""2""
""fullscreenenter"",""1"",""2392""
","
","""event"",""trial"",""time""
""focus"",""0"",""2""
","""event"",""trial"",""time""
""fullscreenenter"",""1"",""2392""
","
","","","","","","459","<p> Some of the equipment will make the kids VERY happy or sad. </p><p> These pieces of equipment will make you win or lose LOTS of points. </p><p> Other pieces of equipment will only make the kids a little happy or sad. </p><p> These pieces of equipment will make you win or lose small amounts of points. </p>","","0","instructions","","","","","","","","","","",""
"learning-instructions","18","150211","0.0-8.0-0.0-0.10","3768","2","8","Male","approach_avoid_spark_v1","""event"",""trial"",""time""
""focus"",""0"",""2""
""fullscreenenter"",""1"",""2392""
","
","""event"",""trial"",""time""
""focus"",""0"",""2""
","""event"",""trial"",""time""
""fullscreenenter"",""1"",""2392""
","
","","","","","","1977","<p> If you choose not to give them the equipment, you will not win or lose any points. </p><p>  However, in the center of the screen, you will see the number of points you WOULD HAVE won or lost if you had given them the equipment. </p>","","0","instructions","","","","","","","","","","",""
"learning-instructions","19","173139","0.0-8.0-0.0-0.11","3768","2","8","Male","approach_avoid_spark_v1","""event"",""trial"",""time""
""focus"",""0"",""2""
""fullscreenenter"",""1"",""2392""
","
","""event"",""trial"",""time""
""focus"",""0"",""2""
","""event"",""trial"",""time""
""fullscreenenter"",""1"",""2392""
","
","","","","","","1394","<p> Here is what you might see if you did not give the equipment to the kids but it would have made them happy: </p><p style=""color:grey; font-size:50px; display: inline-block; border-spacing: 15px; border-width:3px; border-style:solid; border-color:red"">  &nbsp; 7 &nbsp; </p><p> Remember, in this case, you would not win or lose ANY points because you did not give them the equipment.  </p><p style=""color:grey"">The text is GREY because you earned ZERO points. </p><p style=""color:red"">However, choosing to give the kids the equipment would have made you win points. The box around the text is RED because you chose the worse option. </p>","","0","instructions","","","","","","","","","","",""
"learning-instructions","20","195226","0.0-8.0-0.0-0.12","3768","2","8","Male","approach_avoid_spark_v1","""event"",""trial"",""time""
""focus"",""0"",""2""
""fullscreenenter"",""1"",""2392""
","
","""event"",""trial"",""time""
""focus"",""0"",""2""
","""event"",""trial"",""time""
""fullscreenenter"",""1"",""2392""
","
","","","","","","1013","<p> Here is what you might see if you did not give the equipment to the kids but it would have made them sad: </p><p style=""color:grey;font-size:50px; display: inline-block; border-spacing: 15px; border-width:3px; border-style:solid; border-color:green"">  &nbsp; -8 &nbsp; </p><p> Remember, in this case, you would not win or lose ANY points because you did not give them the equipment.  </p><p style=""color:grey"">The text is GREY because you earned ZERO points. </p><p  style=""color:green""> Choosing to give the kids the equipment would have made you lose points. The box around the text is GREEN because you chose the better option.</p>","","0","instructions","","","","","","","","","","",""
"learning-instructions","21","206003","0.0-8.0-0.0-0.13","3768","2","8","Male","approach_avoid_spark_v1","""event"",""trial"",""time""
""focus"",""0"",""2""
""fullscreenenter"",""1"",""2392""
","
","""event"",""trial"",""time""
""focus"",""0"",""2""
","""event"",""trial"",""time""
""fullscreenenter"",""1"",""2392""
","
","","","","","","1269","<p> You will have 3 seconds to make each choice. Try to respond before time runs out! </p><p> You will lose 5 points each time you do not make a response. </p>","","0","instructions","","","","","","","","","","",""
"learning-instructions","22","212273","0.0-8.0-0.0-0.14","3768","2","8","Male","approach_avoid_spark_v1","""event"",""trial"",""time""
""focus"",""0"",""2""
""fullscreenenter"",""1"",""2392""
","
","""event"",""trial"",""time""
""focus"",""0"",""2""
","""event"",""trial"",""time""
""fullscreenenter"",""1"",""2392""
","
","","","","","","851","<p> This is just a practice round, but in the real game, your bonus payment will depend on your total number of points.","","0","instructions","","","","","","","","","","",""
"learning-instructions","23","219121","0.0-8.0-0.0-0.15","3768","2","8","Male","approach_avoid_spark_v1","""event"",""trial"",""time""
""focus"",""0"",""2""
""fullscreenenter"",""1"",""2392""
","
","""event"",""trial"",""time""
""focus"",""0"",""2""
","""event"",""trial"",""time""
""fullscreenenter"",""1"",""2392""
","
","","","","","","1079","<p> Remember, you can give them the equipment by pressing 1 and choose not to give it to them by pressing 0. </p><br><div class=""choice-instructions-grid""> <div class=""choice-option""><img src=""images/approach.png"" class=""choice-option-img"" stage=""instructions"" position=""0"" ><div class=""choice-option-text""> Press ""1."" </div></div><div class=""choice-option""><img src=""images/avoid.png"" class=""choice-option-img"" stage=""instructions"" position=""1"" ><div class=""choice-option-text""> Press ""0."" </div></div>","","0","instructions","","","","","","","","","","",""
"html-button-response","24","220385","0.0-8.0-1.0","3768","2","8","Male","approach_avoid_spark_v1","""event"",""trial"",""time""
""focus"",""0"",""2""
""fullscreenenter"",""1"",""2392""
","
","""event"",""trial"",""time""
""focus"",""0"",""2""
","""event"",""trial"",""time""
""fullscreenenter"",""1"",""2392""
","
","","","","","","1161","<p> Ready to practice? </p>","0","","","","","","","","","","","","",""
"html-keyboard-response","25","220986","0.0-8.0-2.0-0.0","3768","2","8","Male","approach_avoid_spark_v1","""event"",""trial"",""time""
""focus"",""0"",""2""
""fullscreenenter"",""1"",""2392""
","
","""event"",""trial"",""time""
""focus"",""0"",""2""
","""event"",""trial"",""time""
""fullscreenenter"",""1"",""2392""
","
","","","","","","null","<div style=""font-size:60px;"">+</div>","null","","fixation","","","","","","","","","","",""
"aa-learning-trial","26","223988","0.0-8.0-2.0-1.0","3768","2","8","Male","approach_avoid_spark_v1","""event"",""trial"",""time""
""focus"",""0"",""2""
""fullscreenenter"",""1"",""2392""
","
","""event"",""trial"",""time""
""focus"",""0"",""2""
","""event"",""trial"",""time""
""fullscreenenter"",""1"",""2392""
","
","","","","","","null","images/ball2.png","","","learning","6","-5","","null","practice","practice","practice","-1","","",""
"html-keyboard-response","27","224489","0.0-8.0-2.0-0.1","3768","2","8","Male","approach_avoid_spark_v1","""event"",""trial"",""time""
""focus"",""0"",""2""
""fullscreenenter"",""1"",""2392""
","
","""event"",""trial"",""time""
""focus"",""0"",""2""
","""event"",""trial"",""time""
""fullscreenenter"",""1"",""2392""
","
","","","","","","null","<div style=""font-size:60px;"">+</div>","null","","fixation","","","","","","","","","","",""
"aa-learning-trial","28","227491","0.0-8.0-2.0-1.1","3768","2","8","Male","approach_avoid_spark_v1","""event"",""trial"",""time""
""focus"",""0"",""2""
""fullscreenenter"",""1"",""2392""
","
","""event"",""trial"",""time""
""focus"",""0"",""2""
","""event"",""trial"",""time""
""fullscreenenter"",""1"",""2392""
","
","","","","","","null","images/ball1.png","","","learning","-3","-5","","null","practice","practice","practice","-1","","",""
"html-keyboard-response","29","227992","0.0-8.0-2.0-0.2","3768","2","8","Male","approach_avoid_spark_v1","""event"",""trial"",""time""
""focus"",""0"",""2""
""fullscreenenter"",""1"",""2392""
","
","""event"",""trial"",""time""
""focus"",""0"",""2""
","""event"",""trial"",""time""
""fullscreenenter"",""1"",""2392""
","
","","","","","","null","<div style=""font-size:60px;"">+</div>","null","","fixation","","","","","","","","","","",""
"aa-learning-trial","30","230993","0.0-8.0-2.0-1.2","3768","2","8","Male","approach_avoid_spark_v1","""event"",""trial"",""time""
""focus"",""0"",""2""
""fullscreenenter"",""1"",""2392""
","
","""event"",""trial"",""time""
""focus"",""0"",""2""
","""event"",""trial"",""time""
""fullscreenenter"",""1"",""2392""
","
","","","","","","null","images/racket3.png","","","learning","-5","-5","","null","practice","practice","practice","-1","","",""
"html-keyboard-response","31","231494","0.0-8.0-2.0-0.3","3768","2","8","Male","approach_avoid_spark_v1","""event"",""trial"",""time""
""focus"",""0"",""2""
""fullscreenenter"",""1"",""2392""
","
","""event"",""trial"",""time""
""focus"",""0"",""2""
","""event"",""trial"",""time""
""fullscreenenter"",""1"",""2392""
","
","","","","","","null","<div style=""font-size:60px;"">+</div>","null","","fixation","","","","","","","","","","",""
"aa-learning-trial","32","234496","0.0-8.0-2.0-1.3","3768","2","8","Male","approach_avoid_spark_v1","""event"",""trial"",""time""
""focus"",""0"",""2""
""fullscreenenter"",""1"",""2392""
","
","""event"",""trial"",""time""
""focus"",""0"",""2""
","""event"",""trial"",""time""
""fullscreenenter"",""1"",""2392""
","
","","","","","","1468","images/ball1.png","","","learning","8","-5"," ","","practice","practice","practice","-1","","",""
"html-keyboard-response","33","234998","0.0-8.0-2.0-0.4","3768","2","8","Male","approach_avoid_spark_v1","""event"",""trial"",""time""
""focus"",""0"",""2""
""fullscreenenter"",""1"",""2392""
","
","""event"",""trial"",""time""
""focus"",""0"",""2""
","""event"",""trial"",""time""
""fullscreenenter"",""1"",""2392""
","
","","","","","","null","<div style=""font-size:60px;"">+</div>","null","","fixation","","","","","","","","","","",""
"aa-learning-trial","34","237999","0.0-8.0-2.0-1.4","3768","2","8","Male","approach_avoid_spark_v1","""event"",""trial"",""time""
""focus"",""0"",""2""
""fullscreenenter"",""1"",""2392""
","
","""event"",""trial"",""time""
""focus"",""0"",""2""
","""event"",""trial"",""time""
""fullscreenenter"",""1"",""2392""
","
","","","","","","null","images/ball4.png","","","learning","7","-5","","null","practice","practice","practice","-1","","",""
"html-keyboard-response","35","238502","0.0-8.0-2.0-0.5","3768","2","8","Male","approach_avoid_spark_v1","""event"",""trial"",""time""
""focus"",""0"",""2""
""fullscreenenter"",""1"",""2392""
","
","""event"",""trial"",""time""
""focus"",""0"",""2""
","""event"",""trial"",""time""
""fullscreenenter"",""1"",""2392""
","
","","","","","","null","<div style=""font-size:60px;"">+</div>","null","","fixation","","","","","","","","","","",""
"aa-learning-trial","36","241504","0.0-8.0-2.0-1.5","3768","2","8","Male","approach_avoid_spark_v1","""event"",""trial"",""time""
""focus"",""0"",""2""
""fullscreenenter"",""1"",""2392""
","
","""event"",""trial"",""time""
""focus"",""0"",""2""
","""event"",""trial"",""time""
""fullscreenenter"",""1"",""2392""
","
","","","","","","null","images/ball2.png","","","learning","9","-5","","null","practice","practice","practice","-1","","",""
"html-keyboard-response","37","242006","0.0-8.0-2.0-0.6","3768","2","8","Male","approach_avoid_spark_v1","""event"",""trial"",""time""
""focus"",""0"",""2""
""fullscreenenter"",""1"",""2392""
","
","""event"",""trial"",""time""
""focus"",""0"",""2""
","""event"",""trial"",""time""
""fullscreenenter"",""1"",""2392""
","
","","","","","","null","<div style=""font-size:60px;"">+</div>","null","","fixation","","","","","","","","","","",""
"aa-learning-trial","38","245009","0.0-8.0-2.0-1.6","3768","2","8","Male","approach_avoid_spark_v1","""event"",""trial"",""time""
""focus"",""0"",""2""
""fullscreenenter"",""1"",""2392""
","
","""event"",""trial"",""time""
""focus"",""0"",""2""
","""event"",""trial"",""time""
""fullscreenenter"",""1"",""2392""
","
","","","","","","null","images/ball1.png","","","learning","3","-5","","null","practice","practice","practice","-1","","",""
"html-keyboard-response","39","245511","0.0-8.0-2.0-0.7","3768","2","8","Male","approach_avoid_spark_v1","""event"",""trial"",""time""
""focus"",""0"",""2""
""fullscreenenter"",""1"",""2392""
","
","""event"",""trial"",""time""
""focus"",""0"",""2""
","""event"",""trial"",""time""
""fullscreenenter"",""1"",""2392""
","
","","","","","","null","<div style=""font-size:60px;"">+</div>","null","","fixation","","","","","","","","","","",""
"aa-learning-trial","40","248514","0.0-8.0-2.0-1.7","3768","2","8","Male","approach_avoid_spark_v1","""event"",""trial"",""time""
""focus"",""0"",""2""
""fullscreenenter"",""1"",""2392""
","
","""event"",""trial"",""time""
""focus"",""0"",""2""
","""event"",""trial"",""time""
""fullscreenenter"",""1"",""2392""
","
","","","","","","null","images/ball2.png","","","learning","2","-5","","null","practice","practice","practice","-1","","",""
"html-keyboard-response","41","249017","0.0-8.0-2.0-0.8","3768","2","8","Male","approach_avoid_spark_v1","""event"",""trial"",""time""
""focus"",""0"",""2""
""fullscreenenter"",""1"",""2392""
","
","""event"",""trial"",""time""
""focus"",""0"",""2""
","""event"",""trial"",""time""
""fullscreenenter"",""1"",""2392""
","
","","","","","","null","<div style=""font-size:60px;"">+</div>","null","","fixation","","","","","","","","","","",""
"aa-learning-trial","42","252019","0.0-8.0-2.0-1.8","3768","2","8","Male","approach_avoid_spark_v1","""event"",""trial"",""time""
""focus"",""0"",""2""
""fullscreenenter"",""1"",""2392""
","
","""event"",""trial"",""time""
""focus"",""0"",""2""
","""event"",""trial"",""time""
""fullscreenenter"",""1"",""2392""
","
","","","","","","1146","images/racket4.png","","","learning","-1","-5"," ","","practice","practice","practice","-1","","",""
"html-keyboard-response","43","252521","0.0-8.0-2.0-0.9","3768","2","8","Male","approach_avoid_spark_v1","""event"",""trial"",""time""
""focus"",""0"",""2""
""fullscreenenter"",""1"",""2392""
","
","""event"",""trial"",""time""
""focus"",""0"",""2""
","""event"",""trial"",""time""
""fullscreenenter"",""1"",""2392""
","
","","","","","","null","<div style=""font-size:60px;"">+</div>","null","","fixation","","","","","","","","","","",""
"aa-learning-trial","44","255524","0.0-8.0-2.0-1.9","3768","2","8","Male","approach_avoid_spark_v1","""event"",""trial"",""time""
""focus"",""0"",""2""
""fullscreenenter"",""1"",""2392""
","
","""event"",""trial"",""time""
""focus"",""0"",""2""
","""event"",""trial"",""time""
""fullscreenenter"",""1"",""2392""
","
","","","","","","1914","images/racket2.png","","","learning","-2","-5"," ","","practice","practice","practice","-1","","",""
"html-keyboard-response","45","256026","0.0-8.0-2.0-0.10","3768","2","8","Male","approach_avoid_spark_v1","""event"",""trial"",""time""
""focus"",""0"",""2""
""fullscreenenter"",""1"",""2392""
","
","""event"",""trial"",""time""
""focus"",""0"",""2""
","""event"",""trial"",""time""
""fullscreenenter"",""1"",""2392""
","
","","","","","","null","<div style=""font-size:60px;"">+</div>","null","","fixation","","","","","","","","","","",""
"aa-learning-trial","46","259029","0.0-8.0-2.0-1.10","3768","2","8","Male","approach_avoid_spark_v1","""event"",""trial"",""time""
""focus"",""0"",""2""
""fullscreenenter"",""1"",""2392""
","
","""event"",""trial"",""time""
""focus"",""0"",""2""
","""event"",""trial"",""time""
""fullscreenenter"",""1"",""2392""
","
","","","","","","457","images/ball4.png","","","learning","9","-5"," ","","practice","practice","practice","-1","","",""
"html-keyboard-response","47","259531","0.0-8.0-2.0-0.11","3768","2","8","Male","approach_avoid_spark_v1","""event"",""trial"",""time""
""focus"",""0"",""2""
""fullscreenenter"",""1"",""2392""
","
","""event"",""trial"",""time""
""focus"",""0"",""2""
","""event"",""trial"",""time""
""fullscreenenter"",""1"",""2392""
","
","","","","","","null","<div style=""font-size:60px;"">+</div>","null","","fixation","","","","","","","","","","",""
"aa-learning-trial","48","262541","0.0-8.0-2.0-1.11","3768","2","8","Male","approach_avoid_spark_v1","""event"",""trial"",""time""
""focus"",""0"",""2""
""fullscreenenter"",""1"",""2392""
","
","""event"",""trial"",""time""
""focus"",""0"",""2""
","""event"",""trial"",""time""
""fullscreenenter"",""1"",""2392""
","
","","","","","","960","images/ball1.png","","","learning","-1","-5"," ","","practice","practice","practice","-1","","",""
"html-button-response","49","267087","0.0-8.0-3.0","3768","2","8","Male","approach_avoid_spark_v1","""event"",""trial"",""time""
""focus"",""0"",""2""
""fullscreenenter"",""1"",""2392""
","
","""event"",""trial"",""time""
""focus"",""0"",""2""
","""event"",""trial"",""time""
""fullscreenenter"",""1"",""2392""
","
","","","","","","4545","<p> You earned -60 points in the practice round! </p>","0","","break","","","","","","","","","","",""
"learning-instructions","50","274999","0.0-8.0-4.0-0.0","3768","2","8","Male","approach_avoid_spark_v1","""event"",""trial"",""time""
""focus"",""0"",""2""
""fullscreenenter"",""1"",""2392""
","
","""event"",""trial"",""time""
""focus"",""0"",""2""
","""event"",""trial"",""time""
""fullscreenenter"",""1"",""2392""
","
","","","","","","1949","<p> It's almost time to start the real game. </p><p> Before you start, we're going to ask you a few questions about how the game works. </p>","","0","instructions","","","","","","","","","","",""
"preload","51","278754","0.0-8.0-5.0","3768","2","8","Male","approach_avoid_spark_v1","""event"",""trial"",""time""
""focus"",""0"",""2""
""fullscreenenter"",""1"",""2392""
","
","""event"",""trial"",""time""
""focus"",""0"",""2""
","""event"",""trial"",""time""
""fullscreenenter"",""1"",""2392""
","
","true","false","[]","[]","[]","","","","","","","","","","","","","","","",""
"comp-q","52","285231","0.0-8.0-6.0-0.0","3768","2","8","Male","approach_avoid_spark_v1","""event"",""trial"",""time""
""focus"",""0"",""2""
""fullscreenenter"",""1"",""2392""
","
","""event"",""trial"",""time""
""focus"",""0"",""2""
","""event"",""trial"",""time""
""fullscreenenter"",""1"",""2392""
","
","","","","","","1471","<p> <b> True or False? </b> </p><p> If you see a number in GREY, that means you earned that many points. </p>","","1","comp_question","","","","","","","","","true","",""
"comp-q","53","294790","0.0-8.0-6.0-1.0","3768","2","8","Male","approach_avoid_spark_v1","""event"",""trial"",""time""
""focus"",""0"",""2""
""fullscreenenter"",""1"",""2392""
","
","""event"",""trial"",""time""
""focus"",""0"",""2""
","""event"",""trial"",""time""
""fullscreenenter"",""1"",""2392""
","
","","","","","","1190","<p><b> That's right! </b> If you see a grey number, it means you earned ZERO points. <br> The grey numbers show the points you WOULD HAVE earned if you had made the other choice. </p>","","0","comp_answer","","","","","","","","","","",""
"comp-q","54","300598","0.0-8.0-7.0-0.0","3768","2","8","Male","approach_avoid_spark_v1","""event"",""trial"",""time""
""focus"",""0"",""2""
""fullscreenenter"",""1"",""2392""
","
","""event"",""trial"",""time""
""focus"",""0"",""2""
","""event"",""trial"",""time""
""fullscreenenter"",""1"",""2392""
","
","","","","","","1108","<p> <b> True or False? </b> </p><p> You will have as much time as you want to make each choice. </p>","","1","comp_question","","","","","","","","","true","",""
"comp-q","55","305366","0.0-8.0-7.0-1.0","3768","2","8","Male","approach_avoid_spark_v1","""event"",""trial"",""time""
""focus"",""0"",""2""
""fullscreenenter"",""1"",""2392""
","
","""event"",""trial"",""time""
""focus"",""0"",""2""
","""event"",""trial"",""time""
""fullscreenenter"",""1"",""2392""
","
","","","","","","717","<p> <b> That's right! </b> You will only have 3 seconds to make each choice. </p>","","0","comp_answer","","","","","","","","","","",""
"comp-q","56","311974","0.0-8.0-8.0-0.0","3768","2","8","Male","approach_avoid_spark_v1","""event"",""trial"",""time""
""focus"",""0"",""2""
""fullscreenenter"",""1"",""2392""
","
","""event"",""trial"",""time""
""focus"",""0"",""2""
","""event"",""trial"",""time""
""fullscreenenter"",""1"",""2392""
","
","","","","","","1945","<p> <b> True or False? </b> </p><p> You should use the '1' and '0' keys to make your choices. </p>","","0","comp_question","","","","","","","","","true","",""
"comp-q","57","320509","0.0-8.0-8.0-1.0","3768","2","8","Male","approach_avoid_spark_v1","""event"",""trial"",""time""
""focus"",""0"",""2""
""fullscreenenter"",""1"",""2392""
","
","""event"",""trial"",""time""
""focus"",""0"",""2""
","""event"",""trial"",""time""
""fullscreenenter"",""1"",""2392""
","
","","","","","","3921","<p> <b> That's right! </b> You should use the '1' and '0' keys to make each choice. </p>","","0","comp_answer","","","","","","","","","","",""
"learning-instructions","58","328062","0.0-8.0-9.0-0.0","3768","2","8","Male","approach_avoid_spark_v1","""event"",""trial"",""time""
""focus"",""0"",""2""
""fullscreenenter"",""1"",""2392""
","
","""event"",""trial"",""time""
""focus"",""0"",""2""
","""event"",""trial"",""time""
""fullscreenenter"",""1"",""2392""
","
","","","","","","1272","<p> It's now time to start the real game. </p>Do your best, because the points you earn in the next rounds will influence your bonus payment. </p>","","0","instructions","","","","","","","","","","",""
"preload","59","328191","0.0-9.0-0.0","3768","2","8","Male","approach_avoid_spark_v1","""event"",""trial"",""time""
""focus"",""0"",""2""
""fullscreenenter"",""1"",""2392""
","
","""event"",""trial"",""time""
""focus"",""0"",""2""
","""event"",""trial"",""time""
""fullscreenenter"",""1"",""2392""
","
","true","false","[]","[]","[]","","","","","","","","","","","","","","","",""
"learning-instructions","60","333333","0.0-9.0-1.0-0.0","3768","2","8","Male","approach_avoid_spark_v1","""event"",""trial"",""time""
""focus"",""0"",""2""
""fullscreenenter"",""1"",""2392""
","
","""event"",""trial"",""time""
""focus"",""0"",""2""
","""event"",""trial"",""time""
""fullscreenenter"",""1"",""2392""
","
","","","","","","544","<p> Your goal in this round is to take care of lots of farm animals. </p></div>","","0","instructions","","","","","","","","","","",""
"learning-instructions","61","344869","0.0-9.0-1.0-0.1","3768","2","8","Male","approach_avoid_spark_v1","""event"",""trial"",""time""
""focus"",""0"",""2""
""fullscreenenter"",""1"",""2392""
","
","""event"",""trial"",""time""
""focus"",""0"",""2""
","""event"",""trial"",""time""
""fullscreenenter"",""1"",""2392""
","
","","","","","","1280","<p> Some farm animals are hungry, while other farm animals are already full.  </p><p> On each turn, you will see a farm animal.   </p><p> You need to decide whether to feed it or not.  </p>","","0","instructions","","","","","","","","","","",""
"learning-instructions","62","351997","0.0-9.0-1.0-0.2","3768","2","8","Male","approach_avoid_spark_v1","""event"",""trial"",""time""
""focus"",""0"",""2""
""fullscreenenter"",""1"",""2392""
","
","""event"",""trial"",""time""
""focus"",""0"",""2""
","""event"",""trial"",""time""
""fullscreenenter"",""1"",""2392""
","
","","","","","","958","<p> You can feed the farm animal by pressing 1 and leave the farm animal alone by pressing 0. </p><br><div class=""choice-instructions-grid""> <div class=""choice-option""><img src=""images/approach.png"" class=""choice-option-img"" stage=""instructions"" position=""0"" ><div class=""choice-option-text""> Press ""1."" </div></div><div class=""choice-option""><img src=""images/avoid.png"" class=""choice-option-img"" stage=""instructions"" position=""1"" ><div class=""choice-option-text""> Press ""0."" </div></div>","","0","instructions","","","","","","","","","","",""
"learning-instructions","63","364404","0.0-9.0-1.0-0.3","3768","2","8","Male","approach_avoid_spark_v1","""event"",""trial"",""time""
""focus"",""0"",""2""
""fullscreenenter"",""1"",""2392""
","
","""event"",""trial"",""time""
""focus"",""0"",""2""
","""event"",""trial"",""time""
""fullscreenenter"",""1"",""2392""
","
","","","","","","1977","<p> If you feed a hungry farm animal, you will make it feel satisfied! </p><p> But if you feed the farm animal and it was already full, you will make it feel sick. </p>","","0","instructions","","","","","","","","","","",""
"learning-instructions","64","380331","0.0-9.0-1.0-0.4","3768","2","8","Male","approach_avoid_spark_v1","""event"",""trial"",""time""
""focus"",""0"",""2""
""fullscreenenter"",""1"",""2392""
","
","""event"",""trial"",""time""
""focus"",""0"",""2""
","""event"",""trial"",""time""
""fullscreenenter"",""1"",""2392""
","
","","","","","","3015","<p> You will earn points based on how you made the farm animal feel. </p><p> If you made it satisfied, you will WIN anywhere from 1 - 9 points, </p><p> but if you made it sick, you will LOSE anywhere from 1 - 9 points. </p>","","0","instructions","","","","","","","","","","",""
"learning-instructions","65","390139","0.0-9.0-1.0-0.5","3768","2","8","Male","approach_avoid_spark_v1","""event"",""trial"",""time""
""focus"",""0"",""2""
""fullscreenenter"",""1"",""2392""
","
","""event"",""trial"",""time""
""focus"",""0"",""2""
","""event"",""trial"",""time""
""fullscreenenter"",""1"",""2392""
","
","","","","","","1903","<p> You will see how many points you won or lost in the center of the screen. </p><p> Here is what you would see if you won 5 points: </p><p style=""color:green;font-size:50px;font-weight:bolder"">5</p>","","0","instructions","","","","","","","","","","",""
"learning-instructions","66","395531","0.0-9.0-1.0-0.6","3768","2","8","Male","approach_avoid_spark_v1","""event"",""trial"",""time""
""focus"",""0"",""2""
""fullscreenenter"",""1"",""2392""
","
","""event"",""trial"",""time""
""focus"",""0"",""2""
","""event"",""trial"",""time""
""fullscreenenter"",""1"",""2392""
","
","","","","","","1725","<p> And here is what you would see if you lost 3 points: </p><p style=""color:red;font-size:50px;font-weight:bolder"">-3</p>","","0","instructions","","","","","","","","","","",""
"learning-instructions","67","414123","0.0-9.0-1.0-0.7","3768","2","8","Male","approach_avoid_spark_v1","""event"",""trial"",""time""
""focus"",""0"",""2""
""fullscreenenter"",""1"",""2392""
","
","""event"",""trial"",""time""
""focus"",""0"",""2""
","""event"",""trial"",""time""
""fullscreenenter"",""1"",""2392""
","
","","","","","","2497","<p> Some farm animals will become very satisfied or very sick. </p><p> These farm animals will make you win or lose LOTS of points. </p><p> Other farm animals have less strong feelings. </p><p> These farm animals will make you win or lose small amounts of points. </p>","","0","instructions","","","","","","","","","","",""
"learning-instructions","68","427834","0.0-9.0-1.0-0.8","3768","2","8","Male","approach_avoid_spark_v1","""event"",""trial"",""time""
""focus"",""0"",""2""
""fullscreenenter"",""1"",""2392""
","
","""event"",""trial"",""time""
""focus"",""0"",""2""
","""event"",""trial"",""time""
""fullscreenenter"",""1"",""2392""
","
","","","","","","1119","<p> If you choose to leave the farm animal alone, you will not win or lose any points. </p><p>  However, in the center of the screen, you will see the number of points you WOULD HAVE won or lost if you had fed the farm animal. </p>","","0","instructions","","","","","","","","","","",""
"learning-instructions","69","440809","0.0-9.0-1.0-0.9","3768","2","8","Male","approach_avoid_spark_v1","""event"",""trial"",""time""
""focus"",""0"",""2""
""fullscreenenter"",""1"",""2392""
","
","""event"",""trial"",""time""
""focus"",""0"",""2""
","""event"",""trial"",""time""
""fullscreenenter"",""1"",""2392""
","
","","","","","","1054","<p> Here is what you might see if you did not feed the farm animal but the animal was hungry: </p><p style=""color:grey; font-size:50px; display: inline-block; border-spacing: 15px; border-width:3px; border-style:solid; border-color:red"">  &nbsp; 6 &nbsp; </p><p> Remember, in this case, you would not win or lose ANY points because you did not feed the farm animal.  </p>","","0","instructions","","","","","","","","","","",""
"learning-instructions","70","450162","0.0-9.0-1.0-0.10","3768","2","8","Male","approach_avoid_spark_v1","""event"",""trial"",""time""
""focus"",""0"",""2""
""fullscreenenter"",""1"",""2392""
","
","""event"",""trial"",""time""
""focus"",""0"",""2""
","""event"",""trial"",""time""
""fullscreenenter"",""1"",""2392""
","
","","","","","","1196","<p> Try to make the best choice for each farm animal because </p><p> at the end of the game, you will earn bonus money based on how many points you earned. </p>","","0","instructions","","","","","","","","","","",""
"learning-instructions","71","459297","0.0-9.0-1.0-0.11","3768","2","8","Male","approach_avoid_spark_v1","""event"",""trial"",""time""
""focus"",""0"",""2""
""fullscreenenter"",""1"",""2392""
","
","""event"",""trial"",""time""
""focus"",""0"",""2""
","""event"",""trial"",""time""
""fullscreenenter"",""1"",""2392""
","
","","","","","","943","<p> You will have 3 seconds to make each choice. Try to respond before time runs out! </p><p> You will lose 5 points each time you do not make a response. </p>","","0","instructions","","","","","","","","","","",""
"html-keyboard-response","72","459912","0.0-9.0-2.0-0.0","3768","2","8","Male","approach_avoid_spark_v1","""event"",""trial"",""time""
""focus"",""0"",""2""
""fullscreenenter"",""1"",""2392""
","
","""event"",""trial"",""time""
""focus"",""0"",""2""
","""event"",""trial"",""time""
""fullscreenenter"",""1"",""2392""
","
","","","","","","null","<div style=""font-size:60px;"">+</div>","null","","fixation","","","","","","","","","","",""
"aa-learning-trial","73","462915","0.0-9.0-2.0-1.0","3768","2","8","Male","approach_avoid_spark_v1","""event"",""trial"",""time""
""focus"",""0"",""2""
""fullscreenenter"",""1"",""2392""
","
","""event"",""trial"",""time""
""focus"",""0"",""2""
","""event"",""trial"",""time""
""fullscreenenter"",""1"",""2392""
","
","","","","","","1148","images/horse7.png","","","learning","2","2","1","1","horse","animals","2","0","","neutral","0"
"html-keyboard-response","74","463417","0.0-9.0-2.0-0.1","3768","2","8","Male","approach_avoid_spark_v1","""event"",""trial"",""time""
""focus"",""0"",""2""
""fullscreenenter"",""1"",""2392""
","
","""event"",""trial"",""time""
""focus"",""0"",""2""
","""event"",""trial"",""time""
""fullscreenenter"",""1"",""2392""
","
","","","","","","null","<div style=""font-size:60px;"">+</div>","null","","fixation","","","","","","","","","","",""
"aa-learning-trial","75","466419","0.0-9.0-2.0-1.1","3768","2","8","Male","approach_avoid_spark_v1","""event"",""trial"",""time""
""focus"",""0"",""2""
""fullscreenenter"",""1"",""2392""
","
","""event"",""trial"",""time""
""focus"",""0"",""2""
","""event"",""trial"",""time""
""fullscreenenter"",""1"",""2392""
","
","","","","","","347","images/cow5.png","","","learning","-4","0","0","0","cow","animals","2","0","","bad","[-3]"
"html-keyboard-response","76","466922","0.0-9.0-2.0-0.2","3768","2","8","Male","approach_avoid_spark_v1","""event"",""trial"",""time""
""focus"",""0"",""2""
""fullscreenenter"",""1"",""2392""
","
","""event"",""trial"",""time""
""focus"",""0"",""2""
","""event"",""trial"",""time""
""fullscreenenter"",""1"",""2392""
","
","","","","","","null","<div style=""font-size:60px;"">+</div>","null","","fixation","","","","","","","","","","",""
"aa-learning-trial","77","469924","0.0-9.0-2.0-1.2","3768","2","8","Male","approach_avoid_spark_v1","""event"",""trial"",""time""
""focus"",""0"",""2""
""fullscreenenter"",""1"",""2392""
","
","""event"",""trial"",""time""
""focus"",""0"",""2""
","""event"",""trial"",""time""
""fullscreenenter"",""1"",""2392""
","
","","","","","","618","images/cow8.png","","","learning","-2","-2","1","1","cow","animals","2","0","","bad","[-3]"
"html-keyboard-response","78","470427","0.0-9.0-2.0-0.3","3768","2","8","Male","approach_avoid_spark_v1","""event"",""trial"",""time""
""focus"",""0"",""2""
""fullscreenenter"",""1"",""2392""
","
","""event"",""trial"",""time""
""focus"",""0"",""2""
","""event"",""trial"",""time""
""fullscreenenter"",""1"",""2392""
","
","","","","","","null","<div style=""font-size:60px;"">+</div>","null","","fixation","","","","","","","","","","",""
"aa-learning-trial","79","473429","0.0-9.0-2.0-1.3","3768","2","8","Male","approach_avoid_spark_v1","""event"",""trial"",""time""
""focus"",""0"",""2""
""fullscreenenter"",""1"",""2392""
","
","""event"",""trial"",""time""
""focus"",""0"",""2""
","""event"",""trial"",""time""
""fullscreenenter"",""1"",""2392""
","
","","","","","","306","images/horse7.png","","","learning","2","2","1","1","horse","animals","2","0","","neutral","0"
"html-keyboard-response","80","473932","0.0-9.0-2.0-0.4","3768","2","8","Male","approach_avoid_spark_v1","""event"",""trial"",""time""
""focus"",""0"",""2""
""fullscreenenter"",""1"",""2392""
","
","""event"",""trial"",""time""
""focus"",""0"",""2""
","""event"",""trial"",""time""
""fullscreenenter"",""1"",""2392""
","
","","","","","","null","<div style=""font-size:60px;"">+</div>","null","","fixation","","","","","","","","","","",""
"aa-learning-trial","81","476934","0.0-9.0-2.0-1.4","3768","2","8","Male","approach_avoid_spark_v1","""event"",""trial"",""time""
""focus"",""0"",""2""
""fullscreenenter"",""1"",""2392""
","
","""event"",""trial"",""time""
""focus"",""0"",""2""
","""event"",""trial"",""time""
""fullscreenenter"",""1"",""2392""
","
","","","","","","1521","images/goat6.png","","","learning","8","0","0","0","goat","animals","2","0","","good","[5]"
"html-keyboard-response","82","477436","0.0-9.0-2.0-0.5","3768","2","8","Male","approach_avoid_spark_v1","""event"",""trial"",""time""
""focus"",""0"",""2""
""fullscreenenter"",""1"",""2392""
","
","""event"",""trial"",""time""
""focus"",""0"",""2""
","""event"",""trial"",""time""
""fullscreenenter"",""1"",""2392""
","
","","","","","","null","<div style=""font-size:60px;"">+</div>","null","","fixation","","","","","","","","","","",""
"aa-learning-trial","83","480439","0.0-9.0-2.0-1.5","3768","2","8","Male","approach_avoid_spark_v1","""event"",""trial"",""time""
""focus"",""0"",""2""
""fullscreenenter"",""1"",""2392""
","
","""event"",""trial"",""time""
""focus"",""0"",""2""
","""event"",""trial"",""time""
""fullscreenenter"",""1"",""2392""
","
","","","","","","896","images/cow5.png","","","learning","-4","0","0","0","cow","animals","2","0","","bad","[-3]"
"html-keyboard-response","84","480941","0.0-9.0-2.0-0.6","3768","2","8","Male","approach_avoid_spark_v1","""event"",""trial"",""time""
""focus"",""0"",""2""
""fullscreenenter"",""1"",""2392""
","
","""event"",""trial"",""time""
""focus"",""0"",""2""
","""event"",""trial"",""time""
""fullscreenenter"",""1"",""2392""
","
","","","","","","null","<div style=""font-size:60px;"">+</div>","null","","fixation","","","","","","","","","","",""
"aa-learning-trial","85","483944","0.0-9.0-2.0-1.6","3768","2","8","Male","approach_avoid_spark_v1","""event"",""trial"",""time""
""focus"",""0"",""2""
""fullscreenenter"",""1"",""2392""
","
","""event"",""trial"",""time""
""focus"",""0"",""2""
","""event"",""trial"",""time""
""fullscreenenter"",""1"",""2392""
","
","","","","","","766","images/goat5.png","","","learning","-5","-5","1","1","goat","animals","2","0","","good","[5]"
"html-keyboard-response","86","484446","0.0-9.0-2.0-0.7","3768","2","8","Male","approach_avoid_spark_v1","""event"",""trial"",""time""
""focus"",""0"",""2""
""fullscreenenter"",""1"",""2392""
","
","""event"",""trial"",""time""
""focus"",""0"",""2""
","""event"",""trial"",""time""
""fullscreenenter"",""1"",""2392""
","
","","","","","","null","<div style=""font-size:60px;"">+</div>","null","","fixation","","","","","","","","","","",""
"aa-learning-trial","87","487449","0.0-9.0-2.0-1.7","3768","2","8","Male","approach_avoid_spark_v1","""event"",""trial"",""time""
""focus"",""0"",""2""
""fullscreenenter"",""1"",""2392""
","
","""event"",""trial"",""time""
""focus"",""0"",""2""
","""event"",""trial"",""time""
""fullscreenenter"",""1"",""2392""
","
","","","","","","1102","images/goat1.png","","","learning","-7","-7","1","1","goat","animals","2","0","","good","[5]"
"html-keyboard-response","88","487952","0.0-9.0-2.0-0.8","3768","2","8","Male","approach_avoid_spark_v1","""event"",""trial"",""time""
""focus"",""0"",""2""
""fullscreenenter"",""1"",""2392""
","
","""event"",""trial"",""time""
""focus"",""0"",""2""
","""event"",""trial"",""time""
""fullscreenenter"",""1"",""2392""
","
","","","","","","null","<div style=""font-size:60px;"">+</div>","null","","fixation","","","","","","","","","","",""
"aa-learning-trial","89","490953","0.0-9.0-2.0-1.8","3768","2","8","Male","approach_avoid_spark_v1","""event"",""trial"",""time""
""focus"",""0"",""2""
""fullscreenenter"",""1"",""2392""
","
","""event"",""trial"",""time""
""focus"",""0"",""2""
","""event"",""trial"",""time""
""fullscreenenter"",""1"",""2392""
","
","","","","","","453","images/cow3.png","","","learning","5","5","1","1","cow","animals","2","0","","bad","[-3]"
"html-keyboard-response","90","491453","0.0-9.0-2.0-0.9","3768","2","8","Male","approach_avoid_spark_v1","""event"",""trial"",""time""
""focus"",""0"",""2""
""fullscreenenter"",""1"",""2392""
","
","""event"",""trial"",""time""
""focus"",""0"",""2""
","""event"",""trial"",""time""
""fullscreenenter"",""1"",""2392""
","
","","","","","","null","<div style=""font-size:60px;"">+</div>","null","","fixation","","","","","","","","","","",""
"aa-learning-trial","91","494455","0.0-9.0-2.0-1.9","3768","2","8","Male","approach_avoid_spark_v1","""event"",""trial"",""time""
""focus"",""0"",""2""
""fullscreenenter"",""1"",""2392""
","
","""event"",""trial"",""time""
""focus"",""0"",""2""
","""event"",""trial"",""time""
""fullscreenenter"",""1"",""2392""
","
","","","","","","1166","images/cow3.png","","","learning","5","0","0","0","cow","animals","2","0","","bad","[-3]"
"html-keyboard-response","92","494956","0.0-9.0-2.0-0.10","3768","2","8","Male","approach_avoid_spark_v1","""event"",""trial"",""time""
""focus"",""0"",""2""
""fullscreenenter"",""1"",""2392""
","
","""event"",""trial"",""time""
""focus"",""0"",""2""
","""event"",""trial"",""time""
""fullscreenenter"",""1"",""2392""
","
","","","","","","null","<div style=""font-size:60px;"">+</div>","null","","fixation","","","","","","","","","","",""
"aa-learning-trial","93","497958","0.0-9.0-2.0-1.10","3768","2","8","Male","approach_avoid_spark_v1","""event"",""trial"",""time""
""focus"",""0"",""2""
""fullscreenenter"",""1"",""2392""
","
","""event"",""trial"",""time""
""focus"",""0"",""2""
","""event"",""trial"",""time""
""fullscreenenter"",""1"",""2392""
","
","","","","","","864","images/horse3.png","","","learning","-8","-8","1","1","horse","animals","2","0","","neutral","0"
"html-keyboard-response","94","498459","0.0-9.0-2.0-0.11","3768","2","8","Male","approach_avoid_spark_v1","""event"",""trial"",""time""
""focus"",""0"",""2""
""fullscreenenter"",""1"",""2392""
","
","""event"",""trial"",""time""
""focus"",""0"",""2""
","""event"",""trial"",""time""
""fullscreenenter"",""1"",""2392""
","
","","","","","","null","<div style=""font-size:60px;"">+</div>","null","","fixation","","","","","","","","","","",""
"aa-learning-trial","95","501460","0.0-9.0-2.0-1.11","3768","2","8","Male","approach_avoid_spark_v1","""event"",""trial"",""time""
""focus"",""0"",""2""
""fullscreenenter"",""1"",""2392""
","
","""event"",""trial"",""time""
""focus"",""0"",""2""
","""event"",""trial"",""time""
""fullscreenenter"",""1"",""2392""
","
","","","","","","145","images/goat1.png","","","learning","-7","0","0","0","goat","animals","2","0","","good","[5]"
"html-keyboard-response","96","501961","0.0-9.0-2.0-0.12","3768","2","8","Male","approach_avoid_spark_v1","""event"",""trial"",""time""
""focus"",""0"",""2""
""fullscreenenter"",""1"",""2392""
","
","""event"",""trial"",""time""
""focus"",""0"",""2""
","""event"",""trial"",""time""
""fullscreenenter"",""1"",""2392""
","
","","","","","","null","<div style=""font-size:60px;"">+</div>","null","","fixation","","","","","","","","","","",""
"aa-learning-trial","97","504963","0.0-9.0-2.0-1.12","3768","2","8","Male","approach_avoid_spark_v1","""event"",""trial"",""time""
""focus"",""0"",""2""
""fullscreenenter"",""1"",""2392""
","
","""event"",""trial"",""time""
""focus"",""0"",""2""
","""event"",""trial"",""time""
""fullscreenenter"",""1"",""2392""
","
","","","","","","1066","images/goat6.png","","","learning","8","8","1","1","goat","animals","2","0","","good","[5]"
"html-keyboard-response","98","505463","0.0-9.0-2.0-0.13","3768","2","8","Male","approach_avoid_spark_v1","""event"",""trial"",""time""
""focus"",""0"",""2""
""fullscreenenter"",""1"",""2392""
","
","""event"",""trial"",""time""
""focus"",""0"",""2""
","""event"",""trial"",""time""
""fullscreenenter"",""1"",""2392""
","
","","","","","","null","<div style=""font-size:60px;"">+</div>","null","","fixation","","","","","","","","","","",""
"aa-learning-trial","99","508464","0.0-9.0-2.0-1.13","3768","2","8","Male","approach_avoid_spark_v1","""event"",""trial"",""time""
""focus"",""0"",""2""
""fullscreenenter"",""1"",""2392""
","
","""event"",""trial"",""time""
""focus"",""0"",""2""
","""event"",""trial"",""time""
""fullscreenenter"",""1"",""2392""
","
","","","","","","1349","images/horse1.png","","","learning","-3","0","0","0","horse","animals","2","0","","neutral","0"
"html-keyboard-response","100","508966","0.0-9.0-2.0-0.14","3768","2","8","Male","approach_avoid_spark_v1","""event"",""trial"",""time""
""focus"",""0"",""2""
""fullscreenenter"",""1"",""2392""
","
","""event"",""trial"",""time""
""focus"",""0"",""2""
","""event"",""trial"",""time""
""fullscreenenter"",""1"",""2392""
","
","","","","","","null","<div style=""font-size:60px;"">+</div>","null","","fixation","","","","","","","","","","",""
"aa-learning-trial","101","511966","0.0-9.0-2.0-1.14","3768","2","8","Male","approach_avoid_spark_v1","""event"",""trial"",""time""
""focus"",""0"",""2""
""fullscreenenter"",""1"",""2392""
","
","""event"",""trial"",""time""
""focus"",""0"",""2""
","""event"",""trial"",""time""
""fullscreenenter"",""1"",""2392""
","
","","","","","","1574","images/horse1.png","","","learning","-3","0","0","0","horse","animals","2","0","","neutral","0"
"html-keyboard-response","102","512467","0.0-9.0-2.0-0.15","3768","2","8","Male","approach_avoid_spark_v1","""event"",""trial"",""time""
""focus"",""0"",""2""
""fullscreenenter"",""1"",""2392""
","
","""event"",""trial"",""time""
""focus"",""0"",""2""
","""event"",""trial"",""time""
""fullscreenenter"",""1"",""2392""
","
","","","","","","null","<div style=""font-size:60px;"">+</div>","null","","fixation","","","","","","","","","","",""
"aa-learning-trial","103","515468","0.0-9.0-2.0-1.15","3768","2","8","Male","approach_avoid_spark_v1","""event"",""trial"",""time""
""focus"",""0"",""2""
""fullscreenenter"",""1"",""2392""
","
","""event"",""trial"",""time""
""focus"",""0"",""2""
","""event"",""trial"",""time""
""fullscreenenter"",""1"",""2392""
","
","","","","","","1648","images/goat1.png","","","learning","-7","0","0","0","goat","animals","2","0","","good","[5]"
"html-keyboard-response","104","515970","0.0-9.0-2.0-0.16","3768","2","8","Male","approach_avoid_spark_v1","""event"",""trial"",""time""
""focus"",""0"",""2""
""fullscreenenter"",""1"",""2392""
","
","""event"",""trial"",""time""
""focus"",""0"",""2""
","""event"",""trial"",""time""
""fullscreenenter"",""1"",""2392""
","
","","","","","","null","<div style=""font-size:60px;"">+</div>","null","","fixation","","","","","","","","","","",""
"aa-learning-trial","105","518971","0.0-9.0-2.0-1.16","3768","2","8","Male","approach_avoid_spark_v1","""event"",""trial"",""time""
""focus"",""0"",""2""
""fullscreenenter"",""1"",""2392""
","
","""event"",""trial"",""time""
""focus"",""0"",""2""
","""event"",""trial"",""time""
""fullscreenenter"",""1"",""2392""
","
","","","","","","1001","images/horse7.png","","","learning","2","2","1","1","horse","animals","2","0","","neutral","0"
"html-keyboard-response","106","519472","0.0-9.0-2.0-0.17","3768","2","8","Male","approach_avoid_spark_v1","""event"",""trial"",""time""
""focus"",""0"",""2""
""fullscreenenter"",""1"",""2392""
","
","""event"",""trial"",""time""
""focus"",""0"",""2""
","""event"",""trial"",""time""
""fullscreenenter"",""1"",""2392""
","
","","","","","","null","<div style=""font-size:60px;"">+</div>","null","","fixation","","","","","","","","","","",""
"aa-learning-trial","107","522473","0.0-9.0-2.0-1.17","3768","2","8","Male","approach_avoid_spark_v1","""event"",""trial"",""time""
""focus"",""0"",""2""
""fullscreenenter"",""1"",""2392""
","
","""event"",""trial"",""time""
""focus"",""0"",""2""
","""event"",""trial"",""time""
""fullscreenenter"",""1"",""2392""
","
","","","","","","1355","images/horse4.png","","","learning","6","0","0","0","horse","animals","2","0","","neutral","0"
"html-keyboard-response","108","522973","0.0-9.0-2.0-0.18","3768","2","8","Male","approach_avoid_spark_v1","""event"",""trial"",""time""
""focus"",""0"",""2""
""fullscreenenter"",""1"",""2392""
","
","""event"",""trial"",""time""
""focus"",""0"",""2""
","""event"",""trial"",""time""
""fullscreenenter"",""1"",""2392""
","
","","","","","","null","<div style=""font-size:60px;"">+</div>","null","","fixation","","","","","","","","","","",""
"aa-learning-trial","109","525975","0.0-9.0-2.0-1.18","3768","2","8","Male","approach_avoid_spark_v1","""event"",""trial"",""time""
""focus"",""0"",""2""
""fullscreenenter"",""1"",""2392""
","
","""event"",""trial"",""time""
""focus"",""0"",""2""
","""event"",""trial"",""time""
""fullscreenenter"",""1"",""2392""
","
","","","","","","1133","images/cow8.png","","","learning","-2","0","0","0","cow","animals","2","0","","bad","[-3]"
"html-keyboard-response","110","526476","0.0-9.0-2.0-0.19","3768","2","8","Male","approach_avoid_spark_v1","""event"",""trial"",""time""
""focus"",""0"",""2""
""fullscreenenter"",""1"",""2392""
","
","""event"",""trial"",""time""
""focus"",""0"",""2""
","""event"",""trial"",""time""
""fullscreenenter"",""1"",""2392""
","
","","","","","","null","<div style=""font-size:60px;"">+</div>","null","","fixation","","","","","","","","","","",""
"aa-learning-trial","111","529478","0.0-9.0-2.0-1.19","3768","2","8","Male","approach_avoid_spark_v1","""event"",""trial"",""time""
""focus"",""0"",""2""
""fullscreenenter"",""1"",""2392""
","
","""event"",""trial"",""time""
""focus"",""0"",""2""
","""event"",""trial"",""time""
""fullscreenenter"",""1"",""2392""
","
","","","","","","943","images/goat6.png","","","learning","8","8","1","1","goat","animals","2","0","","good","[5]"
"html-keyboard-response","112","529978","0.0-9.0-2.0-0.20","3768","2","8","Male","approach_avoid_spark_v1","""event"",""trial"",""time""
""focus"",""0"",""2""
""fullscreenenter"",""1"",""2392""
","
","""event"",""trial"",""time""
""focus"",""0"",""2""
","""event"",""trial"",""time""
""fullscreenenter"",""1"",""2392""
","
","","","","","","null","<div style=""font-size:60px;"">+</div>","null","","fixation","","","","","","","","","","",""
"aa-learning-trial","113","532980","0.0-9.0-2.0-1.20","3768","2","8","Male","approach_avoid_spark_v1","""event"",""trial"",""time""
""focus"",""0"",""2""
""fullscreenenter"",""1"",""2392""
","
","""event"",""trial"",""time""
""focus"",""0"",""2""
","""event"",""trial"",""time""
""fullscreenenter"",""1"",""2392""
","
","","","","","","1121","images/cow1.png","","","learning","-9","0","0","0","cow","animals","2","0","","bad","[-3]"
"html-keyboard-response","114","533481","0.0-9.0-2.0-0.21","3768","2","8","Male","approach_avoid_spark_v1","""event"",""trial"",""time""
""focus"",""0"",""2""
""fullscreenenter"",""1"",""2392""
","
","""event"",""trial"",""time""
""focus"",""0"",""2""
","""event"",""trial"",""time""
""fullscreenenter"",""1"",""2392""
","
","","","","","","null","<div style=""font-size:60px;"">+</div>","null","","fixation","","","","","","","","","","",""
"aa-learning-trial","115","536483","0.0-9.0-2.0-1.21","3768","2","8","Male","approach_avoid_spark_v1","""event"",""trial"",""time""
""focus"",""0"",""2""
""fullscreenenter"",""1"",""2392""
","
","""event"",""trial"",""time""
""focus"",""0"",""2""
","""event"",""trial"",""time""
""fullscreenenter"",""1"",""2392""
","
","","","","","","1026","images/goat1.png","","","learning","-7","0","0","0","goat","animals","2","0","","good","[5]"
"html-keyboard-response","116","536984","0.0-9.0-2.0-0.22","3768","2","8","Male","approach_avoid_spark_v1","""event"",""trial"",""time""
""focus"",""0"",""2""
""fullscreenenter"",""1"",""2392""
","
","""event"",""trial"",""time""
""focus"",""0"",""2""
","""event"",""trial"",""time""
""fullscreenenter"",""1"",""2392""
","
","","","","","","null","<div style=""font-size:60px;"">+</div>","null","","fixation","","","","","","","","","","",""
"aa-learning-trial","117","539985","0.0-9.0-2.0-1.22","3768","2","8","Male","approach_avoid_spark_v1","""event"",""trial"",""time""
""focus"",""0"",""2""
""fullscreenenter"",""1"",""2392""
","
","""event"",""trial"",""time""
""focus"",""0"",""2""
","""event"",""trial"",""time""
""fullscreenenter"",""1"",""2392""
","
","","","","","","939","images/horse1.png","","","learning","-3","0","0","0","horse","animals","2","0","","neutral","0"
"html-keyboard-response","118","540486","0.0-9.0-2.0-0.23","3768","2","8","Male","approach_avoid_spark_v1","""event"",""trial"",""time""
""focus"",""0"",""2""
""fullscreenenter"",""1"",""2392""
","
","""event"",""trial"",""time""
""focus"",""0"",""2""
","""event"",""trial"",""time""
""fullscreenenter"",""1"",""2392""
","
","","","","","","null","<div style=""font-size:60px;"">+</div>","null","","fixation","","","","","","","","","","",""
"aa-learning-trial","119","543488","0.0-9.0-2.0-1.23","3768","2","8","Male","approach_avoid_spark_v1","""event"",""trial"",""time""
""focus"",""0"",""2""
""fullscreenenter"",""1"",""2392""
","
","""event"",""trial"",""time""
""focus"",""0"",""2""
","""event"",""trial"",""time""
""fullscreenenter"",""1"",""2392""
","
","","","","","","884","images/cow3.png","","","learning","5","0","0","0","cow","animals","2","0","","bad","[-3]"
"html-keyboard-response","120","543989","0.0-9.0-2.0-0.24","3768","2","8","Male","approach_avoid_spark_v1","""event"",""trial"",""time""
""focus"",""0"",""2""
""fullscreenenter"",""1"",""2392""
","
","""event"",""trial"",""time""
""focus"",""0"",""2""
","""event"",""trial"",""time""
""fullscreenenter"",""1"",""2392""
","
","","","","","","null","<div style=""font-size:60px;"">+</div>","null","","fixation","","","","","","","","","","",""
"aa-learning-trial","121","546990","0.0-9.0-2.0-1.24","3768","2","8","Male","approach_avoid_spark_v1","""event"",""trial"",""time""
""focus"",""0"",""2""
""fullscreenenter"",""1"",""2392""
","
","""event"",""trial"",""time""
""focus"",""0"",""2""
","""event"",""trial"",""time""
""fullscreenenter"",""1"",""2392""
","
","","","","","","981","images/horse3.png","","","learning","-8","0","0","0","horse","animals","2","0","","neutral","0"
"html-keyboard-response","122","547492","0.0-9.0-2.0-0.25","3768","2","8","Male","approach_avoid_spark_v1","""event"",""trial"",""time""
""focus"",""0"",""2""
""fullscreenenter"",""1"",""2392""
","
","""event"",""trial"",""time""
""focus"",""0"",""2""
","""event"",""trial"",""time""
""fullscreenenter"",""1"",""2392""
","
","","","","","","null","<div style=""font-size:60px;"">+</div>","null","","fixation","","","","","","","","","","",""
"aa-learning-trial","123","550493","0.0-9.0-2.0-1.25","3768","2","8","Male","approach_avoid_spark_v1","""event"",""trial"",""time""
""focus"",""0"",""2""
""fullscreenenter"",""1"",""2392""
","
","""event"",""trial"",""time""
""focus"",""0"",""2""
","""event"",""trial"",""time""
""fullscreenenter"",""1"",""2392""
","
","","","","","","831","images/goat1.png","","","learning","-7","0","0","0","goat","animals","2","0","","good","[5]"
"html-keyboard-response","124","550994","0.0-9.0-2.0-0.26","3768","2","8","Male","approach_avoid_spark_v1","""event"",""trial"",""time""
""focus"",""0"",""2""
""fullscreenenter"",""1"",""2392""
","
","""event"",""trial"",""time""
""focus"",""0"",""2""
","""event"",""trial"",""time""
""fullscreenenter"",""1"",""2392""
","
","","","","","","null","<div style=""font-size:60px;"">+</div>","null","","fixation","","","","","","","","","","",""
"aa-learning-trial","125","553996","0.0-9.0-2.0-1.26","3768","2","8","Male","approach_avoid_spark_v1","""event"",""trial"",""time""
""focus"",""0"",""2""
""fullscreenenter"",""1"",""2392""
","
","""event"",""trial"",""time""
""focus"",""0"",""2""
","""event"",""trial"",""time""
""fullscreenenter"",""1"",""2392""
","
","","","","","","703","images/goat6.png","","","learning","8","8","1","1","goat","animals","2","0","","good","[5]"
"html-keyboard-response","126","554497","0.0-9.0-2.0-0.27","3768","2","8","Male","approach_avoid_spark_v1","""event"",""trial"",""time""
""focus"",""0"",""2""
""fullscreenenter"",""1"",""2392""
","
","""event"",""trial"",""time""
""focus"",""0"",""2""
","""event"",""trial"",""time""
""fullscreenenter"",""1"",""2392""
","
","","","","","","null","<div style=""font-size:60px;"">+</div>","null","","fixation","","","","","","","","","","",""
"aa-learning-trial","127","557498","0.0-9.0-2.0-1.27","3768","2","8","Male","approach_avoid_spark_v1","""event"",""trial"",""time""
""focus"",""0"",""2""
""fullscreenenter"",""1"",""2392""
","
","""event"",""trial"",""time""
""focus"",""0"",""2""
","""event"",""trial"",""time""
""fullscreenenter"",""1"",""2392""
","
","","","","","","848","images/goat6.png","","","learning","8","8","1","1","goat","animals","2","0","","good","[5]"
"html-keyboard-response","128","557999","0.0-9.0-2.0-0.28","3768","2","8","Male","approach_avoid_spark_v1","""event"",""trial"",""time""
""focus"",""0"",""2""
""fullscreenenter"",""1"",""2392""
","
","""event"",""trial"",""time""
""focus"",""0"",""2""
","""event"",""trial"",""time""
""fullscreenenter"",""1"",""2392""
","
","","","","","","null","<div style=""font-size:60px;"">+</div>","null","","fixation","","","","","","","","","","",""
"aa-learning-trial","129","561000","0.0-9.0-2.0-1.28","3768","2","8","Male","approach_avoid_spark_v1","""event"",""trial"",""time""
""focus"",""0"",""2""
""fullscreenenter"",""1"",""2392""
","
","""event"",""trial"",""time""
""focus"",""0"",""2""
","""event"",""trial"",""time""
""fullscreenenter"",""1"",""2392""
","
","","","","","","923","images/cow5.png","","","learning","-4","0","0","0","cow","animals","2","0","","bad","[-3]"
"html-keyboard-response","130","561501","0.0-9.0-2.0-0.29","3768","2","8","Male","approach_avoid_spark_v1","""event"",""trial"",""time""
""focus"",""0"",""2""
""fullscreenenter"",""1"",""2392""
","
","""event"",""trial"",""time""
""focus"",""0"",""2""
","""event"",""trial"",""time""
""fullscreenenter"",""1"",""2392""
","
","","","","","","null","<div style=""font-size:60px;"">+</div>","null","","fixation","","","","","","","","","","",""
"aa-learning-trial","131","564502","0.0-9.0-2.0-1.29","3768","2","8","Male","approach_avoid_spark_v1","""event"",""trial"",""time""
""focus"",""0"",""2""
""fullscreenenter"",""1"",""2392""
","
","""event"",""trial"",""time""
""focus"",""0"",""2""
","""event"",""trial"",""time""
""fullscreenenter"",""1"",""2392""
","
","","","","","","716","images/horse1.png","","","learning","-3","0","0","0","horse","animals","2","0","","neutral","0"
"html-keyboard-response","132","565003","0.0-9.0-2.0-0.30","3768","2","8","Male","approach_avoid_spark_v1","""event"",""trial"",""time""
""focus"",""0"",""2""
""fullscreenenter"",""1"",""2392""
","
","""event"",""trial"",""time""
""focus"",""0"",""2""
","""event"",""trial"",""time""
""fullscreenenter"",""1"",""2392""
","
","","","","","","null","<div style=""font-size:60px;"">+</div>","null","","fixation","","","","","","","","","","",""
"aa-learning-trial","133","568004","0.0-9.0-2.0-1.30","3768","2","8","Male","approach_avoid_spark_v1","""event"",""trial"",""time""
""focus"",""0"",""2""
""fullscreenenter"",""1"",""2392""
","
","""event"",""trial"",""time""
""focus"",""0"",""2""
","""event"",""trial"",""time""
""fullscreenenter"",""1"",""2392""
","
","","","","","","798","images/cow3.png","","","learning","5","0","0","0","cow","animals","2","0","","bad","[-3]"
"html-keyboard-response","134","568506","0.0-9.0-2.0-0.31","3768","2","8","Male","approach_avoid_spark_v1","""event"",""trial"",""time""
""focus"",""0"",""2""
""fullscreenenter"",""1"",""2392""
","
","""event"",""trial"",""time""
""focus"",""0"",""2""
","""event"",""trial"",""time""
""fullscreenenter"",""1"",""2392""
","
","","","","","","null","<div style=""font-size:60px;"">+</div>","null","","fixation","","","","","","","","","","",""
"aa-learning-trial","135","571507","0.0-9.0-2.0-1.31","3768","2","8","Male","approach_avoid_spark_v1","""event"",""trial"",""time""
""focus"",""0"",""2""
""fullscreenenter"",""1"",""2392""
","
","""event"",""trial"",""time""
""focus"",""0"",""2""
","""event"",""trial"",""time""
""fullscreenenter"",""1"",""2392""
","
","","","","","","1185","images/goat8.png","","","learning","3","0","0","0","goat","animals","2","0","","good","[5]"
"html-keyboard-response","136","572008","0.0-9.0-2.0-0.32","3768","2","8","Male","approach_avoid_spark_v1","""event"",""trial"",""time""
""focus"",""0"",""2""
""fullscreenenter"",""1"",""2392""
","
","""event"",""trial"",""time""
""focus"",""0"",""2""
","""event"",""trial"",""time""
""fullscreenenter"",""1"",""2392""
","
","","","","","","null","<div style=""font-size:60px;"">+</div>","null","","fixation","","","","","","","","","","",""
"aa-learning-trial","137","575009","0.0-9.0-2.0-1.32","3768","2","8","Male","approach_avoid_spark_v1","""event"",""trial"",""time""
""focus"",""0"",""2""
""fullscreenenter"",""1"",""2392""
","
","""event"",""trial"",""time""
""focus"",""0"",""2""
","""event"",""trial"",""time""
""fullscreenenter"",""1"",""2392""
","
","","","","","","1210","images/goat5.png","","","learning","-5","0","0","0","goat","animals","2","0","","good","[5]"
"html-keyboard-response","138","575510","0.0-9.0-2.0-0.33","3768","2","8","Male","approach_avoid_spark_v1","""event"",""trial"",""time""
""focus"",""0"",""2""
""fullscreenenter"",""1"",""2392""
","
","""event"",""trial"",""time""
""focus"",""0"",""2""
","""event"",""trial"",""time""
""fullscreenenter"",""1"",""2392""
","
","","","","","","null","<div style=""font-size:60px;"">+</div>","null","","fixation","","","","","","","","","","",""
"aa-learning-trial","139","578513","0.0-9.0-2.0-1.33","3768","2","8","Male","approach_avoid_spark_v1","""event"",""trial"",""time""
""focus"",""0"",""2""
""fullscreenenter"",""1"",""2392""
","
","""event"",""trial"",""time""
""focus"",""0"",""2""
","""event"",""trial"",""time""
""fullscreenenter"",""1"",""2392""
","
","","","","","","603","images/cow5.png","","","learning","-4","0","0","0","cow","animals","2","0","","bad","[-3]"
"html-keyboard-response","140","579015","0.0-9.0-2.0-0.34","3768","2","8","Male","approach_avoid_spark_v1","""event"",""trial"",""time""
""focus"",""0"",""2""
""fullscreenenter"",""1"",""2392""
","
","""event"",""trial"",""time""
""focus"",""0"",""2""
","""event"",""trial"",""time""
""fullscreenenter"",""1"",""2392""
","
","","","","","","null","<div style=""font-size:60px;"">+</div>","null","","fixation","","","","","","","","","","",""
"aa-learning-trial","141","582016","0.0-9.0-2.0-1.34","3768","2","8","Male","approach_avoid_spark_v1","""event"",""trial"",""time""
""focus"",""0"",""2""
""fullscreenenter"",""1"",""2392""
","
","""event"",""trial"",""time""
""focus"",""0"",""2""
","""event"",""trial"",""time""
""fullscreenenter"",""1"",""2392""
","
","","","","","","674","images/cow3.png","","","learning","5","0","0","0","cow","animals","2","0","","bad","[-3]"
"html-keyboard-response","142","582517","0.0-9.0-2.0-0.35","3768","2","8","Male","approach_avoid_spark_v1","""event"",""trial"",""time""
""focus"",""0"",""2""
""fullscreenenter"",""1"",""2392""
","
","""event"",""trial"",""time""
""focus"",""0"",""2""
","""event"",""trial"",""time""
""fullscreenenter"",""1"",""2392""
","
","","","","","","null","<div style=""font-size:60px;"">+</div>","null","","fixation","","","","","","","","","","",""
"aa-learning-trial","143","585518","0.0-9.0-2.0-1.35","3768","2","8","Male","approach_avoid_spark_v1","""event"",""trial"",""time""
""focus"",""0"",""2""
""fullscreenenter"",""1"",""2392""
","
","""event"",""trial"",""time""
""focus"",""0"",""2""
","""event"",""trial"",""time""
""fullscreenenter"",""1"",""2392""
","
","","","","","","988","images/horse7.png","","","learning","2","2","1","1","horse","animals","2","0","","neutral","0"
"html-keyboard-response","144","586019","0.0-9.0-2.0-0.36","3768","2","8","Male","approach_avoid_spark_v1","""event"",""trial"",""time""
""focus"",""0"",""2""
""fullscreenenter"",""1"",""2392""
","
","""event"",""trial"",""time""
""focus"",""0"",""2""
","""event"",""trial"",""time""
""fullscreenenter"",""1"",""2392""
","
","","","","","","null","<div style=""font-size:60px;"">+</div>","null","","fixation","","","","","","","","","","",""
"aa-learning-trial","145","589021","0.0-9.0-2.0-1.36","3768","2","8","Male","approach_avoid_spark_v1","""event"",""trial"",""time""
""focus"",""0"",""2""
""fullscreenenter"",""1"",""2392""
","
","""event"",""trial"",""time""
""focus"",""0"",""2""
","""event"",""trial"",""time""
""fullscreenenter"",""1"",""2392""
","
","","","","","","718","images/horse7.png","","","learning","2","2","1","1","horse","animals","2","0","","neutral","0"
"html-keyboard-response","146","589522","0.0-9.0-2.0-0.37","3768","2","8","Male","approach_avoid_spark_v1","""event"",""trial"",""time""
""focus"",""0"",""2""
""fullscreenenter"",""1"",""2392""
","
","""event"",""trial"",""time""
""focus"",""0"",""2""
","""event"",""trial"",""time""
""fullscreenenter"",""1"",""2392""
","
","","","","","","null","<div style=""font-size:60px;"">+</div>","null","","fixation","","","","","","","","","","",""
"aa-learning-trial","147","592523","0.0-9.0-2.0-1.37","3768","2","8","Male","approach_avoid_spark_v1","""event"",""trial"",""time""
""focus"",""0"",""2""
""fullscreenenter"",""1"",""2392""
","
","""event"",""trial"",""time""
""focus"",""0"",""2""
","""event"",""trial"",""time""
""fullscreenenter"",""1"",""2392""
","
","","","","","","775","images/horse7.png","","","learning","2","2","1","1","horse","animals","2","0","","neutral","0"
"html-keyboard-response","148","593024","0.0-9.0-2.0-0.38","3768","2","8","Male","approach_avoid_spark_v1","""event"",""trial"",""time""
""focus"",""0"",""2""
""fullscreenenter"",""1"",""2392""
","
","""event"",""trial"",""time""
""focus"",""0"",""2""
","""event"",""trial"",""time""
""fullscreenenter"",""1"",""2392""
","
","","","","","","null","<div style=""font-size:60px;"">+</div>","null","","fixation","","","","","","","","","","",""
"aa-learning-trial","149","596026","0.0-9.0-2.0-1.38","3768","2","8","Male","approach_avoid_spark_v1","""event"",""trial"",""time""
""focus"",""0"",""2""
""fullscreenenter"",""1"",""2392""
","
","""event"",""trial"",""time""
""focus"",""0"",""2""
","""event"",""trial"",""time""
""fullscreenenter"",""1"",""2392""
","
","","","","","","745","images/horse3.png","","","learning","-8","0","0","0","horse","animals","2","0","","neutral","0"
"html-keyboard-response","150","596527","0.0-9.0-2.0-0.39","3768","2","8","Male","approach_avoid_spark_v1","""event"",""trial"",""time""
""focus"",""0"",""2""
""fullscreenenter"",""1"",""2392""
","
","""event"",""trial"",""time""
""focus"",""0"",""2""
","""event"",""trial"",""time""
""fullscreenenter"",""1"",""2392""
","
","","","","","","null","<div style=""font-size:60px;"">+</div>","null","","fixation","","","","","","","","","","",""
"aa-learning-trial","151","599529","0.0-9.0-2.0-1.39","3768","2","8","Male","approach_avoid_spark_v1","""event"",""trial"",""time""
""focus"",""0"",""2""
""fullscreenenter"",""1"",""2392""
","
","""event"",""trial"",""time""
""focus"",""0"",""2""
","""event"",""trial"",""time""
""fullscreenenter"",""1"",""2392""
","
","","","","","","770","images/cow5.png","","","learning","-4","0","0","0","cow","animals","2","0","","bad","[-3]"
"html-keyboard-response","152","600031","0.0-9.0-2.0-0.40","3768","2","8","Male","approach_avoid_spark_v1","""event"",""trial"",""time""
""focus"",""0"",""2""
""fullscreenenter"",""1"",""2392""
","
","""event"",""trial"",""time""
""focus"",""0"",""2""
","""event"",""trial"",""time""
""fullscreenenter"",""1"",""2392""
","
","","","","","","null","<div style=""font-size:60px;"">+</div>","null","","fixation","","","","","","","","","","",""
"aa-learning-trial","153","603033","0.0-9.0-2.0-1.40","3768","2","8","Male","approach_avoid_spark_v1","""event"",""trial"",""time""
""focus"",""0"",""2""
""fullscreenenter"",""1"",""2392""
","
","""event"",""trial"",""time""
""focus"",""0"",""2""
","""event"",""trial"",""time""
""fullscreenenter"",""1"",""2392""
","
","","","","","","1553","images/goat1.png","","","learning","-7","0","0","0","goat","animals","2","0","","good","[5]"
"html-keyboard-response","154","603534","0.0-9.0-2.0-0.41","3768","2","8","Male","approach_avoid_spark_v1","""event"",""trial"",""time""
""focus"",""0"",""2""
""fullscreenenter"",""1"",""2392""
","
","""event"",""trial"",""time""
""focus"",""0"",""2""
","""event"",""trial"",""time""
""fullscreenenter"",""1"",""2392""
","
","","","","","","null","<div style=""font-size:60px;"">+</div>","null","","fixation","","","","","","","","","","",""
"aa-learning-trial","155","606535","0.0-9.0-2.0-1.41","3768","2","8","Male","approach_avoid_spark_v1","""event"",""trial"",""time""
""focus"",""0"",""2""
""fullscreenenter"",""1"",""2392""
","
","""event"",""trial"",""time""
""focus"",""0"",""2""
","""event"",""trial"",""time""
""fullscreenenter"",""1"",""2392""
","
","","","","","","1418","images/cow3.png","","","learning","5","5","1","1","cow","animals","2","0","","bad","[-3]"
"html-keyboard-response","156","607035","0.0-9.0-2.0-0.42","3768","2","8","Male","approach_avoid_spark_v1","""event"",""trial"",""time""
""focus"",""0"",""2""
""fullscreenenter"",""1"",""2392""
","
","""event"",""trial"",""time""
""focus"",""0"",""2""
","""event"",""trial"",""time""
""fullscreenenter"",""1"",""2392""
","
","","","","","","null","<div style=""font-size:60px;"">+</div>","null","","fixation","","","","","","","","","","",""
"aa-learning-trial","157","610037","0.0-9.0-2.0-1.42","3768","2","8","Male","approach_avoid_spark_v1","""event"",""trial"",""time""
""focus"",""0"",""2""
""fullscreenenter"",""1"",""2392""
","
","""event"",""trial"",""time""
""focus"",""0"",""2""
","""event"",""trial"",""time""
""fullscreenenter"",""1"",""2392""
","
","","","","","","1053","images/cow8.png","","","learning","-2","0","0","0","cow","animals","2","0","","bad","[-3]"
"html-keyboard-response","158","610538","0.0-9.0-2.0-0.43","3768","2","8","Male","approach_avoid_spark_v1","""event"",""trial"",""time""
""focus"",""0"",""2""
""fullscreenenter"",""1"",""2392""
","
","""event"",""trial"",""time""
""focus"",""0"",""2""
","""event"",""trial"",""time""
""fullscreenenter"",""1"",""2392""
","
","","","","","","null","<div style=""font-size:60px;"">+</div>","null","","fixation","","","","","","","","","","",""
"aa-learning-trial","159","613541","0.0-9.0-2.0-1.43","3768","2","8","Male","approach_avoid_spark_v1","""event"",""trial"",""time""
""focus"",""0"",""2""
""fullscreenenter"",""1"",""2392""
","
","""event"",""trial"",""time""
""focus"",""0"",""2""
","""event"",""trial"",""time""
""fullscreenenter"",""1"",""2392""
","
","","","","","","934","images/horse1.png","","","learning","-3","0","0","0","horse","animals","2","0","","neutral","0"
"html-keyboard-response","160","614041","0.0-9.0-2.0-0.44","3768","2","8","Male","approach_avoid_spark_v1","""event"",""trial"",""time""
""focus"",""0"",""2""
""fullscreenenter"",""1"",""2392""
","
","""event"",""trial"",""time""
""focus"",""0"",""2""
","""event"",""trial"",""time""
""fullscreenenter"",""1"",""2392""
","
","","","","","","null","<div style=""font-size:60px;"">+</div>","null","","fixation","","","","","","","","","","",""
"aa-learning-trial","161","617043","0.0-9.0-2.0-1.44","3768","2","8","Male","approach_avoid_spark_v1","""event"",""trial"",""time""
""focus"",""0"",""2""
""fullscreenenter"",""1"",""2392""
","
","""event"",""trial"",""time""
""focus"",""0"",""2""
","""event"",""trial"",""time""
""fullscreenenter"",""1"",""2392""
","
","","","","","","751","images/goat6.png","","","learning","8","8","1","1","goat","animals","2","0","","good","[5]"
"html-keyboard-response","162","617546","0.0-9.0-2.0-0.45","3768","2","8","Male","approach_avoid_spark_v1","""event"",""trial"",""time""
""focus"",""0"",""2""
""fullscreenenter"",""1"",""2392""
","
","""event"",""trial"",""time""
""focus"",""0"",""2""
","""event"",""trial"",""time""
""fullscreenenter"",""1"",""2392""
","
","","","","","","null","<div style=""font-size:60px;"">+</div>","null","","fixation","","","","","","","","","","",""
"aa-learning-trial","163","620549","0.0-9.0-2.0-1.45","3768","2","8","Male","approach_avoid_spark_v1","""event"",""trial"",""time""
""focus"",""0"",""2""
""fullscreenenter"",""1"",""2392""
","
","""event"",""trial"",""time""
""focus"",""0"",""2""
","""event"",""trial"",""time""
""fullscreenenter"",""1"",""2392""
","
","","","","","","1094","images/cow4.png","","","learning","7","0","0","0","cow","animals","2","0","","bad","[-3]"
"html-keyboard-response","164","621051","0.0-9.0-2.0-0.46","3768","2","8","Male","approach_avoid_spark_v1","""event"",""trial"",""time""
""focus"",""0"",""2""
""fullscreenenter"",""1"",""2392""
","
","""event"",""trial"",""time""
""focus"",""0"",""2""
","""event"",""trial"",""time""
""fullscreenenter"",""1"",""2392""
","
","","","","","","null","<div style=""font-size:60px;"">+</div>","null","","fixation","","","","","","","","","","",""
"aa-learning-trial","165","624054","0.0-9.0-2.0-1.46","3768","2","8","Male","approach_avoid_spark_v1","""event"",""trial"",""time""
""focus"",""0"",""2""
""fullscreenenter"",""1"",""2392""
","
","""event"",""trial"",""time""
""focus"",""0"",""2""
","""event"",""trial"",""time""
""fullscreenenter"",""1"",""2392""
","
","","","","","","1797","images/goat4.png","","","learning","1","1","1","1","goat","animals","2","0","","good","[5]"
"html-keyboard-response","166","624556","0.0-9.0-2.0-0.47","3768","2","8","Male","approach_avoid_spark_v1","""event"",""trial"",""time""
""focus"",""0"",""2""
""fullscreenenter"",""1"",""2392""
","
","""event"",""trial"",""time""
""focus"",""0"",""2""
","""event"",""trial"",""time""
""fullscreenenter"",""1"",""2392""
","
","","","","","","null","<div style=""font-size:60px;"">+</div>","null","","fixation","","","","","","","","","","",""
"aa-learning-trial","167","627559","0.0-9.0-2.0-1.47","3768","2","8","Male","approach_avoid_spark_v1","""event"",""trial"",""time""
""focus"",""0"",""2""
""fullscreenenter"",""1"",""2392""
","
","""event"",""trial"",""time""
""focus"",""0"",""2""
","""event"",""trial"",""time""
""fullscreenenter"",""1"",""2392""
","
","","","","","","588","images/horse1.png","","","learning","-3","0","0","0","horse","animals","2","0","","neutral","0"
"html-keyboard-response","168","628061","0.0-9.0-2.0-0.48","3768","2","8","Male","approach_avoid_spark_v1","""event"",""trial"",""time""
""focus"",""0"",""2""
""fullscreenenter"",""1"",""2392""
","
","""event"",""trial"",""time""
""focus"",""0"",""2""
","""event"",""trial"",""time""
""fullscreenenter"",""1"",""2392""
","
","","","","","","null","<div style=""font-size:60px;"">+</div>","null","","fixation","","","","","","","","","","",""
"aa-learning-trial","169","631062","0.0-9.0-2.0-1.48","3768","2","8","Male","approach_avoid_spark_v1","""event"",""trial"",""time""
""focus"",""0"",""2""
""fullscreenenter"",""1"",""2392""
","
","""event"",""trial"",""time""
""focus"",""0"",""2""
","""event"",""trial"",""time""
""fullscreenenter"",""1"",""2392""
","
","","","","","","955","images/horse2.png","","","learning","4","0","0","0","horse","animals","2","0","","neutral","0"
"html-keyboard-response","170","631563","0.0-9.0-2.0-0.49","3768","2","8","Male","approach_avoid_spark_v1","""event"",""trial"",""time""
""focus"",""0"",""2""
""fullscreenenter"",""1"",""2392""
","
","""event"",""trial"",""time""
""focus"",""0"",""2""
","""event"",""trial"",""time""
""fullscreenenter"",""1"",""2392""
","
","","","","","","null","<div style=""font-size:60px;"">+</div>","null","","fixation","","","","","","","","","","",""
"aa-learning-trial","171","634564","0.0-9.0-2.0-1.49","3768","2","8","Male","approach_avoid_spark_v1","""event"",""trial"",""time""
""focus"",""0"",""2""
""fullscreenenter"",""1"",""2392""
","
","""event"",""trial"",""time""
""focus"",""0"",""2""
","""event"",""trial"",""time""
""fullscreenenter"",""1"",""2392""
","
","","","","","","629","images/cow5.png","","","learning","-4","0","0","0","cow","animals","2","0","","bad","[-3]"
"html-keyboard-response","172","635065","0.0-9.0-2.0-0.50","3768","2","8","Male","approach_avoid_spark_v1","""event"",""trial"",""time""
""focus"",""0"",""2""
""fullscreenenter"",""1"",""2392""
","
","""event"",""trial"",""time""
""focus"",""0"",""2""
","""event"",""trial"",""time""
""fullscreenenter"",""1"",""2392""
","
","","","","","","null","<div style=""font-size:60px;"">+</div>","null","","fixation","","","","","","","","","","",""
"aa-learning-trial","173","638066","0.0-9.0-2.0-1.50","3768","2","8","Male","approach_avoid_spark_v1","""event"",""trial"",""time""
""focus"",""0"",""2""
""fullscreenenter"",""1"",""2392""
","
","""event"",""trial"",""time""
""focus"",""0"",""2""
","""event"",""trial"",""time""
""fullscreenenter"",""1"",""2392""
","
","","","","","","693","images/goat5.png","","","learning","-5","0","0","0","goat","animals","2","0","","good","[5]"
"html-button-response","174","648636","0.0-9.0-3.0","3768","2","8","Male","approach_avoid_spark_v1","""event"",""trial"",""time""
""focus"",""0"",""2""
""fullscreenenter"",""1"",""2392""
","
","""event"",""trial"",""time""
""focus"",""0"",""2""
","""event"",""trial"",""time""
""fullscreenenter"",""1"",""2392""
","
","","","","","","10568","<p> You have completed the round! <p> In this round, you earned 41 points! </p>","0","","break","","","","","","","","","","",""
"html-button-response","175","651203","0.0-10.0","3768","2","8","Male","approach_avoid_spark_v1","""event"",""trial"",""time""
""focus"",""0"",""2""
""fullscreenenter"",""1"",""2392""
","
","""event"",""trial"",""time""
""focus"",""0"",""2""
","""event"",""trial"",""time""
""fullscreenenter"",""1"",""2392""
","
","","","","","","2567","<p> Now it's time to play another round. </p>","0","","transition_screen","","","","","","","","","","",""
"preload","176","651332","0.0-11.0-0.0","3768","2","8","Male","approach_avoid_spark_v1","""event"",""trial"",""time""
""focus"",""0"",""2""
""fullscreenenter"",""1"",""2392""
","
","""event"",""trial"",""time""
""focus"",""0"",""2""
","""event"",""trial"",""time""
""fullscreenenter"",""1"",""2392""
","
","true","false","[]","[]","[]","","","","","","","","","","","","","","","",""
"learning-instructions","177","659795","0.0-11.0-1.0-0.0","3768","2","8","Male","approach_avoid_spark_v1","""event"",""trial"",""time""
""focus"",""0"",""2""
""fullscreenenter"",""1"",""2392""
","
","""event"",""trial"",""time""
""focus"",""0"",""2""
","""event"",""trial"",""time""
""fullscreenenter"",""1"",""2392""
","
","","","","","","2267","<p> Your goal in this round is to sell different plants to a picky customer. </p></div>","","0","instructions","","","","","","","","","","",""
"learning-instructions","178","671722","0.0-11.0-1.0-0.1","3768","2","8","Male","approach_avoid_spark_v1","""event"",""trial"",""time""
""focus"",""0"",""2""
""fullscreenenter"",""1"",""2392""
","
","""event"",""trial"",""time""
""focus"",""0"",""2""
","""event"",""trial"",""time""
""fullscreenenter"",""1"",""2392""
","
","","","","","","2224","<p> The customer likes some plants and dislikes others.  </p><p> On each turn, you will see a plant.   </p><p> You need to decide whether to offer it to the customer or not.  </p>","","0","instructions","","","","","","","","","","",""
"learning-instructions","179","680459","0.0-11.0-1.0-0.2","3768","2","8","Male","approach_avoid_spark_v1","""event"",""trial"",""time""
""focus"",""0"",""2""
""fullscreenenter"",""1"",""2392""
","
","""event"",""trial"",""time""
""focus"",""0"",""2""
","""event"",""trial"",""time""
""fullscreenenter"",""1"",""2392""
","
","","","","","","2792","<p> You can offer the plant by pressing 1 and decide to not offer it by pressing 0. </p><br><div class=""choice-instructions-grid""> <div class=""choice-option""><img src=""images/approach.png"" class=""choice-option-img"" stage=""instructions"" position=""0"" ><div class=""choice-option-text""> Press ""1."" </div></div><div class=""choice-option""><img src=""images/avoid.png"" class=""choice-option-img"" stage=""instructions"" position=""1"" ><div class=""choice-option-text""> Press ""0."" </div></div>","","0","instructions","","","","","","","","","","",""
"learning-instructions","180","693745","0.0-11.0-1.0-0.3","3768","2","8","Male","approach_avoid_spark_v1","""event"",""trial"",""time""
""focus"",""0"",""2""
""fullscreenenter"",""1"",""2392""
","
","""event"",""trial"",""time""
""focus"",""0"",""2""
","""event"",""trial"",""time""
""fullscreenenter"",""1"",""2392""
","
","","","","","","3949","<p> If you offer a plant to the customer that she likes, she will be very pleased! </p><p> But if you offer a plant that she does NOT like, she will be annoyed. </p>","","0","instructions","","","","","","","","","","",""
"learning-instructions","181","788135","0.0-11.0-1.0-0.4","3768","2","8","Male","approach_avoid_spark_v1","""event"",""trial"",""time""
""focus"",""0"",""2""
""fullscreenenter"",""1"",""2392""
","
","""event"",""trial"",""time""
""focus"",""0"",""2""
","""event"",""trial"",""time""
""fullscreenenter"",""1"",""2392""
","
","","","","","","81358","<p> You will earn points based on how you made the customer feel. </p><p> If you made her pleased, you will WIN anywhere from 1 - 9 points, </p><p> but if you made her annoyed, you will LOSE anywhere from 1 - 9 points. </p>","","0","instructions","","","","","","","","","","",""
"learning-instructions","182","797230","0.0-11.0-1.0-0.5","3768","2","8","Male","approach_avoid_spark_v1","""event"",""trial"",""time""
""focus"",""0"",""2""
""fullscreenenter"",""1"",""2392""
","
","""event"",""trial"",""time""
""focus"",""0"",""2""
","""event"",""trial"",""time""
""fullscreenenter"",""1"",""2392""
","
","","","","","","2436","<p> You will see how many points you won or lost in the center of the screen. </p><p> Here is what you would see if you won 5 points: </p><p style=""color:green;font-size:50px;font-weight:bolder"">5</p>","","0","instructions","","","","","","","","","","",""
"learning-instructions","183","803024","0.0-11.0-1.0-0.6","3768","2","8","Male","approach_avoid_spark_v1","""event"",""trial"",""time""
""focus"",""0"",""2""
""fullscreenenter"",""1"",""2392""
","
","""event"",""trial"",""time""
""focus"",""0"",""2""
","""event"",""trial"",""time""
""fullscreenenter"",""1"",""2392""
","
","","","","","","2949","<p> And here is what you would see if you lost 3 points: </p><p style=""color:red;font-size:50px;font-weight:bolder"">-3</p>","","0","instructions","","","","","","","","","","",""
"learning-instructions","184","819990","0.0-11.0-1.0-0.7","3768","2","8","Male","approach_avoid_spark_v1","""event"",""trial"",""time""
""focus"",""0"",""2""
""fullscreenenter"",""1"",""2392""
","
","""event"",""trial"",""time""
""focus"",""0"",""2""
","""event"",""trial"",""time""
""fullscreenenter"",""1"",""2392""
","
","","","","","","1556","<p> Some plants will make the customer VERY pleased or annoyed. </p><p> These plants will make you win or lose LOTS of points. </p><p> The customer will have less strong feelings about other plants. </p><p> These plants will make you win or lose small amounts of points. </p>","","0","instructions","","","","","","","","","","",""
"learning-instructions","185","834973","0.0-11.0-1.0-0.8","3768","2","8","Male","approach_avoid_spark_v1","""event"",""trial"",""time""
""focus"",""0"",""2""
""fullscreenenter"",""1"",""2392""
","
","""event"",""trial"",""time""
""focus"",""0"",""2""
","""event"",""trial"",""time""
""fullscreenenter"",""1"",""2392""
","
","","","","","","1890","<p> If you choose to not offer the plant to the customer, you will not win or lose any points. </p><p>  However, in the center of the screen, you will see the number of points you WOULD HAVE won or lost if you had offered the plant. </p>","","0","instructions","","","","","","","","","","",""
"learning-instructions","186","848292","0.0-11.0-1.0-0.9","3768","2","8","Male","approach_avoid_spark_v1","""event"",""trial"",""time""
""focus"",""0"",""2""
""fullscreenenter"",""1"",""2392""
","
","""event"",""trial"",""time""
""focus"",""0"",""2""
","""event"",""trial"",""time""
""fullscreenenter"",""1"",""2392""
","
","","","","","","1361","<p> Here is what you might see if you did not offer the plant but the customer would have liked it: </p><p style=""color:grey; font-size:50px; display: inline-block; border-spacing: 15px; border-width:3px; border-style:solid; border-color:red"">  &nbsp; 6 &nbsp; </p><p> Remember, in this case, you would not win or lose ANY points because you did not offer the plant.  </p>","","0","instructions","","","","","","","","","","",""
"learning-instructions","187","857596","0.0-11.0-1.0-0.10","3768","2","8","Male","approach_avoid_spark_v1","""event"",""trial"",""time""
""focus"",""0"",""2""
""fullscreenenter"",""1"",""2392""
","
","""event"",""trial"",""time""
""focus"",""0"",""2""
","""event"",""trial"",""time""
""fullscreenenter"",""1"",""2392""
","
","","","","","","1314","<p> Try to make the best choice for each plant because </p><p> at the end of the game, you will earn bonus money based on how many points you earned. </p>","","0","instructions","","","","","","","","","","",""
"learning-instructions","188","866678","0.0-11.0-1.0-0.11","3768","2","8","Male","approach_avoid_spark_v1","""event"",""trial"",""time""
""focus"",""0"",""2""
""fullscreenenter"",""1"",""2392""
","
","""event"",""trial"",""time""
""focus"",""0"",""2""
","""event"",""trial"",""time""
""fullscreenenter"",""1"",""2392""
","
","","","","","","886","<p> You will have 3 seconds to make each choice. Try to respond before time runs out! </p><p> You will lose 5 points each time you do not make a response. </p>","","0","instructions","","","","","","","","","","",""
"html-keyboard-response","189","867281","0.0-11.0-2.0-0.0","3768","2","8","Male","approach_avoid_spark_v1","""event"",""trial"",""time""
""focus"",""0"",""2""
""fullscreenenter"",""1"",""2392""
","
","""event"",""trial"",""time""
""focus"",""0"",""2""
","""event"",""trial"",""time""
""fullscreenenter"",""1"",""2392""
","
","","","","","","null","<div style=""font-size:60px;"">+</div>","null","","fixation","","","","","","","","","","",""
"aa-learning-trial","190","870284","0.0-11.0-2.0-1.0","3768","2","8","Male","approach_avoid_spark_v1","""event"",""trial"",""time""
""focus"",""0"",""2""
""fullscreenenter"",""1"",""2392""
","
","""event"",""trial"",""time""
""focus"",""0"",""2""
","""event"",""trial"",""time""
""fullscreenenter"",""1"",""2392""
","
","","","","","","958","images/cactus4.png","","","learning","-4","-4","1","1","cactus","plants","1","1","","bad","[-3]"
"html-keyboard-response","191","870787","0.0-11.0-2.0-0.1","3768","2","8","Male","approach_avoid_spark_v1","""event"",""trial"",""time""
""focus"",""0"",""2""
""fullscreenenter"",""1"",""2392""
","
","""event"",""trial"",""time""
""focus"",""0"",""2""
","""event"",""trial"",""time""
""fullscreenenter"",""1"",""2392""
","
","","","","","","null","<div style=""font-size:60px;"">+</div>","null","","fixation","","","","","","","","","","",""
"aa-learning-trial","192","873789","0.0-11.0-2.0-1.1","3768","2","8","Male","approach_avoid_spark_v1","""event"",""trial"",""time""
""focus"",""0"",""2""
""fullscreenenter"",""1"",""2392""
","
","""event"",""trial"",""time""
""focus"",""0"",""2""
","""event"",""trial"",""time""
""fullscreenenter"",""1"",""2392""
","
","","","","","","653","images/cactus6.png","","","learning","-3","0","0","0","cactus","plants","1","1","","bad","[-3]"
"html-keyboard-response","193","874291","0.0-11.0-2.0-0.2","3768","2","8","Male","approach_avoid_spark_v1","""event"",""trial"",""time""
""focus"",""0"",""2""
""fullscreenenter"",""1"",""2392""
","
","""event"",""trial"",""time""
""focus"",""0"",""2""
","""event"",""trial"",""time""
""fullscreenenter"",""1"",""2392""
","
","","","","","","null","<div style=""font-size:60px;"">+</div>","null","","fixation","","","","","","","","","","",""
"aa-learning-trial","194","877294","0.0-11.0-2.0-1.2","3768","2","8","Male","approach_avoid_spark_v1","""event"",""trial"",""time""
""focus"",""0"",""2""
""fullscreenenter"",""1"",""2392""
","
","""event"",""trial"",""time""
""focus"",""0"",""2""
","""event"",""trial"",""time""
""fullscreenenter"",""1"",""2392""
","
","","","","","","612","images/flower4.png","","","learning","8","0","0","0","flower","plants","1","1","","good","[6]"
"html-keyboard-response","195","877796","0.0-11.0-2.0-0.3","3768","2","8","Male","approach_avoid_spark_v1","""event"",""trial"",""time""
""focus"",""0"",""2""
""fullscreenenter"",""1"",""2392""
","
","""event"",""trial"",""time""
""focus"",""0"",""2""
","""event"",""trial"",""time""
""fullscreenenter"",""1"",""2392""
","
","","","","","","null","<div style=""font-size:60px;"">+</div>","null","","fixation","","","","","","","","","","",""
"aa-learning-trial","196","880799","0.0-11.0-2.0-1.3","3768","2","8","Male","approach_avoid_spark_v1","""event"",""trial"",""time""
""focus"",""0"",""2""
""fullscreenenter"",""1"",""2392""
","
","""event"",""trial"",""time""
""focus"",""0"",""2""
","""event"",""trial"",""time""
""fullscreenenter"",""1"",""2392""
","
","","","","","","876","images/cactus8.png","","","learning","-3","0","0","0","cactus","plants","1","1","","bad","[-3]"
"html-keyboard-response","197","881302","0.0-11.0-2.0-0.4","3768","2","8","Male","approach_avoid_spark_v1","""event"",""trial"",""time""
""focus"",""0"",""2""
""fullscreenenter"",""1"",""2392""
","
","""event"",""trial"",""time""
""focus"",""0"",""2""
","""event"",""trial"",""time""
""fullscreenenter"",""1"",""2392""
","
","","","","","","null","<div style=""font-size:60px;"">+</div>","null","","fixation","","","","","","","","","","",""
"aa-learning-trial","198","884304","0.0-11.0-2.0-1.4","3768","2","8","Male","approach_avoid_spark_v1","""event"",""trial"",""time""
""focus"",""0"",""2""
""fullscreenenter"",""1"",""2392""
","
","""event"",""trial"",""time""
""focus"",""0"",""2""
","""event"",""trial"",""time""
""fullscreenenter"",""1"",""2392""
","
","","","","","","1114","images/tree3.png","","","learning","[1]","0","0","0","tree","plants","1","1","","neutral","0"
"html-keyboard-response","199","884806","0.0-11.0-2.0-0.5","3768","2","8","Male","approach_avoid_spark_v1","""event"",""trial"",""time""
""focus"",""0"",""2""
""fullscreenenter"",""1"",""2392""
","
","""event"",""trial"",""time""
""focus"",""0"",""2""
","""event"",""trial"",""time""
""fullscreenenter"",""1"",""2392""
","
","","","","","","null","<div style=""font-size:60px;"">+</div>","null","","fixation","","","","","","","","","","",""
"aa-learning-trial","200","887809","0.0-11.0-2.0-1.5","3768","2","8","Male","approach_avoid_spark_v1","""event"",""trial"",""time""
""focus"",""0"",""2""
""fullscreenenter"",""1"",""2392""
","
","""event"",""trial"",""time""
""focus"",""0"",""2""
","""event"",""trial"",""time""
""fullscreenenter"",""1"",""2392""
","
","","","","","","793","images/flower4.png","","","learning","8","8","1","1","flower","plants","1","1","","good","[6]"
"html-keyboard-response","201","888311","0.0-11.0-2.0-0.6","3768","2","8","Male","approach_avoid_spark_v1","""event"",""trial"",""time""
""focus"",""0"",""2""
""fullscreenenter"",""1"",""2392""
","
","""event"",""trial"",""time""
""focus"",""0"",""2""
","""event"",""trial"",""time""
""fullscreenenter"",""1"",""2392""
","
","","","","","","null","<div style=""font-size:60px;"">+</div>","null","","fixation","","","","","","","","","","",""
"aa-learning-trial","202","891314","0.0-11.0-2.0-1.6","3768","2","8","Male","approach_avoid_spark_v1","""event"",""trial"",""time""
""focus"",""0"",""2""
""fullscreenenter"",""1"",""2392""
","
","""event"",""trial"",""time""
""focus"",""0"",""2""
","""event"",""trial"",""time""
""fullscreenenter"",""1"",""2392""
","
