"trial_type","trial_index","time_elapsed","internal_node_id","subject_id","task_condition","age","gender","task_version","interactions","blur_events","focus_events","fullscreenenter_events","fullscreenexit_events","success","timeout","failed_images","failed_audio","failed_video","rt","stimulus","response","button_pressed","task_part","approach_reward","points","key_press","option_selected","stim_cat","task_block","block_condition","block_number","correct","cat_type","mean_cat_reward"
"pavlovia","0","3","0.0-0.0","4028","2","15","Male","approach_avoid_spark_v1","""event"",""trial"",""time""
""fullscreenenter"",""1"",""1084""
","
","
","""event"",""trial"",""time""
""fullscreenenter"",""1"",""1084""
","
","","","","","","","","","","","","","","","","","","","","",""
"fullscreen","1","2081","0.0-1.0","4028","2","15","Male","approach_avoid_spark_v1","""event"",""trial"",""time""
""fullscreenenter"",""1"",""1084""
","
","
","""event"",""trial"",""time""
""fullscreenenter"",""1"",""1084""
","
","true","","","","","","","","","","","","","","","","","","","",""
"preload","2","5110","0.0-2.0","4028","2","15","Male","approach_avoid_spark_v1","""event"",""trial"",""time""
""fullscreenenter"",""1"",""1084""
","
","
","""event"",""trial"",""time""
""fullscreenenter"",""1"",""1084""
","
","true","false","[]","[]","[]","","","","","","","","","","","","","","","",""
"audio-keyboard-response","3","7351","0.0-3.0","4028","2","15","Male","approach_avoid_spark_v1","""event"",""trial"",""time""
""fullscreenenter"",""1"",""1084""
","
","
","""event"",""trial"",""time""
""fullscreenenter"",""1"",""1084""
","
","","","","","","2240","audio/beep_loop.wav"," ","","","","","","","","","","","","",""
"audio-button-response","4","8811","0.0-4.0","4028","2","15","Male","approach_avoid_spark_v1","""event"",""trial"",""time""
""fullscreenenter"",""1"",""1084""
","
","
","""event"",""trial"",""time""
""fullscreenenter"",""1"",""1084""
","
","","","","","","1451","audio/shark.wav","4","","","","","","","","","","","","",""
"audio-button-response","5","10891","0.0-5.0","4028","2","15","Male","approach_avoid_spark_v1","""event"",""trial"",""time""
""fullscreenenter"",""1"",""1084""
","
","
","""event"",""trial"",""time""
""fullscreenenter"",""1"",""1084""
","
","","","","","","1072","audio/turtle.wav","1","","","","","","","","","","","","",""
"preload","6","13330","0.0-6.0","4028","2","15","Male","approach_avoid_spark_v1","""event"",""trial"",""time""
""fullscreenenter"",""1"",""1084""
","
","
","""event"",""trial"",""time""
""fullscreenenter"",""1"",""1084""
","
","true","false","[]","[]","[]","","","","","","","","","","","","","","","",""
"html-keyboard-response","7","15077","0.0-7.0","4028","2","15","Male","approach_avoid_spark_v1","""event"",""trial"",""time""
""fullscreenenter"",""1"",""1084""
","
","
","""event"",""trial"",""time""
""fullscreenenter"",""1"",""1084""
","
","","","","","","1745.3000000000466","Welcome to the experiment. Press any key to begin and to advance the instructions."," ","","","","","","","","","","","","",""
"learning-instructions","8","23243","0.0-8.0-0.0-0.0","4028","2","15","Male","approach_avoid_spark_v1","""event"",""trial"",""time""
""fullscreenenter"",""1"",""1084""
","
","
","""event"",""trial"",""time""
""fullscreenenter"",""1"",""1084""
","
","","","","","","1208.4000000000233","<p> Welcome! Today you are going to play 6 different rounds of a decision-making game. </p><p> Use the mouse to click next to continue. </p>","","0","instructions","","","","","","","","","","",""
"learning-instructions","9","27171","0.0-8.0-0.0-0.1","4028","2","15","Male","approach_avoid_spark_v1","""event"",""trial"",""time""
""fullscreenenter"",""1"",""1084""
","
","
","""event"",""trial"",""time""
""fullscreenenter"",""1"",""1084""
","
","","","","","","1187","<p> You will start with a practice round to learn the rules. </p>","","0","instructions","","","","","","","","","","",""
"learning-instructions","10","31291","0.0-8.0-0.0-0.2","4028","2","15","Male","approach_avoid_spark_v1","""event"",""trial"",""time""
""fullscreenenter"",""1"",""1084""
","
","
","""event"",""trial"",""time""
""fullscreenenter"",""1"",""1084""
","
","","","","","","666.9000000000233","<p> Your goal in this round is to give out sports equipment to kids. </p></div>","","0","instructions","","","","","","","","","","",""
"learning-instructions","11","40291","0.0-8.0-0.0-0.3","4028","2","15","Male","approach_avoid_spark_v1","""event"",""trial"",""time""
""fullscreenenter"",""1"",""1084""
","
","
","""event"",""trial"",""time""
""fullscreenenter"",""1"",""1084""
","
","","","","","","1427.0999999999767","<p> The kids only like some of the equipment.  </p><p> On each turn, you will see a piece of sports equipment.   </p><p> You need to decide whether to give it to the kids or not.  </p>","","0","instructions","","","","","","","","","","",""
"learning-instructions","12","46131","0.0-8.0-0.0-0.4","4028","2","15","Male","approach_avoid_spark_v1","""event"",""trial"",""time""
""fullscreenenter"",""1"",""1084""
","
","
","""event"",""trial"",""time""
""fullscreenenter"",""1"",""1084""
","
","","","","","","1066.5","<p> You can give them the equipment by pressing 1 and choose not to give it to them by pressing 0. </p><br><div class=""choice-instructions-grid""> <div class=""choice-option""><img src=""images/approach.png"" class=""choice-option-img"" stage=""instructions"" position=""0"" ><div class=""choice-option-text""> Press ""1."" </div></div><div class=""choice-option""><img src=""images/avoid.png"" class=""choice-option-img"" stage=""instructions"" position=""1"" ><div class=""choice-option-text""> Press ""0."" </div></div>","","0","instructions","","","","","","","","","","",""
"learning-instructions","13","54667","0.0-8.0-0.0-0.5","4028","2","15","Male","approach_avoid_spark_v1","""event"",""trial"",""time""
""fullscreenenter"",""1"",""1084""
","
","
","""event"",""trial"",""time""
""fullscreenenter"",""1"",""1084""
","
","","","","","","1132.8000000000466","<p> If you give them a piece of equipment they like, they will be happy! </p><p> But if you give them a piece of equipment they do not like, they will be sad. </p>","","0","instructions","","","","","","","","","","",""
"learning-instructions","14","65803","0.0-8.0-0.0-0.6","4028","2","15","Male","approach_avoid_spark_v1","""event"",""trial"",""time""
""fullscreenenter"",""1"",""1084""
","
","
","""event"",""trial"",""time""
""fullscreenenter"",""1"",""1084""
","
","","","","","","598.7000000000698","<p> You will earn points based on how you make kids feel. </p><p> If you make them happy, you will WIN anywhere from 1 - 9 points, </p><p> but if you make them sad, you will LOSE anywhere from 1 - 9 points. </p>","","0","instructions","","","","","","","","","","",""
"learning-instructions","15","77139","0.0-8.0-0.0-0.7","4028","2","15","Male","approach_avoid_spark_v1","""event"",""trial"",""time""
""fullscreenenter"",""1"",""1084""
","
","
","""event"",""trial"",""time""
""fullscreenenter"",""1"",""1084""
","
","","","","","","1754.8000000000466","<p> You will see how many points you won or lost in the center of the screen. </p><p> Here is what you would see if you won 6 points: </p><p style=""color:green;font-size:50px;font-weight:bolder"">6</p><p style=""color:green"">The text is GREEN because you WON points.</p>","","0","instructions","","","","","","","","","","",""
"learning-instructions","16","84434","0.0-8.0-0.0-0.8","4028","2","15","Male","approach_avoid_spark_v1","""event"",""trial"",""time""
""fullscreenenter"",""1"",""1084""
","
","
","""event"",""trial"",""time""
""fullscreenenter"",""1"",""1084""
","
","","","","","","1769.8999999999069","<p> And here is what you would see if you lost 4 points: </p><p style=""color:red;font-size:50px;font-weight:bolder"">-4</p><p style=""color:red"">The text is RED because you LOST points. </p>","","0","instructions","","","","","","","","","","",""
"learning-instructions","17","100339","0.0-8.0-0.0-0.9","4028","2","15","Male","approach_avoid_spark_v1","""event"",""trial"",""time""
""fullscreenenter"",""1"",""1084""
","
","
","""event"",""trial"",""time""
""fullscreenenter"",""1"",""1084""
","
","","","","","","1175","<p> Some of the equipment will make the kids VERY happy or sad. </p><p> These pieces of equipment will make you win or lose LOTS of points. </p><p> Other pieces of equipment will only make the kids a little happy or sad. </p><p> These pieces of equipment will make you win or lose small amounts of points. </p>","","0","instructions","","","","","","","","","","",""
"learning-instructions","18","112658","0.0-8.0-0.0-0.10","4028","2","15","Male","approach_avoid_spark_v1","""event"",""trial"",""time""
""fullscreenenter"",""1"",""1084""
","
","
","""event"",""trial"",""time""
""fullscreenenter"",""1"",""1084""
","
","","","","","","1675","<p> If you choose not to give them the equipment, you will not win or lose any points. </p><p>  However, in the center of the screen, you will see the number of points you WOULD HAVE won or lost if you had given them the equipment. </p>","","0","instructions","","","","","","","","","","",""
"learning-instructions","19","136459","0.0-8.0-0.0-0.11","4028","2","15","Male","approach_avoid_spark_v1","""event"",""trial"",""time""
""fullscreenenter"",""1"",""1084""
","
","
","""event"",""trial"",""time""
""fullscreenenter"",""1"",""1084""
","
","","","","","","2264.70000000007","<p> Here is what you might see if you did not give the equipment to the kids but it would have made them happy: </p><p style=""color:grey; font-size:50px; display: inline-block; border-spacing: 15px; border-width:3px; border-style:solid; border-color:red"">  &nbsp; 7 &nbsp; </p><p> Remember, in this case, you would not win or lose ANY points because you did not give them the equipment.  </p><p style=""color:grey"">The text is GREY because you earned ZERO points. </p><p style=""color:red"">However, choosing to give the kids the equipment would have made you win points. The box around the text is RED because you chose the worse option. </p>","","0","instructions","","","","","","","","","","",""
"learning-instructions","20","159459","0.0-8.0-0.0-0.12","4028","2","15","Male","approach_avoid_spark_v1","""event"",""trial"",""time""
""fullscreenenter"",""1"",""1084""
","
","
","""event"",""trial"",""time""
""fullscreenenter"",""1"",""1084""
","
","","","","","","1915","<p> Here is what you might see if you did not give the equipment to the kids but it would have made them sad: </p><p style=""color:grey;font-size:50px; display: inline-block; border-spacing: 15px; border-width:3px; border-style:solid; border-color:green"">  &nbsp; -8 &nbsp; </p><p> Remember, in this case, you would not win or lose ANY points because you did not give them the equipment.  </p><p style=""color:grey"">The text is GREY because you earned ZERO points. </p><p  style=""color:green""> Choosing to give the kids the equipment would have made you lose points. The box around the text is GREEN because you chose the better option.</p>","","0","instructions","","","","","","","","","","",""
"learning-instructions","21","171259","0.0-8.0-0.0-0.13","4028","2","15","Male","approach_avoid_spark_v1","""event"",""trial"",""time""
""fullscreenenter"",""1"",""1084""
","
","
","""event"",""trial"",""time""
""fullscreenenter"",""1"",""1084""
","
","","","","","","2954.29999999993","<p> You will have 3 seconds to make each choice. Try to respond before time runs out! </p><p> You will lose 5 points each time you do not make a response. </p>","","0","instructions","","","","","","","","","","",""
"learning-instructions","22","177835","0.0-8.0-0.0-0.14","4028","2","15","Male","approach_avoid_spark_v1","""event"",""trial"",""time""
""fullscreenenter"",""1"",""1084""
","
","
","""event"",""trial"",""time""
""fullscreenenter"",""1"",""1084""
","
","","","","","","1140.5999999999767","<p> This is just a practice round, but in the real game, your bonus payment will depend on your total number of points.","","0","instructions","","","","","","","","","","",""
"learning-instructions","23","184275","0.0-8.0-0.0-0.15","4028","2","15","Male","approach_avoid_spark_v1","""event"",""trial"",""time""
""fullscreenenter"",""1"",""1084""
","
","
","""event"",""trial"",""time""
""fullscreenenter"",""1"",""1084""
","
","","","","","","660.3000000000466","<p> Remember, you can give them the equipment by pressing 1 and choose not to give it to them by pressing 0. </p><br><div class=""choice-instructions-grid""> <div class=""choice-option""><img src=""images/approach.png"" class=""choice-option-img"" stage=""instructions"" position=""0"" ><div class=""choice-option-text""> Press ""1."" </div></div><div class=""choice-option""><img src=""images/avoid.png"" class=""choice-option-img"" stage=""instructions"" position=""1"" ><div class=""choice-option-text""> Press ""0."" </div></div>","","0","instructions","","","","","","","","","","",""
"html-button-response","24","185227","0.0-8.0-1.0","4028","2","15","Male","approach_avoid_spark_v1","""event"",""trial"",""time""
""fullscreenenter"",""1"",""1084""
","
","
","""event"",""trial"",""time""
""fullscreenenter"",""1"",""1084""
","
","","","","","","832.8000000000466","<p> Ready to practice? </p>","0","","","","","","","","","","","","",""
"html-keyboard-response","25","185873","0.0-8.0-2.0-0.0","4028","2","15","Male","approach_avoid_spark_v1","""event"",""trial"",""time""
""fullscreenenter"",""1"",""1084""
","
","
","""event"",""trial"",""time""
""fullscreenenter"",""1"",""1084""
","
","","","","","","null","<div style=""font-size:60px;"">+</div>","null","","fixation","","","","","","","","","","",""
"aa-learning-trial","26","188880","0.0-8.0-2.0-1.0","4028","2","15","Male","approach_avoid_spark_v1","""event"",""trial"",""time""
""fullscreenenter"",""1"",""1084""
","
","
","""event"",""trial"",""time""
""fullscreenenter"",""1"",""1084""
","
","","","","","","1485.4000000000233","images/racket4.png","","","learning","4","4","1","1","practice","practice","practice","-1","","",""
"html-keyboard-response","27","189403","0.0-8.0-2.0-0.1","4028","2","15","Male","approach_avoid_spark_v1","""event"",""trial"",""time""
""fullscreenenter"",""1"",""1084""
","
","
","""event"",""trial"",""time""
""fullscreenenter"",""1"",""1084""
","
","","","","","","null","<div style=""font-size:60px;"">+</div>","null","","fixation","","","","","","","","","","",""
"aa-learning-trial","28","192414","0.0-8.0-2.0-1.1","4028","2","15","Male","approach_avoid_spark_v1","""event"",""trial"",""time""
""fullscreenenter"",""1"",""1084""
","
","
","""event"",""trial"",""time""
""fullscreenenter"",""1"",""1084""
","
","","","","","","952.3000000000466","images/ball3.png","","","learning","4","0","0","0","practice","practice","practice","-1","","",""
"html-keyboard-response","29","192923","0.0-8.0-2.0-0.2","4028","2","15","Male","approach_avoid_spark_v1","""event"",""trial"",""time""
""fullscreenenter"",""1"",""1084""
","
","
","""event"",""trial"",""time""
""fullscreenenter"",""1"",""1084""
","
","","","","","","null","<div style=""font-size:60px;"">+</div>","null","","fixation","","","","","","","","","","",""
"aa-learning-trial","30","195942","0.0-8.0-2.0-1.2","4028","2","15","Male","approach_avoid_spark_v1","""event"",""trial"",""time""
""fullscreenenter"",""1"",""1084""
","
","
","""event"",""trial"",""time""
""fullscreenenter"",""1"",""1084""
","
","","","","","","703.6999999999534","images/ball3.png","","","learning","4","4","1","1","practice","practice","practice","-1","","",""
"html-keyboard-response","31","196452","0.0-8.0-2.0-0.3","4028","2","15","Male","approach_avoid_spark_v1","""event"",""trial"",""time""
""fullscreenenter"",""1"",""1084""
","
","
","""event"",""trial"",""time""
""fullscreenenter"",""1"",""1084""
","
","","","","","","null","<div style=""font-size:60px;"">+</div>","null","","fixation","","","","","","","","","","",""
"aa-learning-trial","32","199473","0.0-8.0-2.0-1.3","4028","2","15","Male","approach_avoid_spark_v1","""event"",""trial"",""time""
""fullscreenenter"",""1"",""1084""
","
","
","""event"",""trial"",""time""
""fullscreenenter"",""1"",""1084""
","
","","","","","","557.2000000000698","images/racket4.png","","","learning","-6","-6","1","1","practice","practice","practice","-1","","",""
"html-keyboard-response","33","199992","0.0-8.0-2.0-0.4","4028","2","15","Male","approach_avoid_spark_v1","""event"",""trial"",""time""
""fullscreenenter"",""1"",""1084""
","
","
","""event"",""trial"",""time""
""fullscreenenter"",""1"",""1084""
","
","","","","","","null","<div style=""font-size:60px;"">+</div>","null","","fixation","","","","","","","","","","",""
"aa-learning-trial","34","203006","0.0-8.0-2.0-1.4","4028","2","15","Male","approach_avoid_spark_v1","""event"",""trial"",""time""
""fullscreenenter"",""1"",""1084""
","
","
","""event"",""trial"",""time""
""fullscreenenter"",""1"",""1084""
","
","","","","","","457.80000000004657","images/ball1.png","","","learning","-9","-9","1","1","practice","practice","practice","-1","","",""
"html-keyboard-response","35","203522","0.0-8.0-2.0-0.5","4028","2","15","Male","approach_avoid_spark_v1","""event"",""trial"",""time""
""fullscreenenter"",""1"",""1084""
","
","
","""event"",""trial"",""time""
""fullscreenenter"",""1"",""1084""
","
","","","","","","null","<div style=""font-size:60px;"">+</div>","null","","fixation","","","","","","","","","","",""
"aa-learning-trial","36","206533","0.0-8.0-2.0-1.5","4028","2","15","Male","approach_avoid_spark_v1","""event"",""trial"",""time""
""fullscreenenter"",""1"",""1084""
","
","
","""event"",""trial"",""time""
""fullscreenenter"",""1"",""1084""
","
","","","","","","429.5","images/ball1.png","","","learning","-3","-3","1","1","practice","practice","practice","-1","","",""
"html-keyboard-response","37","207052","0.0-8.0-2.0-0.6","4028","2","15","Male","approach_avoid_spark_v1","""event"",""trial"",""time""
""fullscreenenter"",""1"",""1084""
","
","
","""event"",""trial"",""time""
""fullscreenenter"",""1"",""1084""
","
","","","","","","null","<div style=""font-size:60px;"">+</div>","null","","fixation","","","","","","","","","","",""
"aa-learning-trial","38","210064","0.0-8.0-2.0-1.6","4028","2","15","Male","approach_avoid_spark_v1","""event"",""trial"",""time""
""fullscreenenter"",""1"",""1084""
","
","
","""event"",""trial"",""time""
""fullscreenenter"",""1"",""1084""
","
","","","","","","541.7000000000698","images/racket1.png","","","learning","-8","-8","1","1","practice","practice","practice","-1","","",""
"html-keyboard-response","39","210572","0.0-8.0-2.0-0.7","4028","2","15","Male","approach_avoid_spark_v1","""event"",""trial"",""time""
""fullscreenenter"",""1"",""1084""
","
","
","""event"",""trial"",""time""
""fullscreenenter"",""1"",""1084""
","
","","","","","","null","<div style=""font-size:60px;"">+</div>","null","","fixation","","","","","","","","","","",""
"aa-learning-trial","40","213603","0.0-8.0-2.0-1.7","4028","2","15","Male","approach_avoid_spark_v1","""event"",""trial"",""time""
""fullscreenenter"",""1"",""1084""
","
","
","""event"",""trial"",""time""
""fullscreenenter"",""1"",""1084""
","
","","","","","","276.5","images/racket1.png","","","learning","-7","0","0","0","practice","practice","practice","-1","","",""
"html-keyboard-response","41","214117","0.0-8.0-2.0-0.8","4028","2","15","Male","approach_avoid_spark_v1","""event"",""trial"",""time""
""fullscreenenter"",""1"",""1084""
","
","
","""event"",""trial"",""time""
""fullscreenenter"",""1"",""1084""
","
","","","","","","null","<div style=""font-size:60px;"">+</div>","null","","fixation","","","","","","","","","","",""
"aa-learning-trial","42","217127","0.0-8.0-2.0-1.8","4028","2","15","Male","approach_avoid_spark_v1","""event"",""trial"",""time""
""fullscreenenter"",""1"",""1084""
","
","
","""event"",""trial"",""time""
""fullscreenenter"",""1"",""1084""
","
","","","","","","374.0999999999767","images/racket2.png","","","learning","8","0","0","0","practice","practice","practice","-1","","",""
"html-keyboard-response","43","217641","0.0-8.0-2.0-0.9","4028","2","15","Male","approach_avoid_spark_v1","""event"",""trial"",""time""
""fullscreenenter"",""1"",""1084""
","
","
","""event"",""trial"",""time""
""fullscreenenter"",""1"",""1084""
","
","","","","","","null","<div style=""font-size:60px;"">+</div>","null","","fixation","","","","","","","","","","",""
"aa-learning-trial","44","220647","0.0-8.0-2.0-1.9","4028","2","15","Male","approach_avoid_spark_v1","""event"",""trial"",""time""
""fullscreenenter"",""1"",""1084""
","
","
","""event"",""trial"",""time""
""fullscreenenter"",""1"",""1084""
","
","","","","","","490.0999999999767","images/racket2.png","","","learning","8","8","1","1","practice","practice","practice","-1","","",""
"html-keyboard-response","45","221151","0.0-8.0-2.0-0.10","4028","2","15","Male","approach_avoid_spark_v1","""event"",""trial"",""time""
""fullscreenenter"",""1"",""1084""
","
","
","""event"",""trial"",""time""
""fullscreenenter"",""1"",""1084""
","
","","","","","","null","<div style=""font-size:60px;"">+</div>","null","","fixation","","","","","","","","","","",""
"aa-learning-trial","46","224159","0.0-8.0-2.0-1.10","4028","2","15","Male","approach_avoid_spark_v1","""event"",""trial"",""time""
""fullscreenenter"",""1"",""1084""
","
","
","""event"",""trial"",""time""
""fullscreenenter"",""1"",""1084""
","
","","","","","","953.8000000000466","images/ball3.png","","","learning","1","0","0","0","practice","practice","practice","-1","","",""
"html-keyboard-response","47","224663","0.0-8.0-2.0-0.11","4028","2","15","Male","approach_avoid_spark_v1","""event"",""trial"",""time""
""fullscreenenter"",""1"",""1084""
","
","
","""event"",""trial"",""time""
""fullscreenenter"",""1"",""1084""
","
","","","","","","null","<div style=""font-size:60px;"">+</div>","null","","fixation","","","","","","","","","","",""
"aa-learning-trial","48","227671","0.0-8.0-2.0-1.11","4028","2","15","Male","approach_avoid_spark_v1","""event"",""trial"",""time""
""fullscreenenter"",""1"",""1084""
","
","
","""event"",""trial"",""time""
""fullscreenenter"",""1"",""1084""
","
","","","","","","1107","images/racket3.png","","","learning","-2","0","0","0","practice","practice","practice","-1","","",""
"html-button-response","49","229708","0.0-8.0-3.0","4028","2","15","Male","approach_avoid_spark_v1","""event"",""trial"",""time""
""fullscreenenter"",""1"",""1084""
","
","
","""event"",""trial"",""time""
""fullscreenenter"",""1"",""1084""
","
","","","","","","2033.8000000000466","<p> You earned -10 points in the practice round! </p>","0","","break","","","","","","","","","","",""
"learning-instructions","50","238083","0.0-8.0-4.0-0.0","4028","2","15","Male","approach_avoid_spark_v1","""event"",""trial"",""time""
""fullscreenenter"",""1"",""1084""
","
","
","""event"",""trial"",""time""
""fullscreenenter"",""1"",""1084""
","
","","","","","","2364.8000000000466","<p> It's almost time to start the real game. </p><p> Before you start, we're going to ask you a few questions about how the game works. </p>","","0","instructions","","","","","","","","","","",""
"preload","51","239193","0.0-8.0-5.0","4028","2","15","Male","approach_avoid_spark_v1","""event"",""trial"",""time""
""fullscreenenter"",""1"",""1084""
","
","
","""event"",""trial"",""time""
""fullscreenenter"",""1"",""1084""
","
","true","false","[]","[]","[]","","","","","","","","","","","","","","","",""
"comp-q","52","246283","0.0-8.0-6.0-0.0","4028","2","15","Male","approach_avoid_spark_v1","""event"",""trial"",""time""
""fullscreenenter"",""1"",""1084""
","
","
","""event"",""trial"",""time""
""fullscreenenter"",""1"",""1084""
","
","","","","","","2095.100000000093","<p> <b> True or False? </b> </p><p> If you see a number in GREY, that means you earned that many points. </p>","","1","comp_question","","","","","","","","","true","",""
"comp-q","53","258884","0.0-8.0-6.0-1.0","4028","2","15","Male","approach_avoid_spark_v1","""event"",""trial"",""time""
""fullscreenenter"",""1"",""1084""
","
","
","""event"",""trial"",""time""
""fullscreenenter"",""1"",""1084""
","
","","","","","","4215.79999999993","<p><b> That's right! </b> If you see a grey number, it means you earned ZERO points. <br> The grey numbers show the points you WOULD HAVE earned if you had made the other choice. </p>","","0","comp_answer","","","","","","","","","","",""
"comp-q","54","264835","0.0-8.0-7.0-0.0","4028","2","15","Male","approach_avoid_spark_v1","""event"",""trial"",""time""
""fullscreenenter"",""1"",""1084""
","
","
","""event"",""trial"",""time""
""fullscreenenter"",""1"",""1084""
","
","","","","","","1246.9000000000233","<p> <b> True or False? </b> </p><p> You will have as much time as you want to make each choice. </p>","","1","comp_question","","","","","","","","","true","",""
"comp-q","55","269635","0.0-8.0-7.0-1.0","4028","2","15","Male","approach_avoid_spark_v1","""event"",""trial"",""time""
""fullscreenenter"",""1"",""1084""
","
","
","""event"",""trial"",""time""
""fullscreenenter"",""1"",""1084""
","
","","","","","","736.8999999999069","<p> <b> That's right! </b> You will only have 3 seconds to make each choice. </p>","","0","comp_answer","","","","","","","","","","",""
"comp-q","56","275875","0.0-8.0-8.0-0.0","4028","2","15","Male","approach_avoid_spark_v1","""event"",""trial"",""time""
""fullscreenenter"",""1"",""1084""
","
","
","""event"",""trial"",""time""
""fullscreenenter"",""1"",""1084""
","
","","","","","","1556.9000000000233","<p> <b> True or False? </b> </p><p> You should use the '1' and '0' keys to make your choices. </p>","","0","comp_question","","","","","","","","","true","",""
"comp-q","57","282971","0.0-8.0-8.0-1.0","4028","2","15","Male","approach_avoid_spark_v1","""event"",""trial"",""time""
""fullscreenenter"",""1"",""1084""
","
","
","""event"",""trial"",""time""
""fullscreenenter"",""1"",""1084""
","
","","","","","","2462.9000000000233","<p> <b> That's right! </b> You should use the '1' and '0' keys to make each choice. </p>","","0","comp_answer","","","","","","","","","","",""
"learning-instructions","58","290131","0.0-8.0-9.0-0.0","4028","2","15","Male","approach_avoid_spark_v1","""event"",""trial"",""time""
""fullscreenenter"",""1"",""1084""
","
","
","""event"",""trial"",""time""
""fullscreenenter"",""1"",""1084""
","
","","","","","","872","<p> It's now time to start the real game. </p>Do your best, because the points you earn in the next rounds will influence your bonus payment. </p>","","0","instructions","","","","","","","","","","",""
"preload","59","290270","0.0-9.0-0.0","4028","2","15","Male","approach_avoid_spark_v1","""event"",""trial"",""time""
""fullscreenenter"",""1"",""1084""
","
","
","""event"",""trial"",""time""
""fullscreenenter"",""1"",""1084""
","
","true","false","[]","[]","[]","","","","","","","","","","","","","","","",""
"learning-instructions","60","296139","0.0-9.0-1.0-0.0","4028","2","15","Male","approach_avoid_spark_v1","""event"",""trial"",""time""
""fullscreenenter"",""1"",""1084""
","
","
","""event"",""trial"",""time""
""fullscreenenter"",""1"",""1084""
","
","","","","","","820.5","<p> Your goal in this round is to sell different plants to a picky customer. </p></div>","","0","instructions","","","","","","","","","","",""
"learning-instructions","61","307099","0.0-9.0-1.0-0.1","4028","2","15","Male","approach_avoid_spark_v1","""event"",""trial"",""time""
""fullscreenenter"",""1"",""1084""
","
","
","""event"",""trial"",""time""
""fullscreenenter"",""1"",""1084""
","
","","","","","","880.5999999999767","<p> The customer likes some plants and dislikes others.  </p><p> On each turn, you will see a plant.   </p><p> You need to decide whether to offer it to the customer or not.  </p>","","0","instructions","","","","","","","","","","",""
"learning-instructions","62","319795","0.0-9.0-1.0-0.2","4028","2","15","Male","approach_avoid_spark_v1","""event"",""trial"",""time""
""fullscreenenter"",""1"",""1084""
","
","
","""event"",""trial"",""time""
""fullscreenenter"",""1"",""1084""
","
","","","","","","6505.699999999953","<p> You can offer the plant by pressing 1 and decide to not offer it by pressing 0. </p><br><div class=""choice-instructions-grid""> <div class=""choice-option""><img src=""images/approach.png"" class=""choice-option-img"" stage=""instructions"" position=""0"" ><div class=""choice-option-text""> Press ""1."" </div></div><div class=""choice-option""><img src=""images/avoid.png"" class=""choice-option-img"" stage=""instructions"" position=""1"" ><div class=""choice-option-text""> Press ""0."" </div></div>","","0","instructions","","","","","","","","","","",""
"learning-instructions","63","331355","0.0-9.0-1.0-0.3","4028","2","15","Male","approach_avoid_spark_v1","""event"",""trial"",""time""
""fullscreenenter"",""1"",""1084""
","
","
","""event"",""trial"",""time""
""fullscreenenter"",""1"",""1084""
","
","","","","","","1746.8000000000466","<p> If you offer a plant to the customer that she likes, she will be very pleased! </p><p> But if you offer a plant that she does NOT like, she will be annoyed. </p>","","0","instructions","","","","","","","","","","",""
"learning-instructions","64","345499","0.0-9.0-1.0-0.4","4028","2","15","Male","approach_avoid_spark_v1","""event"",""trial"",""time""
""fullscreenenter"",""1"",""1084""
","
","
","""event"",""trial"",""time""
""fullscreenenter"",""1"",""1084""
","
","","","","","","751.4000000001397","<p> You will earn points based on how you made the customer feel. </p><p> If you made her pleased, you will WIN anywhere from 1 - 9 points, </p><p> but if you made her annoyed, you will LOSE anywhere from 1 - 9 points. </p>","","0","instructions","","","","","","","","","","",""
"learning-instructions","65","353900","0.0-9.0-1.0-0.5","4028","2","15","Male","approach_avoid_spark_v1","""event"",""trial"",""time""
""fullscreenenter"",""1"",""1084""
","
","
","""event"",""trial"",""time""
""fullscreenenter"",""1"",""1084""
","
","","","","","","701.3999999999069","<p> You will see how many points you won or lost in the center of the screen. </p><p> Here is what you would see if you won 5 points: </p><p style=""color:green;font-size:50px;font-weight:bolder"">5</p>","","0","instructions","","","","","","","","","","",""
"learning-instructions","66","358675","0.0-9.0-1.0-0.6","4028","2","15","Male","approach_avoid_spark_v1","""event"",""trial"",""time""
""fullscreenenter"",""1"",""1084""
","
","
","""event"",""trial"",""time""
""fullscreenenter"",""1"",""1084""
","
","","","","","","1427","<p> And here is what you would see if you lost 3 points: </p><p style=""color:red;font-size:50px;font-weight:bolder"">-3</p>","","0","instructions","","","","","","","","","","",""
"learning-instructions","67","377817","0.0-9.0-1.0-0.7","4028","2","15","Male","approach_avoid_spark_v1","""event"",""trial"",""time""
""fullscreenenter"",""1"",""1084""
","
","
","""event"",""trial"",""time""
""fullscreenenter"",""1"",""1084""
","
","","","","","","3860.399999999907","<p> Some plants will make the customer VERY pleased or annoyed. </p><p> These plants will make you win or lose LOTS of points. </p><p> The customer will have less strong feelings about other plants. </p><p> These plants will make you win or lose small amounts of points. </p>","","0","instructions","","","","","","","","","","",""
"learning-instructions","68","392328","0.0-9.0-1.0-0.8","4028","2","15","Male","approach_avoid_spark_v1","""event"",""trial"",""time""
""fullscreenenter"",""1"",""1084""
","
","
","""event"",""trial"",""time""
""fullscreenenter"",""1"",""1084""
","
","","","","","","1652.5","<p> If you choose to not offer the plant to the customer, you will not win or lose any points. </p><p>  However, in the center of the screen, you will see the number of points you WOULD HAVE won or lost if you had offered the plant. </p>","","0","instructions","","","","","","","","","","",""
"learning-instructions","69","406201","0.0-9.0-1.0-0.9","4028","2","15","Male","approach_avoid_spark_v1","""event"",""trial"",""time""
""fullscreenenter"",""1"",""1084""
","
","
","""event"",""trial"",""time""
""fullscreenenter"",""1"",""1084""
","
","","","","","","2365","<p> Here is what you might see if you did not offer the plant but the customer would have liked it: </p><p style=""color:grey; font-size:50px; display: inline-block; border-spacing: 15px; border-width:3px; border-style:solid; border-color:red"">  &nbsp; 6 &nbsp; </p><p> Remember, in this case, you would not win or lose ANY points because you did not offer the plant.  </p>","","0","instructions","","","","","","","","","","",""
"learning-instructions","70","414553","0.0-9.0-1.0-0.10","4028","2","15","Male","approach_avoid_spark_v1","""event"",""trial"",""time""
""fullscreenenter"",""1"",""1084""
","
","
","""event"",""trial"",""time""
""fullscreenenter"",""1"",""1084""
","
","","","","","","936.1999999999534","<p> Try to make the best choice for each plant because </p><p> at the end of the game, you will earn bonus money based on how many points you earned. </p>","","0","instructions","","","","","","","","","","",""
"learning-instructions","71","423507","0.0-9.0-1.0-0.11","4028","2","15","Male","approach_avoid_spark_v1","""event"",""trial"",""time""
""fullscreenenter"",""1"",""1084""
","
","
","""event"",""trial"",""time""
""fullscreenenter"",""1"",""1084""
","
","","","","","","738.6999999999534","<p> You will have 3 seconds to make each choice. Try to respond before time runs out! </p><p> You will lose 5 points each time you do not make a response. </p>","","0","instructions","","","","","","","","","","",""
"html-keyboard-response","72","424115","0.0-9.0-2.0-0.0","4028","2","15","Male","approach_avoid_spark_v1","""event"",""trial"",""time""
""fullscreenenter"",""1"",""1084""
","
","
","""event"",""trial"",""time""
""fullscreenenter"",""1"",""1084""
","
","","","","","","null","<div style=""font-size:60px;"">+</div>","null","","fixation","","","","","","","","","","",""
"aa-learning-trial","73","427126","0.0-9.0-2.0-1.0","4028","2","15","Male","approach_avoid_spark_v1","""event"",""trial"",""time""
""fullscreenenter"",""1"",""1084""
","
","
","""event"",""trial"",""time""
""fullscreenenter"",""1"",""1084""
","
","","","","","","1078.8000000000466","images/bush6.png","","","learning","9","9","1","1","bush","plants","2","0","","neutral","0"
"html-keyboard-response","74","427646","0.0-9.0-2.0-0.1","4028","2","15","Male","approach_avoid_spark_v1","""event"",""trial"",""time""
""fullscreenenter"",""1"",""1084""
","
","
","""event"",""trial"",""time""
""fullscreenenter"",""1"",""1084""
","
","","","","","","null","<div style=""font-size:60px;"">+</div>","null","","fixation","","","","","","","","","","",""
"aa-learning-trial","75","430657","0.0-9.0-2.0-1.1","4028","2","15","Male","approach_avoid_spark_v1","""event"",""trial"",""time""
""fullscreenenter"",""1"",""1084""
","
","
","""event"",""trial"",""time""
""fullscreenenter"",""1"",""1084""
","
","","","","","","1074.8999999999069","images/flower4.png","","","learning","6","6","1","1","flower","plants","2","0","","bad","[-4]"
"html-keyboard-response","76","431177","0.0-9.0-2.0-0.2","4028","2","15","Male","approach_avoid_spark_v1","""event"",""trial"",""time""
""fullscreenenter"",""1"",""1084""
","
","
","""event"",""trial"",""time""
""fullscreenenter"",""1"",""1084""
","
","","","","","","null","<div style=""font-size:60px;"">+</div>","null","","fixation","","","","","","","","","","",""
"aa-learning-trial","77","434186","0.0-9.0-2.0-1.2","4028","2","15","Male","approach_avoid_spark_v1","""event"",""trial"",""time""
""fullscreenenter"",""1"",""1084""
","
","
","""event"",""trial"",""time""
""fullscreenenter"",""1"",""1084""
","
","","","","","","640.3000000000466","images/bush5.png","","","learning","-5","0","0","0","bush","plants","2","0","","neutral","0"
"html-keyboard-response","78","434706","0.0-9.0-2.0-0.3","4028","2","15","Male","approach_avoid_spark_v1","""event"",""trial"",""time""
""fullscreenenter"",""1"",""1084""
","
","
","""event"",""trial"",""time""
""fullscreenenter"",""1"",""1084""
","
","","","","","","null","<div style=""font-size:60px;"">+</div>","null","","fixation","","","","","","","","","","",""
"aa-learning-trial","79","437727","0.0-9.0-2.0-1.3","4028","2","15","Male","approach_avoid_spark_v1","""event"",""trial"",""time""
""fullscreenenter"",""1"",""1084""
","
","
","""event"",""trial"",""time""
""fullscreenenter"",""1"",""1084""
","
","","","","","","609","images/tree4.png","","","learning","-9","0","0","0","tree","plants","2","0","","good","[3]"
"html-keyboard-response","80","438236","0.0-9.0-2.0-0.4","4028","2","15","Male","approach_avoid_spark_v1","""event"",""trial"",""time""
""fullscreenenter"",""1"",""1084""
","
","
","""event"",""trial"",""time""
""fullscreenenter"",""1"",""1084""
","
","","","","","","null","<div style=""font-size:60px;"">+</div>","null","","fixation","","","","","","","","","","",""
"aa-learning-trial","81","441247","0.0-9.0-2.0-1.4","4028","2","15","Male","approach_avoid_spark_v1","""event"",""trial"",""time""
""fullscreenenter"",""1"",""1084""
","
","
","""event"",""trial"",""time""
""fullscreenenter"",""1"",""1084""
","
","","","","","","793.0999999998603","images/bush2.png","","","learning","1","1","1","1","bush","plants","2","0","","neutral","0"
"html-keyboard-response","82","441766","0.0-9.0-2.0-0.5","4028","2","15","Male","approach_avoid_spark_v1","""event"",""trial"",""time""
""fullscreenenter"",""1"",""1084""
","
","
","""event"",""trial"",""time""
""fullscreenenter"",""1"",""1084""
","
","","","","","","null","<div style=""font-size:60px;"">+</div>","null","","fixation","","","","","","","","","","",""
"aa-learning-trial","83","444777","0.0-9.0-2.0-1.5","4028","2","15","Male","approach_avoid_spark_v1","""event"",""trial"",""time""
""fullscreenenter"",""1"",""1084""
","
","
","""event"",""trial"",""time""
""fullscreenenter"",""1"",""1084""
","
","","","","","","817.5","images/tree2.png","","","learning","2","0","0","0","tree","plants","2","0","","good","[3]"
"html-keyboard-response","84","445296","0.0-9.0-2.0-0.6","4028","2","15","Male","approach_avoid_spark_v1","""event"",""trial"",""time""
""fullscreenenter"",""1"",""1084""
","
","
","""event"",""trial"",""time""
""fullscreenenter"",""1"",""1084""
","
","","","","","","null","<div style=""font-size:60px;"">+</div>","null","","fixation","","","","","","","","","","",""
"aa-learning-trial","85","448306","0.0-9.0-2.0-1.6","4028","2","15","Male","approach_avoid_spark_v1","""event"",""trial"",""time""
""fullscreenenter"",""1"",""1084""
","
","
","""event"",""trial"",""time""
""fullscreenenter"",""1"",""1084""
","
","","","","","","639.6000000000931","images/tree3.png","","","learning","5","0","0","0","tree","plants","2","0","","good","[3]"
"html-keyboard-response","86","448826","0.0-9.0-2.0-0.7","4028","2","15","Male","approach_avoid_spark_v1","""event"",""trial"",""time""
""fullscreenenter"",""1"",""1084""
","
","
","""event"",""trial"",""time""
""fullscreenenter"",""1"",""1084""
","
","","","","","","null","<div style=""font-size:60px;"">+</div>","null","","fixation","","","","","","","","","","",""
"aa-learning-trial","87","451857","0.0-9.0-2.0-1.7","4028","2","15","Male","approach_avoid_spark_v1","""event"",""trial"",""time""
""fullscreenenter"",""1"",""1084""
","
","
","""event"",""trial"",""time""
""fullscreenenter"",""1"",""1084""
","
","","","","","","787.9000000001397","images/tree4.png","","","learning","-9","0","0","0","tree","plants","2","0","","good","[3]"
"html-keyboard-response","88","452376","0.0-9.0-2.0-0.8","4028","2","15","Male","approach_avoid_spark_v1","""event"",""trial"",""time""
""fullscreenenter"",""1"",""1084""
","
","
","""event"",""trial"",""time""
""fullscreenenter"",""1"",""1084""
","
","","","","","","null","<div style=""font-size:60px;"">+</div>","null","","fixation","","","","","","","","","","",""
"aa-learning-trial","89","455383","0.0-9.0-2.0-1.8","4028","2","15","Male","approach_avoid_spark_v1","""event"",""trial"",""time""
""fullscreenenter"",""1"",""1084""
","
","
","""event"",""trial"",""time""
""fullscreenenter"",""1"",""1084""
","
","","","","","","570.8000000000466","images/flower3.png","","","learning","-4","-4","1","1","flower","plants","2","0","","bad","[-4]"
"html-keyboard-response","90","455887","0.0-9.0-2.0-0.9","4028","2","15","Male","approach_avoid_spark_v1","""event"",""trial"",""time""
""fullscreenenter"",""1"",""1084""
","
","
","""event"",""trial"",""time""
""fullscreenenter"",""1"",""1084""
","
","","","","","","null","<div style=""font-size:60px;"">+</div>","null","","fixation","","","","","","","","","","",""
"aa-learning-trial","91","458895","0.0-9.0-2.0-1.9","4028","2","15","Male","approach_avoid_spark_v1","""event"",""trial"",""time""
""fullscreenenter"",""1"",""1084""
","
","
","""event"",""trial"",""time""
""fullscreenenter"",""1"",""1084""
","
","","","","","","585","images/flower3.png","","","learning","-4","-4","1","1","flower","plants","2","0","","bad","[-4]"
"html-keyboard-response","92","459400","0.0-9.0-2.0-0.10","4028","2","15","Male","approach_avoid_spark_v1","""event"",""trial"",""time""
""fullscreenenter"",""1"",""1084""
","
","
","""event"",""trial"",""time""
""fullscreenenter"",""1"",""1084""
","
","","","","","","null","<div style=""font-size:60px;"">+</div>","null","","fixation","","","","","","","","","","",""
"aa-learning-trial","93","462418","0.0-9.0-2.0-1.10","4028","2","15","Male","approach_avoid_spark_v1","""event"",""trial"",""time""
""fullscreenenter"",""1"",""1084""
","
","
","""event"",""trial"",""time""
""fullscreenenter"",""1"",""1084""
","
","","","","","","1584.8000000000466","images/bush5.png","","","learning","-5","-5","1","1","bush","plants","2","0","","neutral","0"
"html-keyboard-response","94","462927","0.0-9.0-2.0-0.11","4028","2","15","Male","approach_avoid_spark_v1","""event"",""trial"",""time""
""fullscreenenter"",""1"",""1084""
","
","
","""event"",""trial"",""time""
""fullscreenenter"",""1"",""1084""
","
","","","","","","null","<div style=""font-size:60px;"">+</div>","null","","fixation","","","","","","","","","","",""
"aa-learning-trial","95","465937","0.0-9.0-2.0-1.11","4028","2","15","Male","approach_avoid_spark_v1","""event"",""trial"",""time""
""fullscreenenter"",""1"",""1084""
","
","
","""event"",""trial"",""time""
""fullscreenenter"",""1"",""1084""
","
","","","","","","1073.3000000000466","images/flower7.png","","","learning","-8","-8","1","1","flower","plants","2","0","","bad","[-4]"
"html-keyboard-response","96","466447","0.0-9.0-2.0-0.12","4028","2","15","Male","approach_avoid_spark_v1","""event"",""trial"",""time""
""fullscreenenter"",""1"",""1084""
","
","
","""event"",""trial"",""time""
""fullscreenenter"",""1"",""1084""
","
","","","","","","null","<div style=""font-size:60px;"">+</div>","null","","fixation","","","","","","","","","","",""
"aa-learning-trial","97","469455","0.0-9.0-2.0-1.12","4028","2","15","Male","approach_avoid_spark_v1","""event"",""trial"",""time""
""fullscreenenter"",""1"",""1084""
","
","
","""event"",""trial"",""time""
""fullscreenenter"",""1"",""1084""
","
","","","","","","1417.8000000000466","images/bush6.png","","","learning","9","9","1","1","bush","plants","2","0","","neutral","0"
"html-keyboard-response","98","469959","0.0-9.0-2.0-0.13","4028","2","15","Male","approach_avoid_spark_v1","""event"",""trial"",""time""
""fullscreenenter"",""1"",""1084""
","
","
","""event"",""trial"",""time""
""fullscreenenter"",""1"",""1084""
","
","","","","","","null","<div style=""font-size:60px;"">+</div>","null","","fixation","","","","","","","","","","",""
"aa-learning-trial","99","472968","0.0-9.0-2.0-1.13","4028","2","15","Male","approach_avoid_spark_v1","""event"",""trial"",""time""
""fullscreenenter"",""1"",""1084""
","
","
","""event"",""trial"",""time""
""fullscreenenter"",""1"",""1084""
","
","","","","","","641.3000000000466","images/flower4.png","","","learning","6","6","1","1","flower","plants","2","0","","bad","[-4]"
"html-keyboard-response","100","473474","0.0-9.0-2.0-0.14","4028","2","15","Male","approach_avoid_spark_v1","""event"",""trial"",""time""
""fullscreenenter"",""1"",""1084""
","
","
","""event"",""trial"",""time""
""fullscreenenter"",""1"",""1084""
","
","","","","","","null","<div style=""font-size:60px;"">+</div>","null","","fixation","","","","","","","","","","",""
"aa-learning-trial","101","476480","0.0-9.0-2.0-1.14","4028","2","15","Male","approach_avoid_spark_v1","""event"",""trial"",""time""
""fullscreenenter"",""1"",""1084""
","
","
","""event"",""trial"",""time""
""fullscreenenter"",""1"",""1084""
","
","","","","","","1063.1999999999534","images/tree3.png","","","learning","5","0","0","0","tree","plants","2","0","","good","[3]"
"html-keyboard-response","102","476983","0.0-9.0-2.0-0.15","4028","2","15","Male","approach_avoid_spark_v1","""event"",""trial"",""time""
""fullscreenenter"",""1"",""1084""
","
","
","""event"",""trial"",""time""
""fullscreenenter"",""1"",""1084""
","
","","","","","","null","<div style=""font-size:60px;"">+</div>","null","","fixation","","","","","","","","","","",""
"aa-learning-trial","103","479991","0.0-9.0-2.0-1.15","4028","2","15","Male","approach_avoid_spark_v1","""event"",""trial"",""time""
""fullscreenenter"",""1"",""1084""
","
","
","""event"",""trial"",""time""
""fullscreenenter"",""1"",""1084""
","
","","","","","","1097.6999999999534","images/bush5.png","","","learning","-5","-5","1","1","bush","plants","2","0","","neutral","0"
"html-keyboard-response","104","480495","0.0-9.0-2.0-0.16","4028","2","15","Male","approach_avoid_spark_v1","""event"",""trial"",""time""
""fullscreenenter"",""1"",""1084""
","
","
","""event"",""trial"",""time""
""fullscreenenter"",""1"",""1084""
","
","","","","","","null","<div style=""font-size:60px;"">+</div>","null","","fixation","","","","","","","","","","",""
"aa-learning-trial","105","483503","0.0-9.0-2.0-1.16","4028","2","15","Male","approach_avoid_spark_v1","""event"",""trial"",""time""
""fullscreenenter"",""1"",""1084""
","
","
","""event"",""trial"",""time""
""fullscreenenter"",""1"",""1084""
","
","","","","","","1057.7999999998137","images/tree4.png","","","learning","-9","-9","1","1","tree","plants","2","0","","good","[3]"
"html-keyboard-response","106","484007","0.0-9.0-2.0-0.17","4028","2","15","Male","approach_avoid_spark_v1","""event"",""trial"",""time""
""fullscreenenter"",""1"",""1084""
","
","
","""event"",""trial"",""time""
""fullscreenenter"",""1"",""1084""
","
","","","","","","null","<div style=""font-size:60px;"">+</div>","null","","fixation","","","","","","","","","","",""
"aa-learning-trial","107","487016","0.0-9.0-2.0-1.17","4028","2","15","Male","approach_avoid_spark_v1","""event"",""trial"",""time""
""fullscreenenter"",""1"",""1084""
","
","
","""event"",""trial"",""time""
""fullscreenenter"",""1"",""1084""
","
","","","","","","882.8999999999069","images/tree2.png","","","learning","2","2","1","1","tree","plants","2","0","","good","[3]"
"html-keyboard-response","108","487519","0.0-9.0-2.0-0.18","4028","2","15","Male","approach_avoid_spark_v1","""event"",""trial"",""time""
""fullscreenenter"",""1"",""1084""
","
","
","""event"",""trial"",""time""
""fullscreenenter"",""1"",""1084""
","
","","","","","","null","<div style=""font-size:60px;"">+</div>","null","","fixation","","","","","","","","","","",""
"aa-learning-trial","109","490527","0.0-9.0-2.0-1.18","4028","2","15","Male","approach_avoid_spark_v1","""event"",""trial"",""time""
""fullscreenenter"",""1"",""1084""
","
","
","""event"",""trial"",""time""
""fullscreenenter"",""1"",""1084""
","
","","","","","","697.5","images/bush5.png","","","learning","-5","0","0","0","bush","plants","2","0","","neutral","0"
"html-keyboard-response","110","491031","0.0-9.0-2.0-0.19","4028","2","15","Male","approach_avoid_spark_v1","""event"",""trial"",""time""
""fullscreenenter"",""1"",""1084""
","
","
","""event"",""trial"",""time""
""fullscreenenter"",""1"",""1084""
","
","","","","","","null","<div style=""font-size:60px;"">+</div>","null","","fixation","","","","","","","","","","",""
"aa-learning-trial","111","494039","0.0-9.0-2.0-1.19","4028","2","15","Male","approach_avoid_spark_v1","""event"",""trial"",""time""
""fullscreenenter"",""1"",""1084""
","
","
","""event"",""trial"",""time""
""fullscreenenter"",""1"",""1084""
","
","","","","","","890.1000000000931","images/bush4.png","","","learning","3","3","1","1","bush","plants","2","0","","neutral","0"
"html-keyboard-response","112","494543","0.0-9.0-2.0-0.20","4028","2","15","Male","approach_avoid_spark_v1","""event"",""trial"",""time""
""fullscreenenter"",""1"",""1084""
","
","
","""event"",""trial"",""time""
""fullscreenenter"",""1"",""1084""
","
","","","","","","null","<div style=""font-size:60px;"">+</div>","null","","fixation","","","","","","","","","","",""
"aa-learning-trial","113","497551","0.0-9.0-2.0-1.20","4028","2","15","Male","approach_avoid_spark_v1","""event"",""trial"",""time""
""fullscreenenter"",""1"",""1084""
","
","
","""event"",""trial"",""time""
""fullscreenenter"",""1"",""1084""
","
","","","","","","545.3999999999069","images/flower6.png","","","learning","4","4","1","1","flower","plants","2","0","","bad","[-4]"
"html-keyboard-response","114","498055","0.0-9.0-2.0-0.21","4028","2","15","Male","approach_avoid_spark_v1","""event"",""trial"",""time""
""fullscreenenter"",""1"",""1084""
","
","
","""event"",""trial"",""time""
""fullscreenenter"",""1"",""1084""
","
","","","","","","null","<div style=""font-size:60px;"">+</div>","null","","fixation","","","","","","","","","","",""
"aa-learning-trial","115","501063","0.0-9.0-2.0-1.21","4028","2","15","Male","approach_avoid_spark_v1","""event"",""trial"",""time""
""fullscreenenter"",""1"",""1084""
","
","
","""event"",""trial"",""time""
""fullscreenenter"",""1"",""1084""
","
","","","","","","850.5","images/flower7.png","","","learning","-8","-8","1","1","flower","plants","2","0","","bad","[-4]"
"html-keyboard-response","116","501567","0.0-9.0-2.0-0.22","4028","2","15","Male","approach_avoid_spark_v1","""event"",""trial"",""time""
""fullscreenenter"",""1"",""1084""
","
","
","""event"",""trial"",""time""
""fullscreenenter"",""1"",""1084""
","
","","","","","","null","<div style=""font-size:60px;"">+</div>","null","","fixation","","","","","","","","","","",""
"aa-learning-trial","117","504575","0.0-9.0-2.0-1.22","4028","2","15","Male","approach_avoid_spark_v1","""event"",""trial"",""time""
""fullscreenenter"",""1"",""1084""
","
","
","""event"",""trial"",""time""
""fullscreenenter"",""1"",""1084""
","
","","","","","","465.9000000001397","images/bush6.png","","","learning","9","9","1","1","bush","plants","2","0","","neutral","0"
"html-keyboard-response","118","505079","0.0-9.0-2.0-0.23","4028","2","15","Male","approach_avoid_spark_v1","""event"",""trial"",""time""
""fullscreenenter"",""1"",""1084""
","
","
","""event"",""trial"",""time""
""fullscreenenter"",""1"",""1084""
","
","","","","","","null","<div style=""font-size:60px;"">+</div>","null","","fixation","","","","","","","","","","",""
"aa-learning-trial","119","508087","0.0-9.0-2.0-1.23","4028","2","15","Male","approach_avoid_spark_v1","""event"",""trial"",""time""
""fullscreenenter"",""1"",""1084""
","
","
","""event"",""trial"",""time""
""fullscreenenter"",""1"",""1084""
","
","","","","","","697","images/tree4.png","","","learning","-9","0","0","0","tree","plants","2","0","","good","[3]"
"html-keyboard-response","120","508591","0.0-9.0-2.0-0.24","4028","2","15","Male","approach_avoid_spark_v1","""event"",""trial"",""time""
""fullscreenenter"",""1"",""1084""
","
","
","""event"",""trial"",""time""
""fullscreenenter"",""1"",""1084""
","
","","","","","","null","<div style=""font-size:60px;"">+</div>","null","","fixation","","","","","","","","","","",""
"aa-learning-trial","121","511599","0.0-9.0-2.0-1.24","4028","2","15","Male","approach_avoid_spark_v1","""event"",""trial"",""time""
""fullscreenenter"",""1"",""1084""
","
","
","""event"",""trial"",""time""
""fullscreenenter"",""1"",""1084""
","
","","","","","","648.8999999999069","images/tree7.png","","","learning","8","0","0","0","tree","plants","2","0","","good","[3]"
"html-keyboard-response","122","512116","0.0-9.0-2.0-0.25","4028","2","15","Male","approach_avoid_spark_v1","""event"",""trial"",""time""
""fullscreenenter"",""1"",""1084""
","
","
","""event"",""trial"",""time""
""fullscreenenter"",""1"",""1084""
","
","","","","","","null","<div style=""font-size:60px;"">+</div>","null","","fixation","","","","","","","","","","",""
"aa-learning-trial","123","515127","0.0-9.0-2.0-1.25","4028","2","15","Male","approach_avoid_spark_v1","""event"",""trial"",""time""
""fullscreenenter"",""1"",""1084""
","
","
","""event"",""trial"",""time""
""fullscreenenter"",""1"",""1084""
","
","","","","","","660","images/tree3.png","","","learning","5","5","1","1","tree","plants","2","0","","good","[3]"
"html-keyboard-response","124","515636","0.0-9.0-2.0-0.26","4028","2","15","Male","approach_avoid_spark_v1","""event"",""trial"",""time""
""fullscreenenter"",""1"",""1084""
","
","
","""event"",""trial"",""time""
""fullscreenenter"",""1"",""1084""
","
","","","","","","null","<div style=""font-size:60px;"">+</div>","null","","fixation","","","","","","","","","","",""
"aa-learning-trial","125","518640","0.0-9.0-2.0-1.26","4028","2","15","Male","approach_avoid_spark_v1","""event"",""trial"",""time""
""fullscreenenter"",""1"",""1084""
","
","
","""event"",""trial"",""time""
""fullscreenenter"",""1"",""1084""
","
","","","","","","628.5","images/bush3.png","","","learning","-7","-7","1","1","bush","plants","2","0","","neutral","0"
"html-keyboard-response","126","519159","0.0-9.0-2.0-0.27","4028","2","15","Male","approach_avoid_spark_v1","""event"",""trial"",""time""
""fullscreenenter"",""1"",""1084""
","
","
","""event"",""trial"",""time""
""fullscreenenter"",""1"",""1084""
","
","","","","","","null","<div style=""font-size:60px;"">+</div>","null","","fixation","","","","","","","","","","",""
"aa-learning-trial","127","522168","0.0-9.0-2.0-1.27","4028","2","15","Male","approach_avoid_spark_v1","""event"",""trial"",""time""
""fullscreenenter"",""1"",""1084""
","
","
","""event"",""trial"",""time""
""fullscreenenter"",""1"",""1084""
","
","","","","","","521.2000000001863","images/flower3.png","","","learning","-4","-4","1","1","flower","plants","2","0","","bad","[-4]"
"html-keyboard-response","128","522671","0.0-9.0-2.0-0.28","4028","2","15","Male","approach_avoid_spark_v1","""event"",""trial"",""time""
""fullscreenenter"",""1"",""1084""
","
","
","""event"",""trial"",""time""
""fullscreenenter"",""1"",""1084""
","
","","","","","","null","<div style=""font-size:60px;"">+</div>","null","","fixation","","","","","","","","","","",""
"aa-learning-trial","129","525692","0.0-9.0-2.0-1.28","4028","2","15","Male","approach_avoid_spark_v1","""event"",""trial"",""time""
""fullscreenenter"",""1"",""1084""
","
","
","""event"",""trial"",""time""
""fullscreenenter"",""1"",""1084""
","
","","","","","","609.8000000000466","images/flower7.png","","","learning","-8","-8","1","1","flower","plants","2","0","","bad","[-4]"
"html-keyboard-response","130","526199","0.0-9.0-2.0-0.29","4028","2","15","Male","approach_avoid_spark_v1","""event"",""trial"",""time""
""fullscreenenter"",""1"",""1084""
","
","
","""event"",""trial"",""time""
""fullscreenenter"",""1"",""1084""
","
","","","","","","null","<div style=""font-size:60px;"">+</div>","null","","fixation","","","","","","","","","","",""
"aa-learning-trial","131","529217","0.0-9.0-2.0-1.29","4028","2","15","Male","approach_avoid_spark_v1","""event"",""trial"",""time""
""fullscreenenter"",""1"",""1084""
","
","
","""event"",""trial"",""time""
""fullscreenenter"",""1"",""1084""
","
","","","","","","563","images/flower8.png","","","learning","-1","0","0","0","flower","plants","2","0","","bad","[-4]"
"html-keyboard-response","132","529727","0.0-9.0-2.0-0.30","4028","2","15","Male","approach_avoid_spark_v1","""event"",""trial"",""time""
""fullscreenenter"",""1"",""1084""
","
","
","""event"",""trial"",""time""
""fullscreenenter"",""1"",""1084""
","
","","","","","","null","<div style=""font-size:60px;"">+</div>","null","","fixation","","","","","","","","","","",""
"aa-learning-trial","133","532736","0.0-9.0-2.0-1.30","4028","2","15","Male","approach_avoid_spark_v1","""event"",""trial"",""time""
""fullscreenenter"",""1"",""1084""
","
","
","""event"",""trial"",""time""
""fullscreenenter"",""1"",""1084""
","
","","","","","","618.2999999998137","images/flower3.png","","","learning","-4","-4","1","1","flower","plants","2","0","","bad","[-4]"
"html-keyboard-response","134","533244","0.0-9.0-2.0-0.31","4028","2","15","Male","approach_avoid_spark_v1","""event"",""trial"",""time""
""fullscreenenter"",""1"",""1084""
","
","
","""event"",""trial"",""time""
""fullscreenenter"",""1"",""1084""
","
","","","","","","null","<div style=""font-size:60px;"">+</div>","null","","fixation","","","","","","","","","","",""
"aa-learning-trial","135","536255","0.0-9.0-2.0-1.31","4028","2","15","Male","approach_avoid_spark_v1","""event"",""trial"",""time""
""fullscreenenter"",""1"",""1084""
","
","
","""event"",""trial"",""time""
""fullscreenenter"",""1"",""1084""
","
","","","","","","596.3999999999069","images/bush6.png","","","learning","9","9","1","1","bush","plants","2","0","","neutral","0"
"html-keyboard-response","136","536759","0.0-9.0-2.0-0.32","4028","2","15","Male","approach_avoid_spark_v1","""event"",""trial"",""time""
""fullscreenenter"",""1"",""1084""
","
","
","""event"",""trial"",""time""
""fullscreenenter"",""1"",""1084""
","
","","","","","","null","<div style=""font-size:60px;"">+</div>","null","","fixation","","","","","","","","","","",""
"aa-learning-trial","137","539767","0.0-9.0-2.0-1.32","4028","2","15","Male","approach_avoid_spark_v1","""event"",""trial"",""time""
""fullscreenenter"",""1"",""1084""
","
","
","""event"",""trial"",""time""
""fullscreenenter"",""1"",""1084""
","
","","","","","","490.69999999995343","images/flower4.png","","","learning","6","6","1","1","flower","plants","2","0","","bad","[-4]"
"html-keyboard-response","138","540271","0.0-9.0-2.0-0.33","4028","2","15","Male","approach_avoid_spark_v1","""event"",""trial"",""time""
""fullscreenenter"",""1"",""1084""
","
","
","""event"",""trial"",""time""
""fullscreenenter"",""1"",""1084""
","
","","","","","","null","<div style=""font-size:60px;"">+</div>","null","","fixation","","","","","","","","","","",""
"aa-learning-trial","139","543279","0.0-9.0-2.0-1.33","4028","2","15","Male","approach_avoid_spark_v1","""event"",""trial"",""time""
""fullscreenenter"",""1"",""1084""
","
","
","""event"",""trial"",""time""
""fullscreenenter"",""1"",""1084""
","
","","","","","","633.5","images/bush2.png","","","learning","1","1","1","1","bush","plants","2","0","","neutral","0"
"html-keyboard-response","140","543789","0.0-9.0-2.0-0.34","4028","2","15","Male","approach_avoid_spark_v1","""event"",""trial"",""time""
""fullscreenenter"",""1"",""1084""
","
","
","""event"",""trial"",""time""
""fullscreenenter"",""1"",""1084""
","
","","","","","","null","<div style=""font-size:60px;"">+</div>","null","","fixation","","","","","","","","","","",""
"aa-learning-trial","141","546808","0.0-9.0-2.0-1.34","4028","2","15","Male","approach_avoid_spark_v1","""event"",""trial"",""time""
""fullscreenenter"",""1"",""1084""
","
","
","""event"",""trial"",""time""
""fullscreenenter"",""1"",""1084""
","
","","","","","","378.19999999995343","images/tree3.png","","","learning","5","5","1","1","tree","plants","2","0","","good","[3]"
"html-keyboard-response","142","547312","0.0-9.0-2.0-0.35","4028","2","15","Male","approach_avoid_spark_v1","""event"",""trial"",""time""
""fullscreenenter"",""1"",""1084""
","
","
","""event"",""trial"",""time""
""fullscreenenter"",""1"",""1084""
","
","","","","","","null","<div style=""font-size:60px;"">+</div>","null","","fixation","","","","","","","","","","",""
"aa-learning-trial","143","550319","0.0-9.0-2.0-1.35","4028","2","15","Male","approach_avoid_spark_v1","""event"",""trial"",""time""
""fullscreenenter"",""1"",""1084""
","
","
","""event"",""trial"",""time""
""fullscreenenter"",""1"",""1084""
","
","","","","","","282.39999999990687","images/flower4.png","","","learning","6","6","1","1","flower","plants","2","0","","bad","[-4]"
"html-keyboard-response","144","550823","0.0-9.0-2.0-0.36","4028","2","15","Male","approach_avoid_spark_v1","""event"",""trial"",""time""
""fullscreenenter"",""1"",""1084""
","
","
","""event"",""trial"",""time""
""fullscreenenter"",""1"",""1084""
","
","","","","","","null","<div style=""font-size:60px;"">+</div>","null","","fixation","","","","","","","","","","",""
"aa-learning-trial","145","553831","0.0-9.0-2.0-1.36","4028","2","15","Male","approach_avoid_spark_v1","""event"",""trial"",""time""
""fullscreenenter"",""1"",""1084""
","
","
","""event"",""trial"",""time""
""fullscreenenter"",""1"",""1084""
","
","","","","","","657.8999999999069","images/bush5.png","","","learning","-5","0","0","0","bush","plants","2","0","","neutral","0"
"html-keyboard-response","146","554335","0.0-9.0-2.0-0.37","4028","2","15","Male","approach_avoid_spark_v1","""event"",""trial"",""time""
""fullscreenenter"",""1"",""1084""
","
","
","""event"",""trial"",""time""
""fullscreenenter"",""1"",""1084""
","
","","","","","","null","<div style=""font-size:60px;"">+</div>","null","","fixation","","","","","","","","","","",""
"aa-learning-trial","147","557343","0.0-9.0-2.0-1.37","4028","2","15","Male","approach_avoid_spark_v1","""event"",""trial"",""time""
""fullscreenenter"",""1"",""1084""
","
","
","""event"",""trial"",""time""
""fullscreenenter"",""1"",""1084""
","
","","","","","","520.5","images/flower3.png","","","learning","-4","-4","1","1","flower","plants","2","0","","bad","[-4]"
"html-keyboard-response","148","557847","0.0-9.0-2.0-0.38","4028","2","15","Male","approach_avoid_spark_v1","""event"",""trial"",""time""
""fullscreenenter"",""1"",""1084""
","
","
","""event"",""trial"",""time""
""fullscreenenter"",""1"",""1084""
","
","","","","","","null","<div style=""font-size:60px;"">+</div>","null","","fixation","","","","","","","","","","",""
"aa-learning-trial","149","560855","0.0-9.0-2.0-1.38","4028","2","15","Male","approach_avoid_spark_v1","""event"",""trial"",""time""
""fullscreenenter"",""1"",""1084""
","
","
","""event"",""trial"",""time""
""fullscreenenter"",""1"",""1084""
","
","","","","","","633.8999999999069","images/tree4.png","","","learning","-9","0","0","0","tree","plants","2","0","","good","[3]"
"html-keyboard-response","150","561359","0.0-9.0-2.0-0.39","4028","2","15","Male","approach_avoid_spark_v1","""event"",""trial"",""time""
""fullscreenenter"",""1"",""1084""
","
","
","""event"",""trial"",""time""
""fullscreenenter"",""1"",""1084""
","
","","","","","","null","<div style=""font-size:60px;"">+</div>","null","","fixation","","","","","","","","","","",""
"aa-learning-trial","151","564367","0.0-9.0-2.0-1.39","4028","2","15","Male","approach_avoid_spark_v1","""event"",""trial"",""time""
""fullscreenenter"",""1"",""1084""
","
","
","""event"",""trial"",""time""
""fullscreenenter"",""1"",""1084""
","
","","","","","","840.7999999998137","images/flower3.png","","","learning","-4","0","0","0","flower","plants","2","0","","bad","[-4]"
"html-keyboard-response","152","564871","0.0-9.0-2.0-0.40","4028","2","15","Male","approach_avoid_spark_v1","""event"",""trial"",""time""
""fullscreenenter"",""1"",""1084""
","
","
","""event"",""trial"",""time""
""fullscreenenter"",""1"",""1084""
","
","","","","","","null","<div style=""font-size:60px;"">+</div>","null","","fixation","","","","","","","","","","",""
"aa-learning-trial","153","567879","0.0-9.0-2.0-1.40","4028","2","15","Male","approach_avoid_spark_v1","""event"",""trial"",""time""
""fullscreenenter"",""1"",""1084""
","
","
","""event"",""trial"",""time""
""fullscreenenter"",""1"",""1084""
","
","","","","","","671.8999999999069","images/tree4.png","","","learning","-9","0","0","0","tree","plants","2","0","","good","[3]"
"html-keyboard-response","154","568383","0.0-9.0-2.0-0.41","4028","2","15","Male","approach_avoid_spark_v1","""event"",""trial"",""time""
""fullscreenenter"",""1"",""1084""
","
","
","""event"",""trial"",""time""
""fullscreenenter"",""1"",""1084""
","
","","","","","","null","<div style=""font-size:60px;"">+</div>","null","","fixation","","","","","","","","","","",""
"aa-learning-trial","155","571390","0.0-9.0-2.0-1.41","4028","2","15","Male","approach_avoid_spark_v1","""event"",""trial"",""time""
""fullscreenenter"",""1"",""1084""
","
","
","""event"",""trial"",""time""
""fullscreenenter"",""1"",""1084""
","
","","","","","","1642.6000000000931","images/tree3.png","","","learning","5","5","1","1","tree","plants","2","0","","good","[3]"
"html-keyboard-response","156","571894","0.0-9.0-2.0-0.42","4028","2","15","Male","approach_avoid_spark_v1","""event"",""trial"",""time""
""fullscreenenter"",""1"",""1084""
","
","
","""event"",""trial"",""time""
""fullscreenenter"",""1"",""1084""
","
","","","","","","null","<div style=""font-size:60px;"">+</div>","null","","fixation","","","","","","","","","","",""
"aa-learning-trial","157","574903","0.0-9.0-2.0-1.42","4028","2","15","Male","approach_avoid_spark_v1","""event"",""trial"",""time""
""fullscreenenter"",""1"",""1084""
","
","
","""event"",""trial"",""time""
""fullscreenenter"",""1"",""1084""
","
","","","","","","472.39999999990687","images/bush6.png","","","learning","9","9","1","1","bush","plants","2","0","","neutral","0"
"html-keyboard-response","158","575409","0.0-9.0-2.0-0.43","4028","2","15","Male","approach_avoid_spark_v1","""event"",""trial"",""time""
""fullscreenenter"",""1"",""1084""
","
","
","""event"",""trial"",""time""
""fullscreenenter"",""1"",""1084""
","
","","","","","","null","<div style=""font-size:60px;"">+</div>","null","","fixation","","","","","","","","","","",""
"aa-learning-trial","159","578416","0.0-9.0-2.0-1.43","4028","2","15","Male","approach_avoid_spark_v1","""event"",""trial"",""time""
""fullscreenenter"",""1"",""1084""
","
","
","""event"",""trial"",""time""
""fullscreenenter"",""1"",""1084""
","
","","","","","","654.3000000000466","images/tree2.png","","","learning","2","2","1","1","tree","plants","2","0","","good","[3]"
"html-keyboard-response","160","578918","0.0-9.0-2.0-0.44","4028","2","15","Male","approach_avoid_spark_v1","""event"",""trial"",""time""
""fullscreenenter"",""1"",""1084""
","
","
","""event"",""trial"",""time""
""fullscreenenter"",""1"",""1084""
","
","","","","","","null","<div style=""font-size:60px;"">+</div>","null","","fixation","","","","","","","","","","",""
"aa-learning-trial","161","581927","0.0-9.0-2.0-1.44","4028","2","15","Male","approach_avoid_spark_v1","""event"",""trial"",""time""
""fullscreenenter"",""1"",""1084""
","
","
","""event"",""trial"",""time""
""fullscreenenter"",""1"",""1084""
","
","","","","","","570.3999999999069","images/bush2.png","","","learning","1","1","1","1","bush","plants","2","0","","neutral","0"
"html-keyboard-response","162","582431","0.0-9.0-2.0-0.45","4028","2","15","Male","approach_avoid_spark_v1","""event"",""trial"",""time""
""fullscreenenter"",""1"",""1084""
","
","
","""event"",""trial"",""time""
""fullscreenenter"",""1"",""1084""
","
","","","","","","null","<div style=""font-size:60px;"">+</div>","null","","fixation","","","","","","","","","","",""
"aa-learning-trial","163","585452","0.0-9.0-2.0-1.45","4028","2","15","Male","approach_avoid_spark_v1","""event"",""trial"",""time""
""fullscreenenter"",""1"",""1084""
","
","
","""event"",""trial"",""time""
""fullscreenenter"",""1"",""1084""
","
","","","","","","484.19999999995343","images/bush6.png","","","learning","9","9","1","1","bush","plants","2","0","","neutral","0"
"html-keyboard-response","164","585959","0.0-9.0-2.0-0.46","4028","2","15","Male","approach_avoid_spark_v1","""event"",""trial"",""time""
""fullscreenenter"",""1"",""1084""
","
","
","""event"",""trial"",""time""
""fullscreenenter"",""1"",""1084""
","
","","","","","","null","<div style=""font-size:60px;"">+</div>","null","","fixation","","","","","","","","","","",""
"aa-learning-trial","165","588968","0.0-9.0-2.0-1.46","4028","2","15","Male","approach_avoid_spark_v1","""event"",""trial"",""time""
""fullscreenenter"",""1"",""1084""
","
","
","""event"",""trial"",""time""
""fullscreenenter"",""1"",""1084""
","
","","","","","","656","images/bush5.png","","","learning","-5","0","0","0","bush","plants","2","0","","neutral","0"
"html-keyboard-response","166","589472","0.0-9.0-2.0-0.47","4028","2","15","Male","approach_avoid_spark_v1","""event"",""trial"",""time""
""fullscreenenter"",""1"",""1084""
","
","
","""event"",""trial"",""time""
""fullscreenenter"",""1"",""1084""
","
","","","","","","null","<div style=""font-size:60px;"">+</div>","null","","fixation","","","","","","","","","","",""
"aa-learning-trial","167","592480","0.0-9.0-2.0-1.47","4028","2","15","Male","approach_avoid_spark_v1","""event"",""trial"",""time""
""fullscreenenter"",""1"",""1084""
","
","
","""event"",""trial"",""time""
""fullscreenenter"",""1"",""1084""
","
","","","","","","656.3000000000466","images/tree3.png","","","learning","5","5","1","1","tree","plants","2","0","","good","[3]"
"html-keyboard-response","168","592983","0.0-9.0-2.0-0.48","4028","2","15","Male","approach_avoid_spark_v1","""event"",""trial"",""time""
""fullscreenenter"",""1"",""1084""
","
","
","""event"",""trial"",""time""
""fullscreenenter"",""1"",""1084""
","
","","","","","","null","<div style=""font-size:60px;"">+</div>","null","","fixation","","","","","","","","","","",""
"aa-learning-trial","169","595991","0.0-9.0-2.0-1.48","4028","2","15","Male","approach_avoid_spark_v1","""event"",""trial"",""time""
""fullscreenenter"",""1"",""1084""
","
","
","""event"",""trial"",""time""
""fullscreenenter"",""1"",""1084""
","
","","","","","","650","images/tree5.png","","","learning","-3","0","0","0","tree","plants","2","0","","good","[3]"
"html-keyboard-response","170","596495","0.0-9.0-2.0-0.49","4028","2","15","Male","approach_avoid_spark_v1","""event"",""trial"",""time""
""fullscreenenter"",""1"",""1084""
","
","
","""event"",""trial"",""time""
""fullscreenenter"",""1"",""1084""
","
","","","","","","null","<div style=""font-size:60px;"">+</div>","null","","fixation","","","","","","","","","","",""
"aa-learning-trial","171","599504","0.0-9.0-2.0-1.49","4028","2","15","Male","approach_avoid_spark_v1","""event"",""trial"",""time""
""fullscreenenter"",""1"",""1084""
","
","
","""event"",""trial"",""time""
""fullscreenenter"",""1"",""1084""
","
","","","","","","688.7000000001863","images/flower4.png","","","learning","6","6","1","1","flower","plants","2","0","","bad","[-4]"
"html-keyboard-response","172","600007","0.0-9.0-2.0-0.50","4028","2","15","Male","approach_avoid_spark_v1","""event"",""trial"",""time""
""fullscreenenter"",""1"",""1084""
","
","
","""event"",""trial"",""time""
""fullscreenenter"",""1"",""1084""
","
","","","","","","null","<div style=""font-size:60px;"">+</div>","null","","fixation","","","","","","","","","","",""
"aa-learning-trial","173","603016","0.0-9.0-2.0-1.50","4028","2","15","Male","approach_avoid_spark_v1","""event"",""trial"",""time""
""fullscreenenter"",""1"",""1084""
","
","
","""event"",""trial"",""time""
""fullscreenenter"",""1"",""1084""
","
","","","","","","392.69999999995343","images/flower4.png","","","learning","6","6","1","1","flower","plants","2","0","","bad","[-4]"
"html-button-response","174","607218","0.0-9.0-3.0","4028","2","15","Male","approach_avoid_spark_v1","""event"",""trial"",""time""
""fullscreenenter"",""1"",""1084""
","
","
","""event"",""trial"",""time""
""fullscreenenter"",""1"",""1084""
","
","","","","","","4200.199999999953","<p> You have completed the round! <p> In this round, you earned 54 points! </p>","0","","break","","","","","","","","","","",""
"html-button-response","175","607890","0.0-10.0","4028","2","15","Male","approach_avoid_spark_v1","""event"",""trial"",""time""
""fullscreenenter"",""1"",""1084""
","
","
","""event"",""trial"",""time""
""fullscreenenter"",""1"",""1084""
","
","","","","","","671.9000000001397","<p> Now it's time to play another round. </p>","0","","transition_screen","","","","","","","","","","",""
"preload","176","608008","0.0-11.0-0.0","4028","2","15","Male","approach_avoid_spark_v1","""event"",""trial"",""time""
""fullscreenenter"",""1"",""1084""
","
","
","""event"",""trial"",""time""
""fullscreenenter"",""1"",""1084""
","
","true","false","[]","[]","[]","","","","","","","","","","","","","","","",""
"learning-instructions","177","613834","0.0-11.0-1.0-0.0","4028","2","15","Male","approach_avoid_spark_v1","""event"",""trial"",""time""
""fullscreenenter"",""1"",""1084""
","
","
","""event"",""trial"",""time""
""fullscreenenter"",""1"",""1084""
","
","","","","","","1130.6999999999534","<p> Your goal in this round is to decorate your friend's new house with furniture. </p></div>","","0","instructions","","","","","","","","","","",""
"learning-instructions","178","624034","0.0-11.0-1.0-0.1","4028","2","15","Male","approach_avoid_spark_v1","""event"",""trial"",""time""
""fullscreenenter"",""1"",""1084""
","
","
","""event"",""trial"",""time""
""fullscreenenter"",""1"",""1084""
","
","","","","","","720.5","<p> Your friend likes some pieces of furniture but not others.  </p><p> On each turn, you will see a piece of furniture.   </p><p> You need to decide whether to put it in your friend's house or not.  </p>","","0","instructions","","","","","","","","","","",""
"learning-instructions","179","631850","0.0-11.0-1.0-0.2","4028","2","15","Male","approach_avoid_spark_v1","""event"",""trial"",""time""
""fullscreenenter"",""1"",""1084""
","
","
","""event"",""trial"",""time""
""fullscreenenter"",""1"",""1084""
","
","","","","","","1834.3999999999069","<p> You can put the furniture in her house by pressing 1 and deliver it elsewhere by pressing 0. </p><br><div class=""choice-instructions-grid""> <div class=""choice-option""><img src=""images/approach.png"" class=""choice-option-img"" stage=""instructions"" position=""0"" ><div class=""choice-option-text""> Press ""1."" </div></div><div class=""choice-option""><img src=""images/avoid.png"" class=""choice-option-img"" stage=""instructions"" position=""1"" ><div class=""choice-option-text""> Press ""0."" </div></div>","","0","instructions","","","","","","","","","","",""
"learning-instructions","180","641515","0.0-11.0-1.0-0.3","4028","2","15","Male","approach_avoid_spark_v1","""event"",""trial"",""time""
""fullscreenenter"",""1"",""1084""
","
","
","""event"",""trial"",""time""
""fullscreenenter"",""1"",""1084""
","
","","","","","","460.0999999998603","<p> If you decorate your friend's house with furniture she likes, she will be happy! </p><p> But if you give her furniture that she does not like, she will be annoyed. </p>","","0","instructions","","","","","","","","","","",""
"learning-instructions","181","654690","0.0-11.0-1.0-0.4","4028","2","15","Male","approach_avoid_spark_v1","""event"",""trial"",""time""
""fullscreenenter"",""1"",""1084""
","
","
","""event"",""trial"",""time""
""fullscreenenter"",""1"",""1084""
","
","","","","","","334.70000000018626","<p> You will earn points based on how you made your friend feel. </p><p> If you made her happy, you will WIN anywhere from 1 - 9 points, </p><p> but if you made her annoyed you will LOSE anywhere from 1 - 9 points. </p>","","0","instructions","","","","","","","","","","",""
"learning-instructions","182","664091","0.0-11.0-1.0-0.5","4028","2","15","Male","approach_avoid_spark_v1","""event"",""trial"",""time""
""fullscreenenter"",""1"",""1084""
","
","
","""event"",""trial"",""time""
""fullscreenenter"",""1"",""1084""
","
","","","","","","2744.7999999998137","<p> You will see how many points you won or lost in the center of the screen. </p><p> Here is what you would see if you won 5 points: </p><p style=""color:green;font-size:50px;font-weight:bolder"">5</p>","","0","instructions","","","","","","","","","","",""
"learning-instructions","183","668506","0.0-11.0-1.0-0.6","4028","2","15","Male","approach_avoid_spark_v1","""event"",""trial"",""time""
""fullscreenenter"",""1"",""1084""
","
","
","""event"",""trial"",""time""
""fullscreenenter"",""1"",""1084""
","
","","","","","","1580.4000000001397","<p> And here is what you would see if you lost 3 points: </p><p style=""color:red;font-size:50px;font-weight:bolder"">-3</p>","","0","instructions","","","","","","","","","","",""
"learning-instructions","184","688066","0.0-11.0-1.0-0.7","4028","2","15","Male","approach_avoid_spark_v1","""event"",""trial"",""time""
""fullscreenenter"",""1"",""1084""
","
","
","""event"",""trial"",""time""
""fullscreenenter"",""1"",""1084""
","
","","","","","","1290.5","<p> Some pieces of furniture will make her feel very happy or very annoyed. </p><p> These pieces of furniture will make you win or lose LOTS of points. </p><p> Other pieces of furniture will only make her feel a little happy or a little annoyed. </p><p> These pieces of furniture will make you win or lose small amounts of points. </p>","","0","instructions","","","","","","","","","","",""
"learning-instructions","185","702890","0.0-11.0-1.0-0.8","4028","2","15","Male","approach_avoid_spark_v1","""event"",""trial"",""time""
""fullscreenenter"",""1"",""1084""
","
","
","""event"",""trial"",""time""
""fullscreenenter"",""1"",""1084""
","
","","","","","","1684.2999999998137","<p> If you choose to deliver a piece of furniture elsewhere, you will not win or lose any points. </p><p>  However, in the center of the screen, you will see the number of points you WOULD HAVE won or lost if you had given the furniture to your friend. </p>","","0","instructions","","","","","","","","","","",""
"learning-instructions","186","716538","0.0-11.0-1.0-0.9","4028","2","15","Male","approach_avoid_spark_v1","""event"",""trial"",""time""
""fullscreenenter"",""1"",""1084""
","
","
","""event"",""trial"",""time""
""fullscreenenter"",""1"",""1084""
","
","","","","","","2032.1000000000931","<p> Here is what you might see if you did not give a piece of furniture to your friend that would have made her happy: </p><p style=""color:grey; font-size:50px; display: inline-block; border-spacing: 15px; border-width:3px; border-style:solid; border-color:red"">  &nbsp; 6 &nbsp; </p><p> Remember, in this case, you would not win or lose ANY points because you did not give her the furniture.  </p>","","0","instructions","","","","","","","","","","",""
"learning-instructions","187","725035","0.0-11.0-1.0-0.10","4028","2","15","Male","approach_avoid_spark_v1","""event"",""trial"",""time""
""fullscreenenter"",""1"",""1084""
","
","
","""event"",""trial"",""time""
""fullscreenenter"",""1"",""1084""
","
","","","","","","1009.5999999998603","<p> Try to make the best choice for each piece of furniture because </p><p> at the end of the game, you will earn bonus money based on how many points you earned. </p>","","0","instructions","","","","","","","","","","",""
"learning-instructions","188","733858","0.0-11.0-1.0-0.11","4028","2","15","Male","approach_avoid_spark_v1","""event"",""trial"",""time""
""fullscreenenter"",""1"",""1084""
","
","
","""event"",""trial"",""time""
""fullscreenenter"",""1"",""1084""
","
","","","","","","612.1000000000931","<p> You will have 3 seconds to make each choice. Try to respond before time runs out! </p><p> You will lose 5 points each time you do not make a response. </p>","","0","instructions","","","","","","","","","","",""
"html-keyboard-response","189","734494","0.0-11.0-2.0-0.0","4028","2","15","Male","approach_avoid_spark_v1","""event"",""trial"",""time""
""fullscreenenter"",""1"",""1084""
","
","
","""event"",""trial"",""time""
""fullscreenenter"",""1"",""1084""
","
","","","","","","null","<div style=""font-size:60px;"">+</div>","null","","fixation","","","","","","","","","","",""
"aa-learning-trial","190","737505","0.0-11.0-2.0-1.0","4028","2","15","Male","approach_avoid_spark_v1","""event"",""trial"",""time""
""fullscreenenter"",""1"",""1084""
","
","
","""event"",""trial"",""time""
""fullscreenenter"",""1"",""1084""
","
","","","","","","1233","images/bed1.png","","","learning","-6","-6","1","1","bed","furniture","1","1","","bad","[-6]"
"html-keyboard-response","191","738013","0.0-11.0-2.0-0.1","4028","2","15","Male","approach_avoid_spark_v1","""event"",""trial"",""time""
""fullscreenenter"",""1"",""1084""
","
","
","""event"",""trial"",""time""
""fullscreenenter"",""1"",""1084""
","
","","","","","","null","<div style=""font-size:60px;"">+</div>","null","","fixation","","","","","","","","","","",""
"aa-learning-trial","192","741034","0.0-11.0-2.0-1.1","4028","2","15","Male","approach_avoid_spark_v1","""event"",""trial"",""time""
""fullscreenenter"",""1"",""1084""
","
","
","""event"",""trial"",""time""
""fullscreenenter"",""1"",""1084""
","
","","","","","","658.6999999999534","images/table3.png","","","learning","5","5","1","1","table","furniture","1","1","","good","[4]"
"html-keyboard-response","193","741544","0.0-11.0-2.0-0.2","4028","2","15","Male","approach_avoid_spark_v1","""event"",""trial"",""time""
""fullscreenenter"",""1"",""1084""
","
","
","""event"",""trial"",""time""
""fullscreenenter"",""1"",""1084""
","
","","","","","","null","<div style=""font-size:60px;"">+</div>","null","","fixation","","","","","","","","","","",""
"aa-learning-trial","194","744564","0.0-11.0-2.0-1.2","4028","2","15","Male","approach_avoid_spark_v1","""event"",""trial"",""time""
""fullscreenenter"",""1"",""1084""
","
","
","""event"",""trial"",""time""
""fullscreenenter"",""1"",""1084""
","
","","","","","","631.5999999998603","images/table8.png","","","learning","3","3","1","1","table","furniture","1","1","","good","[4]"
"html-keyboard-response","195","745084","0.0-11.0-2.0-0.3","4028","2","15","Male","approach_avoid_spark_v1","""event"",""trial"",""time""
""fullscreenenter"",""1"",""1084""
","
","
","""event"",""trial"",""time""
""fullscreenenter"",""1"",""1084""
","
","","","","","","null","<div style=""font-size:60px;"">+</div>","null","","fixation","","","","","","","","","","",""
"aa-learning-trial","196","748114","0.0-11.0-2.0-1.3","4028","2","15","Male","approach_avoid_spark_v1","""event"",""trial"",""time""
""fullscreenenter"",""1"",""1084""
","
","
","""event"",""trial"",""time""
""fullscreenenter"",""1"",""1084""
","
","","","","","","418.4000000001397","images/table6.png","","","learning","1","1","1","1","table","furniture","1","1","","good","[4]"
"html-keyboard-response","197","748634","0.0-11.0-2.0-0.4","4028","2","15","Male","approach_avoid_spark_v1","""event"",""trial"",""time""
""fullscreenenter"",""1"",""1084""
","
","
","""event"",""trial"",""time""
""fullscreenenter"",""1"",""1084""
","
","","","","","","null","<div style=""font-size:60px;"">+</div>","null","","fixation","","","","","","","","","","",""
"aa-learning-trial","198","751644","0.0-11.0-2.0-1.4","4028","2","15","Male","approach_avoid_spark_v1","""event"",""trial"",""time""
""fullscreenenter"",""1"",""1084""
","
","
","""event"",""trial"",""time""
""fullscreenenter"",""1"",""1084""
","
","","","","","","1201.3999999999069","images/sofa2.png","","","learning","[-1]","0","0","0","sofa","furniture","1","1","","neutral","0"
"html-keyboard-response","199","752163","0.0-11.0-2.0-0.5","4028","2","15","Male","approach_avoid_spark_v1","""event"",""trial"",""time""
""fullscreenenter"",""1"",""1084""
","
","
","""event"",""trial"",""time""
""fullscreenenter"",""1"",""1084""
","
","","","","","","null","<div style=""font-size:60px;"">+</div>","null","","fixation","","","","","","","","","","",""
"aa-learning-trial","200","755173","0.0-11.0-2.0-1.5","4028","2","15","Male","approach_avoid_spark_v1","""event"",""trial"",""time""
""fullscreenenter"",""1"",""1084""
","
","
","""event"",""trial"",""time""
""fullscreenenter"",""1"",""1084""
","
","","","","","","798.8000000000466","images/sofa3.png","","","learning","[1]","0","0","0","sofa","furniture","1","1","","neutral","0"
"html-keyboard-response","201","755694","0.0-11.0-2.0-0.6","4028","2","15","Male","approach_avoid_spark_v1","""event"",""trial"",""time""
""fullscreenenter"",""1"",""1084""
","
","
","""event"",""trial"",""time""
""fullscreenenter"",""1"",""1084""
","
","","","","","","null","<div style=""font-size:60px;"">+</div>","null","","fixation","","","","","","","","","","",""
"aa-learning-trial","202","758704","0.0-11.0-2.0-1.6","4028","2","15","Male","approach_avoid_spark_v1","""event"",""trial"",""time""
""fullscreenenter"",""1"",""1084""
","
","
","""event"",""trial"",""time""
""fullscreenenter"",""1"",""1084""
","
","","","","","","953.3000000000466","images/bed6.png","","","learning","-5","-5","1","1","bed","furniture","1","1","","bad","[-6]"
"html-keyboard-response","203","759224","0.0-11.0-2.0-0.7","4028","2","15","Male","approach_avoid_spark_v1","""event"",""trial"",""time""
""fullscreenenter"",""1"",""1084""
","
","
","""event"",""trial"",""time""
""fullscreenenter"",""1"",""1084""
","
","","","","","","null","<div style=""font-size:60px;"">+</div>","null","","fixation","","","","","","","","","","",""
"aa-learning-trial","204","762234","0.0-11.0-2.0-1.7","4028","2","15","Male","approach_avoid_spark_v1","""event"",""trial"",""time""
""fullscreenenter"",""1"",""1084""
","
","
","""event"",""trial"",""time""
""fullscreenenter"",""1"",""1084""
","
","","","","","","1334.4000000001397","images/sofa2.png","","","learning","-2","0","0","0","sofa","furniture","1","1","","neutral","0"
"html-keyboard-response","205","762753","0.0-11.0-2.0-0.8","4028","2","15","Male","approach_avoid_spark_v1","""event"",""trial"",""time""
""fullscreenenter"",""1"",""1084""
","
","
","""event"",""trial"",""time""
""fullscreenenter"",""1"",""1084""
","
","","","","","","null","<div style=""font-size:60px;"">+</div>","null","","fixation","","","","","","","","","","",""
"aa-learning-trial","206","765759","0.0-11.0-2.0-1.8","4028","2","15","Male","approach_avoid_spark_v1","""event"",""trial"",""time""
""fullscreenenter"",""1"",""1084""
","
","
","""event"",""trial"",""time""
""fullscreenenter"",""1"",""1084""
","
","","","","","","736.9000000001397","images/bed8.png","","","learning","-6","0","0","0","bed","furniture","1","1","","bad","[-6]"
"html-keyboard-response","207","766269","0.0-11.0-2.0-0.9","4028","2","15","Male","approach_avoid_spark_v1","""event"",""trial"",""time""
""fullscreenenter"",""1"",""1084""
","
","
","""event"",""trial"",""time""
""fullscreenenter"",""1"",""1084""
","
","","","","","","null","<div style=""font-size:60px;"">+</div>","null","","fixation","","","","","","","","","","",""
"aa-learning-trial","208","769278","0.0-11.0-2.0-1.9","4028","2","15","Male","approach_avoid_spark_v1","""event"",""trial"",""time""
""fullscreenenter"",""1"",""1084""
","
","
","""event"",""trial"",""time""
""fullscreenenter"",""1"",""1084""
","
","","","","","","595.3000000000466","images/sofa8.png","","","learning","-2","0","0","0","sofa","furniture","1","1","","neutral","0"
"html-keyboard-response","209","769794","0.0-11.0-2.0-0.10","4028","2","15","Male","approach_avoid_spark_v1","""event"",""trial"",""time""
""fullscreenenter"",""1"",""1084""
","
","
","""event"",""trial"",""time""
""fullscreenenter"",""1"",""1084""
","
","","","","","","null","<div style=""font-size:60px;"">+</div>","null","","fixation","","","","","","","","","","",""
"aa-learning-trial","210","772799","0.0-11.0-2.0-1.10","4028","2","15","Male","approach_avoid_spark_v1","""event"",""trial"",""time""
""fullscreenenter"",""1"",""1084""
","
","
","""event"",""trial"",""time""
""fullscreenenter"",""1"",""1084""
","
","","","","","","684.6999999999534","images/bed8.png","","","learning","-5","0","0","0","bed","furniture","1","1","","bad","[-6]"
"html-keyboard-response","211","773303","0.0-11.0-2.0-0.11","4028","2","15","Male","approach_avoid_spark_v1","""event"",""trial"",""time""
""fullscreenenter"",""1"",""1084""
","
","
","""event"",""trial"",""time""
""fullscreenenter"",""1"",""1084""
","
","","","","","","null","<div style=""font-size:60px;"">+</div>","null","","fixation","","","","","","","","","","",""
"aa-learning-trial","212","776311","0.0-11.0-2.0-1.11","4028","2","15","Male","approach_avoid_spark_v1","""event"",""trial"",""time""
""fullscreenenter"",""1"",""1084""
","
","
","""event"",""trial"",""time""
""fullscreenenter"",""1"",""1084""
","
","","","","","","872.8999999999069","images/bed1.png","","","learning","-6","0","0","0","bed","furniture","1","1","","bad","[-6]"
"html-keyboard-response","213","776815","0.0-11.0-2.0-0.12","4028","2","15","Male","approach_avoid_spark_v1","""event"",""trial"",""time""
""fullscreenenter"",""1"",""1084""
","
","
","""event"",""trial"",""time""
""fullscreenenter"",""1"",""1084""
","
","","","","","","null","<div style=""font-size:60px;"">+</div>","null","","fixation","","","","","","","","","","",""
"aa-learning-trial","214","779823","0.0-11.0-2.0-1.12","4028","2","15","Male","approach_avoid_spark_v1","""event"",""trial"",""time""
""fullscreenenter"",""1"",""1084""
","
","
","""event"",""trial"",""time""
""fullscreenenter"",""1"",""1084""
","
","","","","","","1177.1000000000931","images/sofa3.png","","","learning","[-1]","-1","1","1","sofa","furniture","1","1","","neutral","0"
"html-keyboard-response","215","780328","0.0-11.0-2.0-0.13","4028","2","15","Male","approach_avoid_spark_v1","""event"",""trial"",""time""
""fullscreenenter"",""1"",""1084""
","
","
","""event"",""trial"",""time""
""fullscreenenter"",""1"",""1084""
","
","","","","","","null","<div style=""font-size:60px;"">+</div>","null","","fixation","","","","","","","","","","",""
"aa-learning-trial","216","783335","0.0-11.0-2.0-1.13","4028","2","15","Male","approach_avoid_spark_v1","""event"",""trial"",""time""
""fullscreenenter"",""1"",""1084""
","
","
","""event"",""trial"",""time""
""fullscreenenter"",""1"",""1084""
","
","","","","","","504.4000000001397","images/table8.png","","","learning","4","4","1","1","table","furniture","1","1","","good","[4]"
"html-keyboard-response","217","783839","0.0-11.0-2.0-0.14","4028","2","15","Male","approach_avoid_spark_v1","""event"",""trial"",""time""
""fullscreenenter"",""1"",""1084""
","
","
","""event"",""trial"",""time""
""fullscreenenter"",""1"",""1084""
","
","","","","","","null","<div style=""font-size:60px;"">+</div>","null","","fixation","","","","","","","","","","",""
"aa-learning-trial","218","786848","0.0-11.0-2.0-1.14","4028","2","15","Male","approach_avoid_spark_v1","""event"",""trial"",""time""
""fullscreenenter"",""1"",""1084""
","
","
","""event"",""trial"",""time""
""fullscreenenter"",""1"",""1084""
","
","","","","","","355.60000000009313","images/table6.png","","","learning","3","3","1","1","table","furniture","1","1","","good","[4]"
"html-keyboard-response","219","787352","0.0-11.0-2.0-0.15","4028","2","15","Male","approach_avoid_spark_v1","""event"",""trial"",""time""
""fullscreenenter"",""1"",""1084""
","
","
","""event"",""trial"",""time""
""fullscreenenter"",""1"",""1084""
","
","","","","","","null","<div style=""font-size:60px;"">+</div>","null","","fixation","","","","","","","","","","",""
"aa-learning-trial","220","790359","0.0-11.0-2.0-1.15","4028","2","15","Male","approach_avoid_spark_v1","""event"",""trial"",""time""
""fullscreenenter"",""1"",""1084""
","
","
","""event"",""trial"",""time""
""fullscreenenter"",""1"",""1084""
","
","","","","","","536.3999999999069","images/table8.png","","","learning","6","6","1","1","table","furniture","1","1","","good","[4]"
"html-keyboard-response","221","790863","0.0-11.0-2.0-0.16","4028","2","15","Male","approach_avoid_spark_v1","""event"",""trial"",""time""
""fullscreenenter"",""1"",""1084""
","
","
","""event"",""trial"",""time""
""fullscreenenter"",""1"",""1084""
","
","","","","","","null","<div style=""font-size:60px;"">+</div>","null","","fixation","","","","","","","","","","",""
"aa-learning-trial","222","793875","0.0-11.0-2.0-1.16","4028","2","15","Male","approach_avoid_spark_v1","""event"",""trial"",""time""
""fullscreenenter"",""1"",""1084""
","
","
","""event"",""trial"",""time""
""fullscreenenter"",""1"",""1084""
","
","","","","","","1441.5","images/bed8.png","","","learning","-5","0","0","0","bed","furniture","1","1","","bad","[-6]"
"html-keyboard-response","223","794393","0.0-11.0-2.0-0.17","4028","2","15","Male","approach_avoid_spark_v1","""event"",""trial"",""time""
""fullscreenenter"",""1"",""1084""
","
","
","""event"",""trial"",""time""
""fullscreenenter"",""1"",""1084""
","
","","","","","","null","<div style=""font-size:60px;"">+</div>","null","","fixation","","","","","","","","","","",""
"aa-learning-trial","224","797400","0.0-11.0-2.0-1.17","4028","2","15","Male","approach_avoid_spark_v1","""event"",""trial"",""time""
""fullscreenenter"",""1"",""1084""
","
","
","""event"",""trial"",""time""
""fullscreenenter"",""1"",""1084""
","
","","","","","","527.3999999999069","images/sofa8.png","","","learning","2","0","0","0","sofa","furniture","1","1","","neutral","0"
"html-keyboard-response","225","797904","0.0-11.0-2.0-0.18","4028","2","15","Male","approach_avoid_spark_v1","""event"",""trial"",""time""
""fullscreenenter"",""1"",""1084""
","
","
","""event"",""trial"",""time""
""fullscreenenter"",""1"",""1084""
","
","","","","","","null","<div style=""font-size:60px;"">+</div>","null","","fixation","","","","","","","","","","",""
"aa-learning-trial","226","800924","0.0-11.0-2.0-1.18","4028","2","15","Male","approach_avoid_spark_v1","""event"",""trial"",""time""
""fullscreenenter"",""1"",""1084""
","
","
","""event"",""trial"",""time""
""fullscreenenter"",""1"",""1084""
","
","","","","","","631.7000000001863","images/bed8.png","","","learning","-4","0","0","0","bed","furniture","1","1","","bad","[-6]"
"html-keyboard-response","227","801433","0.0-11.0-2.0-0.19","4028","2","15","Male","approach_avoid_spark_v1","""event"",""trial"",""time""
""fullscreenenter"",""1"",""1084""
","
","
","""event"",""trial"",""time""
""fullscreenenter"",""1"",""1084""
","
","","","","","","null","<div style=""font-size:60px;"">+</div>","null","","fixation","","","","","","","","","","",""
"aa-learning-trial","228","804439","0.0-11.0-2.0-1.19","4028","2","15","Male","approach_avoid_spark_v1","""event"",""trial"",""time""
""fullscreenenter"",""1"",""1084""
","
","
","""event"",""trial"",""time""
""fullscreenenter"",""1"",""1084""
","
","","","","","","592.1000000000931","images/table8.png","","","learning","4","4","1","1","table","furniture","1","1","","good","[4]"
"html-keyboard-response","229","804943","0.0-11.0-2.0-0.20","4028","2","15","Male","approach_avoid_spark_v1","""event"",""trial"",""time""
""fullscreenenter"",""1"",""1084""
","
","
","""event"",""trial"",""time""
""fullscreenenter"",""1"",""1084""
","
","","","","","","null","<div style=""font-size:60px;"">+</div>","null","","fixation","","","","","","","","","","",""
"aa-learning-trial","230","807952","0.0-11.0-2.0-1.20","4028","2","15","Male","approach_avoid_spark_v1","""event"",""trial"",""time""
""fullscreenenter"",""1"",""1084""
","
","
","""event"",""trial"",""time""
""fullscreenenter"",""1"",""1084""
","
","","","","","","609.1000000000931","images/bed7.png","","","learning","-6","0","0","0","bed","furniture","1","1","","bad","[-6]"
"html-keyboard-response","231","808455","0.0-11.0-2.0-0.21","4028","2","15","Male","approach_avoid_spark_v1","""event"",""trial"",""time""
""fullscreenenter"",""1"",""1084""
","
","
","""event"",""trial"",""time""
""fullscreenenter"",""1"",""1084""
","
","","","","","","null","<div style=""font-size:60px;"">+</div>","null","","fixation","","","","","","","","","","",""
"aa-learning-trial","232","811463","0.0-11.0-2.0-1.21","4028","2","15","Male","approach_avoid_spark_v1","""event"",""trial"",""time""
""fullscreenenter"",""1"",""1084""
","
","
","""event"",""trial"",""time""
""fullscreenenter"",""1"",""1084""
","
","","","","","","577.1999999999534","images/table8.png","","","learning","3","3","1","1","table","furniture","1","1","","good","[4]"
"html-keyboard-response","233","811967","0.0-11.0-2.0-0.22","4028","2","15","Male","approach_avoid_spark_v1","""event"",""trial"",""time""
""fullscreenenter"",""1"",""1084""
","
","
","""event"",""trial"",""time""
""fullscreenenter"",""1"",""1084""
","
","","","","","","null","<div style=""font-size:60px;"">+</div>","null","","fixation","","","","","","","","","","",""
"aa-learning-trial","234","814975","0.0-11.0-2.0-1.22","4028","2","15","Male","approach_avoid_spark_v1","""event"",""trial"",""time""
""fullscreenenter"",""1"",""1084""
","
","
","""event"",""trial"",""time""
""fullscreenenter"",""1"",""1084""
","
","","","","","","449","images/sofa3.png","","","learning","[1]","0","0","0","sofa","furniture","1","1","","neutral","0"
"html-keyboard-response","235","815484","0.0-11.0-2.0-0.23","4028","2","15","Male","approach_avoid_spark_v1","""event"",""trial"",""time""
""fullscreenenter"",""1"",""1084""
","
","
","""event"",""trial"",""time""
""fullscreenenter"",""1"",""1084""
","
","","","","","","null","<div style=""font-size:60px;"">+</div>","null","","fixation","","","","","","","","","","",""
"aa-learning-trial","236","818488","0.0-11.0-2.0-1.23","4028","2","15","Male","approach_avoid_spark_v1","""event"",""trial"",""time""
""fullscreenenter"",""1"",""1084""
","
","
","""event"",""trial"",""time""
""fullscreenenter"",""1"",""1084""
","
","","","","","","478.80000000004657","images/sofa3.png","","","learning","2","0","0","0","sofa","furniture","1","1","","neutral","0"
"html-keyboard-response","237","818991","0.0-11.0-2.0-0.24","4028","2","15","Male","approach_avoid_spark_v1","""event"",""trial"",""time""
""fullscreenenter"",""1"",""1084""
","
","
","""event"",""trial"",""time""
