"trial_type","trial_index","time_elapsed","internal_node_id","subject_id","task_condition","age","gender","task_version","interactions","blur_events","focus_events","fullscreenenter_events","fullscreenexit_events","success","timeout","failed_images","failed_audio","failed_video","rt","stimulus","response","button_pressed","task_part","approach_reward","points","key_press","option_selected","stim_cat","task_block","block_condition","block_number","correct","cat_type","mean_cat_reward"
"pavlovia","0","10","0.0-0.0","3809","2","10","Female","approach_avoid_spark_v1","""event"",""trial"",""time""
""fullscreenenter"",""1"",""7706""
","
","
","""event"",""trial"",""time""
""fullscreenenter"",""1"",""7706""
","
","","","","","","","","","","","","","","","","","","","","",""
"fullscreen","1","8669","0.0-1.0","3809","2","10","Female","approach_avoid_spark_v1","""event"",""trial"",""time""
""fullscreenenter"",""1"",""7706""
","
","
","""event"",""trial"",""time""
""fullscreenenter"",""1"",""7706""
","
","true","","","","","","","","","","","","","","","","","","","",""
"preload","2","60821","0.0-2.0","3809","2","10","Female","approach_avoid_spark_v1","""event"",""trial"",""time""
""fullscreenenter"",""1"",""7706""
","
","
","""event"",""trial"",""time""
""fullscreenenter"",""1"",""7706""
","
","true","false","[]","[]","[]","","","","","","","","","","","","","","","",""
"audio-keyboard-response","3","64705","0.0-3.0","3809","2","10","Female","approach_avoid_spark_v1","""event"",""trial"",""time""
""fullscreenenter"",""1"",""7706""
","
","
","""event"",""trial"",""time""
""fullscreenenter"",""1"",""7706""
","
","","","","","","3808.000000000007","audio/beep_loop.wav"," ","","","","","","","","","","","","",""
"audio-button-response","4","67164","0.0-4.0","3809","2","10","Female","approach_avoid_spark_v1","""event"",""trial"",""time""
""fullscreenenter"",""1"",""7706""
","
","
","""event"",""trial"",""time""
""fullscreenenter"",""1"",""7706""
","
","","","","","","2453","audio/shark.wav","4","","","","","","","","","","","","",""
"audio-button-response","5","70293","0.0-5.0","3809","2","10","Female","approach_avoid_spark_v1","""event"",""trial"",""time""
""fullscreenenter"",""1"",""7706""
","
","
","""event"",""trial"",""time""
""fullscreenenter"",""1"",""7706""
","
","","","","","","2123","audio/turtle.wav","1","","","","","","","","","","","","",""
"preload","6","81576","0.0-6.0","3809","2","10","Female","approach_avoid_spark_v1","""event"",""trial"",""time""
""fullscreenenter"",""1"",""7706""
","
","
","""event"",""trial"",""time""
""fullscreenenter"",""1"",""7706""
","
","true","false","[]","[]","[]","","","","","","","","","","","","","","","",""
"html-keyboard-response","7","84786","0.0-7.0","3809","2","10","Female","approach_avoid_spark_v1","""event"",""trial"",""time""
""fullscreenenter"",""1"",""7706""
","
","
","""event"",""trial"",""time""
""fullscreenenter"",""1"",""7706""
","
","","","","","","3206","Welcome to the experiment. Press any key to begin and to advance the instructions."," ","","","","","","","","","","","","",""
"learning-instructions","8","93063","0.0-8.0-0.0-0.0","3809","2","10","Female","approach_avoid_spark_v1","""event"",""trial"",""time""
""fullscreenenter"",""1"",""7706""
","
","
","""event"",""trial"",""time""
""fullscreenenter"",""1"",""7706""
","
","","","","","","1297.8999999999069","<p> Welcome! Today you are going to play 6 different rounds of a decision-making game. </p><p> Use the mouse to click next to continue. </p>","","0","instructions","","","","","","","","","","",""
"learning-instructions","9","98808","0.0-8.0-0.0-0.1","3809","2","10","Female","approach_avoid_spark_v1","""event"",""trial"",""time""
""fullscreenenter"",""1"",""7706""
","
","
","""event"",""trial"",""time""
""fullscreenenter"",""1"",""7706""
","
","","","","","","3010.600000000093","<p> You will start with a practice round to learn the rules. </p>","","0","instructions","","","","","","","","","","",""
"learning-instructions","10","102914","0.0-8.0-0.0-0.2","3809","2","10","Female","approach_avoid_spark_v1","""event"",""trial"",""time""
""fullscreenenter"",""1"",""7706""
","
","
","""event"",""trial"",""time""
""fullscreenenter"",""1"",""7706""
","
","","","","","","649.1999999997206","<p> Your goal in this round is to give out sports equipment to kids. </p></div>","","0","instructions","","","","","","","","","","",""
"learning-instructions","11","110960","0.0-8.0-0.0-0.3","3809","2","10","Female","approach_avoid_spark_v1","""event"",""trial"",""time""
""fullscreenenter"",""1"",""7706""
","
","
","""event"",""trial"",""time""
""fullscreenenter"",""1"",""7706""
","
","","","","","","487.1999999997206","<p> The kids only like some of the equipment.  </p><p> On each turn, you will see a piece of sports equipment.   </p><p> You need to decide whether to give it to the kids or not.  </p>","","0","instructions","","","","","","","","","","",""
"learning-instructions","12","119749","0.0-8.0-0.0-0.4","3809","2","10","Female","approach_avoid_spark_v1","""event"",""trial"",""time""
""fullscreenenter"",""1"",""7706""
","
","
","""event"",""trial"",""time""
""fullscreenenter"",""1"",""7706""
","
","","","","","","4035.6999999997206","<p> You can give them the equipment by pressing 1 and choose not to give it to them by pressing 0. </p><br><div class=""choice-instructions-grid""> <div class=""choice-option""><img src=""images/approach.png"" class=""choice-option-img"" stage=""instructions"" position=""0"" ><div class=""choice-option-text""> Press ""1."" </div></div><div class=""choice-option""><img src=""images/avoid.png"" class=""choice-option-img"" stage=""instructions"" position=""1"" ><div class=""choice-option-text""> Press ""0."" </div></div>","","0","instructions","","","","","","","","","","",""
"learning-instructions","13","130898","0.0-8.0-0.0-0.5","3809","2","10","Female","approach_avoid_spark_v1","""event"",""trial"",""time""
""fullscreenenter"",""1"",""7706""
","
","
","""event"",""trial"",""time""
""fullscreenenter"",""1"",""7706""
","
","","","","","","3755.6999999997206","<p> If you give them a piece of equipment they like, they will be happy! </p><p> But if you give them a piece of equipment they do not like, they will be sad. </p>","","0","instructions","","","","","","","","","","",""
"learning-instructions","14","144066","0.0-8.0-0.0-0.6","3809","2","10","Female","approach_avoid_spark_v1","""event"",""trial"",""time""
""fullscreenenter"",""1"",""7706""
","
","
","""event"",""trial"",""time""
""fullscreenenter"",""1"",""7706""
","
","","","","","","2645.5","<p> You will earn points based on how you make kids feel. </p><p> If you make them happy, you will WIN anywhere from 1 - 9 points, </p><p> but if you make them sad, you will LOSE anywhere from 1 - 9 points. </p>","","0","instructions","","","","","","","","","","",""
"learning-instructions","15","155000","0.0-8.0-0.0-0.7","3809","2","10","Female","approach_avoid_spark_v1","""event"",""trial"",""time""
""fullscreenenter"",""1"",""7706""
","
","
","""event"",""trial"",""time""
""fullscreenenter"",""1"",""7706""
","
","","","","","","1368.8999999999069","<p> You will see how many points you won or lost in the center of the screen. </p><p> Here is what you would see if you won 6 points: </p><p style=""color:green;font-size:50px;font-weight:bolder"">6</p><p style=""color:green"">The text is GREEN because you WON points.</p>","","0","instructions","","","","","","","","","","",""
"learning-instructions","16","161803","0.0-8.0-0.0-0.8","3809","2","10","Female","approach_avoid_spark_v1","""event"",""trial"",""time""
""fullscreenenter"",""1"",""7706""
","
","
","""event"",""trial"",""time""
""fullscreenenter"",""1"",""7706""
","
","","","","","","1287.2000000001863","<p> And here is what you would see if you lost 4 points: </p><p style=""color:red;font-size:50px;font-weight:bolder"">-4</p><p style=""color:red"">The text is RED because you LOST points. </p>","","0","instructions","","","","","","","","","","",""
"learning-instructions","17","178330","0.0-8.0-0.0-0.9","3809","2","10","Female","approach_avoid_spark_v1","""event"",""trial"",""time""
""fullscreenenter"",""1"",""7706""
","
","
","""event"",""trial"",""time""
""fullscreenenter"",""1"",""7706""
","
","","","","","","1809.1999999997206","<p> Some of the equipment will make the kids VERY happy or sad. </p><p> These pieces of equipment will make you win or lose LOTS of points. </p><p> Other pieces of equipment will only make the kids a little happy or sad. </p><p> These pieces of equipment will make you win or lose small amounts of points. </p>","","0","instructions","","","","","","","","","","",""
"learning-instructions","18","190267","0.0-8.0-0.0-0.10","3809","2","10","Female","approach_avoid_spark_v1","""event"",""trial"",""time""
""fullscreenenter"",""1"",""7706""
","
","
","""event"",""trial"",""time""
""fullscreenenter"",""1"",""7706""
","
","","","","","","1291.3999999999069","<p> If you choose not to give them the equipment, you will not win or lose any points. </p><p>  However, in the center of the screen, you will see the number of points you WOULD HAVE won or lost if you had given them the equipment. </p>","","0","instructions","","","","","","","","","","",""
"learning-instructions","19","212245","0.0-8.0-0.0-0.11","3809","2","10","Female","approach_avoid_spark_v1","""event"",""trial"",""time""
""fullscreenenter"",""1"",""7706""
","
","
","""event"",""trial"",""time""
""fullscreenenter"",""1"",""7706""
","
","","","","","","431.20000000018626","<p> Here is what you might see if you did not give the equipment to the kids but it would have made them happy: </p><p style=""color:grey; font-size:50px; display: inline-block; border-spacing: 15px; border-width:3px; border-style:solid; border-color:red"">  &nbsp; 7 &nbsp; </p><p> Remember, in this case, you would not win or lose ANY points because you did not give them the equipment.  </p><p style=""color:grey"">The text is GREY because you earned ZERO points. </p><p style=""color:red"">However, choosing to give the kids the equipment would have made you win points. The box around the text is RED because you chose the worse option. </p>","","0","instructions","","","","","","","","","","",""
"learning-instructions","20","235968","0.0-8.0-0.0-0.12","3809","2","10","Female","approach_avoid_spark_v1","""event"",""trial"",""time""
""fullscreenenter"",""1"",""7706""
","
","
","""event"",""trial"",""time""
""fullscreenenter"",""1"",""7706""
","
","","","","","","2637.899999999907","<p> Here is what you might see if you did not give the equipment to the kids but it would have made them sad: </p><p style=""color:grey;font-size:50px; display: inline-block; border-spacing: 15px; border-width:3px; border-style:solid; border-color:green"">  &nbsp; -8 &nbsp; </p><p> Remember, in this case, you would not win or lose ANY points because you did not give them the equipment.  </p><p style=""color:grey"">The text is GREY because you earned ZERO points. </p><p  style=""color:green""> Choosing to give the kids the equipment would have made you lose points. The box around the text is GREEN because you chose the better option.</p>","","0","instructions","","","","","","","","","","",""
"learning-instructions","21","246984","0.0-8.0-0.0-0.13","3809","2","10","Female","approach_avoid_spark_v1","""event"",""trial"",""time""
""fullscreenenter"",""1"",""7706""
","
","
","""event"",""trial"",""time""
""fullscreenenter"",""1"",""7706""
","
","","","","","","1499.3999999999069","<p> You will have 3 seconds to make each choice. Try to respond before time runs out! </p><p> You will lose 5 points each time you do not make a response. </p>","","0","instructions","","","","","","","","","","",""
"learning-instructions","22","253313","0.0-8.0-0.0-0.14","3809","2","10","Female","approach_avoid_spark_v1","""event"",""trial"",""time""
""fullscreenenter"",""1"",""7706""
","
","
","""event"",""trial"",""time""
""fullscreenenter"",""1"",""7706""
","
","","","","","","912.1000000000931","<p> This is just a practice round, but in the real game, your bonus payment will depend on your total number of points.","","0","instructions","","","","","","","","","","",""
"learning-instructions","23","261261","0.0-8.0-0.0-0.15","3809","2","10","Female","approach_avoid_spark_v1","""event"",""trial"",""time""
""fullscreenenter"",""1"",""7706""
","
","
","""event"",""trial"",""time""
""fullscreenenter"",""1"",""7706""
","
","","","","","","2170.5","<p> Remember, you can give them the equipment by pressing 1 and choose not to give it to them by pressing 0. </p><br><div class=""choice-instructions-grid""> <div class=""choice-option""><img src=""images/approach.png"" class=""choice-option-img"" stage=""instructions"" position=""0"" ><div class=""choice-option-text""> Press ""1."" </div></div><div class=""choice-option""><img src=""images/avoid.png"" class=""choice-option-img"" stage=""instructions"" position=""1"" ><div class=""choice-option-text""> Press ""0."" </div></div>","","0","instructions","","","","","","","","","","",""
"html-button-response","24","265281","0.0-8.0-1.0","3809","2","10","Female","approach_avoid_spark_v1","""event"",""trial"",""time""
""fullscreenenter"",""1"",""7706""
","
","
","""event"",""trial"",""time""
""fullscreenenter"",""1"",""7706""
","
","","","","","","3910.2999999998137","<p> Ready to practice? </p>","0","","","","","","","","","","","","",""
"html-keyboard-response","25","265894","0.0-8.0-2.0-0.0","3809","2","10","Female","approach_avoid_spark_v1","""event"",""trial"",""time""
""fullscreenenter"",""1"",""7706""
","
","
","""event"",""trial"",""time""
""fullscreenenter"",""1"",""7706""
","
","","","","","","null","<div style=""font-size:60px;"">+</div>","null","","fixation","","","","","","","","","","",""
"aa-learning-trial","26","268902","0.0-8.0-2.0-1.0","3809","2","10","Female","approach_avoid_spark_v1","""event"",""trial"",""time""
""fullscreenenter"",""1"",""7706""
","
","
","""event"",""trial"",""time""
""fullscreenenter"",""1"",""7706""
","
","","","","","","null","images/ball3.png","","","learning","9","-5","","null","practice","practice","practice","-1","","",""
"html-keyboard-response","27","269406","0.0-8.0-2.0-0.1","3809","2","10","Female","approach_avoid_spark_v1","""event"",""trial"",""time""
""fullscreenenter"",""1"",""7706""
","
","
","""event"",""trial"",""time""
""fullscreenenter"",""1"",""7706""
","
","","","","","","null","<div style=""font-size:60px;"">+</div>","null","","fixation","","","","","","","","","","",""
"aa-learning-trial","28","272414","0.0-8.0-2.0-1.1","3809","2","10","Female","approach_avoid_spark_v1","""event"",""trial"",""time""
""fullscreenenter"",""1"",""7706""
","
","
","""event"",""trial"",""time""
""fullscreenenter"",""1"",""7706""
","
","","","","","","1553.3999999999069","images/racket3.png","","","learning","8","8","1","1","practice","practice","practice","-1","","",""
"html-keyboard-response","29","272918","0.0-8.0-2.0-0.2","3809","2","10","Female","approach_avoid_spark_v1","""event"",""trial"",""time""
""fullscreenenter"",""1"",""7706""
","
","
","""event"",""trial"",""time""
""fullscreenenter"",""1"",""7706""
","
","","","","","","null","<div style=""font-size:60px;"">+</div>","null","","fixation","","","","","","","","","","",""
"aa-learning-trial","30","275926","0.0-8.0-2.0-1.2","3809","2","10","Female","approach_avoid_spark_v1","""event"",""trial"",""time""
""fullscreenenter"",""1"",""7706""
","
","
","""event"",""trial"",""time""
""fullscreenenter"",""1"",""7706""
","
","","","","","","2059.899999999907","images/racket4.png","","","learning","-4","0","0","0","practice","practice","practice","-1","","",""
"html-keyboard-response","31","276430","0.0-8.0-2.0-0.3","3809","2","10","Female","approach_avoid_spark_v1","""event"",""trial"",""time""
""fullscreenenter"",""1"",""7706""
","
","
","""event"",""trial"",""time""
""fullscreenenter"",""1"",""7706""
","
","","","","","","null","<div style=""font-size:60px;"">+</div>","null","","fixation","","","","","","","","","","",""
"aa-learning-trial","32","279438","0.0-8.0-2.0-1.3","3809","2","10","Female","approach_avoid_spark_v1","""event"",""trial"",""time""
""fullscreenenter"",""1"",""7706""
","
","
","""event"",""trial"",""time""
""fullscreenenter"",""1"",""7706""
","
","","","","","","1364.5999999996275","images/racket4.png","","","learning","-5","-5","1","1","practice","practice","practice","-1","","",""
"html-keyboard-response","33","279941","0.0-8.0-2.0-0.4","3809","2","10","Female","approach_avoid_spark_v1","""event"",""trial"",""time""
""fullscreenenter"",""1"",""7706""
","
","
","""event"",""trial"",""time""
""fullscreenenter"",""1"",""7706""
","
","","","","","","null","<div style=""font-size:60px;"">+</div>","null","","fixation","","","","","","","","","","",""
"aa-learning-trial","34","282950","0.0-8.0-2.0-1.4","3809","2","10","Female","approach_avoid_spark_v1","""event"",""trial"",""time""
""fullscreenenter"",""1"",""7706""
","
","
","""event"",""trial"",""time""
""fullscreenenter"",""1"",""7706""
","
","","","","","","1087","images/ball2.png","","","learning","5","5","1","1","practice","practice","practice","-1","","",""
"html-keyboard-response","35","283453","0.0-8.0-2.0-0.5","3809","2","10","Female","approach_avoid_spark_v1","""event"",""trial"",""time""
""fullscreenenter"",""1"",""7706""
","
","
","""event"",""trial"",""time""
""fullscreenenter"",""1"",""7706""
","
","","","","","","null","<div style=""font-size:60px;"">+</div>","null","","fixation","","","","","","","","","","",""
"aa-learning-trial","36","286462","0.0-8.0-2.0-1.5","3809","2","10","Female","approach_avoid_spark_v1","""event"",""trial"",""time""
""fullscreenenter"",""1"",""7706""
","
","
","""event"",""trial"",""time""
""fullscreenenter"",""1"",""7706""
","
","","","","","","361.20000000018626","images/ball4.png","","","learning","-7","0","0","0","practice","practice","practice","-1","","",""
"html-keyboard-response","37","286966","0.0-8.0-2.0-0.6","3809","2","10","Female","approach_avoid_spark_v1","""event"",""trial"",""time""
""fullscreenenter"",""1"",""7706""
","
","
","""event"",""trial"",""time""
""fullscreenenter"",""1"",""7706""
","
","","","","","","null","<div style=""font-size:60px;"">+</div>","null","","fixation","","","","","","","","","","",""
"aa-learning-trial","38","289974","0.0-8.0-2.0-1.6","3809","2","10","Female","approach_avoid_spark_v1","""event"",""trial"",""time""
""fullscreenenter"",""1"",""7706""
","
","
","""event"",""trial"",""time""
""fullscreenenter"",""1"",""7706""
","
","","","","","","424.6999999997206","images/ball3.png","","","learning","5","5","1","1","practice","practice","practice","-1","","",""
"html-keyboard-response","39","290478","0.0-8.0-2.0-0.7","3809","2","10","Female","approach_avoid_spark_v1","""event"",""trial"",""time""
""fullscreenenter"",""1"",""7706""
","
","
","""event"",""trial"",""time""
""fullscreenenter"",""1"",""7706""
","
","","","","","","null","<div style=""font-size:60px;"">+</div>","null","","fixation","","","","","","","","","","",""
"aa-learning-trial","40","293486","0.0-8.0-2.0-1.7","3809","2","10","Female","approach_avoid_spark_v1","""event"",""trial"",""time""
""fullscreenenter"",""1"",""7706""
","
","
","""event"",""trial"",""time""
""fullscreenenter"",""1"",""7706""
","
","","","","","","328.1999999997206","images/ball1.png","","","learning","-3","0","0","0","practice","practice","practice","-1","","",""
"html-keyboard-response","41","293989","0.0-8.0-2.0-0.8","3809","2","10","Female","approach_avoid_spark_v1","""event"",""trial"",""time""
""fullscreenenter"",""1"",""7706""
","
","
","""event"",""trial"",""time""
""fullscreenenter"",""1"",""7706""
","
","","","","","","null","<div style=""font-size:60px;"">+</div>","null","","fixation","","","","","","","","","","",""
"aa-learning-trial","42","296998","0.0-8.0-2.0-1.8","3809","2","10","Female","approach_avoid_spark_v1","""event"",""trial"",""time""
""fullscreenenter"",""1"",""7706""
","
","
","""event"",""trial"",""time""
""fullscreenenter"",""1"",""7706""
","
","","","","","","988.1000000000931","images/racket2.png","","","learning","-8","-8","1","1","practice","practice","practice","-1","","",""
"html-keyboard-response","43","297502","0.0-8.0-2.0-0.9","3809","2","10","Female","approach_avoid_spark_v1","""event"",""trial"",""time""
""fullscreenenter"",""1"",""7706""
","
","
","""event"",""trial"",""time""
""fullscreenenter"",""1"",""7706""
","
","","","","","","null","<div style=""font-size:60px;"">+</div>","null","","fixation","","","","","","","","","","",""
"aa-learning-trial","44","300511","0.0-8.0-2.0-1.9","3809","2","10","Female","approach_avoid_spark_v1","""event"",""trial"",""time""
""fullscreenenter"",""1"",""7706""
","
","
","""event"",""trial"",""time""
""fullscreenenter"",""1"",""7706""
","
","","","","","","1110.2999999998137","images/ball2.png","","","learning","-6","-5","q","","practice","practice","practice","-1","","",""
"html-keyboard-response","45","301022","0.0-8.0-2.0-0.10","3809","2","10","Female","approach_avoid_spark_v1","""event"",""trial"",""time""
""fullscreenenter"",""1"",""7706""
","
","
","""event"",""trial"",""time""
""fullscreenenter"",""1"",""7706""
","
","","","","","","null","<div style=""font-size:60px;"">+</div>","null","","fixation","","","","","","","","","","",""
"aa-learning-trial","46","304030","0.0-8.0-2.0-1.10","3809","2","10","Female","approach_avoid_spark_v1","""event"",""trial"",""time""
""fullscreenenter"",""1"",""7706""
","
","
","""event"",""trial"",""time""
""fullscreenenter"",""1"",""7706""
","
","","","","","","822.6000000000931","images/ball1.png","","","learning","-1","-5","q","","practice","practice","practice","-1","","",""
"html-keyboard-response","47","304534","0.0-8.0-2.0-0.11","3809","2","10","Female","approach_avoid_spark_v1","""event"",""trial"",""time""
""fullscreenenter"",""1"",""7706""
","
","
","""event"",""trial"",""time""
""fullscreenenter"",""1"",""7706""
","
","","","","","","null","<div style=""font-size:60px;"">+</div>","null","","fixation","","","","","","","","","","",""
"aa-learning-trial","48","307542","0.0-8.0-2.0-1.11","3809","2","10","Female","approach_avoid_spark_v1","""event"",""trial"",""time""
""fullscreenenter"",""1"",""7706""
","
","
","""event"",""trial"",""time""
""fullscreenenter"",""1"",""7706""
","
","","","","","","595.3999999999069","images/racket4.png","","","learning","6","0","0","0","practice","practice","practice","-1","","",""
"html-button-response","49","321133","0.0-8.0-3.0","3809","2","10","Female","approach_avoid_spark_v1","""event"",""trial"",""time""
""fullscreenenter"",""1"",""7706""
","
","
","""event"",""trial"",""time""
""fullscreenenter"",""1"",""7706""
","
","","","","","","13584.5","<p> You earned -10 points in the practice round! </p>","0","","break","","","","","","","","","","",""
"learning-instructions","50","328693","0.0-8.0-4.0-0.0","3809","2","10","Female","approach_avoid_spark_v1","""event"",""trial"",""time""
""fullscreenenter"",""1"",""7706""
","
","
","""event"",""trial"",""time""
""fullscreenenter"",""1"",""7706""
","
","","","","","","1516.3999999999069","<p> It's almost time to start the real game. </p><p> Before you start, we're going to ask you a few questions about how the game works. </p>","","0","instructions","","","","","","","","","","",""
"preload","51","332767","0.0-8.0-5.0","3809","2","10","Female","approach_avoid_spark_v1","""event"",""trial"",""time""
""fullscreenenter"",""1"",""7706""
","
","
","""event"",""trial"",""time""
""fullscreenenter"",""1"",""7706""
","
","true","false","[]","[]","[]","","","","","","","","","","","","","","","",""
"comp-q","52","340705","0.0-8.0-6.0-0.0","3809","2","10","Female","approach_avoid_spark_v1","""event"",""trial"",""time""
""fullscreenenter"",""1"",""7706""
","
","
","""event"",""trial"",""time""
""fullscreenenter"",""1"",""7706""
","
","","","","","","2929.5","<p> <b> True or False? </b> </p><p> If you see a number in GREY, that means you earned that many points. </p>","","1","comp_question","","","","","","","","","true","",""
"comp-q","53","350313","0.0-8.0-6.0-1.0","3809","2","10","Female","approach_avoid_spark_v1","""event"",""trial"",""time""
""fullscreenenter"",""1"",""7706""
","
","
","""event"",""trial"",""time""
""fullscreenenter"",""1"",""7706""
","
","","","","","","1237.2999999998137","<p><b> That's right! </b> If you see a grey number, it means you earned ZERO points. <br> The grey numbers show the points you WOULD HAVE earned if you had made the other choice. </p>","","0","comp_answer","","","","","","","","","","",""
"comp-q","54","356168","0.0-8.0-7.0-0.0","3809","2","10","Female","approach_avoid_spark_v1","""event"",""trial"",""time""
""fullscreenenter"",""1"",""7706""
","
","
","""event"",""trial"",""time""
""fullscreenenter"",""1"",""7706""
","
","","","","","","1157.6000000000931","<p> <b> True or False? </b> </p><p> You will have as much time as you want to make each choice. </p>","","1","comp_question","","","","","","","","","true","",""
"comp-q","55","363149","0.0-8.0-7.0-1.0","3809","2","10","Female","approach_avoid_spark_v1","""event"",""trial"",""time""
""fullscreenenter"",""1"",""7706""
","
","
","""event"",""trial"",""time""
""fullscreenenter"",""1"",""7706""
","
","","","","","","2941.0999999996275","<p> <b> That's right! </b> You will only have 3 seconds to make each choice. </p>","","0","comp_answer","","","","","","","","","","",""
"comp-q","56","369624","0.0-8.0-8.0-0.0","3809","2","10","Female","approach_avoid_spark_v1","""event"",""trial"",""time""
""fullscreenenter"",""1"",""7706""
","
","
","""event"",""trial"",""time""
""fullscreenenter"",""1"",""7706""
","
","","","","","","1819.3999999999069","<p> <b> True or False? </b> </p><p> You should use the '1' and '0' keys to make your choices. </p>","","0","comp_question","","","","","","","","","true","",""
"comp-q","57","377387","0.0-8.0-8.0-1.0","3809","2","10","Female","approach_avoid_spark_v1","""event"",""trial"",""time""
""fullscreenenter"",""1"",""7706""
","
","
","""event"",""trial"",""time""
""fullscreenenter"",""1"",""7706""
","
","","","","","","3147.5999999996275","<p> <b> That's right! </b> You should use the '1' and '0' keys to make each choice. </p>","","0","comp_answer","","","","","","","","","","",""
"learning-instructions","58","389888","0.0-8.0-9.0-0.0","3809","2","10","Female","approach_avoid_spark_v1","""event"",""trial"",""time""
""fullscreenenter"",""1"",""7706""
","
","
","""event"",""trial"",""time""
""fullscreenenter"",""1"",""7706""
","
","","","","","","6223.399999999907","<p> It's now time to start the real game. </p>Do your best, because the points you earn in the next rounds will influence your bonus payment. </p>","","0","instructions","","","","","","","","","","",""
"preload","59","390044","0.0-9.0-0.0","3809","2","10","Female","approach_avoid_spark_v1","""event"",""trial"",""time""
""fullscreenenter"",""1"",""7706""
","
","
","""event"",""trial"",""time""
""fullscreenenter"",""1"",""7706""
","
","true","false","[]","[]","[]","","","","","","","","","","","","","","","",""
"learning-instructions","60","396234","0.0-9.0-1.0-0.0","3809","2","10","Female","approach_avoid_spark_v1","""event"",""trial"",""time""
""fullscreenenter"",""1"",""7706""
","
","
","""event"",""trial"",""time""
""fullscreenenter"",""1"",""7706""
","
","","","","","","1387.1999999997206","<p> Your goal in this round is to decorate your friend's new house with furniture. </p></div>","","0","instructions","","","","","","","","","","",""
"learning-instructions","61","407568","0.0-9.0-1.0-0.1","3809","2","10","Female","approach_avoid_spark_v1","""event"",""trial"",""time""
""fullscreenenter"",""1"",""7706""
","
","
","""event"",""trial"",""time""
""fullscreenenter"",""1"",""7706""
","
","","","","","","1195.2999999998137","<p> Your friend likes some pieces of furniture but not others.  </p><p> On each turn, you will see a piece of furniture.   </p><p> You need to decide whether to put it in your friend's house or not.  </p>","","0","instructions","","","","","","","","","","",""
"learning-instructions","62","415197","0.0-9.0-1.0-0.2","3809","2","10","Female","approach_avoid_spark_v1","""event"",""trial"",""time""
""fullscreenenter"",""1"",""7706""
","
","
","""event"",""trial"",""time""
""fullscreenenter"",""1"",""7706""
","
","","","","","","1768.1000000000931","<p> You can put the furniture in her house by pressing 1 and deliver it elsewhere by pressing 0. </p><br><div class=""choice-instructions-grid""> <div class=""choice-option""><img src=""images/approach.png"" class=""choice-option-img"" stage=""instructions"" position=""0"" ><div class=""choice-option-text""> Press ""1."" </div></div><div class=""choice-option""><img src=""images/avoid.png"" class=""choice-option-img"" stage=""instructions"" position=""1"" ><div class=""choice-option-text""> Press ""0."" </div></div>","","0","instructions","","","","","","","","","","",""
"learning-instructions","63","425040","0.0-9.0-1.0-0.3","3809","2","10","Female","approach_avoid_spark_v1","""event"",""trial"",""time""
""fullscreenenter"",""1"",""7706""
","
","
","""event"",""trial"",""time""
""fullscreenenter"",""1"",""7706""
","
","","","","","","843.3999999999069","<p> If you decorate your friend's house with furniture she likes, she will be happy! </p><p> But if you give her furniture that she does not like, she will be annoyed. </p>","","0","instructions","","","","","","","","","","",""
"learning-instructions","64","440095","0.0-9.0-1.0-0.4","3809","2","10","Female","approach_avoid_spark_v1","""event"",""trial"",""time""
""fullscreenenter"",""1"",""7706""
","
","
","""event"",""trial"",""time""
""fullscreenenter"",""1"",""7706""
","
","","","","","","2377.7000000001863","<p> You will earn points based on how you made your friend feel. </p><p> If you made her happy, you will WIN anywhere from 1 - 9 points, </p><p> but if you made her annoyed you will LOSE anywhere from 1 - 9 points. </p>","","0","instructions","","","","","","","","","","",""
"learning-instructions","65","449849","0.0-9.0-1.0-0.5","3809","2","10","Female","approach_avoid_spark_v1","""event"",""trial"",""time""
""fullscreenenter"",""1"",""7706""
","
","
","""event"",""trial"",""time""
""fullscreenenter"",""1"",""7706""
","
","","","","","","1960.4000000003725","<p> You will see how many points you won or lost in the center of the screen. </p><p> Here is what you would see if you won 5 points: </p><p style=""color:green;font-size:50px;font-weight:bolder"">5</p>","","0","instructions","","","","","","","","","","",""
"learning-instructions","66","456242","0.0-9.0-1.0-0.6","3809","2","10","Female","approach_avoid_spark_v1","""event"",""trial"",""time""
""fullscreenenter"",""1"",""7706""
","
","
","""event"",""trial"",""time""
""fullscreenenter"",""1"",""7706""
","
","","","","","","2805.7000000001863","<p> And here is what you would see if you lost 3 points: </p><p style=""color:red;font-size:50px;font-weight:bolder"">-3</p>","","0","instructions","","","","","","","","","","",""
"learning-instructions","67","476052","0.0-9.0-1.0-0.7","3809","2","10","Female","approach_avoid_spark_v1","""event"",""trial"",""time""
""fullscreenenter"",""1"",""7706""
","
","
","""event"",""trial"",""time""
""fullscreenenter"",""1"",""7706""
","
","","","","","","1910.3999999999069","<p> Some pieces of furniture will make her feel very happy or very annoyed. </p><p> These pieces of furniture will make you win or lose LOTS of points. </p><p> Other pieces of furniture will only make her feel a little happy or a little annoyed. </p><p> These pieces of furniture will make you win or lose small amounts of points. </p>","","0","instructions","","","","","","","","","","",""
"learning-instructions","68","493465","0.0-9.0-1.0-0.8","3809","2","10","Female","approach_avoid_spark_v1","""event"",""trial"",""time""
""fullscreenenter"",""1"",""7706""
","
","
","""event"",""trial"",""time""
""fullscreenenter"",""1"",""7706""
","
","","","","","","4139","<p> If you choose to deliver a piece of furniture elsewhere, you will not win or lose any points. </p><p>  However, in the center of the screen, you will see the number of points you WOULD HAVE won or lost if you had given the furniture to your friend. </p>","","0","instructions","","","","","","","","","","",""
"learning-instructions","69","506859","0.0-9.0-1.0-0.9","3809","2","10","Female","approach_avoid_spark_v1","""event"",""trial"",""time""
""fullscreenenter"",""1"",""7706""
","
","
","""event"",""trial"",""time""
""fullscreenenter"",""1"",""7706""
","
","","","","","","1578.5","<p> Here is what you might see if you did not give a piece of furniture to your friend that would have made her happy: </p><p style=""color:grey; font-size:50px; display: inline-block; border-spacing: 15px; border-width:3px; border-style:solid; border-color:red"">  &nbsp; 6 &nbsp; </p><p> Remember, in this case, you would not win or lose ANY points because you did not give her the furniture.  </p>","","0","instructions","","","","","","","","","","",""
"learning-instructions","70","516031","0.0-9.0-1.0-0.10","3809","2","10","Female","approach_avoid_spark_v1","""event"",""trial"",""time""
""fullscreenenter"",""1"",""7706""
""fullscreenexit"",""71"",""520627""
","
","
","""event"",""trial"",""time""
""fullscreenenter"",""1"",""7706""
","""event"",""trial"",""time""
""fullscreenexit"",""71"",""520627""
","","","","","","1357.3999999999069","<p> Try to make the best choice for each piece of furniture because </p><p> at the end of the game, you will earn bonus money based on how many points you earned. </p>","","0","instructions","","","","","","","","","","",""
"learning-instructions","71","525994","0.0-9.0-1.0-0.11","3809","2","10","Female","approach_avoid_spark_v1","""event"",""trial"",""time""
""fullscreenenter"",""1"",""7706""
""fullscreenexit"",""71"",""520627""
","
","
","""event"",""trial"",""time""
""fullscreenenter"",""1"",""7706""
","""event"",""trial"",""time""
""fullscreenexit"",""71"",""520627""
","","","","","","1768.7999999998137","<p> You will have 3 seconds to make each choice. Try to respond before time runs out! </p><p> You will lose 5 points each time you do not make a response. </p>","","0","instructions","","","","","","","","","","",""
"html-keyboard-response","72","526606","0.0-9.0-2.0-0.0","3809","2","10","Female","approach_avoid_spark_v1","""event"",""trial"",""time""
""fullscreenenter"",""1"",""7706""
""fullscreenexit"",""71"",""520627""
","
","
","""event"",""trial"",""time""
""fullscreenenter"",""1"",""7706""
","""event"",""trial"",""time""
""fullscreenexit"",""71"",""520627""
","","","","","","null","<div style=""font-size:60px;"">+</div>","null","","fixation","","","","","","","","","","",""
"aa-learning-trial","73","529615","0.0-9.0-2.0-1.0","3809","2","10","Female","approach_avoid_spark_v1","""event"",""trial"",""time""
""fullscreenenter"",""1"",""7706""
""fullscreenexit"",""71"",""520627""
","
","
","""event"",""trial"",""time""
""fullscreenenter"",""1"",""7706""
","""event"",""trial"",""time""
""fullscreenexit"",""71"",""520627""
","","","","","","1361","images/sofa7.png","","","learning","4","4","1","1","sofa","furniture","2","0","","neutral","0"
"html-keyboard-response","74","530125","0.0-9.0-2.0-0.1","3809","2","10","Female","approach_avoid_spark_v1","""event"",""trial"",""time""
""fullscreenenter"",""1"",""7706""
""fullscreenexit"",""71"",""520627""
","
","
","""event"",""trial"",""time""
""fullscreenenter"",""1"",""7706""
","""event"",""trial"",""time""
""fullscreenexit"",""71"",""520627""
","","","","","","null","<div style=""font-size:60px;"">+</div>","null","","fixation","","","","","","","","","","",""
"aa-learning-trial","75","533134","0.0-9.0-2.0-1.1","3809","2","10","Female","approach_avoid_spark_v1","""event"",""trial"",""time""
""fullscreenenter"",""1"",""7706""
""fullscreenexit"",""71"",""520627""
","
","
","""event"",""trial"",""time""
""fullscreenenter"",""1"",""7706""
","""event"",""trial"",""time""
""fullscreenexit"",""71"",""520627""
","","","","","","1004.7000000001863","images/table5.png","","","learning","8","0","0","0","table","furniture","2","0","","bad","[-4]"
"html-keyboard-response","76","533638","0.0-9.0-2.0-0.2","3809","2","10","Female","approach_avoid_spark_v1","""event"",""trial"",""time""
""fullscreenenter"",""1"",""7706""
""fullscreenexit"",""71"",""520627""
","
","
","""event"",""trial"",""time""
""fullscreenenter"",""1"",""7706""
","""event"",""trial"",""time""
""fullscreenexit"",""71"",""520627""
","","","","","","null","<div style=""font-size:60px;"">+</div>","null","","fixation","","","","","","","","","","",""
"aa-learning-trial","77","536646","0.0-9.0-2.0-1.2","3809","2","10","Female","approach_avoid_spark_v1","""event"",""trial"",""time""
""fullscreenenter"",""1"",""7706""
""fullscreenexit"",""71"",""520627""
","
","
","""event"",""trial"",""time""
""fullscreenenter"",""1"",""7706""
","""event"",""trial"",""time""
""fullscreenexit"",""71"",""520627""
","","","","","","562.7000000001863","images/bed8.png","","","learning","2","2","1","1","bed","furniture","2","0","","good","[4]"
"html-keyboard-response","78","537150","0.0-9.0-2.0-0.3","3809","2","10","Female","approach_avoid_spark_v1","""event"",""trial"",""time""
""fullscreenenter"",""1"",""7706""
""fullscreenexit"",""71"",""520627""
","
","
","""event"",""trial"",""time""
""fullscreenenter"",""1"",""7706""
","""event"",""trial"",""time""
""fullscreenexit"",""71"",""520627""
","","","","","","null","<div style=""font-size:60px;"">+</div>","null","","fixation","","","","","","","","","","",""
"aa-learning-trial","79","540167","0.0-9.0-2.0-1.3","3809","2","10","Female","approach_avoid_spark_v1","""event"",""trial"",""time""
""fullscreenenter"",""1"",""7706""
""fullscreenexit"",""71"",""520627""
","
","
","""event"",""trial"",""time""
""fullscreenenter"",""1"",""7706""
","""event"",""trial"",""time""
""fullscreenexit"",""71"",""520627""
","","","","","","1372.3000000002794","images/bed1.png","","","learning","-6","-6","1","1","bed","furniture","2","0","","good","[4]"
"html-keyboard-response","80","540669","0.0-9.0-2.0-0.4","3809","2","10","Female","approach_avoid_spark_v1","""event"",""trial"",""time""
""fullscreenenter"",""1"",""7706""
""fullscreenexit"",""71"",""520627""
","
","
","""event"",""trial"",""time""
""fullscreenenter"",""1"",""7706""
","""event"",""trial"",""time""
""fullscreenexit"",""71"",""520627""
","","","","","","null","<div style=""font-size:60px;"">+</div>","null","","fixation","","","","","","","","","","",""
"aa-learning-trial","81","543678","0.0-9.0-2.0-1.4","3809","2","10","Female","approach_avoid_spark_v1","""event"",""trial"",""time""
""fullscreenenter"",""1"",""7706""
""fullscreenexit"",""71"",""520627""
","
","
","""event"",""trial"",""time""
""fullscreenenter"",""1"",""7706""
","""event"",""trial"",""time""
""fullscreenexit"",""71"",""520627""
","","","","","","696.6999999997206","images/table6.png","","","learning","5","5","1","1","table","furniture","2","0","","bad","[-4]"
"html-keyboard-response","82","544181","0.0-9.0-2.0-0.5","3809","2","10","Female","approach_avoid_spark_v1","""event"",""trial"",""time""
""fullscreenenter"",""1"",""7706""
""fullscreenexit"",""71"",""520627""
","
","
","""event"",""trial"",""time""
""fullscreenenter"",""1"",""7706""
","""event"",""trial"",""time""
""fullscreenexit"",""71"",""520627""
","","","","","","null","<div style=""font-size:60px;"">+</div>","null","","fixation","","","","","","","","","","",""
"aa-learning-trial","83","547190","0.0-9.0-2.0-1.5","3809","2","10","Female","approach_avoid_spark_v1","""event"",""trial"",""time""
""fullscreenenter"",""1"",""7706""
""fullscreenexit"",""71"",""520627""
","
","
","""event"",""trial"",""time""
""fullscreenenter"",""1"",""7706""
","""event"",""trial"",""time""
""fullscreenexit"",""71"",""520627""
","","","","","","752.6999999997206","images/sofa6.png","","","learning","-8","-8","1","1","sofa","furniture","2","0","","neutral","0"
"html-keyboard-response","84","547694","0.0-9.0-2.0-0.6","3809","2","10","Female","approach_avoid_spark_v1","""event"",""trial"",""time""
""fullscreenenter"",""1"",""7706""
""fullscreenexit"",""71"",""520627""
","
","
","""event"",""trial"",""time""
""fullscreenenter"",""1"",""7706""
","""event"",""trial"",""time""
""fullscreenexit"",""71"",""520627""
","","","","","","null","<div style=""font-size:60px;"">+</div>","null","","fixation","","","","","","","","","","",""
"aa-learning-trial","85","550711","0.0-9.0-2.0-1.6","3809","2","10","Female","approach_avoid_spark_v1","""event"",""trial"",""time""
""fullscreenenter"",""1"",""7706""
""fullscreenexit"",""71"",""520627""
","
","
","""event"",""trial"",""time""
""fullscreenenter"",""1"",""7706""
","""event"",""trial"",""time""
""fullscreenexit"",""71"",""520627""
","","","","","","880.7999999998137","images/table2.png","","","learning","-3","0","0","0","table","furniture","2","0","","bad","[-4]"
"html-keyboard-response","86","551213","0.0-9.0-2.0-0.7","3809","2","10","Female","approach_avoid_spark_v1","""event"",""trial"",""time""
""fullscreenenter"",""1"",""7706""
""fullscreenexit"",""71"",""520627""
","
","
","""event"",""trial"",""time""
""fullscreenenter"",""1"",""7706""
","""event"",""trial"",""time""
""fullscreenexit"",""71"",""520627""
","","","","","","null","<div style=""font-size:60px;"">+</div>","null","","fixation","","","","","","","","","","",""
"aa-learning-trial","87","554222","0.0-9.0-2.0-1.7","3809","2","10","Female","approach_avoid_spark_v1","""event"",""trial"",""time""
""fullscreenenter"",""1"",""7706""
""fullscreenexit"",""71"",""520627""
","
","
","""event"",""trial"",""time""
""fullscreenenter"",""1"",""7706""
","""event"",""trial"",""time""
""fullscreenexit"",""71"",""520627""
","","","","","","1118.8000000002794","images/table5.png","","","learning","8","8","1","1","table","furniture","2","0","","bad","[-4]"
"html-keyboard-response","88","554726","0.0-9.0-2.0-0.8","3809","2","10","Female","approach_avoid_spark_v1","""event"",""trial"",""time""
""fullscreenenter"",""1"",""7706""
""fullscreenexit"",""71"",""520627""
","
","
","""event"",""trial"",""time""
""fullscreenenter"",""1"",""7706""
","""event"",""trial"",""time""
""fullscreenexit"",""71"",""520627""
","","","","","","null","<div style=""font-size:60px;"">+</div>","null","","fixation","","","","","","","","","","",""
"aa-learning-trial","89","557743","0.0-9.0-2.0-1.8","3809","2","10","Female","approach_avoid_spark_v1","""event"",""trial"",""time""
""fullscreenenter"",""1"",""7706""
""fullscreenexit"",""71"",""520627""
","
","
","""event"",""trial"",""time""
""fullscreenenter"",""1"",""7706""
","""event"",""trial"",""time""
""fullscreenexit"",""71"",""520627""
","","","","","","1316.2000000001863","images/bed1.png","","","learning","-6","0","0","0","bed","furniture","2","0","","good","[4]"
"html-keyboard-response","90","558254","0.0-9.0-2.0-0.9","3809","2","10","Female","approach_avoid_spark_v1","""event"",""trial"",""time""
""fullscreenenter"",""1"",""7706""
""fullscreenexit"",""71"",""520627""
","
","
","""event"",""trial"",""time""
""fullscreenenter"",""1"",""7706""
","""event"",""trial"",""time""
""fullscreenexit"",""71"",""520627""
","","","","","","null","<div style=""font-size:60px;"">+</div>","null","","fixation","","","","","","","","","","",""
"aa-learning-trial","91","561263","0.0-9.0-2.0-1.9","3809","2","10","Female","approach_avoid_spark_v1","""event"",""trial"",""time""
""fullscreenenter"",""1"",""7706""
""fullscreenexit"",""71"",""520627""
","
","
","""event"",""trial"",""time""
""fullscreenenter"",""1"",""7706""
","""event"",""trial"",""time""
""fullscreenexit"",""71"",""520627""
","","","","","","1023","images/bed4.png","","","learning","-4","-4","1","1","bed","furniture","2","0","","good","[4]"
"html-keyboard-response","92","561774","0.0-9.0-2.0-0.10","3809","2","10","Female","approach_avoid_spark_v1","""event"",""trial"",""time""
""fullscreenenter"",""1"",""7706""
""fullscreenexit"",""71"",""520627""
","
","
","""event"",""trial"",""time""
""fullscreenenter"",""1"",""7706""
","""event"",""trial"",""time""
""fullscreenexit"",""71"",""520627""
","","","","","","null","<div style=""font-size:60px;"">+</div>","null","","fixation","","","","","","","","","","",""
"aa-learning-trial","93","564791","0.0-9.0-2.0-1.10","3809","2","10","Female","approach_avoid_spark_v1","""event"",""trial"",""time""
""fullscreenenter"",""1"",""7706""
""fullscreenexit"",""71"",""520627""
","
","
","""event"",""trial"",""time""
""fullscreenenter"",""1"",""7706""
","""event"",""trial"",""time""
""fullscreenexit"",""71"",""520627""
","","","","","","1062.5","images/sofa7.png","","","learning","4","4","1","1","sofa","furniture","2","0","","neutral","0"
"html-keyboard-response","94","565302","0.0-9.0-2.0-0.11","3809","2","10","Female","approach_avoid_spark_v1","""event"",""trial"",""time""
""fullscreenenter"",""1"",""7706""
""fullscreenexit"",""71"",""520627""
","
","
","""event"",""trial"",""time""
""fullscreenenter"",""1"",""7706""
","""event"",""trial"",""time""
""fullscreenexit"",""71"",""520627""
","","","","","","null","<div style=""font-size:60px;"">+</div>","null","","fixation","","","","","","","","","","",""
"aa-learning-trial","95","568320","0.0-9.0-2.0-1.11","3809","2","10","Female","approach_avoid_spark_v1","""event"",""trial"",""time""
""fullscreenenter"",""1"",""7706""
""fullscreenexit"",""71"",""520627""
","
","
","""event"",""trial"",""time""
""fullscreenenter"",""1"",""7706""
","""event"",""trial"",""time""
""fullscreenexit"",""71"",""520627""
","","","","","","907.0999999996275","images/sofa5.png","","","learning","-5","-5","1","1","sofa","furniture","2","0","","neutral","0"
"html-keyboard-response","96","568830","0.0-9.0-2.0-0.12","3809","2","10","Female","approach_avoid_spark_v1","""event"",""trial"",""time""
""fullscreenenter"",""1"",""7706""
""fullscreenexit"",""71"",""520627""
","
","
","""event"",""trial"",""time""
""fullscreenenter"",""1"",""7706""
","""event"",""trial"",""time""
""fullscreenexit"",""71"",""520627""
","","","","","","null","<div style=""font-size:60px;"">+</div>","null","","fixation","","","","","","","","","","",""
"aa-learning-trial","97","571847","0.0-9.0-2.0-1.12","3809","2","10","Female","approach_avoid_spark_v1","""event"",""trial"",""time""
""fullscreenenter"",""1"",""7706""
""fullscreenexit"",""71"",""520627""
","
","
","""event"",""trial"",""time""
""fullscreenenter"",""1"",""7706""
","""event"",""trial"",""time""
""fullscreenexit"",""71"",""520627""
","","","","","","698.6000000000931","images/table6.png","","","learning","5","5","1","1","table","furniture","2","0","","bad","[-4]"
"html-keyboard-response","98","572358","0.0-9.0-2.0-0.13","3809","2","10","Female","approach_avoid_spark_v1","""event"",""trial"",""time""
""fullscreenenter"",""1"",""7706""
""fullscreenexit"",""71"",""520627""
","
","
","""event"",""trial"",""time""
""fullscreenenter"",""1"",""7706""
","""event"",""trial"",""time""
""fullscreenexit"",""71"",""520627""
","","","","","","null","<div style=""font-size:60px;"">+</div>","null","","fixation","","","","","","","","","","",""
"aa-learning-trial","99","575375","0.0-9.0-2.0-1.13","3809","2","10","Female","approach_avoid_spark_v1","""event"",""trial"",""time""
""fullscreenenter"",""1"",""7706""
""fullscreenexit"",""71"",""520627""
","
","
","""event"",""trial"",""time""
""fullscreenenter"",""1"",""7706""
","""event"",""trial"",""time""
""fullscreenexit"",""71"",""520627""
","","","","","","1580.3999999999069","images/sofa5.png","","","learning","-5","-5","1","1","sofa","furniture","2","0","","neutral","0"
"html-keyboard-response","100","575886","0.0-9.0-2.0-0.14","3809","2","10","Female","approach_avoid_spark_v1","""event"",""trial"",""time""
""fullscreenenter"",""1"",""7706""
""fullscreenexit"",""71"",""520627""
","
","
","""event"",""trial"",""time""
""fullscreenenter"",""1"",""7706""
","""event"",""trial"",""time""
""fullscreenexit"",""71"",""520627""
","","","","","","null","<div style=""font-size:60px;"">+</div>","null","","fixation","","","","","","","","","","",""
"aa-learning-trial","101","578895","0.0-9.0-2.0-1.14","3809","2","10","Female","approach_avoid_spark_v1","""event"",""trial"",""time""
""fullscreenenter"",""1"",""7706""
""fullscreenexit"",""71"",""520627""
","
","
","""event"",""trial"",""time""
""fullscreenenter"",""1"",""7706""
","""event"",""trial"",""time""
""fullscreenexit"",""71"",""520627""
","","","","","","977","images/bed8.png","","","learning","2","2","1","1","bed","furniture","2","0","","good","[4]"
"html-keyboard-response","102","579406","0.0-9.0-2.0-0.15","3809","2","10","Female","approach_avoid_spark_v1","""event"",""trial"",""time""
""fullscreenenter"",""1"",""7706""
""fullscreenexit"",""71"",""520627""
","
","
","""event"",""trial"",""time""
""fullscreenenter"",""1"",""7706""
","""event"",""trial"",""time""
""fullscreenexit"",""71"",""520627""
","","","","","","null","<div style=""font-size:60px;"">+</div>","null","","fixation","","","","","","","","","","",""
"aa-learning-trial","103","582423","0.0-9.0-2.0-1.15","3809","2","10","Female","approach_avoid_spark_v1","""event"",""trial"",""time""
""fullscreenenter"",""1"",""7706""
""fullscreenexit"",""71"",""520627""
","
","
","""event"",""trial"",""time""
""fullscreenenter"",""1"",""7706""
","""event"",""trial"",""time""
""fullscreenexit"",""71"",""520627""
","","","","","","726.8999999999069","images/bed8.png","","","learning","2","2","1","1","bed","furniture","2","0","","good","[4]"
"html-keyboard-response","104","582926","0.0-9.0-2.0-0.16","3809","2","10","Female","approach_avoid_spark_v1","""event"",""trial"",""time""
""fullscreenenter"",""1"",""7706""
""fullscreenexit"",""71"",""520627""
","
","
","""event"",""trial"",""time""
""fullscreenenter"",""1"",""7706""
","""event"",""trial"",""time""
""fullscreenexit"",""71"",""520627""
","","","","","","null","<div style=""font-size:60px;"">+</div>","null","","fixation","","","","","","","","","","",""
"aa-learning-trial","105","585942","0.0-9.0-2.0-1.16","3809","2","10","Female","approach_avoid_spark_v1","""event"",""trial"",""time""
""fullscreenenter"",""1"",""7706""
""fullscreenexit"",""71"",""520627""
","
","
","""event"",""trial"",""time""
""fullscreenenter"",""1"",""7706""
","""event"",""trial"",""time""
""fullscreenexit"",""71"",""520627""
","","","","","","1048.3999999999069","images/table6.png","","","learning","5","5","1","1","table","furniture","2","0","","bad","[-4]"
"html-keyboard-response","106","586446","0.0-9.0-2.0-0.17","3809","2","10","Female","approach_avoid_spark_v1","""event"",""trial"",""time""
""fullscreenenter"",""1"",""7706""
""fullscreenexit"",""71"",""520627""
","
","
","""event"",""trial"",""time""
""fullscreenenter"",""1"",""7706""
","""event"",""trial"",""time""
""fullscreenexit"",""71"",""520627""
","","","","","","null","<div style=""font-size:60px;"">+</div>","null","","fixation","","","","","","","","","","",""
"aa-learning-trial","107","589464","0.0-9.0-2.0-1.17","3809","2","10","Female","approach_avoid_spark_v1","""event"",""trial"",""time""
""fullscreenenter"",""1"",""7706""
""fullscreenexit"",""71"",""520627""
","
","
","""event"",""trial"",""time""
""fullscreenenter"",""1"",""7706""
","""event"",""trial"",""time""
""fullscreenexit"",""71"",""520627""
","","","","","","877.5","images/sofa6.png","","","learning","-8","0","0","0","sofa","furniture","2","0","","neutral","0"
"html-keyboard-response","108","589974","0.0-9.0-2.0-0.18","3809","2","10","Female","approach_avoid_spark_v1","""event"",""trial"",""time""
""fullscreenenter"",""1"",""7706""
""fullscreenexit"",""71"",""520627""
","
","
","""event"",""trial"",""time""
""fullscreenenter"",""1"",""7706""
","""event"",""trial"",""time""
""fullscreenexit"",""71"",""520627""
","","","","","","null","<div style=""font-size:60px;"">+</div>","null","","fixation","","","","","","","","","","",""
"aa-learning-trial","109","592984","0.0-9.0-2.0-1.18","3809","2","10","Female","approach_avoid_spark_v1","""event"",""trial"",""time""
""fullscreenenter"",""1"",""7706""
""fullscreenexit"",""71"",""520627""
","
","
","""event"",""trial"",""time""
""fullscreenenter"",""1"",""7706""
","""event"",""trial"",""time""
""fullscreenexit"",""71"",""520627""
","","","","","","862.5","images/table5.png","","","learning","8","8","1","1","table","furniture","2","0","","bad","[-4]"
"html-keyboard-response","110","593494","0.0-9.0-2.0-0.19","3809","2","10","Female","approach_avoid_spark_v1","""event"",""trial"",""time""
""fullscreenenter"",""1"",""7706""
""fullscreenexit"",""71"",""520627""
","
","
","""event"",""trial"",""time""
""fullscreenenter"",""1"",""7706""
","""event"",""trial"",""time""
""fullscreenexit"",""71"",""520627""
","","","","","","null","<div style=""font-size:60px;"">+</div>","null","","fixation","","","","","","","","","","",""
"aa-learning-trial","111","596512","0.0-9.0-2.0-1.19","3809","2","10","Female","approach_avoid_spark_v1","""event"",""trial"",""time""
""fullscreenenter"",""1"",""7706""
""fullscreenexit"",""71"",""520627""
","
","
","""event"",""trial"",""time""
""fullscreenenter"",""1"",""7706""
","""event"",""trial"",""time""
""fullscreenexit"",""71"",""520627""
","","","","","","904.1000000000931","images/table5.png","","","learning","8","8","1","1","table","furniture","2","0","","bad","[-4]"
"html-keyboard-response","112","597022","0.0-9.0-2.0-0.20","3809","2","10","Female","approach_avoid_spark_v1","""event"",""trial"",""time""
""fullscreenenter"",""1"",""7706""
""fullscreenexit"",""71"",""520627""
","
","
","""event"",""trial"",""time""
""fullscreenenter"",""1"",""7706""
","""event"",""trial"",""time""
""fullscreenexit"",""71"",""520627""
","","","","","","null","<div style=""font-size:60px;"">+</div>","null","","fixation","","","","","","","","","","",""
"aa-learning-trial","113","600040","0.0-9.0-2.0-1.20","3809","2","10","Female","approach_avoid_spark_v1","""event"",""trial"",""time""
""fullscreenenter"",""1"",""7706""
""fullscreenexit"",""71"",""520627""
","
","
","""event"",""trial"",""time""
""fullscreenenter"",""1"",""7706""
","""event"",""trial"",""time""
""fullscreenexit"",""71"",""520627""
","","","","","","1202.0999999996275","images/table6.png","","","learning","5","5","1","1","table","furniture","2","0","","bad","[-4]"
"html-keyboard-response","114","600550","0.0-9.0-2.0-0.21","3809","2","10","Female","approach_avoid_spark_v1","""event"",""trial"",""time""
""fullscreenenter"",""1"",""7706""
""fullscreenexit"",""71"",""520627""
","
","
","""event"",""trial"",""time""
""fullscreenenter"",""1"",""7706""
","""event"",""trial"",""time""
""fullscreenexit"",""71"",""520627""
","","","","","","null","<div style=""font-size:60px;"">+</div>","null","","fixation","","","","","","","","","","",""
"aa-learning-trial","115","603568","0.0-9.0-2.0-1.21","3809","2","10","Female","approach_avoid_spark_v1","""event"",""trial"",""time""
""fullscreenenter"",""1"",""7706""
""fullscreenexit"",""71"",""520627""
","
","
","""event"",""trial"",""time""
""fullscreenenter"",""1"",""7706""
","""event"",""trial"",""time""
""fullscreenexit"",""71"",""520627""
","","","","","","939.6000000000931","images/sofa6.png","","","learning","-8","0","0","0","sofa","furniture","2","0","","neutral","0"
"html-keyboard-response","116","604078","0.0-9.0-2.0-0.22","3809","2","10","Female","approach_avoid_spark_v1","""event"",""trial"",""time""
""fullscreenenter"",""1"",""7706""
""fullscreenexit"",""71"",""520627""
","
","
","""event"",""trial"",""time""
""fullscreenenter"",""1"",""7706""
","""event"",""trial"",""time""
""fullscreenexit"",""71"",""520627""
","","","","","","null","<div style=""font-size:60px;"">+</div>","null","","fixation","","","","","","","","","","",""
"aa-learning-trial","117","607088","0.0-9.0-2.0-1.22","3809","2","10","Female","approach_avoid_spark_v1","""event"",""trial"",""time""
""fullscreenenter"",""1"",""7706""
""fullscreenexit"",""71"",""520627""
","
","
","""event"",""trial"",""time""
""fullscreenenter"",""1"",""7706""
","""event"",""trial"",""time""
""fullscreenexit"",""71"",""520627""
","","","","","","1069.1000000000931","images/table5.png","","","learning","8","8","1","1","table","furniture","2","0","","bad","[-4]"
"html-keyboard-response","118","607598","0.0-9.0-2.0-0.23","3809","2","10","Female","approach_avoid_spark_v1","""event"",""trial"",""time""
""fullscreenenter"",""1"",""7706""
""fullscreenexit"",""71"",""520627""
","
","
","""event"",""trial"",""time""
""fullscreenenter"",""1"",""7706""
","""event"",""trial"",""time""
""fullscreenexit"",""71"",""520627""
","","","","","","null","<div style=""font-size:60px;"">+</div>","null","","fixation","","","","","","","","","","",""
"aa-learning-trial","119","610617","0.0-9.0-2.0-1.23","3809","2","10","Female","approach_avoid_spark_v1","""event"",""trial"",""time""
""fullscreenenter"",""1"",""7706""
""fullscreenexit"",""71"",""520627""
","
","
","""event"",""trial"",""time""
""fullscreenenter"",""1"",""7706""
","""event"",""trial"",""time""
""fullscreenexit"",""71"",""520627""
","","","","","","1173.8999999999069","images/table2.png","","","learning","-3","0","0","0","table","furniture","2","0","","bad","[-4]"
"html-keyboard-response","120","611126","0.0-9.0-2.0-0.24","3809","2","10","Female","approach_avoid_spark_v1","""event"",""trial"",""time""
""fullscreenenter"",""1"",""7706""
""fullscreenexit"",""71"",""520627""
","
","
","""event"",""trial"",""time""
""fullscreenenter"",""1"",""7706""
","""event"",""trial"",""time""
""fullscreenexit"",""71"",""520627""
","","","","","","null","<div style=""font-size:60px;"">+</div>","null","","fixation","","","","","","","","","","",""
"aa-learning-trial","121","614143","0.0-9.0-2.0-1.24","3809","2","10","Female","approach_avoid_spark_v1","""event"",""trial"",""time""
""fullscreenenter"",""1"",""7706""
""fullscreenexit"",""71"",""520627""
","
","
","""event"",""trial"",""time""
""fullscreenenter"",""1"",""7706""
","""event"",""trial"",""time""
""fullscreenexit"",""71"",""520627""
","","","","","","1351.5","images/bed4.png","","","learning","-4","-4","1","1","bed","furniture","2","0","","good","[4]"
"html-keyboard-response","122","614654","0.0-9.0-2.0-0.25","3809","2","10","Female","approach_avoid_spark_v1","""event"",""trial"",""time""
""fullscreenenter"",""1"",""7706""
""fullscreenexit"",""71"",""520627""
","
","
","""event"",""trial"",""time""
""fullscreenenter"",""1"",""7706""
","""event"",""trial"",""time""
""fullscreenexit"",""71"",""520627""
","","","","","","null","<div style=""font-size:60px;"">+</div>","null","","fixation","","","","","","","","","","",""
"aa-learning-trial","123","617672","0.0-9.0-2.0-1.25","3809","2","10","Female","approach_avoid_spark_v1","""event"",""trial"",""time""
""fullscreenenter"",""1"",""7706""
""fullscreenexit"",""71"",""520627""
","
","
","""event"",""trial"",""time""
""fullscreenenter"",""1"",""7706""
","""event"",""trial"",""time""
""fullscreenexit"",""71"",""520627""
","","","","","","687.7000000001863","images/table5.png","","","learning","8","8","1","1","table","furniture","2","0","","bad","[-4]"
"html-keyboard-response","124","618182","0.0-9.0-2.0-0.26","3809","2","10","Female","approach_avoid_spark_v1","""event"",""trial"",""time""
""fullscreenenter"",""1"",""7706""
""fullscreenexit"",""71"",""520627""
","
","
","""event"",""trial"",""time""
""fullscreenenter"",""1"",""7706""
","""event"",""trial"",""time""
""fullscreenexit"",""71"",""520627""
","","","","","","null","<div style=""font-size:60px;"">+</div>","null","","fixation","","","","","","","","","","",""
"aa-learning-trial","125","621192","0.0-9.0-2.0-1.26","3809","2","10","Female","approach_avoid_spark_v1","""event"",""trial"",""time""
""fullscreenenter"",""1"",""7706""
""fullscreenexit"",""71"",""520627""
","
","
","""event"",""trial"",""time""
""fullscreenenter"",""1"",""7706""
","""event"",""trial"",""time""
""fullscreenexit"",""71"",""520627""
","","","","","","741","images/sofa7.png","","","learning","4","4","1","1","sofa","furniture","2","0","","neutral","0"
"html-keyboard-response","126","621702","0.0-9.0-2.0-0.27","3809","2","10","Female","approach_avoid_spark_v1","""event"",""trial"",""time""
""fullscreenenter"",""1"",""7706""
""fullscreenexit"",""71"",""520627""
","
","
","""event"",""trial"",""time""
""fullscreenenter"",""1"",""7706""
","""event"",""trial"",""time""
""fullscreenexit"",""71"",""520627""
","","","","","","null","<div style=""font-size:60px;"">+</div>","null","","fixation","","","","","","","","","","",""
"aa-learning-trial","127","624720","0.0-9.0-2.0-1.27","3809","2","10","Female","approach_avoid_spark_v1","""event"",""trial"",""time""
""fullscreenenter"",""1"",""7706""
""fullscreenexit"",""71"",""520627""
","
","
","""event"",""trial"",""time""
""fullscreenenter"",""1"",""7706""
","""event"",""trial"",""time""
""fullscreenexit"",""71"",""520627""
","","","","","","916.2999999998137","images/table8.png","","","learning","-7","-7","1","1","table","furniture","2","0","","bad","[-4]"
"html-keyboard-response","128","625230","0.0-9.0-2.0-0.28","3809","2","10","Female","approach_avoid_spark_v1","""event"",""trial"",""time""
""fullscreenenter"",""1"",""7706""
""fullscreenexit"",""71"",""520627""
","
","
","""event"",""trial"",""time""
""fullscreenenter"",""1"",""7706""
","""event"",""trial"",""time""
""fullscreenexit"",""71"",""520627""
","","","","","","null","<div style=""font-size:60px;"">+</div>","null","","fixation","","","","","","","","","","",""
"aa-learning-trial","129","628247","0.0-9.0-2.0-1.28","3809","2","10","Female","approach_avoid_spark_v1","""event"",""trial"",""time""
""fullscreenenter"",""1"",""7706""
""fullscreenexit"",""71"",""520627""
","
","
","""event"",""trial"",""time""
""fullscreenenter"",""1"",""7706""
","""event"",""trial"",""time""
""fullscreenexit"",""71"",""520627""
","","","","","","1085","images/table6.png","","","learning","5","5","1","1","table","furniture","2","0","","bad","[-4]"
"html-keyboard-response","130","628758","0.0-9.0-2.0-0.29","3809","2","10","Female","approach_avoid_spark_v1","""event"",""trial"",""time""
""fullscreenenter"",""1"",""7706""
""fullscreenexit"",""71"",""520627""
","
","
","""event"",""trial"",""time""
""fullscreenenter"",""1"",""7706""
","""event"",""trial"",""time""
""fullscreenexit"",""71"",""520627""
","","","","","","null","<div style=""font-size:60px;"">+</div>","null","","fixation","","","","","","","","","","",""
"aa-learning-trial","131","631774","0.0-9.0-2.0-1.29","3809","2","10","Female","approach_avoid_spark_v1","""event"",""trial"",""time""
""fullscreenenter"",""1"",""7706""
""fullscreenexit"",""71"",""520627""
","
","
","""event"",""trial"",""time""
""fullscreenenter"",""1"",""7706""
","""event"",""trial"",""time""
""fullscreenexit"",""71"",""520627""
","","","","","","801.6000000000931","images/bed1.png","","","learning","-6","0","0","0","bed","furniture","2","0","","good","[4]"
"html-keyboard-response","132","632277","0.0-9.0-2.0-0.30","3809","2","10","Female","approach_avoid_spark_v1","""event"",""trial"",""time""
""fullscreenenter"",""1"",""7706""
""fullscreenexit"",""71"",""520627""
","
","
","""event"",""trial"",""time""
""fullscreenenter"",""1"",""7706""
","""event"",""trial"",""time""
""fullscreenexit"",""71"",""520627""
","","","","","","null","<div style=""font-size:60px;"">+</div>","null","","fixation","","","","","","","","","","",""
"aa-learning-trial","133","635286","0.0-9.0-2.0-1.30","3809","2","10","Female","approach_avoid_spark_v1","""event"",""trial"",""time""
""fullscreenenter"",""1"",""7706""
""fullscreenexit"",""71"",""520627""
","
","
","""event"",""trial"",""time""
""fullscreenenter"",""1"",""7706""
","""event"",""trial"",""time""
""fullscreenexit"",""71"",""520627""
","","","","","","629.5999999996275","images/sofa7.png","","","learning","4","4","1","1","sofa","furniture","2","0","","neutral","0"
"html-keyboard-response","134","635789","0.0-9.0-2.0-0.31","3809","2","10","Female","approach_avoid_spark_v1","""event"",""trial"",""time""
""fullscreenenter"",""1"",""7706""
""fullscreenexit"",""71"",""520627""
","
","
","""event"",""trial"",""time""
""fullscreenenter"",""1"",""7706""
","""event"",""trial"",""time""
""fullscreenexit"",""71"",""520627""
","","","","","","null","<div style=""font-size:60px;"">+</div>","null","","fixation","","","","","","","","","","",""
"aa-learning-trial","135","638798","0.0-9.0-2.0-1.31","3809","2","10","Female","approach_avoid_spark_v1","""event"",""trial"",""time""
""fullscreenenter"",""1"",""7706""
""fullscreenexit"",""71"",""520627""
","
","
","""event"",""trial"",""time""
""fullscreenenter"",""1"",""7706""
","""event"",""trial"",""time""
""fullscreenexit"",""71"",""520627""
","","","","","","871","images/sofa7.png","","","learning","4","4","1","1","sofa","furniture","2","0","","neutral","0"
"html-keyboard-response","136","639302","0.0-9.0-2.0-0.32","3809","2","10","Female","approach_avoid_spark_v1","""event"",""trial"",""time""
""fullscreenenter"",""1"",""7706""
""fullscreenexit"",""71"",""520627""
","
","
","""event"",""trial"",""time""
""fullscreenenter"",""1"",""7706""
","""event"",""trial"",""time""
""fullscreenexit"",""71"",""520627""
","","","","","","null","<div style=""font-size:60px;"">+</div>","null","","fixation","","","","","","","","","","",""
"aa-learning-trial","137","642310","0.0-9.0-2.0-1.32","3809","2","10","Female","approach_avoid_spark_v1","""event"",""trial"",""time""
""fullscreenenter"",""1"",""7706""
""fullscreenexit"",""71"",""520627""
","
","
","""event"",""trial"",""time""
""fullscreenenter"",""1"",""7706""
","""event"",""trial"",""time""
""fullscreenexit"",""71"",""520627""
","","","","","","803.8000000002794","images/bed4.png","","","learning","-4","0","0","0","bed","furniture","2","0","","good","[4]"
"html-keyboard-response","138","642814","0.0-9.0-2.0-0.33","3809","2","10","Female","approach_avoid_spark_v1","""event"",""trial"",""time""
""fullscreenenter"",""1"",""7706""
""fullscreenexit"",""71"",""520627""
","
","
","""event"",""trial"",""time""
""fullscreenenter"",""1"",""7706""
","""event"",""trial"",""time""
""fullscreenexit"",""71"",""520627""
","","","","","","null","<div style=""font-size:60px;"">+</div>","null","","fixation","","","","","","","","","","",""
"aa-learning-trial","139","645822","0.0-9.0-2.0-1.33","3809","2","10","Female","approach_avoid_spark_v1","""event"",""trial"",""time""
""fullscreenenter"",""1"",""7706""
""fullscreenexit"",""71"",""520627""
","
","
","""event"",""trial"",""time""
""fullscreenenter"",""1"",""7706""
","""event"",""trial"",""time""
""fullscreenexit"",""71"",""520627""
","","","","","","738","images/bed1.png","","","learning","-6","0","0","0","bed","furniture","2","0","","good","[4]"
"html-keyboard-response","140","646326","0.0-9.0-2.0-0.34","3809","2","10","Female","approach_avoid_spark_v1","""event"",""trial"",""time""
""fullscreenenter"",""1"",""7706""
""fullscreenexit"",""71"",""520627""
","
","
","""event"",""trial"",""time""
""fullscreenenter"",""1"",""7706""
","""event"",""trial"",""time""
""fullscreenexit"",""71"",""520627""
","","","","","","null","<div style=""font-size:60px;"">+</div>","null","","fixation","","","","","","","","","","",""
"aa-learning-trial","141","649334","0.0-9.0-2.0-1.34","3809","2","10","Female","approach_avoid_spark_v1","""event"",""trial"",""time""
""fullscreenenter"",""1"",""7706""
""fullscreenexit"",""71"",""520627""
","
","
","""event"",""trial"",""time""
""fullscreenenter"",""1"",""7706""
","""event"",""trial"",""time""
""fullscreenexit"",""71"",""520627""
","","","","","","843.5","images/sofa5.png","","","learning","-5","0","0","0","sofa","furniture","2","0","","neutral","0"
"html-keyboard-response","142","649838","0.0-9.0-2.0-0.35","3809","2","10","Female","approach_avoid_spark_v1","""event"",""trial"",""time""
""fullscreenenter"",""1"",""7706""
""fullscreenexit"",""71"",""520627""
","
","
","""event"",""trial"",""time""
""fullscreenenter"",""1"",""7706""
","""event"",""trial"",""time""
""fullscreenexit"",""71"",""520627""
","","","","","","null","<div style=""font-size:60px;"">+</div>","null","","fixation","","","","","","","","","","",""
"aa-learning-trial","143","652847","0.0-9.0-2.0-1.35","3809","2","10","Female","approach_avoid_spark_v1","""event"",""trial"",""time""
""fullscreenenter"",""1"",""7706""
""fullscreenexit"",""71"",""520627""
","
","
","""event"",""trial"",""time""
""fullscreenenter"",""1"",""7706""
","""event"",""trial"",""time""
""fullscreenexit"",""71"",""520627""
","","","","","","781.2000000001863","images/sofa4.png","","","learning","-1","0","0","0","sofa","furniture","2","0","","neutral","0"
"html-keyboard-response","144","653350","0.0-9.0-2.0-0.36","3809","2","10","Female","approach_avoid_spark_v1","""event"",""trial"",""time""
""fullscreenenter"",""1"",""7706""
""fullscreenexit"",""71"",""520627""
","
","
","""event"",""trial"",""time""
""fullscreenenter"",""1"",""7706""
","""event"",""trial"",""time""
""fullscreenexit"",""71"",""520627""
","","","","","","null","<div style=""font-size:60px;"">+</div>","null","","fixation","","","","","","","","","","",""
"aa-learning-trial","145","656359","0.0-9.0-2.0-1.36","3809","2","10","Female","approach_avoid_spark_v1","""event"",""trial"",""time""
""fullscreenenter"",""1"",""7706""
""fullscreenexit"",""71"",""520627""
","
","
","""event"",""trial"",""time""
""fullscreenenter"",""1"",""7706""
","""event"",""trial"",""time""
""fullscreenexit"",""71"",""520627""
","","","","","","717.6000000000931","images/sofa7.png","","","learning","4","4","1","1","sofa","furniture","2","0","","neutral","0"
"html-keyboard-response","146","656862","0.0-9.0-2.0-0.37","3809","2","10","Female","approach_avoid_spark_v1","""event"",""trial"",""time""
""fullscreenenter"",""1"",""7706""
""fullscreenexit"",""71"",""520627""
","
","
","""event"",""trial"",""time""
""fullscreenenter"",""1"",""7706""
","""event"",""trial"",""time""
""fullscreenexit"",""71"",""520627""
","","","","","","null","<div style=""font-size:60px;"">+</div>","null","","fixation","","","","","","","","","","",""
"aa-learning-trial","147","659870","0.0-9.0-2.0-1.37","3809","2","10","Female","approach_avoid_spark_v1","""event"",""trial"",""time""
""fullscreenenter"",""1"",""7706""
""fullscreenexit"",""71"",""520627""
","
","
","""event"",""trial"",""time""
""fullscreenenter"",""1"",""7706""
","""event"",""trial"",""time""
""fullscreenexit"",""71"",""520627""
","","","","","","743.8999999999069","images/bed1.png","","","learning","-6","0","0","0","bed","furniture","2","0","","good","[4]"
"html-keyboard-response","148","660374","0.0-9.0-2.0-0.38","3809","2","10","Female","approach_avoid_spark_v1","""event"",""trial"",""time""
""fullscreenenter"",""1"",""7706""
""fullscreenexit"",""71"",""520627""
","
","
","""event"",""trial"",""time""
""fullscreenenter"",""1"",""7706""
","""event"",""trial"",""time""
""fullscreenexit"",""71"",""520627""
","","","","","","null","<div style=""font-size:60px;"">+</div>","null","","fixation","","","","","","","","","","",""
"aa-learning-trial","149","663382","0.0-9.0-2.0-1.38","3809","2","10","Female","approach_avoid_spark_v1","""event"",""trial"",""time""
""fullscreenenter"",""1"",""7706""
""fullscreenexit"",""71"",""520627""
","
","
","""event"",""trial"",""time""
""fullscreenenter"",""1"",""7706""
","""event"",""trial"",""time""
""fullscreenexit"",""71"",""520627""
","","","","","","724","images/bed1.png","","","learning","-6","0","0","0","bed","furniture","2","0","","good","[4]"
"html-keyboard-response","150","663886","0.0-9.0-2.0-0.39","3809","2","10","Female","approach_avoid_spark_v1","""event"",""trial"",""time""
""fullscreenenter"",""1"",""7706""
""fullscreenexit"",""71"",""520627""
","
","
","""event"",""trial"",""time""
""fullscreenenter"",""1"",""7706""
","""event"",""trial"",""time""
""fullscreenexit"",""71"",""520627""
","","","","","","null","<div style=""font-size:60px;"">+</div>","null","","fixation","","","","","","","","","","",""
"aa-learning-trial","151","666902","0.0-9.0-2.0-1.39","3809","2","10","Female","approach_avoid_spark_v1","""event"",""trial"",""time""
""fullscreenenter"",""1"",""7706""
""fullscreenexit"",""71"",""520627""
","
","
","""event"",""trial"",""time""
""fullscreenenter"",""1"",""7706""
","""event"",""trial"",""time""
""fullscreenexit"",""71"",""520627""
","","","","","","1673.2999999998137","images/table4.png","","","learning","1","0","0","0","table","furniture","2","0","","bad","[-4]"
"html-keyboard-response","152","667406","0.0-9.0-2.0-0.40","3809","2","10","Female","approach_avoid_spark_v1","""event"",""trial"",""time""
""fullscreenenter"",""1"",""7706""
""fullscreenexit"",""71"",""520627""
","
","
","""event"",""trial"",""time""
""fullscreenenter"",""1"",""7706""
","""event"",""trial"",""time""
""fullscreenexit"",""71"",""520627""
","","","","","","null","<div style=""font-size:60px;"">+</div>","null","","fixation","","","","","","","","","","",""
"aa-learning-trial","153","670423","0.0-9.0-2.0-1.40","3809","2","10","Female","approach_avoid_spark_v1","""event"",""trial"",""time""
""fullscreenenter"",""1"",""7706""
""fullscreenexit"",""71"",""520627""
","
","
","""event"",""trial"",""time""
""fullscreenenter"",""1"",""7706""
","""event"",""trial"",""time""
""fullscreenexit"",""71"",""520627""
","","","","","","876.1000000000931","images/sofa5.png","","","learning","-5","0","0","0","sofa","furniture","2","0","","neutral","0"
"html-keyboard-response","154","670926","0.0-9.0-2.0-0.41","3809","2","10","Female","approach_avoid_spark_v1","""event"",""trial"",""time""
""fullscreenenter"",""1"",""7706""
""fullscreenexit"",""71"",""520627""
","
","
","""event"",""trial"",""time""
""fullscreenenter"",""1"",""7706""
","""event"",""trial"",""time""
""fullscreenexit"",""71"",""520627""
","","","","","","null","<div style=""font-size:60px;"">+</div>","null","","fixation","","","","","","","","","","",""
"aa-learning-trial","155","673934","0.0-9.0-2.0-1.41","3809","2","10","Female","approach_avoid_spark_v1","""event"",""trial"",""time""
""fullscreenenter"",""1"",""7706""
""fullscreenexit"",""71"",""520627""
","
","
","""event"",""trial"",""time""
""fullscreenenter"",""1"",""7706""
","""event"",""trial"",""time""
""fullscreenexit"",""71"",""520627""
","","","","","","767.7000000001863","images/bed8.png","","","learning","2","2","1","1","bed","furniture","2","0","","good","[4]"
"html-keyboard-response","156","674438","0.0-9.0-2.0-0.42","3809","2","10","Female","approach_avoid_spark_v1","""event"",""trial"",""time""
""fullscreenenter"",""1"",""7706""
""fullscreenexit"",""71"",""520627""
","
","
","""event"",""trial"",""time""
""fullscreenenter"",""1"",""7706""
","""event"",""trial"",""time""
""fullscreenexit"",""71"",""520627""
","","","","","","null","<div style=""font-size:60px;"">+</div>","null","","fixation","","","","","","","","","","",""
"aa-learning-trial","157","677447","0.0-9.0-2.0-1.42","3809","2","10","Female","approach_avoid_spark_v1","""event"",""trial"",""time""
""fullscreenenter"",""1"",""7706""
""fullscreenexit"",""71"",""520627""
","
","
","""event"",""trial"",""time""
""fullscreenenter"",""1"",""7706""
","""event"",""trial"",""time""
""fullscreenexit"",""71"",""520627""
","","","","","","705.2999999998137","images/table2.png","","","learning","-3","0","0","0","table","furniture","2","0","","bad","[-4]"
"html-keyboard-response","158","677950","0.0-9.0-2.0-0.43","3809","2","10","Female","approach_avoid_spark_v1","""event"",""trial"",""time""
""fullscreenenter"",""1"",""7706""
""fullscreenexit"",""71"",""520627""
","
","
","""event"",""trial"",""time""
""fullscreenenter"",""1"",""7706""
","""event"",""trial"",""time""
""fullscreenexit"",""71"",""520627""
","","","","","","null","<div style=""font-size:60px;"">+</div>","null","","fixation","","","","","","","","","","",""
"aa-learning-trial","159","680958","0.0-9.0-2.0-1.43","3809","2","10","Female","approach_avoid_spark_v1","""event"",""trial"",""time""
""fullscreenenter"",""1"",""7706""
""fullscreenexit"",""71"",""520627""
","
","
","""event"",""trial"",""time""
""fullscreenenter"",""1"",""7706""
","""event"",""trial"",""time""
""fullscreenexit"",""71"",""520627""
","","","","","","1731.8999999999069","images/bed3.png","","","learning","9","0","0","0","bed","furniture","2","0","","good","[4]"
"html-keyboard-response","160","681462","0.0-9.0-2.0-0.44","3809","2","10","Female","approach_avoid_spark_v1","""event"",""trial"",""time""
""fullscreenenter"",""1"",""7706""
""fullscreenexit"",""71"",""520627""
","
","
","""event"",""trial"",""time""
""fullscreenenter"",""1"",""7706""
","""event"",""trial"",""time""
""fullscreenexit"",""71"",""520627""
","","","","","","null","<div style=""font-size:60px;"">+</div>","null","","fixation","","","","","","","","","","",""
"aa-learning-trial","161","684470","0.0-9.0-2.0-1.44","3809","2","10","Female","approach_avoid_spark_v1","""event"",""trial"",""time""
""fullscreenenter"",""1"",""7706""
""fullscreenexit"",""71"",""520627""
","
","
","""event"",""trial"",""time""
""fullscreenenter"",""1"",""7706""
","""event"",""trial"",""time""
""fullscreenexit"",""71"",""520627""
","","","","","","812.5","images/bed8.png","","","learning","2","2","1","1","bed","furniture","2","0","","good","[4]"
"html-keyboard-response","162","684974","0.0-9.0-2.0-0.45","3809","2","10","Female","approach_avoid_spark_v1","""event"",""trial"",""time""
""fullscreenenter"",""1"",""7706""
""fullscreenexit"",""71"",""520627""
","
","
","""event"",""trial"",""time""
""fullscreenenter"",""1"",""7706""
","""event"",""trial"",""time""
""fullscreenexit"",""71"",""520627""
","","","","","","null","<div style=""font-size:60px;"">+</div>","null","","fixation","","","","","","","","","","",""
"aa-learning-trial","163","687990","0.0-9.0-2.0-1.45","3809","2","10","Female","approach_avoid_spark_v1","""event"",""trial"",""time""
""fullscreenenter"",""1"",""7706""
""fullscreenexit"",""71"",""520627""
","
","
","""event"",""trial"",""time""
""fullscreenenter"",""1"",""7706""
","""event"",""trial"",""time""
""fullscreenexit"",""71"",""520627""
","","","","","","1157.5","images/bed2.png","","","learning","3","3","1","1","bed","furniture","2","0","","good","[4]"
"html-keyboard-response","164","688494","0.0-9.0-2.0-0.46","3809","2","10","Female","approach_avoid_spark_v1","""event"",""trial"",""time""
""fullscreenenter"",""1"",""7706""
""fullscreenexit"",""71"",""520627""
","
","
","""event"",""trial"",""time""
""fullscreenenter"",""1"",""7706""
","""event"",""trial"",""time""
""fullscreenexit"",""71"",""520627""
","","","","","","null","<div style=""font-size:60px;"">+</div>","null","","fixation","","","","","","","","","","",""
"aa-learning-trial","165","691502","0.0-9.0-2.0-1.46","3809","2","10","Female","approach_avoid_spark_v1","""event"",""trial"",""time""
""fullscreenenter"",""1"",""7706""
""fullscreenexit"",""71"",""520627""
","
","
","""event"",""trial"",""time""
""fullscreenenter"",""1"",""7706""
","""event"",""trial"",""time""
""fullscreenexit"",""71"",""520627""
","","","","","","960","images/bed8.png","","","learning","2","2","1","1","bed","furniture","2","0","","good","[4]"
"html-keyboard-response","166","692006","0.0-9.0-2.0-0.47","3809","2","10","Female","approach_avoid_spark_v1","""event"",""trial"",""time""
""fullscreenenter"",""1"",""7706""
""fullscreenexit"",""71"",""520627""
","
","
","""event"",""trial"",""time""
""fullscreenenter"",""1"",""7706""
","""event"",""trial"",""time""
""fullscreenexit"",""71"",""520627""
","","","","","","null","<div style=""font-size:60px;"">+</div>","null","","fixation","","","","","","","","","","",""
"aa-learning-trial","167","695022","0.0-9.0-2.0-1.47","3809","2","10","Female","approach_avoid_spark_v1","""event"",""trial"",""time""
""fullscreenenter"",""1"",""7706""
""fullscreenexit"",""71"",""520627""
","
","
","""event"",""trial"",""time""
""fullscreenenter"",""1"",""7706""
","""event"",""trial"",""time""
""fullscreenexit"",""71"",""520627""
","","","","","","1154.2000000001863","images/sofa5.png","","","learning","-5","0","0","0","sofa","furniture","2","0","","neutral","0"
"html-keyboard-response","168","695525","0.0-9.0-2.0-0.48","3809","2","10","Female","approach_avoid_spark_v1","""event"",""trial"",""time""
""fullscreenenter"",""1"",""7706""
""fullscreenexit"",""71"",""520627""
","
","
","""event"",""trial"",""time""
""fullscreenenter"",""1"",""7706""
","""event"",""trial"",""time""
""fullscreenexit"",""71"",""520627""
","","","","","","null","<div style=""font-size:60px;"">+</div>","null","","fixation","","","","","","","","","","",""
"aa-learning-trial","169","698542","0.0-9.0-2.0-1.48","3809","2","10","Female","approach_avoid_spark_v1","""event"",""trial"",""time""
""fullscreenenter"",""1"",""7706""
""fullscreenexit"",""71"",""520627""
","
","
","""event"",""trial"",""time""
""fullscreenenter"",""1"",""7706""
","""event"",""trial"",""time""
""fullscreenexit"",""71"",""520627""
","","","","","","1433.7999999998137","images/table6.png","","","learning","5","5","1","1","table","furniture","2","0","","bad","[-4]"
"html-keyboard-response","170","699046","0.0-9.0-2.0-0.49","3809","2","10","Female","approach_avoid_spark_v1","""event"",""trial"",""time""
""fullscreenenter"",""1"",""7706""
""fullscreenexit"",""71"",""520627""
","
","
","""event"",""trial"",""time""
""fullscreenenter"",""1"",""7706""
","""event"",""trial"",""time""
""fullscreenexit"",""71"",""520627""
","","","","","","null","<div style=""font-size:60px;"">+</div>","null","","fixation","","","","","","","","","","",""
"aa-learning-trial","171","702062","0.0-9.0-2.0-1.49","3809","2","10","Female","approach_avoid_spark_v1","""event"",""trial"",""time""
""fullscreenenter"",""1"",""7706""
""fullscreenexit"",""71"",""520627""
","
","
","""event"",""trial"",""time""
""fullscreenenter"",""1"",""7706""
","""event"",""trial"",""time""
""fullscreenexit"",""71"",""520627""
","","","","","","1403.1999999997206","images/sofa8.png","","","learning","7","7","1","1","sofa","furniture","2","0","","neutral","0"
"html-keyboard-response","172","702566","0.0-9.0-2.0-0.50","3809","2","10","Female","approach_avoid_spark_v1","""event"",""trial"",""time""
""fullscreenenter"",""1"",""7706""
""fullscreenexit"",""71"",""520627""
","
","
","""event"",""trial"",""time""
""fullscreenenter"",""1"",""7706""
","""event"",""trial"",""time""
""fullscreenexit"",""71"",""520627""
","","","","","","null","<div style=""font-size:60px;"">+</div>","null","","fixation","","","","","","","","","","",""
"aa-learning-trial","173","705575","0.0-9.0-2.0-1.50","3809","2","10","Female","approach_avoid_spark_v1","""event"",""trial"",""time""
""fullscreenenter"",""1"",""7706""
""fullscreenexit"",""71"",""520627""
","
","
","""event"",""trial"",""time""
""fullscreenenter"",""1"",""7706""
","""event"",""trial"",""time""
""fullscreenexit"",""71"",""520627""
","","","","","","841","images/sofa5.png","","","learning","-5","0","0","0","sofa","furniture","2","0","","neutral","0"
"html-button-response","174","726232","0.0-9.0-3.0","3809","2","10","Female","approach_avoid_spark_v1","""event"",""trial"",""time""
""fullscreenenter"",""1"",""7706""
""fullscreenexit"",""71"",""520627""
","
","
","""event"",""trial"",""time""
""fullscreenenter"",""1"",""7706""
","""event"",""trial"",""time""
""fullscreenexit"",""71"",""520627""
","","","","","","20652.799999999814","<p> You have completed the round! <p> In this round, you earned 77 points! </p>","0","","break","","","","","","","","","","",""
"html-button-response","175","727913","0.0-10.0","3809","2","10","Female","approach_avoid_spark_v1","""event"",""trial"",""time""
""fullscreenenter"",""1"",""7706""
""fullscreenexit"",""71"",""520627""
","
","
","""event"",""trial"",""time""
""fullscreenenter"",""1"",""7706""
","""event"",""trial"",""time""
""fullscreenexit"",""71"",""520627""
","","","","","","1677.7000000001863","<p> Now it's time to play another round. </p>","0","","transition_screen","","","","","","","","","","",""
"preload","176","728069","0.0-11.0-0.0","3809","2","10","Female","approach_avoid_spark_v1","""event"",""trial"",""time""
""fullscreenenter"",""1"",""7706""
""fullscreenexit"",""71"",""520627""
","
","
","""event"",""trial"",""time""
""fullscreenenter"",""1"",""7706""
","""event"",""trial"",""time""
""fullscreenexit"",""71"",""520627""
","true","false","[]","[]","[]","","","","","","","","","","","","","","","",""
"learning-instructions","177","736247","0.0-11.0-1.0-0.0","3809","2","10","Female","approach_avoid_spark_v1","""event"",""trial"",""time""
""fullscreenenter"",""1"",""7706""
""fullscreenexit"",""71"",""520627""
","
","
","""event"",""trial"",""time""
""fullscreenenter"",""1"",""7706""
","""event"",""trial"",""time""
""fullscreenexit"",""71"",""520627""
","","","","","","2437.7000000001863","<p> Your goal in this round is to take care of lots of animals. </p></div>","","0","instructions","","","","","","","","","","",""
"learning-instructions","178","815780","0.0-11.0-1.0-0.1","3809","2","10","Female","approach_avoid_spark_v1","""event"",""trial"",""time""
""fullscreenenter"",""1"",""7706""
""fullscreenexit"",""71"",""520627""
","
","
","""event"",""trial"",""time""
""fullscreenenter"",""1"",""7706""
","""event"",""trial"",""time""
""fullscreenexit"",""71"",""520627""
","","","","","","66675.6000000001","<p> Some animals want to be pet, while other animals want to be left alone.  </p><p> On each turn, you will see an animal.   </p><p> You need to decide whether to pet it or not.  </p>","","0","instructions","","","","","","","","","","",""
"learning-instructions","179","823862","0.0-11.0-1.0-0.2","3809","2","10","Female","approach_avoid_spark_v1","""event"",""trial"",""time""
""fullscreenenter"",""1"",""7706""
""fullscreenexit"",""71"",""520627""
","
","
","""event"",""trial"",""time""
""fullscreenenter"",""1"",""7706""
","""event"",""trial"",""time""
""fullscreenexit"",""71"",""520627""
","","","","","","1958.6000000000931","<p> You can pet the animal by pressing 1 and leave the animal alone by pressing 0. </p><br><div class=""choice-instructions-grid""> <div class=""choice-option""><img src=""images/approach.png"" class=""choice-option-img"" stage=""instructions"" position=""0"" ><div class=""choice-option-text""> Press ""1."" </div></div><div class=""choice-option""><img src=""images/avoid.png"" class=""choice-option-img"" stage=""instructions"" position=""1"" ><div class=""choice-option-text""> Press ""0."" </div></div>","","0","instructions","","","","","","","","","","",""
"learning-instructions","180","834660","0.0-11.0-1.0-0.3","3809","2","10","Female","approach_avoid_spark_v1","""event"",""trial"",""time""
""fullscreenenter"",""1"",""7706""
""fullscreenexit"",""71"",""520627""
","
","
","""event"",""trial"",""time""
""fullscreenenter"",""1"",""7706""
","""event"",""trial"",""time""
""fullscreenexit"",""71"",""520627""
","","","","","","1296.3999999999069","<p> If you pet an animal that wants to be pet, you will make it feel happy! </p><p> But if you pet an animal that wants to be left alone, you will make it feel angry. </p>","","0","instructions","","","","","","","","","","",""
"learning-instructions","181","849519","0.0-11.0-1.0-0.4","3809","2","10","Female","approach_avoid_spark_v1","""event"",""trial"",""time""
""fullscreenenter"",""1"",""7706""
""fullscreenexit"",""71"",""520627""
","
","
","""event"",""trial"",""time""
""fullscreenenter"",""1"",""7706""
","""event"",""trial"",""time""
""fullscreenexit"",""71"",""520627""
","","","","","","1621","<p> You will earn points based on how you made the animal feel. </p><p> If you made it feel happy, you will WIN anywhere from 1 - 9 points, </p><p> but if you made it feel angry, you will LOSE anywhere from 1 - 9 points. </p>","","0","instructions","","","","","","","","","","",""
"learning-instructions","182","857764","0.0-11.0-1.0-0.5","3809","2","10","Female","approach_avoid_spark_v1","""event"",""trial"",""time""
""fullscreenenter"",""1"",""7706""
""fullscreenexit"",""71"",""520627""
","
","
","""event"",""trial"",""time""
""fullscreenenter"",""1"",""7706""
","""event"",""trial"",""time""
""fullscreenexit"",""71"",""520627""
","","","","","","1582.6000000000931","<p> You will see how many points you won or lost in the center of the screen. </p><p> Here is what you would see if you won 5 points: </p><p style=""color:green;font-size:50px;font-weight:bolder"">5</p>","","0","instructions","","","","","","","","","","",""
"learning-instructions","183","866519","0.0-11.0-1.0-0.6","3809","2","10","Female","approach_avoid_spark_v1","""event"",""trial"",""time""
""fullscreenenter"",""1"",""7706""
""fullscreenexit"",""71"",""520627""
","
","
","""event"",""trial"",""time""
""fullscreenenter"",""1"",""7706""
","""event"",""trial"",""time""
""fullscreenexit"",""71"",""520627""
","","","","","","5909.200000000186","<p> And here is what you would see if you lost 3 points: </p><p style=""color:red;font-size:50px;font-weight:bolder"">-3</p>","","0","instructions","","","","","","","","","","",""
"learning-instructions","184","884349","0.0-11.0-1.0-0.7","3809","2","10","Female","approach_avoid_spark_v1","""event"",""trial"",""time""
""fullscreenenter"",""1"",""7706""
""fullscreenexit"",""71"",""520627""
","
","
","""event"",""trial"",""time""
""fullscreenenter"",""1"",""7706""
","""event"",""trial"",""time""
""fullscreenexit"",""71"",""520627""
","","","","","","3452.5","<p> Some animals will become very happy or very angry. </p><p> These animals will make you win or lose LOTS of points. </p><p> Other animals have less strong feelings. </p><p> These animals will make you win or lose small amounts of points. </p>","","0","instructions","","","","","","","","","","",""
"learning-instructions","185","898656","0.0-11.0-1.0-0.8","3809","2","10","Female","approach_avoid_spark_v1","""event"",""trial"",""time""
""fullscreenenter"",""1"",""7706""
""fullscreenexit"",""71"",""520627""
","
","
","""event"",""trial"",""time""
""fullscreenenter"",""1"",""7706""
","""event"",""trial"",""time""
""fullscreenexit"",""71"",""520627""
","","","","","","2594.2000000001863","<p> If you choose to leave the animal alone, you will not win or lose any points. </p><p>  However, in the center of the screen, you will see the number of points you WOULD HAVE won or lost if you had pet the animal. </p>","","0","instructions","","","","","","","","","","",""
"learning-instructions","186","914302","0.0-11.0-1.0-0.9","3809","2","10","Female","approach_avoid_spark_v1","""event"",""trial"",""time""
""fullscreenenter"",""1"",""7706""
""fullscreenexit"",""71"",""520627""
","
","
","""event"",""trial"",""time""
""fullscreenenter"",""1"",""7706""
","""event"",""trial"",""time""
""fullscreenexit"",""71"",""520627""
","","","","","","3363.6999999997206","<p> Here is what you might see if you did not pet the animal but the animal wanted to be pet: </p><p style=""color:grey; font-size:50px; display: inline-block; border-spacing: 15px; border-width:3px; border-style:solid; border-color:red"">  &nbsp; 6 &nbsp; </p><p> Remember, in this case, you would not win or lose ANY points because you did not pet the animal.  </p>","","0","instructions","","","","","","","","","","",""
"learning-instructions","187","923719","0.0-11.0-1.0-0.10","3809","2","10","Female","approach_avoid_spark_v1","""event"",""trial"",""time""
""fullscreenenter"",""1"",""7706""
""fullscreenexit"",""71"",""520627""
","
","
","""event"",""trial"",""time""
""fullscreenenter"",""1"",""7706""
","""event"",""trial"",""time""
""fullscreenexit"",""71"",""520627""
","","","","","","2013.3000000002794","<p> Try to make the best choice for each animal because </p><p> at the end of the game, you will earn bonus money based on how many points you earned. </p>","","0","instructions","","","","","","","","","","",""
"learning-instructions","188","934162","0.0-11.0-1.0-0.11","3809","2","10","Female","approach_avoid_spark_v1","""event"",""trial"",""time""
""fullscreenenter"",""1"",""7706""
""fullscreenexit"",""71"",""520627""
","
","
","""event"",""trial"",""time""
""fullscreenenter"",""1"",""7706""
","""event"",""trial"",""time""
""fullscreenexit"",""71"",""520627""
","","","","","","2241.5","<p> You will have 3 seconds to make each choice. Try to respond before time runs out! </p><p> You will lose 5 points each time you do not make a response. </p>","","0","instructions","","","","","","","","","","",""
"html-keyboard-response","189","934774","0.0-11.0-2.0-0.0","3809","2","10","Female","approach_avoid_spark_v1","""event"",""trial"",""time""
""fullscreenenter"",""1"",""7706""
""fullscreenexit"",""71"",""520627""
","
","
","""event"",""trial"",""time""
""fullscreenenter"",""1"",""7706""
","""event"",""trial"",""time""
""fullscreenexit"",""71"",""520627""
","","","","","","null","<div style=""font-size:60px;"">+</div>","null","","fixation","","","","","","","","","","",""
"aa-learning-trial","190","937782","0.0-11.0-2.0-1.0","3809","2","10","Female","approach_avoid_spark_v1","""event"",""trial"",""time""
""fullscreenenter"",""1"",""7706""
""fullscreenexit"",""71"",""520627""
","
","
","""event"",""trial"",""time""
""fullscreenenter"",""1"",""7706""
","""event"",""trial"",""time""
""fullscreenexit"",""71"",""520627""
","","","","","","1356.2999999998137","images/cat7.png","","","learning","-6","-6","1","1","cat","pets","1","1","","bad","[-4]"
"html-keyboard-response","191","938285","0.0-11.0-2.0-0.1","3809","2","10","Female","approach_avoid_spark_v1","""event"",""trial"",""time""
""fullscreenenter"",""1"",""7706""
""fullscreenexit"",""71"",""520627""
","
","
","""event"",""trial"",""time""
""fullscreenenter"",""1"",""7706""
","""event"",""trial"",""time""
""fullscreenexit"",""71"",""520627""
","","","","","","null","<div style=""font-size:60px;"">+</div>","null","","fixation","","","","","","","","","","",""
"aa-learning-trial","192","941294","0.0-11.0-2.0-1.1","3809","2","10","Female","approach_avoid_spark_v1","""event"",""trial"",""time""
""fullscreenenter"",""1"",""7706""
""fullscreenexit"",""71"",""520627""
","
","
","""event"",""trial"",""time""
""fullscreenenter"",""1"",""7706""
","""event"",""trial"",""time""
""fullscreenexit"",""71"",""520627""
","","","","","","1247.5","images/cat7.png","","","learning","-1","0","0","0","cat","pets","1","1","","bad","[-4]"
"html-keyboard-response","193","941797","0.0-11.0-2.0-0.2","3809","2","10","Female","approach_avoid_spark_v1","""event"",""trial"",""time""
""fullscreenenter"",""1"",""7706""
""fullscreenexit"",""71"",""520627""
","
","
","""event"",""trial"",""time""
""fullscreenenter"",""1"",""7706""
","""event"",""trial"",""time""
""fullscreenexit"",""71"",""520627""
","","","","","","null","<div style=""font-size:60px;"">+</div>","null","","fixation","","","","","","","","","","",""
"aa-learning-trial","194","944808","0.0-11.0-2.0-1.2","3809","2","10","Female","approach_avoid_spark_v1","""event"",""trial"",""time""
""fullscreenenter"",""1"",""7706""
""fullscreenexit"",""71"",""520627""
","
","
","""event"",""trial"",""time""
""fullscreenenter"",""1"",""7706""
","""event"",""trial"",""time""
""fullscreenexit"",""71"",""520627""
","","","","","","1305.8999999999069","images/rodent5.png","","","learning","5","5","1","1","rodent","pets","1","1","","good","[6]"
"html-keyboard-response","195","945318","0.0-11.0-2.0-0.3","3809","2","10","Female","approach_avoid_spark_v1","""event"",""trial"",""time""
""fullscreenenter"",""1"",""7706""
""fullscreenexit"",""71"",""520627""
","
","
","""event"",""trial"",""time""
""fullscreenenter"",""1"",""7706""
","""event"",""trial"",""time""
""fullscreenexit"",""71"",""520627""
","","","","","","null","<div style=""font-size:60px;"">+</div>","null","","fixation","","","","","","","","","","",""
"aa-learning-trial","196","948326","0.0-11.0-2.0-1.3","3809","2","10","Female","approach_avoid_spark_v1","""event"",""trial"",""time""
""fullscreenenter"",""1"",""7706""
""fullscreenexit"",""71"",""520627""
","
","
","""event"",""trial"",""time""
""fullscreenenter"",""1"",""7706""
","""event"",""trial"",""time""
""fullscreenexit"",""71"",""520627""
","","","","","","659.1000000000931","images/cat4.png","","","learning","-6","-6","1","1","cat","pets","1","1","","bad","[-4]"
"html-keyboard-response","197","948829","0.0-11.0-2.0-0.4","3809","2","10","Female","approach_avoid_spark_v1","""event"",""trial"",""time""
""fullscreenenter"",""1"",""7706""
""fullscreenexit"",""71"",""520627""
","
","
","""event"",""trial"",""time""
""fullscreenenter"",""1"",""7706""
","""event"",""trial"",""time""
""fullscreenexit"",""71"",""520627""
","","","","","","null","<div style=""font-size:60px;"">+</div>","null","","fixation","","","","","","","","","","",""
"aa-learning-trial","198","951838","0.0-11.0-2.0-1.4","3809","2","10","Female","approach_avoid_spark_v1","""event"",""trial"",""time""
""fullscreenenter"",""1"",""7706""
""fullscreenexit"",""71"",""520627""
","
","
","""event"",""trial"",""time""
""fullscreenenter"",""1"",""7706""
","""event"",""trial"",""time""
""fullscreenexit"",""71"",""520627""
","","","","","","988.6999999997206","images/rodent8.png","","","learning","7","7","1","1","rodent","pets","1","1","","good","[6]"
"html-keyboard-response","199","952341","0.0-11.0-2.0-0.5","3809","2","10","Female","approach_avoid_spark_v1","""event"",""trial"",""time""
""fullscreenenter"",""1"",""7706""
""fullscreenexit"",""71"",""520627""
","
","
","""event"",""trial"",""time""
""fullscreenenter"",""1"",""7706""
","""event"",""trial"",""time""
""fullscreenexit"",""71"",""520627""
","","","","","","null","<div style=""font-size:60px;"">+</div>","null","","fixation","","","","","","","","","","",""
"aa-learning-trial","200","955350","0.0-11.0-2.0-1.5","3809","2","10","Female","approach_avoid_spark_v1","""event"",""trial"",""time""
""fullscreenenter"",""1"",""7706""
""fullscreenexit"",""71"",""520627""
","
","
","""event"",""trial"",""time""
""fullscreenenter"",""1"",""7706""
","""event"",""trial"",""time""
""fullscreenexit"",""71"",""520627""
","","","","","","855.2000000001863","images/dog5.png","","","learning","-1","-1","1","1","dog","pets","1","1","","neutral","0"
