"trial_type","trial_index","time_elapsed","internal_node_id","subject_id","task_condition","age","gender","task_version","interactions","blur_events","focus_events","fullscreenenter_events","fullscreenexit_events","success","timeout","failed_images","failed_audio","failed_video","rt","stimulus","response","button_pressed","task_part","approach_reward","points","key_press","option_selected","stim_cat","task_block","block_condition","block_number","correct","cat_type","mean_cat_reward"
"pavlovia","0","3","0.0-0.0","4243","2","15","Male","approach_avoid_spark_v1","""event"",""trial"",""time""
""fullscreenenter"",""1"",""1753""
","
","
","""event"",""trial"",""time""
""fullscreenenter"",""1"",""1753""
","
","","","","","","","","","","","","","","","","","","","","",""
"fullscreen","1","2747","0.0-1.0","4243","2","15","Male","approach_avoid_spark_v1","""event"",""trial"",""time""
""fullscreenenter"",""1"",""1753""
","
","
","""event"",""trial"",""time""
""fullscreenenter"",""1"",""1753""
","
","true","","","","","","","","","","","","","","","","","","","",""
"preload","2","32674","0.0-2.0","4243","2","15","Male","approach_avoid_spark_v1","""event"",""trial"",""time""
""fullscreenenter"",""1"",""1753""
","
","
","""event"",""trial"",""time""
""fullscreenenter"",""1"",""1753""
","
","true","false","[]","[]","[]","","","","","","","","","","","","","","","",""
"audio-keyboard-response","3","36200","0.0-3.0","4243","2","15","Male","approach_avoid_spark_v1","""event"",""trial"",""time""
""fullscreenenter"",""1"",""1753""
","
","
","""event"",""trial"",""time""
""fullscreenenter"",""1"",""1753""
","
","","","","","","3530.6666666666615","audio/beep_loop.wav"," ","","","","","","","","","","","","",""
"audio-button-response","4","38167","0.0-4.0","4243","2","15","Male","approach_avoid_spark_v1","""event"",""trial"",""time""
""fullscreenenter"",""1"",""1753""
","
","
","""event"",""trial"",""time""
""fullscreenenter"",""1"",""1753""
","
","","","","","","1963","audio/shark.wav","4","","","","","","","","","","","","",""
"audio-button-response","5","40712","0.0-5.0","4243","2","15","Male","approach_avoid_spark_v1","""event"",""trial"",""time""
""fullscreenenter"",""1"",""1753""
","
","
","""event"",""trial"",""time""
""fullscreenenter"",""1"",""1753""
","
","","","","","","1536","audio/turtle.wav","1","","","","","","","","","","","","",""
"preload","6","47283","0.0-6.0","4243","2","15","Male","approach_avoid_spark_v1","""event"",""trial"",""time""
""fullscreenenter"",""1"",""1753""
","
","
","""event"",""trial"",""time""
""fullscreenenter"",""1"",""1753""
","
","true","false","[]","[]","[]","","","","","","","","","","","","","","","",""
"html-keyboard-response","7","50609","0.0-7.0","4243","2","15","Male","approach_avoid_spark_v1","""event"",""trial"",""time""
""fullscreenenter"",""1"",""1753""
","
","
","""event"",""trial"",""time""
""fullscreenenter"",""1"",""1753""
","
","","","","","","3324.300000011921","Welcome to the experiment. Press any key to begin and to advance the instructions."," ","","","","","","","","","","","","",""
"learning-instructions","8","58408","0.0-8.0-0.0-0.0","4243","2","15","Male","approach_avoid_spark_v1","""event"",""trial"",""time""
""fullscreenenter"",""1"",""1753""
","
","
","""event"",""trial"",""time""
""fullscreenenter"",""1"",""1753""
","
","","","","","","843.6999999880791","<p> Welcome! Today you are going to play 6 different rounds of a decision-making game. </p><p> Use the mouse to click next to continue. </p>","","0","instructions","","","","","","","","","","",""
"learning-instructions","9","61567","0.0-8.0-0.0-0.1","4243","2","15","Male","approach_avoid_spark_v1","""event"",""trial"",""time""
""fullscreenenter"",""1"",""1753""
","
","
","""event"",""trial"",""time""
""fullscreenenter"",""1"",""1753""
","
","","","","","","430.19999998807907","<p> You will start with a practice round to learn the rules. </p>","","0","instructions","","","","","","","","","","",""
"learning-instructions","10","65807","0.0-8.0-0.0-0.2","4243","2","15","Male","approach_avoid_spark_v1","""event"",""trial"",""time""
""fullscreenenter"",""1"",""1753""
","
","
","""event"",""trial"",""time""
""fullscreenenter"",""1"",""1753""
","
","","","","","","787.5","<p> Your goal in this round is to give out sports equipment to kids. </p></div>","","0","instructions","","","","","","","","","","",""
"learning-instructions","11","73904","0.0-8.0-0.0-0.3","4243","2","15","Male","approach_avoid_spark_v1","""event"",""trial"",""time""
""fullscreenenter"",""1"",""1753""
","
","
","""event"",""trial"",""time""
""fullscreenenter"",""1"",""1753""
","
","","","","","","542.5999999642372","<p> The kids only like some of the equipment.  </p><p> On each turn, you will see a piece of sports equipment.   </p><p> You need to decide whether to give it to the kids or not.  </p>","","0","instructions","","","","","","","","","","",""
"learning-instructions","12","79303","0.0-8.0-0.0-0.4","4243","2","15","Male","approach_avoid_spark_v1","""event"",""trial"",""time""
""fullscreenenter"",""1"",""1753""
","
","
","""event"",""trial"",""time""
""fullscreenenter"",""1"",""1753""
","
","","","","","","629.1000000238419","<p> You can give them the equipment by pressing 1 and choose not to give it to them by pressing 0. </p><br><div class=""choice-instructions-grid""> <div class=""choice-option""><img src=""images/approach.png"" class=""choice-option-img"" stage=""instructions"" position=""0"" ><div class=""choice-option-text""> Press ""1."" </div></div><div class=""choice-option""><img src=""images/avoid.png"" class=""choice-option-img"" stage=""instructions"" position=""1"" ><div class=""choice-option-text""> Press ""0."" </div></div>","","0","instructions","","","","","","","","","","",""
"learning-instructions","13","87999","0.0-8.0-0.0-0.5","4243","2","15","Male","approach_avoid_spark_v1","""event"",""trial"",""time""
""fullscreenenter"",""1"",""1753""
","
","
","""event"",""trial"",""time""
""fullscreenenter"",""1"",""1753""
","
","","","","","","1315.800000011921","<p> If you give them a piece of equipment they like, they will be happy! </p><p> But if you give them a piece of equipment they do not like, they will be sad. </p>","","0","instructions","","","","","","","","","","",""
"learning-instructions","14","99328","0.0-8.0-0.0-0.6","4243","2","15","Male","approach_avoid_spark_v1","""event"",""trial"",""time""
""fullscreenenter"",""1"",""1753""
","
","
","""event"",""trial"",""time""
""fullscreenenter"",""1"",""1753""
","
","","","","","","804.6000000238419","<p> You will earn points based on how you make kids feel. </p><p> If you make them happy, you will WIN anywhere from 1 - 9 points, </p><p> but if you make them sad, you will LOSE anywhere from 1 - 9 points. </p>","","0","instructions","","","","","","","","","","",""
"learning-instructions","15","109343","0.0-8.0-0.0-0.7","4243","2","15","Male","approach_avoid_spark_v1","""event"",""trial"",""time""
""fullscreenenter"",""1"",""1753""
","
","
","""event"",""trial"",""time""
""fullscreenenter"",""1"",""1753""
","
","","","","","","450.89999997615814","<p> You will see how many points you won or lost in the center of the screen. </p><p> Here is what you would see if you won 6 points: </p><p style=""color:green;font-size:50px;font-weight:bolder"">6</p><p style=""color:green"">The text is GREEN because you WON points.</p>","","0","instructions","","","","","","","","","","",""
"learning-instructions","16","115167","0.0-8.0-0.0-0.8","4243","2","15","Male","approach_avoid_spark_v1","""event"",""trial"",""time""
""fullscreenenter"",""1"",""1753""
","
","
","""event"",""trial"",""time""
""fullscreenenter"",""1"",""1753""
","
","","","","","","302.5","<p> And here is what you would see if you lost 4 points: </p><p style=""color:red;font-size:50px;font-weight:bolder"">-4</p><p style=""color:red"">The text is RED because you LOST points. </p>","","0","instructions","","","","","","","","","","",""
"learning-instructions","17","130832","0.0-8.0-0.0-0.9","4243","2","15","Male","approach_avoid_spark_v1","""event"",""trial"",""time""
""fullscreenenter"",""1"",""1753""
","
","
","""event"",""trial"",""time""
""fullscreenenter"",""1"",""1753""
","
","","","","","","948.1999999880791","<p> Some of the equipment will make the kids VERY happy or sad. </p><p> These pieces of equipment will make you win or lose LOTS of points. </p><p> Other pieces of equipment will only make the kids a little happy or sad. </p><p> These pieces of equipment will make you win or lose small amounts of points. </p>","","0","instructions","","","","","","","","","","",""
"learning-instructions","18","141824","0.0-8.0-0.0-0.10","4243","2","15","Male","approach_avoid_spark_v1","""event"",""trial"",""time""
""fullscreenenter"",""1"",""1753""
","
","
","""event"",""trial"",""time""
""fullscreenenter"",""1"",""1753""
","
","","","","","","345","<p> If you choose not to give them the equipment, you will not win or lose any points. </p><p>  However, in the center of the screen, you will see the number of points you WOULD HAVE won or lost if you had given them the equipment. </p>","","0","instructions","","","","","","","","","","",""
"learning-instructions","19","164216","0.0-8.0-0.0-0.11","4243","2","15","Male","approach_avoid_spark_v1","""event"",""trial"",""time""
""fullscreenenter"",""1"",""1753""
","
","
","""event"",""trial"",""time""
""fullscreenenter"",""1"",""1753""
","
","","","","","","859.8000000119209","<p> Here is what you might see if you did not give the equipment to the kids but it would have made them happy: </p><p style=""color:grey; font-size:50px; display: inline-block; border-spacing: 15px; border-width:3px; border-style:solid; border-color:red"">  &nbsp; 7 &nbsp; </p><p> Remember, in this case, you would not win or lose ANY points because you did not give them the equipment.  </p><p style=""color:grey"">The text is GREY because you earned ZERO points. </p><p style=""color:red"">However, choosing to give the kids the equipment would have made you win points. The box around the text is RED because you chose the worse option. </p>","","0","instructions","","","","","","","","","","",""
"learning-instructions","20","185503","0.0-8.0-0.0-0.12","4243","2","15","Male","approach_avoid_spark_v1","""event"",""trial"",""time""
""fullscreenenter"",""1"",""1753""
","
","
","""event"",""trial"",""time""
""fullscreenenter"",""1"",""1753""
","
","","","","","","206.30000001192093","<p> Here is what you might see if you did not give the equipment to the kids but it would have made them sad: </p><p style=""color:grey;font-size:50px; display: inline-block; border-spacing: 15px; border-width:3px; border-style:solid; border-color:green"">  &nbsp; -8 &nbsp; </p><p> Remember, in this case, you would not win or lose ANY points because you did not give them the equipment.  </p><p style=""color:grey"">The text is GREY because you earned ZERO points. </p><p  style=""color:green""> Choosing to give the kids the equipment would have made you lose points. The box around the text is GREEN because you chose the better option.</p>","","0","instructions","","","","","","","","","","",""
"learning-instructions","21","203174","0.0-8.0-0.0-0.13","4243","2","15","Male","approach_avoid_spark_v1","""event"",""trial"",""time""
""fullscreenenter"",""1"",""1753""
","
","
","""event"",""trial"",""time""
""fullscreenenter"",""1"",""1753""
","
","","","","","","7190.399999976158","<p> You will have 3 seconds to make each choice. Try to respond before time runs out! </p><p> You will lose 5 points each time you do not make a response. </p>","","0","instructions","","","","","","","","","","",""
"learning-instructions","22","210160","0.0-8.0-0.0-0.14","4243","2","15","Male","approach_avoid_spark_v1","""event"",""trial"",""time""
""fullscreenenter"",""1"",""1753""
","
","
","""event"",""trial"",""time""
""fullscreenenter"",""1"",""1753""
","
","","","","","","1579.300000011921","<p> This is just a practice round, but in the real game, your bonus payment will depend on your total number of points.","","0","instructions","","","","","","","","","","",""
"learning-instructions","23","216320","0.0-8.0-0.0-0.15","4243","2","15","Male","approach_avoid_spark_v1","""event"",""trial"",""time""
""fullscreenenter"",""1"",""1753""
","
","
","""event"",""trial"",""time""
""fullscreenenter"",""1"",""1753""
","
","","","","","","388.89999997615814","<p> Remember, you can give them the equipment by pressing 1 and choose not to give it to them by pressing 0. </p><br><div class=""choice-instructions-grid""> <div class=""choice-option""><img src=""images/approach.png"" class=""choice-option-img"" stage=""instructions"" position=""0"" ><div class=""choice-option-text""> Press ""1."" </div></div><div class=""choice-option""><img src=""images/avoid.png"" class=""choice-option-img"" stage=""instructions"" position=""1"" ><div class=""choice-option-text""> Press ""0."" </div></div>","","0","instructions","","","","","","","","","","",""
"html-button-response","24","220063","0.0-8.0-1.0","4243","2","15","Male","approach_avoid_spark_v1","""event"",""trial"",""time""
""fullscreenenter"",""1"",""1753""
","
","
","""event"",""trial"",""time""
""fullscreenenter"",""1"",""1753""
","
","","","","","","3619.699999988079","<p> Ready to practice? </p>","0","","","","","","","","","","","","",""
"html-keyboard-response","25","220677","0.0-8.0-2.0-0.0","4243","2","15","Male","approach_avoid_spark_v1","""event"",""trial"",""time""
""fullscreenenter"",""1"",""1753""
","
","
","""event"",""trial"",""time""
""fullscreenenter"",""1"",""1753""
","
","","","","","","null","<div style=""font-size:60px;"">+</div>","null","","fixation","","","","","","","","","","",""
"aa-learning-trial","26","223685","0.0-8.0-2.0-1.0","4243","2","15","Male","approach_avoid_spark_v1","""event"",""trial"",""time""
""fullscreenenter"",""1"",""1753""
","
","
","""event"",""trial"",""time""
""fullscreenenter"",""1"",""1753""
","
","","","","","","null","images/racket2.png","","","learning","-1","-5","","null","practice","practice","practice","-1","","",""
"html-keyboard-response","27","224195","0.0-8.0-2.0-0.1","4243","2","15","Male","approach_avoid_spark_v1","""event"",""trial"",""time""
""fullscreenenter"",""1"",""1753""
","
","
","""event"",""trial"",""time""
""fullscreenenter"",""1"",""1753""
","
","","","","","","null","<div style=""font-size:60px;"">+</div>","null","","fixation","","","","","","","","","","",""
"aa-learning-trial","28","227207","0.0-8.0-2.0-1.1","4243","2","15","Male","approach_avoid_spark_v1","""event"",""trial"",""time""
""fullscreenenter"",""1"",""1753""
","
","
","""event"",""trial"",""time""
""fullscreenenter"",""1"",""1753""
","
","","","","","","2597.099999964237","images/ball1.png","","","learning","-5","-5","1","1","practice","practice","practice","-1","","",""
"html-keyboard-response","29","227726","0.0-8.0-2.0-0.2","4243","2","15","Male","approach_avoid_spark_v1","""event"",""trial"",""time""
""fullscreenenter"",""1"",""1753""
","
","
","""event"",""trial"",""time""
""fullscreenenter"",""1"",""1753""
","
","","","","","","null","<div style=""font-size:60px;"">+</div>","null","","fixation","","","","","","","","","","",""
"aa-learning-trial","30","230735","0.0-8.0-2.0-1.2","4243","2","15","Male","approach_avoid_spark_v1","""event"",""trial"",""time""
""fullscreenenter"",""1"",""1753""
","
","
","""event"",""trial"",""time""
""fullscreenenter"",""1"",""1753""
","
","","","","","","1143.800000011921","images/racket3.png","","","learning","-2","-2","1","1","practice","practice","practice","-1","","",""
"html-keyboard-response","31","231255","0.0-8.0-2.0-0.3","4243","2","15","Male","approach_avoid_spark_v1","""event"",""trial"",""time""
""fullscreenenter"",""1"",""1753""
","
","
","""event"",""trial"",""time""
""fullscreenenter"",""1"",""1753""
","
","","","","","","null","<div style=""font-size:60px;"">+</div>","null","","fixation","","","","","","","","","","",""
"aa-learning-trial","32","234261","0.0-8.0-2.0-1.3","4243","2","15","Male","approach_avoid_spark_v1","""event"",""trial"",""time""
""fullscreenenter"",""1"",""1753""
","
","
","""event"",""trial"",""time""
""fullscreenenter"",""1"",""1753""
","
","","","","","","862.1999999880791","images/racket4.png","","","learning","6","6","1","1","practice","practice","practice","-1","","",""
"html-keyboard-response","33","234763","0.0-8.0-2.0-0.4","4243","2","15","Male","approach_avoid_spark_v1","""event"",""trial"",""time""
""fullscreenenter"",""1"",""1753""
","
","
","""event"",""trial"",""time""
""fullscreenenter"",""1"",""1753""
","
","","","","","","null","<div style=""font-size:60px;"">+</div>","null","","fixation","","","","","","","","","","",""
"aa-learning-trial","34","237769","0.0-8.0-2.0-1.4","4243","2","15","Male","approach_avoid_spark_v1","""event"",""trial"",""time""
""fullscreenenter"",""1"",""1753""
","
","
","""event"",""trial"",""time""
""fullscreenenter"",""1"",""1753""
","
","","","","","","118.09999996423721","images/ball4.png","","","learning","8","8","1","1","practice","practice","practice","-1","","",""
"html-keyboard-response","35","238287","0.0-8.0-2.0-0.5","4243","2","15","Male","approach_avoid_spark_v1","""event"",""trial"",""time""
""fullscreenenter"",""1"",""1753""
","
","
","""event"",""trial"",""time""
""fullscreenenter"",""1"",""1753""
","
","","","","","","null","<div style=""font-size:60px;"">+</div>","null","","fixation","","","","","","","","","","",""
"aa-learning-trial","36","241295","0.0-8.0-2.0-1.5","4243","2","15","Male","approach_avoid_spark_v1","""event"",""trial"",""time""
""fullscreenenter"",""1"",""1753""
","
","
","""event"",""trial"",""time""
""fullscreenenter"",""1"",""1753""
","
","","","","","","564.7999999523163","images/ball1.png","","","learning","-5","-5","1","1","practice","practice","practice","-1","","",""
"html-keyboard-response","37","241817","0.0-8.0-2.0-0.6","4243","2","15","Male","approach_avoid_spark_v1","""event"",""trial"",""time""
""fullscreenenter"",""1"",""1753""
","
","
","""event"",""trial"",""time""
""fullscreenenter"",""1"",""1753""
","
","","","","","","null","<div style=""font-size:60px;"">+</div>","null","","fixation","","","","","","","","","","",""
"aa-learning-trial","38","244825","0.0-8.0-2.0-1.6","4243","2","15","Male","approach_avoid_spark_v1","""event"",""trial"",""time""
""fullscreenenter"",""1"",""1753""
","
","
","""event"",""trial"",""time""
""fullscreenenter"",""1"",""1753""
","
","","","","","","365.39999997615814","images/ball4.png","","","learning","9","9","1","1","practice","practice","practice","-1","","",""
"html-keyboard-response","39","245326","0.0-8.0-2.0-0.7","4243","2","15","Male","approach_avoid_spark_v1","""event"",""trial"",""time""
""fullscreenenter"",""1"",""1753""
","
","
","""event"",""trial"",""time""
""fullscreenenter"",""1"",""1753""
","
","","","","","","null","<div style=""font-size:60px;"">+</div>","null","","fixation","","","","","","","","","","",""
"aa-learning-trial","40","248330","0.0-8.0-2.0-1.7","4243","2","15","Male","approach_avoid_spark_v1","""event"",""trial"",""time""
""fullscreenenter"",""1"",""1753""
","
","
","""event"",""trial"",""time""
""fullscreenenter"",""1"",""1753""
","
","","","","","","804.2000000476837","images/racket3.png","","","learning","7","0","0","0","practice","practice","practice","-1","","",""
"html-keyboard-response","41","248831","0.0-8.0-2.0-0.8","4243","2","15","Male","approach_avoid_spark_v1","""event"",""trial"",""time""
""fullscreenenter"",""1"",""1753""
","
","
","""event"",""trial"",""time""
""fullscreenenter"",""1"",""1753""
","
","","","","","","null","<div style=""font-size:60px;"">+</div>","null","","fixation","","","","","","","","","","",""
"aa-learning-trial","42","251835","0.0-8.0-2.0-1.8","4243","2","15","Male","approach_avoid_spark_v1","""event"",""trial"",""time""
""fullscreenenter"",""1"",""1753""
","
","
","""event"",""trial"",""time""
""fullscreenenter"",""1"",""1753""
","
","","","","","","875.1999999880791","images/ball2.png","","","learning","3","3","1","1","practice","practice","practice","-1","","",""
"html-keyboard-response","43","252336","0.0-8.0-2.0-0.9","4243","2","15","Male","approach_avoid_spark_v1","""event"",""trial"",""time""
""fullscreenenter"",""1"",""1753""
","
","
","""event"",""trial"",""time""
""fullscreenenter"",""1"",""1753""
","
","","","","","","null","<div style=""font-size:60px;"">+</div>","null","","fixation","","","","","","","","","","",""
"aa-learning-trial","44","255339","0.0-8.0-2.0-1.9","4243","2","15","Male","approach_avoid_spark_v1","""event"",""trial"",""time""
""fullscreenenter"",""1"",""1753""
","
","
","""event"",""trial"",""time""
""fullscreenenter"",""1"",""1753""
","
","","","","","","1300.5999999642372","images/racket4.png","","","learning","5","0","0","0","practice","practice","practice","-1","","",""
"html-keyboard-response","45","255841","0.0-8.0-2.0-0.10","4243","2","15","Male","approach_avoid_spark_v1","""event"",""trial"",""time""
""fullscreenenter"",""1"",""1753""
","
","
","""event"",""trial"",""time""
""fullscreenenter"",""1"",""1753""
","
","","","","","","null","<div style=""font-size:60px;"">+</div>","null","","fixation","","","","","","","","","","",""
"aa-learning-trial","46","258844","0.0-8.0-2.0-1.10","4243","2","15","Male","approach_avoid_spark_v1","""event"",""trial"",""time""
""fullscreenenter"",""1"",""1753""
","
","
","""event"",""trial"",""time""
""fullscreenenter"",""1"",""1753""
","
","","","","","","821","images/ball4.png","","","learning","-1","-1","1","1","practice","practice","practice","-1","","",""
"html-keyboard-response","47","259345","0.0-8.0-2.0-0.11","4243","2","15","Male","approach_avoid_spark_v1","""event"",""trial"",""time""
""fullscreenenter"",""1"",""1753""
","
","
","""event"",""trial"",""time""
""fullscreenenter"",""1"",""1753""
","
","","","","","","null","<div style=""font-size:60px;"">+</div>","null","","fixation","","","","","","","","","","",""
"aa-learning-trial","48","262347","0.0-8.0-2.0-1.11","4243","2","15","Male","approach_avoid_spark_v1","""event"",""trial"",""time""
""fullscreenenter"",""1"",""1753""
","
","
","""event"",""trial"",""time""
""fullscreenenter"",""1"",""1753""
","
","","","","","","1524.300000011921","images/racket3.png","","","learning","-8","0","0","0","practice","practice","practice","-1","","",""
"html-button-response","49","265591","0.0-8.0-3.0","4243","2","15","Male","approach_avoid_spark_v1","""event"",""trial"",""time""
""fullscreenenter"",""1"",""1753""
","
","
","""event"",""trial"",""time""
""fullscreenenter"",""1"",""1753""
","
","","","","","","3241.899999976158","<p> You earned 8 points in the practice round! </p>","0","","break","","","","","","","","","","",""
"learning-instructions","50","274599","0.0-8.0-4.0-0.0","4243","2","15","Male","approach_avoid_spark_v1","""event"",""trial"",""time""
""fullscreenenter"",""1"",""1753""
","
","
","""event"",""trial"",""time""
""fullscreenenter"",""1"",""1753""
","
","","","","","","3040.7999999523163","<p> It's almost time to start the real game. </p><p> Before you start, we're going to ask you a few questions about how the game works. </p>","","0","instructions","","","","","","","","","","",""
"preload","51","278200","0.0-8.0-5.0","4243","2","15","Male","approach_avoid_spark_v1","""event"",""trial"",""time""
""fullscreenenter"",""1"",""1753""
","
","
","""event"",""trial"",""time""
""fullscreenenter"",""1"",""1753""
","
","true","false","[]","[]","[]","","","","","","","","","","","","","","","",""
"comp-q","52","287975","0.0-8.0-6.0-0.0","4243","2","15","Male","approach_avoid_spark_v1","""event"",""trial"",""time""
""fullscreenenter"",""1"",""1753""
","
","
","""event"",""trial"",""time""
""fullscreenenter"",""1"",""1753""
","
","","","","","","4780","<p> <b> True or False? </b> </p><p> If you see a number in GREY, that means you earned that many points. </p>","","1","comp_question","","","","","","","","","true","",""
"comp-q","53","298752","0.0-8.0-6.0-1.0","4243","2","15","Male","approach_avoid_spark_v1","""event"",""trial"",""time""
""fullscreenenter"",""1"",""1753""
","
","
","""event"",""trial"",""time""
""fullscreenenter"",""1"",""1753""
","
","","","","","","2426","<p><b> That's right! </b> If you see a grey number, it means you earned ZERO points. <br> The grey numbers show the points you WOULD HAVE earned if you had made the other choice. </p>","","0","comp_answer","","","","","","","","","","",""
"comp-q","54","303983","0.0-8.0-7.0-0.0","4243","2","15","Male","approach_avoid_spark_v1","""event"",""trial"",""time""
""fullscreenenter"",""1"",""1753""
","
","
","""event"",""trial"",""time""
""fullscreenenter"",""1"",""1753""
","
","","","","","","542.3999999761581","<p> <b> True or False? </b> </p><p> You will have as much time as you want to make each choice. </p>","","1","comp_question","","","","","","","","","true","",""
"comp-q","55","308815","0.0-8.0-7.0-1.0","4243","2","15","Male","approach_avoid_spark_v1","""event"",""trial"",""time""
""fullscreenenter"",""1"",""1753""
","
","
","""event"",""trial"",""time""
""fullscreenenter"",""1"",""1753""
","
","","","","","","786.8000000119209","<p> <b> That's right! </b> You will only have 3 seconds to make each choice. </p>","","0","comp_answer","","","","","","","","","","",""
"comp-q","56","314343","0.0-8.0-8.0-0.0","4243","2","15","Male","approach_avoid_spark_v1","""event"",""trial"",""time""
""fullscreenenter"",""1"",""1753""
","
","
","""event"",""trial"",""time""
""fullscreenenter"",""1"",""1753""
","
","","","","","","875.7000000476837","<p> <b> True or False? </b> </p><p> You should use the '1' and '0' keys to make your choices. </p>","","0","comp_question","","","","","","","","","true","",""
"comp-q","57","320264","0.0-8.0-8.0-1.0","4243","2","15","Male","approach_avoid_spark_v1","""event"",""trial"",""time""
""fullscreenenter"",""1"",""1753""
","
","
","""event"",""trial"",""time""
""fullscreenenter"",""1"",""1753""
","
","","","","","","1303.0999999642372","<p> <b> That's right! </b> You should use the '1' and '0' keys to make each choice. </p>","","0","comp_answer","","","","","","","","","","",""
"learning-instructions","58","329015","0.0-8.0-9.0-0.0","4243","2","15","Male","approach_avoid_spark_v1","""event"",""trial"",""time""
""fullscreenenter"",""1"",""1753""
","
","
","""event"",""trial"",""time""
""fullscreenenter"",""1"",""1753""
","
","","","","","","2481.2000000476837","<p> It's now time to start the real game. </p>Do your best, because the points you earn in the next rounds will influence your bonus payment. </p>","","0","instructions","","","","","","","","","","",""
"preload","59","329137","0.0-9.0-0.0","4243","2","15","Male","approach_avoid_spark_v1","""event"",""trial"",""time""
""fullscreenenter"",""1"",""1753""
","
","
","""event"",""trial"",""time""
""fullscreenenter"",""1"",""1753""
","
","true","false","[]","[]","[]","","","","","","","","","","","","","","","",""
"learning-instructions","60","333984","0.0-9.0-1.0-0.0","4243","2","15","Male","approach_avoid_spark_v1","""event"",""trial"",""time""
""fullscreenenter"",""1"",""1753""
","
","
","""event"",""trial"",""time""
""fullscreenenter"",""1"",""1753""
","
","","","","","","1198.699999988079","<p> Your goal in this round is to eat tasty fruit. </p></div>","","0","instructions","","","","","","","","","","",""
"learning-instructions","61","345810","0.0-9.0-1.0-0.1","4243","2","15","Male","approach_avoid_spark_v1","""event"",""trial"",""time""
""fullscreenenter"",""1"",""1753""
","
","
","""event"",""trial"",""time""
""fullscreenenter"",""1"",""1753""
","
","","","","","","843.6000000238419","<p> Some of the fruits you will see are tasty. Others are rotten on the inside.  </p><p> On each turn, you will see a fruit.   </p><p> You need to decide whether to eat it or not.  </p>","","0","instructions","","","","","","","","","","",""
"learning-instructions","62","352303","0.0-9.0-1.0-0.2","4243","2","15","Male","approach_avoid_spark_v1","""event"",""trial"",""time""
""fullscreenenter"",""1"",""1753""
","
","
","""event"",""trial"",""time""
""fullscreenenter"",""1"",""1753""
","
","","","","","","1032.199999988079","<p> You can eat the fruit by pressing 1 and choose not to eat it by pressing 0. </p><br><div class=""choice-instructions-grid""> <div class=""choice-option""><img src=""images/approach.png"" class=""choice-option-img"" stage=""instructions"" position=""0"" ><div class=""choice-option-text""> Press ""1."" </div></div><div class=""choice-option""><img src=""images/avoid.png"" class=""choice-option-img"" stage=""instructions"" position=""1"" ><div class=""choice-option-text""> Press ""0."" </div></div>","","0","instructions","","","","","","","","","","",""
"learning-instructions","63","361209","0.0-9.0-1.0-0.3","4243","2","15","Male","approach_avoid_spark_v1","""event"",""trial"",""time""
""fullscreenenter"",""1"",""1753""
","
","
","""event"",""trial"",""time""
""fullscreenenter"",""1"",""1753""
","
","","","","","","497.69999998807907","<p> If you eat the fruit and it was tasty, you will win points! </p><p> But if you eat the fruit and it was rotten, you will lose points. </p>","","0","instructions","","","","","","","","","","",""
"learning-instructions","64","375224","0.0-9.0-1.0-0.4","4243","2","15","Male","approach_avoid_spark_v1","""event"",""trial"",""time""
""fullscreenenter"",""1"",""1753""
","
","
","""event"",""trial"",""time""
""fullscreenenter"",""1"",""1753""
","
","","","","","","433.89999997615814","<p> You will earn points based on how tasty or rotten the fruit was. </p><p> If it was tasty, you will WIN anywhere from 1 - 9 points, </p><p> but if it was rotten, you will LOSE anywhere from 1 - 9 points. </p>","","0","instructions","","","","","","","","","","",""
"learning-instructions","65","384337","0.0-9.0-1.0-0.5","4243","2","15","Male","approach_avoid_spark_v1","""event"",""trial"",""time""
""fullscreenenter"",""1"",""1753""
","
","
","""event"",""trial"",""time""
""fullscreenenter"",""1"",""1753""
","
","","","","","","598.1999999880791","<p> You will see how many points you won or lost in the center of the screen. </p><p> Here is what you would see if you earned 5 points: </p><p style=""color:green;font-size:50px;font-weight:bolder"">5</p>","","0","instructions","","","","","","","","","","",""
"learning-instructions","66","388919","0.0-9.0-1.0-0.6","4243","2","15","Male","approach_avoid_spark_v1","""event"",""trial"",""time""
""fullscreenenter"",""1"",""1753""
","
","
","""event"",""trial"",""time""
""fullscreenenter"",""1"",""1753""
","
","","","","","","582.3000000119209","<p> And here is what you would see if you lost 3 points: </p><p style=""color:red;font-size:50px;font-weight:bolder"">-3</p>","","0","instructions","","","","","","","","","","",""
"learning-instructions","67","405551","0.0-9.0-1.0-0.7","4243","2","15","Male","approach_avoid_spark_v1","""event"",""trial"",""time""
""fullscreenenter"",""1"",""1753""
","
","
","""event"",""trial"",""time""
""fullscreenenter"",""1"",""1753""
","
","","","","","","500.10000002384186","<p> Some fruit is very tasty or very rotten. </p><p> These fruits will make you win or lose LOTS of points. </p><p> Other fruits are only kind of tasty or kind of rotten. </p><p> These fruits will make you win or lose small amounts of points. </p>","","0","instructions","","","","","","","","","","",""
"learning-instructions","68","418970","0.0-9.0-1.0-0.8","4243","2","15","Male","approach_avoid_spark_v1","""event"",""trial"",""time""
""fullscreenenter"",""1"",""1753""
","
","
","""event"",""trial"",""time""
""fullscreenenter"",""1"",""1753""
","
","","","","","","1097.300000011921","<p> If you choose to not eat the fruit, you will not win or lose any points. </p><p>  However, in the center of the screen, you will see the number of points you WOULD HAVE earned if you had eaten the fruit. </p>","","0","instructions","","","","","","","","","","",""
"learning-instructions","69","429427","0.0-9.0-1.0-0.9","4243","2","15","Male","approach_avoid_spark_v1","""event"",""trial"",""time""
""fullscreenenter"",""1"",""1753""
","
","
","""event"",""trial"",""time""
""fullscreenenter"",""1"",""1753""
","
","","","","","","375.30000001192093","<p> Here is what you might see if you did not eat the fruit but the fruit was tasty: </p><p style=""color:grey; font-size:50px; display: inline-block; border-spacing: 15px; border-width:3px; border-style:solid; border-color:red"">  &nbsp; 6 &nbsp; </p><p> Remember, in this case, you would not win or lose ANY points because you did not eat the fruit.  </p>","","0","instructions","","","","","","","","","","",""
"learning-instructions","70","437169","0.0-9.0-1.0-0.10","4243","2","15","Male","approach_avoid_spark_v1","""event"",""trial"",""time""
""fullscreenenter"",""1"",""1753""
","
","
","""event"",""trial"",""time""
""fullscreenenter"",""1"",""1753""
","
","","","","","","150.39999997615814","<p> Try to make the best choice for each fruit because </p><p> at the end of the game, you will earn bonus money based on how many points you earned. </p>","","0","instructions","","","","","","","","","","",""
"learning-instructions","71","445816","0.0-9.0-1.0-0.11","4243","2","15","Male","approach_avoid_spark_v1","""event"",""trial"",""time""
""fullscreenenter"",""1"",""1753""
","
","
","""event"",""trial"",""time""
""fullscreenenter"",""1"",""1753""
","
","","","","","","444.0999999642372","<p> You will have 3 seconds to make each choice. Try to respond before time runs out! </p><p> You will lose 5 points each time you do not make a response. </p>","","0","instructions","","","","","","","","","","",""
"html-keyboard-response","72","446444","0.0-9.0-2.0-0.0","4243","2","15","Male","approach_avoid_spark_v1","""event"",""trial"",""time""
""fullscreenenter"",""1"",""1753""
","
","
","""event"",""trial"",""time""
""fullscreenenter"",""1"",""1753""
","
","","","","","","null","<div style=""font-size:60px;"">+</div>","null","","fixation","","","","","","","","","","",""
"aa-learning-trial","73","449455","0.0-9.0-2.0-1.0","4243","2","15","Male","approach_avoid_spark_v1","""event"",""trial"",""time""
""fullscreenenter"",""1"",""1753""
","
","
","""event"",""trial"",""time""
""fullscreenenter"",""1"",""1753""
","
","","","","","","1276.9000000357628","images/banana1.png","","","learning","6","6","1","1","banana","fruit","2","0","","good","[4]"
"html-keyboard-response","74","449957","0.0-9.0-2.0-0.1","4243","2","15","Male","approach_avoid_spark_v1","""event"",""trial"",""time""
""fullscreenenter"",""1"",""1753""
","
","
","""event"",""trial"",""time""
""fullscreenenter"",""1"",""1753""
","
","","","","","","null","<div style=""font-size:60px;"">+</div>","null","","fixation","","","","","","","","","","",""
"aa-learning-trial","75","452975","0.0-9.0-2.0-1.1","4243","2","15","Male","approach_avoid_spark_v1","""event"",""trial"",""time""
""fullscreenenter"",""1"",""1753""
","
","
","""event"",""trial"",""time""
""fullscreenenter"",""1"",""1753""
","
","","","","","","659.1000000238419","images/apple7.png","","","learning","7","7","1","1","apple","fruit","2","0","","neutral","0"
"html-keyboard-response","76","453477","0.0-9.0-2.0-0.2","4243","2","15","Male","approach_avoid_spark_v1","""event"",""trial"",""time""
""fullscreenenter"",""1"",""1753""
","
","
","""event"",""trial"",""time""
""fullscreenenter"",""1"",""1753""
","
","","","","","","null","<div style=""font-size:60px;"">+</div>","null","","fixation","","","","","","","","","","",""
"aa-learning-trial","77","456485","0.0-9.0-2.0-1.2","4243","2","15","Male","approach_avoid_spark_v1","""event"",""trial"",""time""
""fullscreenenter"",""1"",""1753""
","
","
","""event"",""trial"",""time""
""fullscreenenter"",""1"",""1753""
","
","","","","","","697.2000000476837","images/straw2.png","","","learning","-7","-7","1","1","straw","fruit","2","0","","bad","[-6]"
"html-keyboard-response","78","456986","0.0-9.0-2.0-0.3","4243","2","15","Male","approach_avoid_spark_v1","""event"",""trial"",""time""
""fullscreenenter"",""1"",""1753""
","
","
","""event"",""trial"",""time""
""fullscreenenter"",""1"",""1753""
","
","","","","","","null","<div style=""font-size:60px;"">+</div>","null","","fixation","","","","","","","","","","",""
"aa-learning-trial","79","459995","0.0-9.0-2.0-1.3","4243","2","15","Male","approach_avoid_spark_v1","""event"",""trial"",""time""
""fullscreenenter"",""1"",""1753""
","
","
","""event"",""trial"",""time""
""fullscreenenter"",""1"",""1753""
","
","","","","","","798.8000000119209","images/banana1.png","","","learning","6","6","1","1","banana","fruit","2","0","","good","[4]"
"html-keyboard-response","80","460517","0.0-9.0-2.0-0.4","4243","2","15","Male","approach_avoid_spark_v1","""event"",""trial"",""time""
""fullscreenenter"",""1"",""1753""
","
","
","""event"",""trial"",""time""
""fullscreenenter"",""1"",""1753""
","
","","","","","","null","<div style=""font-size:60px;"">+</div>","null","","fixation","","","","","","","","","","",""
"aa-learning-trial","81","463536","0.0-9.0-2.0-1.4","4243","2","15","Male","approach_avoid_spark_v1","""event"",""trial"",""time""
""fullscreenenter"",""1"",""1753""
","
","
","""event"",""trial"",""time""
""fullscreenenter"",""1"",""1753""
","
","","","","","","859.5","images/straw6.png","","","learning","3","0","0","0","straw","fruit","2","0","","bad","[-6]"
"html-keyboard-response","82","464058","0.0-9.0-2.0-0.5","4243","2","15","Male","approach_avoid_spark_v1","""event"",""trial"",""time""
""fullscreenenter"",""1"",""1753""
","
","
","""event"",""trial"",""time""
""fullscreenenter"",""1"",""1753""
","
","","","","","","null","<div style=""font-size:60px;"">+</div>","null","","fixation","","","","","","","","","","",""
"aa-learning-trial","83","467067","0.0-9.0-2.0-1.5","4243","2","15","Male","approach_avoid_spark_v1","""event"",""trial"",""time""
""fullscreenenter"",""1"",""1753""
","
","
","""event"",""trial"",""time""
""fullscreenenter"",""1"",""1753""
","
","","","","","","632.8000000119209","images/banana6.png","","","learning","-3","-3","1","1","banana","fruit","2","0","","good","[4]"
"html-keyboard-response","84","467578","0.0-9.0-2.0-0.6","4243","2","15","Male","approach_avoid_spark_v1","""event"",""trial"",""time""
""fullscreenenter"",""1"",""1753""
","
","
","""event"",""trial"",""time""
""fullscreenenter"",""1"",""1753""
","
","","","","","","null","<div style=""font-size:60px;"">+</div>","null","","fixation","","","","","","","","","","",""
"aa-learning-trial","85","470592","0.0-9.0-2.0-1.6","4243","2","15","Male","approach_avoid_spark_v1","""event"",""trial"",""time""
""fullscreenenter"",""1"",""1753""
","
","
","""event"",""trial"",""time""
""fullscreenenter"",""1"",""1753""
","
","","","","","","856.3000000119209","images/apple3.png","","","learning","-2","-2","1","1","apple","fruit","2","0","","neutral","0"
"html-keyboard-response","86","471109","0.0-9.0-2.0-0.7","4243","2","15","Male","approach_avoid_spark_v1","""event"",""trial"",""time""
""fullscreenenter"",""1"",""1753""
","
","
","""event"",""trial"",""time""
""fullscreenenter"",""1"",""1753""
","
","","","","","","null","<div style=""font-size:60px;"">+</div>","null","","fixation","","","","","","","","","","",""
"aa-learning-trial","87","474116","0.0-9.0-2.0-1.7","4243","2","15","Male","approach_avoid_spark_v1","""event"",""trial"",""time""
""fullscreenenter"",""1"",""1753""
","
","
","""event"",""trial"",""time""
""fullscreenenter"",""1"",""1753""
","
","","","","","","927.2999999523163","images/banana4.png","","","learning","4","4","1","1","banana","fruit","2","0","","good","[4]"
"html-keyboard-response","88","474618","0.0-9.0-2.0-0.8","4243","2","15","Male","approach_avoid_spark_v1","""event"",""trial"",""time""
""fullscreenenter"",""1"",""1753""
","
","
","""event"",""trial"",""time""
""fullscreenenter"",""1"",""1753""
","
","","","","","","null","<div style=""font-size:60px;"">+</div>","null","","fixation","","","","","","","","","","",""
"aa-learning-trial","89","477621","0.0-9.0-2.0-1.8","4243","2","15","Male","approach_avoid_spark_v1","""event"",""trial"",""time""
""fullscreenenter"",""1"",""1753""
","
","
","""event"",""trial"",""time""
""fullscreenenter"",""1"",""1753""
","
","","","","","","827.5999999642372","images/apple8.png","","","learning","5","5","1","1","apple","fruit","2","0","","neutral","0"
"html-keyboard-response","90","478122","0.0-9.0-2.0-0.9","4243","2","15","Male","approach_avoid_spark_v1","""event"",""trial"",""time""
""fullscreenenter"",""1"",""1753""
","
","
","""event"",""trial"",""time""
""fullscreenenter"",""1"",""1753""
","
","","","","","","null","<div style=""font-size:60px;"">+</div>","null","","fixation","","","","","","","","","","",""
"aa-learning-trial","91","481126","0.0-9.0-2.0-1.9","4243","2","15","Male","approach_avoid_spark_v1","""event"",""trial"",""time""
""fullscreenenter"",""1"",""1753""
","
","
","""event"",""trial"",""time""
""fullscreenenter"",""1"",""1753""
","
","","","","","","961.5","images/banana4.png","","","learning","4","4","1","1","banana","fruit","2","0","","good","[4]"
"html-keyboard-response","92","481628","0.0-9.0-2.0-0.10","4243","2","15","Male","approach_avoid_spark_v1","""event"",""trial"",""time""
""fullscreenenter"",""1"",""1753""
","
","
","""event"",""trial"",""time""
""fullscreenenter"",""1"",""1753""
","
","","","","","","null","<div style=""font-size:60px;"">+</div>","null","","fixation","","","","","","","","","","",""
"aa-learning-trial","93","484630","0.0-9.0-2.0-1.10","4243","2","15","Male","approach_avoid_spark_v1","""event"",""trial"",""time""
""fullscreenenter"",""1"",""1753""
","
","
","""event"",""trial"",""time""
""fullscreenenter"",""1"",""1753""
","
","","","","","","843.6999999880791","images/straw3.png","","","learning","-4","-4","1","1","straw","fruit","2","0","","bad","[-6]"
"html-keyboard-response","94","485132","0.0-9.0-2.0-0.11","4243","2","15","Male","approach_avoid_spark_v1","""event"",""trial"",""time""
""fullscreenenter"",""1"",""1753""
","
","
","""event"",""trial"",""time""
""fullscreenenter"",""1"",""1753""
","
","","","","","","null","<div style=""font-size:60px;"">+</div>","null","","fixation","","","","","","","","","","",""
"aa-learning-trial","95","488136","0.0-9.0-2.0-1.11","4243","2","15","Male","approach_avoid_spark_v1","""event"",""trial"",""time""
""fullscreenenter"",""1"",""1753""
","
","
","""event"",""trial"",""time""
""fullscreenenter"",""1"",""1753""
","
","","","","","","686.0999999642372","images/apple8.png","","","learning","5","5","1","1","apple","fruit","2","0","","neutral","0"
"html-keyboard-response","96","488637","0.0-9.0-2.0-0.12","4243","2","15","Male","approach_avoid_spark_v1","""event"",""trial"",""time""
""fullscreenenter"",""1"",""1753""
","
","
","""event"",""trial"",""time""
""fullscreenenter"",""1"",""1753""
","
","","","","","","null","<div style=""font-size:60px;"">+</div>","null","","fixation","","","","","","","","","","",""
"aa-learning-trial","97","491641","0.0-9.0-2.0-1.12","4243","2","15","Male","approach_avoid_spark_v1","""event"",""trial"",""time""
""fullscreenenter"",""1"",""1753""
","
","
","""event"",""trial"",""time""
""fullscreenenter"",""1"",""1753""
","
","","","","","","1007.5","images/apple7.png","","","learning","7","7","1","1","apple","fruit","2","0","","neutral","0"
"html-keyboard-response","98","492142","0.0-9.0-2.0-0.13","4243","2","15","Male","approach_avoid_spark_v1","""event"",""trial"",""time""
""fullscreenenter"",""1"",""1753""
","
","
","""event"",""trial"",""time""
""fullscreenenter"",""1"",""1753""
","
","","","","","","null","<div style=""font-size:60px;"">+</div>","null","","fixation","","","","","","","","","","",""
"aa-learning-trial","99","495144","0.0-9.0-2.0-1.13","4243","2","15","Male","approach_avoid_spark_v1","""event"",""trial"",""time""
""fullscreenenter"",""1"",""1753""
","
","
","""event"",""trial"",""time""
""fullscreenenter"",""1"",""1753""
","
","","","","","","1099.9000000357628","images/straw2.png","","","learning","-7","0","0","0","straw","fruit","2","0","","bad","[-6]"
"html-keyboard-response","100","495645","0.0-9.0-2.0-0.14","4243","2","15","Male","approach_avoid_spark_v1","""event"",""trial"",""time""
""fullscreenenter"",""1"",""1753""
","
","
","""event"",""trial"",""time""
""fullscreenenter"",""1"",""1753""
","
","","","","","","null","<div style=""font-size:60px;"">+</div>","null","","fixation","","","","","","","","","","",""
"aa-learning-trial","101","498660","0.0-9.0-2.0-1.14","4243","2","15","Male","approach_avoid_spark_v1","""event"",""trial"",""time""
""fullscreenenter"",""1"",""1753""
","
","
","""event"",""trial"",""time""
""fullscreenenter"",""1"",""1753""
","
","","","","","","734.7999999523163","images/straw3.png","","","learning","-4","0","0","0","straw","fruit","2","0","","bad","[-6]"
"html-keyboard-response","102","499162","0.0-9.0-2.0-0.15","4243","2","15","Male","approach_avoid_spark_v1","""event"",""trial"",""time""
""fullscreenenter"",""1"",""1753""
","
","
","""event"",""trial"",""time""
""fullscreenenter"",""1"",""1753""
","
","","","","","","null","<div style=""font-size:60px;"">+</div>","null","","fixation","","","","","","","","","","",""
"aa-learning-trial","103","502164","0.0-9.0-2.0-1.15","4243","2","15","Male","approach_avoid_spark_v1","""event"",""trial"",""time""
""fullscreenenter"",""1"",""1753""
","
","
","""event"",""trial"",""time""
""fullscreenenter"",""1"",""1753""
","
","","","","","","758.5","images/straw2.png","","","learning","-7","0","0","0","straw","fruit","2","0","","bad","[-6]"
"html-keyboard-response","104","502665","0.0-9.0-2.0-0.16","4243","2","15","Male","approach_avoid_spark_v1","""event"",""trial"",""time""
""fullscreenenter"",""1"",""1753""
","
","
","""event"",""trial"",""time""
""fullscreenenter"",""1"",""1753""
","
","","","","","","null","<div style=""font-size:60px;"">+</div>","null","","fixation","","","","","","","","","","",""
"aa-learning-trial","105","505668","0.0-9.0-2.0-1.16","4243","2","15","Male","approach_avoid_spark_v1","""event"",""trial"",""time""
""fullscreenenter"",""1"",""1753""
","
","
","""event"",""trial"",""time""
""fullscreenenter"",""1"",""1753""
","
","","","","","","879.3999999761581","images/banana6.png","","","learning","-3","-3","1","1","banana","fruit","2","0","","good","[4]"
"html-keyboard-response","106","506169","0.0-9.0-2.0-0.17","4243","2","15","Male","approach_avoid_spark_v1","""event"",""trial"",""time""
""fullscreenenter"",""1"",""1753""
","
","
","""event"",""trial"",""time""
""fullscreenenter"",""1"",""1753""
","
","","","","","","null","<div style=""font-size:60px;"">+</div>","null","","fixation","","","","","","","","","","",""
"aa-learning-trial","107","509172","0.0-9.0-2.0-1.17","4243","2","15","Male","approach_avoid_spark_v1","""event"",""trial"",""time""
""fullscreenenter"",""1"",""1753""
","
","
","""event"",""trial"",""time""
""fullscreenenter"",""1"",""1753""
","
","","","","","","1450.7000000476837","images/straw7.png","","","learning","8","0","0","0","straw","fruit","2","0","","bad","[-6]"
"html-keyboard-response","108","509673","0.0-9.0-2.0-0.18","4243","2","15","Male","approach_avoid_spark_v1","""event"",""trial"",""time""
""fullscreenenter"",""1"",""1753""
","
","
","""event"",""trial"",""time""
""fullscreenenter"",""1"",""1753""
","
","","","","","","null","<div style=""font-size:60px;"">+</div>","null","","fixation","","","","","","","","","","",""
"aa-learning-trial","109","512690","0.0-9.0-2.0-1.18","4243","2","15","Male","approach_avoid_spark_v1","""event"",""trial"",""time""
""fullscreenenter"",""1"",""1753""
","
","
","""event"",""trial"",""time""
""fullscreenenter"",""1"",""1753""
","
","","","","","","1321.0999999642372","images/apple7.png","","","learning","7","7","1","1","apple","fruit","2","0","","neutral","0"
"html-keyboard-response","110","513192","0.0-9.0-2.0-0.19","4243","2","15","Male","approach_avoid_spark_v1","""event"",""trial"",""time""
""fullscreenenter"",""1"",""1753""
","
","
","""event"",""trial"",""time""
""fullscreenenter"",""1"",""1753""
","
","","","","","","null","<div style=""font-size:60px;"">+</div>","null","","fixation","","","","","","","","","","",""
"aa-learning-trial","111","516195","0.0-9.0-2.0-1.19","4243","2","15","Male","approach_avoid_spark_v1","""event"",""trial"",""time""
""fullscreenenter"",""1"",""1753""
","
","
","""event"",""trial"",""time""
""fullscreenenter"",""1"",""1753""
","
","","","","","","614.9000000357628","images/apple7.png","","","learning","7","7","1","1","apple","fruit","2","0","","neutral","0"
"html-keyboard-response","112","516696","0.0-9.0-2.0-0.20","4243","2","15","Male","approach_avoid_spark_v1","""event"",""trial"",""time""
""fullscreenenter"",""1"",""1753""
","
","
","""event"",""trial"",""time""
""fullscreenenter"",""1"",""1753""
","
","","","","","","null","<div style=""font-size:60px;"">+</div>","null","","fixation","","","","","","","","","","",""
"aa-learning-trial","113","519701","0.0-9.0-2.0-1.20","4243","2","15","Male","approach_avoid_spark_v1","""event"",""trial"",""time""
""fullscreenenter"",""1"",""1753""
","
","
","""event"",""trial"",""time""
""fullscreenenter"",""1"",""1753""
","
","","","","","","640.1999999880791","images/apple7.png","","","learning","7","7","1","1","apple","fruit","2","0","","neutral","0"
"html-keyboard-response","114","520203","0.0-9.0-2.0-0.21","4243","2","15","Male","approach_avoid_spark_v1","""event"",""trial"",""time""
""fullscreenenter"",""1"",""1753""
","
","
","""event"",""trial"",""time""
""fullscreenenter"",""1"",""1753""
","
","","","","","","null","<div style=""font-size:60px;"">+</div>","null","","fixation","","","","","","","","","","",""
"aa-learning-trial","115","523206","0.0-9.0-2.0-1.21","4243","2","15","Male","approach_avoid_spark_v1","""event"",""trial"",""time""
""fullscreenenter"",""1"",""1753""
","
","
","""event"",""trial"",""time""
""fullscreenenter"",""1"",""1753""
","
","","","","","","545.9000000357628","images/straw6.png","","","learning","3","0","0","0","straw","fruit","2","0","","bad","[-6]"
"html-keyboard-response","116","523707","0.0-9.0-2.0-0.22","4243","2","15","Male","approach_avoid_spark_v1","""event"",""trial"",""time""
""fullscreenenter"",""1"",""1753""
","
","
","""event"",""trial"",""time""
""fullscreenenter"",""1"",""1753""
","
","","","","","","null","<div style=""font-size:60px;"">+</div>","null","","fixation","","","","","","","","","","",""
"aa-learning-trial","117","526711","0.0-9.0-2.0-1.22","4243","2","15","Male","approach_avoid_spark_v1","""event"",""trial"",""time""
""fullscreenenter"",""1"",""1753""
","
","
","""event"",""trial"",""time""
""fullscreenenter"",""1"",""1753""
","
","","","","","","1133.5999999642372","images/straw3.png","","","learning","-4","-4","1","1","straw","fruit","2","0","","bad","[-6]"
"html-keyboard-response","118","527213","0.0-9.0-2.0-0.23","4243","2","15","Male","approach_avoid_spark_v1","""event"",""trial"",""time""
""fullscreenenter"",""1"",""1753""
","
","
","""event"",""trial"",""time""
""fullscreenenter"",""1"",""1753""
","
","","","","","","null","<div style=""font-size:60px;"">+</div>","null","","fixation","","","","","","","","","","",""
"aa-learning-trial","119","530217","0.0-9.0-2.0-1.23","4243","2","15","Male","approach_avoid_spark_v1","""event"",""trial"",""time""
""fullscreenenter"",""1"",""1753""
","
","
","""event"",""trial"",""time""
""fullscreenenter"",""1"",""1753""
","
","","","","","","1952.3999999761581","images/straw3.png","","","learning","-4","0","0","0","straw","fruit","2","0","","bad","[-6]"
"html-keyboard-response","120","530718","0.0-9.0-2.0-0.24","4243","2","15","Male","approach_avoid_spark_v1","""event"",""trial"",""time""
""fullscreenenter"",""1"",""1753""
","
","
","""event"",""trial"",""time""
""fullscreenenter"",""1"",""1753""
","
","","","","","","null","<div style=""font-size:60px;"">+</div>","null","","fixation","","","","","","","","","","",""
"aa-learning-trial","121","533721","0.0-9.0-2.0-1.24","4243","2","15","Male","approach_avoid_spark_v1","""event"",""trial"",""time""
""fullscreenenter"",""1"",""1753""
","
","
","""event"",""trial"",""time""
""fullscreenenter"",""1"",""1753""
","
","","","","","","888.5","images/banana4.png","","","learning","4","4","1","1","banana","fruit","2","0","","good","[4]"
"html-keyboard-response","122","534224","0.0-9.0-2.0-0.25","4243","2","15","Male","approach_avoid_spark_v1","""event"",""trial"",""time""
""fullscreenenter"",""1"",""1753""
","
","
","""event"",""trial"",""time""
""fullscreenenter"",""1"",""1753""
","
","","","","","","null","<div style=""font-size:60px;"">+</div>","null","","fixation","","","","","","","","","","",""
"aa-learning-trial","123","537226","0.0-9.0-2.0-1.25","4243","2","15","Male","approach_avoid_spark_v1","""event"",""trial"",""time""
""fullscreenenter"",""1"",""1753""
","
","
","""event"",""trial"",""time""
""fullscreenenter"",""1"",""1753""
","
","","","","","","557","images/apple8.png","","","learning","5","5","1","1","apple","fruit","2","0","","neutral","0"
"html-keyboard-response","124","537735","0.0-9.0-2.0-0.26","4243","2","15","Male","approach_avoid_spark_v1","""event"",""trial"",""time""
""fullscreenenter"",""1"",""1753""
","
","
","""event"",""trial"",""time""
""fullscreenenter"",""1"",""1753""
","
","","","","","","null","<div style=""font-size:60px;"">+</div>","null","","fixation","","","","","","","","","","",""
"aa-learning-trial","125","540738","0.0-9.0-2.0-1.26","4243","2","15","Male","approach_avoid_spark_v1","""event"",""trial"",""time""
""fullscreenenter"",""1"",""1753""
","
","
","""event"",""trial"",""time""
""fullscreenenter"",""1"",""1753""
","
","","","","","","510.0999999642372","images/apple8.png","","","learning","5","5","1","1","apple","fruit","2","0","","neutral","0"
"html-keyboard-response","126","541240","0.0-9.0-2.0-0.27","4243","2","15","Male","approach_avoid_spark_v1","""event"",""trial"",""time""
""fullscreenenter"",""1"",""1753""
","
","
","""event"",""trial"",""time""
""fullscreenenter"",""1"",""1753""
","
","","","","","","null","<div style=""font-size:60px;"">+</div>","null","","fixation","","","","","","","","","","",""
"aa-learning-trial","127","544244","0.0-9.0-2.0-1.27","4243","2","15","Male","approach_avoid_spark_v1","""event"",""trial"",""time""
""fullscreenenter"",""1"",""1753""
","
","
","""event"",""trial"",""time""
""fullscreenenter"",""1"",""1753""
","
","","","","","","874.1000000238419","images/banana3.png","","","learning","2","2","1","1","banana","fruit","2","0","","good","[4]"
"html-keyboard-response","128","544745","0.0-9.0-2.0-0.28","4243","2","15","Male","approach_avoid_spark_v1","""event"",""trial"",""time""
""fullscreenenter"",""1"",""1753""
","
","
","""event"",""trial"",""time""
""fullscreenenter"",""1"",""1753""
","
","","","","","","null","<div style=""font-size:60px;"">+</div>","null","","fixation","","","","","","","","","","",""
"aa-learning-trial","129","547747","0.0-9.0-2.0-1.28","4243","2","15","Male","approach_avoid_spark_v1","""event"",""trial"",""time""
""fullscreenenter"",""1"",""1753""
","
","
","""event"",""trial"",""time""
""fullscreenenter"",""1"",""1753""
","
","","","","","","1339.699999988079","images/straw2.png","","","learning","-7","0","0","0","straw","fruit","2","0","","bad","[-6]"
"html-keyboard-response","130","548248","0.0-9.0-2.0-0.29","4243","2","15","Male","approach_avoid_spark_v1","""event"",""trial"",""time""
""fullscreenenter"",""1"",""1753""
","
","
","""event"",""trial"",""time""
""fullscreenenter"",""1"",""1753""
","
","","","","","","null","<div style=""font-size:60px;"">+</div>","null","","fixation","","","","","","","","","","",""
"aa-learning-trial","131","551249","0.0-9.0-2.0-1.29","4243","2","15","Male","approach_avoid_spark_v1","""event"",""trial"",""time""
""fullscreenenter"",""1"",""1753""
","
","
","""event"",""trial"",""time""
""fullscreenenter"",""1"",""1753""
","
","","","","","","675.3999999761581","images/banana1.png","","","learning","6","6","1","1","banana","fruit","2","0","","good","[4]"
"html-keyboard-response","132","551751","0.0-9.0-2.0-0.30","4243","2","15","Male","approach_avoid_spark_v1","""event"",""trial"",""time""
""fullscreenenter"",""1"",""1753""
","
","
","""event"",""trial"",""time""
""fullscreenenter"",""1"",""1753""
","
","","","","","","null","<div style=""font-size:60px;"">+</div>","null","","fixation","","","","","","","","","","",""
"aa-learning-trial","133","554755","0.0-9.0-2.0-1.30","4243","2","15","Male","approach_avoid_spark_v1","""event"",""trial"",""time""
""fullscreenenter"",""1"",""1753""
","
","
","""event"",""trial"",""time""
""fullscreenenter"",""1"",""1753""
","
","","","","","","714.8000000119209","images/banana6.png","","","learning","-3","-3","1","1","banana","fruit","2","0","","good","[4]"
"html-keyboard-response","134","555256","0.0-9.0-2.0-0.31","4243","2","15","Male","approach_avoid_spark_v1","""event"",""trial"",""time""
""fullscreenenter"",""1"",""1753""
","
","
","""event"",""trial"",""time""
""fullscreenenter"",""1"",""1753""
","
","","","","","","null","<div style=""font-size:60px;"">+</div>","null","","fixation","","","","","","","","","","",""
"aa-learning-trial","135","558259","0.0-9.0-2.0-1.31","4243","2","15","Male","approach_avoid_spark_v1","""event"",""trial"",""time""
""fullscreenenter"",""1"",""1753""
","
","
","""event"",""trial"",""time""
""fullscreenenter"",""1"",""1753""
","
","","","","","","1007.4000000357628","images/apple3.png","","","learning","-2","-2","1","1","apple","fruit","2","0","","neutral","0"
"html-keyboard-response","136","558760","0.0-9.0-2.0-0.32","4243","2","15","Male","approach_avoid_spark_v1","""event"",""trial"",""time""
""fullscreenenter"",""1"",""1753""
","
","
","""event"",""trial"",""time""
""fullscreenenter"",""1"",""1753""
","
","","","","","","null","<div style=""font-size:60px;"">+</div>","null","","fixation","","","","","","","","","","",""
"aa-learning-trial","137","561763","0.0-9.0-2.0-1.32","4243","2","15","Male","approach_avoid_spark_v1","""event"",""trial"",""time""
""fullscreenenter"",""1"",""1753""
","
","
","""event"",""trial"",""time""
""fullscreenenter"",""1"",""1753""
","
","","","","","","877","images/apple4.png","","","learning","-5","-5","1","1","apple","fruit","2","0","","neutral","0"
"html-keyboard-response","138","562264","0.0-9.0-2.0-0.33","4243","2","15","Male","approach_avoid_spark_v1","""event"",""trial"",""time""
""fullscreenenter"",""1"",""1753""
","
","
","""event"",""trial"",""time""
""fullscreenenter"",""1"",""1753""
","
","","","","","","null","<div style=""font-size:60px;"">+</div>","null","","fixation","","","","","","","","","","",""
"aa-learning-trial","139","565266","0.0-9.0-2.0-1.33","4243","2","15","Male","approach_avoid_spark_v1","""event"",""trial"",""time""
""fullscreenenter"",""1"",""1753""
","
","
","""event"",""trial"",""time""
""fullscreenenter"",""1"",""1753""
","
","","","","","","1634.5999999642372","images/straw3.png","","","learning","-4","-4","1","1","straw","fruit","2","0","","bad","[-6]"
"html-keyboard-response","140","565768","0.0-9.0-2.0-0.34","4243","2","15","Male","approach_avoid_spark_v1","""event"",""trial"",""time""
""fullscreenenter"",""1"",""1753""
","
","
","""event"",""trial"",""time""
""fullscreenenter"",""1"",""1753""
","
","","","","","","null","<div style=""font-size:60px;"">+</div>","null","","fixation","","","","","","","","","","",""
"aa-learning-trial","141","568770","0.0-9.0-2.0-1.34","4243","2","15","Male","approach_avoid_spark_v1","""event"",""trial"",""time""
""fullscreenenter"",""1"",""1753""
","
","
","""event"",""trial"",""time""
""fullscreenenter"",""1"",""1753""
","
","","","","","","886.1999999880791","images/banana5.png","","","learning","-9","-9","1","1","banana","fruit","2","0","","good","[4]"
"html-keyboard-response","142","569271","0.0-9.0-2.0-0.35","4243","2","15","Male","approach_avoid_spark_v1","""event"",""trial"",""time""
""fullscreenenter"",""1"",""1753""
","
","
","""event"",""trial"",""time""
""fullscreenenter"",""1"",""1753""
","
","","","","","","null","<div style=""font-size:60px;"">+</div>","null","","fixation","","","","","","","","","","",""
"aa-learning-trial","143","572273","0.0-9.0-2.0-1.35","4243","2","15","Male","approach_avoid_spark_v1","""event"",""trial"",""time""
""fullscreenenter"",""1"",""1753""
","
","
","""event"",""trial"",""time""
""fullscreenenter"",""1"",""1753""
","
","","","","","","572.1999999880791","images/apple8.png","","","learning","5","5","1","1","apple","fruit","2","0","","neutral","0"
"html-keyboard-response","144","572775","0.0-9.0-2.0-0.36","4243","2","15","Male","approach_avoid_spark_v1","""event"",""trial"",""time""
""fullscreenenter"",""1"",""1753""
","
","
","""event"",""trial"",""time""
""fullscreenenter"",""1"",""1753""
","
","","","","","","null","<div style=""font-size:60px;"">+</div>","null","","fixation","","","","","","","","","","",""
"aa-learning-trial","145","575779","0.0-9.0-2.0-1.36","4243","2","15","Male","approach_avoid_spark_v1","""event"",""trial"",""time""
""fullscreenenter"",""1"",""1753""
","
","
","""event"",""trial"",""time""
""fullscreenenter"",""1"",""1753""
","
","","","","","","1237.9000000357628","images/straw3.png","","","learning","-4","-4","1","1","straw","fruit","2","0","","bad","[-6]"
"html-keyboard-response","146","576280","0.0-9.0-2.0-0.37","4243","2","15","Male","approach_avoid_spark_v1","""event"",""trial"",""time""
""fullscreenenter"",""1"",""1753""
","
","
","""event"",""trial"",""time""
""fullscreenenter"",""1"",""1753""
","
","","","","","","null","<div style=""font-size:60px;"">+</div>","null","","fixation","","","","","","","","","","",""
"aa-learning-trial","147","579282","0.0-9.0-2.0-1.37","4243","2","15","Male","approach_avoid_spark_v1","""event"",""trial"",""time""
""fullscreenenter"",""1"",""1753""
","
","
","""event"",""trial"",""time""
""fullscreenenter"",""1"",""1753""
","
","","","","","","1151.300000011921","images/apple3.png","","","learning","-2","0","0","0","apple","fruit","2","0","","neutral","0"
"html-keyboard-response","148","579783","0.0-9.0-2.0-0.38","4243","2","15","Male","approach_avoid_spark_v1","""event"",""trial"",""time""
""fullscreenenter"",""1"",""1753""
","
","
","""event"",""trial"",""time""
""fullscreenenter"",""1"",""1753""
","
","","","","","","null","<div style=""font-size:60px;"">+</div>","null","","fixation","","","","","","","","","","",""
"aa-learning-trial","149","582786","0.0-9.0-2.0-1.38","4243","2","15","Male","approach_avoid_spark_v1","""event"",""trial"",""time""
""fullscreenenter"",""1"",""1753""
","
","
","""event"",""trial"",""time""
""fullscreenenter"",""1"",""1753""
","
","","","","","","651.3000000119209","images/apple8.png","","","learning","5","5","1","1","apple","fruit","2","0","","neutral","0"
"html-keyboard-response","150","583288","0.0-9.0-2.0-0.39","4243","2","15","Male","approach_avoid_spark_v1","""event"",""trial"",""time""
""fullscreenenter"",""1"",""1753""
","
","
","""event"",""trial"",""time""
""fullscreenenter"",""1"",""1753""
","
","","","","","","null","<div style=""font-size:60px;"">+</div>","null","","fixation","","","","","","","","","","",""
"aa-learning-trial","151","586291","0.0-9.0-2.0-1.39","4243","2","15","Male","approach_avoid_spark_v1","""event"",""trial"",""time""
""fullscreenenter"",""1"",""1753""
","
","
","""event"",""trial"",""time""
""fullscreenenter"",""1"",""1753""
","
","","","","","","1627.1000000238419","images/straw2.png","","","learning","-7","-7","1","1","straw","fruit","2","0","","bad","[-6]"
"html-keyboard-response","152","586793","0.0-9.0-2.0-0.40","4243","2","15","Male","approach_avoid_spark_v1","""event"",""trial"",""time""
""fullscreenenter"",""1"",""1753""
","
","
","""event"",""trial"",""time""
""fullscreenenter"",""1"",""1753""
","
","","","","","","null","<div style=""font-size:60px;"">+</div>","null","","fixation","","","","","","","","","","",""
"aa-learning-trial","153","589796","0.0-9.0-2.0-1.40","4243","2","15","Male","approach_avoid_spark_v1","""event"",""trial"",""time""
""fullscreenenter"",""1"",""1753""
","
","
","""event"",""trial"",""time""
""fullscreenenter"",""1"",""1753""
","
","","","","","","615.7999999523163","images/banana1.png","","","learning","6","6","1","1","banana","fruit","2","0","","good","[4]"
"html-keyboard-response","154","590298","0.0-9.0-2.0-0.41","4243","2","15","Male","approach_avoid_spark_v1","""event"",""trial"",""time""
""fullscreenenter"",""1"",""1753""
","
","
","""event"",""trial"",""time""
""fullscreenenter"",""1"",""1753""
","
","","","","","","null","<div style=""font-size:60px;"">+</div>","null","","fixation","","","","","","","","","","",""
"aa-learning-trial","155","593300","0.0-9.0-2.0-1.41","4243","2","15","Male","approach_avoid_spark_v1","""event"",""trial"",""time""
""fullscreenenter"",""1"",""1753""
","
","
","""event"",""trial"",""time""
""fullscreenenter"",""1"",""1753""
","
","","","","","","532.5","images/apple2.png","","","learning","-6","-6","1","1","apple","fruit","2","0","","neutral","0"
"html-keyboard-response","156","593802","0.0-9.0-2.0-0.42","4243","2","15","Male","approach_avoid_spark_v1","""event"",""trial"",""time""
""fullscreenenter"",""1"",""1753""
","
","
","""event"",""trial"",""time""
""fullscreenenter"",""1"",""1753""
","
","","","","","","null","<div style=""font-size:60px;"">+</div>","null","","fixation","","","","","","","","","","",""
"aa-learning-trial","157","596805","0.0-9.0-2.0-1.42","4243","2","15","Male","approach_avoid_spark_v1","""event"",""trial"",""time""
""fullscreenenter"",""1"",""1753""
","
","
","""event"",""trial"",""time""
""fullscreenenter"",""1"",""1753""
","
","","","","","","612.5","images/banana4.png","","","learning","4","4","1","1","banana","fruit","2","0","","good","[4]"
"html-keyboard-response","158","597308","0.0-9.0-2.0-0.43","4243","2","15","Male","approach_avoid_spark_v1","""event"",""trial"",""time""
""fullscreenenter"",""1"",""1753""
","
","
","""event"",""trial"",""time""
""fullscreenenter"",""1"",""1753""
","
","","","","","","null","<div style=""font-size:60px;"">+</div>","null","","fixation","","","","","","","","","","",""
"aa-learning-trial","159","600310","0.0-9.0-2.0-1.43","4243","2","15","Male","approach_avoid_spark_v1","""event"",""trial"",""time""
""fullscreenenter"",""1"",""1753""
","
","
","""event"",""trial"",""time""
""fullscreenenter"",""1"",""1753""
","
","","","","","","526.1999999880791","images/banana4.png","","","learning","4","4","1","1","banana","fruit","2","0","","good","[4]"
"html-keyboard-response","160","600812","0.0-9.0-2.0-0.44","4243","2","15","Male","approach_avoid_spark_v1","""event"",""trial"",""time""
""fullscreenenter"",""1"",""1753""
","
","
","""event"",""trial"",""time""
""fullscreenenter"",""1"",""1753""
","
","","","","","","null","<div style=""font-size:60px;"">+</div>","null","","fixation","","","","","","","","","","",""
"aa-learning-trial","161","603814","0.0-9.0-2.0-1.44","4243","2","15","Male","approach_avoid_spark_v1","""event"",""trial"",""time""
""fullscreenenter"",""1"",""1753""
","
","
","""event"",""trial"",""time""
""fullscreenenter"",""1"",""1753""
","
","","","","","","1187.699999988079","images/straw6.png","","","learning","3","3","1","1","straw","fruit","2","0","","bad","[-6]"
"html-keyboard-response","162","604317","0.0-9.0-2.0-0.45","4243","2","15","Male","approach_avoid_spark_v1","""event"",""trial"",""time""
""fullscreenenter"",""1"",""1753""
","
","
","""event"",""trial"",""time""
""fullscreenenter"",""1"",""1753""
","
","","","","","","null","<div style=""font-size:60px;"">+</div>","null","","fixation","","","","","","","","","","",""
"aa-learning-trial","163","607320","0.0-9.0-2.0-1.45","4243","2","15","Male","approach_avoid_spark_v1","""event"",""trial"",""time""
""fullscreenenter"",""1"",""1753""
","
","
","""event"",""trial"",""time""
""fullscreenenter"",""1"",""1753""
","
","","","","","","482.60000002384186","images/straw1.png","","","learning","1","1","1","1","straw","fruit","2","0","","bad","[-6]"
"html-keyboard-response","164","607821","0.0-9.0-2.0-0.46","4243","2","15","Male","approach_avoid_spark_v1","""event"",""trial"",""time""
""fullscreenenter"",""1"",""1753""
","
","
","""event"",""trial"",""time""
""fullscreenenter"",""1"",""1753""
","
","","","","","","null","<div style=""font-size:60px;"">+</div>","null","","fixation","","","","","","","","","","",""
"aa-learning-trial","165","610824","0.0-9.0-2.0-1.46","4243","2","15","Male","approach_avoid_spark_v1","""event"",""trial"",""time""
""fullscreenenter"",""1"",""1753""
","
","
","""event"",""trial"",""time""
""fullscreenenter"",""1"",""1753""
","
","","","","","","567.3000000119209","images/banana4.png","","","learning","4","4","1","1","banana","fruit","2","0","","good","[4]"
"html-keyboard-response","166","611325","0.0-9.0-2.0-0.47","4243","2","15","Male","approach_avoid_spark_v1","""event"",""trial"",""time""
""fullscreenenter"",""1"",""1753""
","
","
","""event"",""trial"",""time""
""fullscreenenter"",""1"",""1753""
","
","","","","","","null","<div style=""font-size:60px;"">+</div>","null","","fixation","","","","","","","","","","",""
"aa-learning-trial","167","614328","0.0-9.0-2.0-1.47","4243","2","15","Male","approach_avoid_spark_v1","""event"",""trial"",""time""
""fullscreenenter"",""1"",""1753""
","
","
","""event"",""trial"",""time""
""fullscreenenter"",""1"",""1753""
","
","","","","","","708","images/banana1.png","","","learning","6","6","1","1","banana","fruit","2","0","","good","[4]"
"html-keyboard-response","168","614830","0.0-9.0-2.0-0.48","4243","2","15","Male","approach_avoid_spark_v1","""event"",""trial"",""time""
""fullscreenenter"",""1"",""1753""
","
","
","""event"",""trial"",""time""
""fullscreenenter"",""1"",""1753""
","
","","","","","","null","<div style=""font-size:60px;"">+</div>","null","","fixation","","","","","","","","","","",""
"aa-learning-trial","169","617833","0.0-9.0-2.0-1.48","4243","2","15","Male","approach_avoid_spark_v1","""event"",""trial"",""time""
""fullscreenenter"",""1"",""1753""
","
","
","""event"",""trial"",""time""
""fullscreenenter"",""1"",""1753""
","
","","","","","","359.5","images/banana1.png","","","learning","6","6","1","1","banana","fruit","2","0","","good","[4]"
"html-keyboard-response","170","618334","0.0-9.0-2.0-0.49","4243","2","15","Male","approach_avoid_spark_v1","""event"",""trial"",""time""
""fullscreenenter"",""1"",""1753""
","
","
","""event"",""trial"",""time""
""fullscreenenter"",""1"",""1753""
","
","","","","","","null","<div style=""font-size:60px;"">+</div>","null","","fixation","","","","","","","","","","",""
"aa-learning-trial","171","621336","0.0-9.0-2.0-1.49","4243","2","15","Male","approach_avoid_spark_v1","""event"",""trial"",""time""
""fullscreenenter"",""1"",""1753""
","
","
","""event"",""trial"",""time""
""fullscreenenter"",""1"",""1753""
","
","","","","","","552.8000000119209","images/apple7.png","","","learning","7","7","1","1","apple","fruit","2","0","","neutral","0"
"html-keyboard-response","172","621838","0.0-9.0-2.0-0.50","4243","2","15","Male","approach_avoid_spark_v1","""event"",""trial"",""time""
""fullscreenenter"",""1"",""1753""
","
","
","""event"",""trial"",""time""
""fullscreenenter"",""1"",""1753""
","
","","","","","","null","<div style=""font-size:60px;"">+</div>","null","","fixation","","","","","","","","","","",""
"aa-learning-trial","173","624852","0.0-9.0-2.0-1.50","4243","2","15","Male","approach_avoid_spark_v1","""event"",""trial"",""time""
""fullscreenenter"",""1"",""1753""
","
","
","""event"",""trial"",""time""
""fullscreenenter"",""1"",""1753""
","
","","","","","","1330.3999999761581","images/straw2.png","","","learning","-7","0","0","0","straw","fruit","2","0","","bad","[-6]"
"html-button-response","174","633783","0.0-9.0-3.0","4243","2","15","Male","approach_avoid_spark_v1","""event"",""trial"",""time""
""fullscreenenter"",""1"",""1753""
","
","
","""event"",""trial"",""time""
""fullscreenenter"",""1"",""1753""
","
","","","","","","8930.300000011921","<p> You have completed the round! <p> In this round, you earned 75 points! </p>","0","","break","","","","","","","","","","",""
"html-button-response","175","634920","0.0-10.0","4243","2","15","Male","approach_avoid_spark_v1","""event"",""trial"",""time""
""fullscreenenter"",""1"",""1753""
","
","
","""event"",""trial"",""time""
""fullscreenenter"",""1"",""1753""
","
","","","","","","1135.1000000238419","<p> Now it's time to play another round. </p>","0","","transition_screen","","","","","","","","","","",""
"preload","176","635041","0.0-11.0-0.0","4243","2","15","Male","approach_avoid_spark_v1","""event"",""trial"",""time""
""fullscreenenter"",""1"",""1753""
","
","
","""event"",""trial"",""time""
""fullscreenenter"",""1"",""1753""
","
","true","false","[]","[]","[]","","","","","","","","","","","","","","","",""
"learning-instructions","177","643097","0.0-11.0-1.0-0.0","4243","2","15","Male","approach_avoid_spark_v1","""event"",""trial"",""time""
""fullscreenenter"",""1"",""1753""
","
","
","""event"",""trial"",""time""
""fullscreenenter"",""1"",""1753""
","
","","","","","","2568.600000023842","<p> Your goal in this round is to decorate your friend's new house with furniture. </p></div>","","0","instructions","","","","","","","","","","",""
"learning-instructions","178","653432","0.0-11.0-1.0-0.1","4243","2","15","Male","approach_avoid_spark_v1","""event"",""trial"",""time""
""fullscreenenter"",""1"",""1753""
","
","
","""event"",""trial"",""time""
""fullscreenenter"",""1"",""1753""
","
","","","","","","700","<p> Your friend likes some pieces of furniture but not others.  </p><p> On each turn, you will see a piece of furniture.   </p><p> You need to decide whether to put it in your friend's house or not.  </p>","","0","instructions","","","","","","","","","","",""
"learning-instructions","179","659681","0.0-11.0-1.0-0.2","4243","2","15","Male","approach_avoid_spark_v1","""event"",""trial"",""time""
""fullscreenenter"",""1"",""1753""
","
","
","""event"",""trial"",""time""
""fullscreenenter"",""1"",""1753""
","
","","","","","","762.5","<p> You can put the furniture in her house by pressing 1 and deliver it elsewhere by pressing 0. </p><br><div class=""choice-instructions-grid""> <div class=""choice-option""><img src=""images/approach.png"" class=""choice-option-img"" stage=""instructions"" position=""0"" ><div class=""choice-option-text""> Press ""1."" </div></div><div class=""choice-option""><img src=""images/avoid.png"" class=""choice-option-img"" stage=""instructions"" position=""1"" ><div class=""choice-option-text""> Press ""0."" </div></div>","","0","instructions","","","","","","","","","","",""
"learning-instructions","180","668879","0.0-11.0-1.0-0.3","4243","2","15","Male","approach_avoid_spark_v1","""event"",""trial"",""time""
""fullscreenenter"",""1"",""1753""
","
","
","""event"",""trial"",""time""
""fullscreenenter"",""1"",""1753""
","
","","","","","","616.8999999761581","<p> If you decorate your friend's house with furniture she likes, she will be happy! </p><p> But if you give her furniture that she does not like, she will be annoyed. </p>","","0","instructions","","","","","","","","","","",""
"learning-instructions","181","681360","0.0-11.0-1.0-0.4","4243","2","15","Male","approach_avoid_spark_v1","""event"",""trial"",""time""
""fullscreenenter"",""1"",""1753""
","
","
","""event"",""trial"",""time""
""fullscreenenter"",""1"",""1753""
","
","","","","","","318.60000002384186","<p> You will earn points based on how you made your friend feel. </p><p> If you made her happy, you will WIN anywhere from 1 - 9 points, </p><p> but if you made her annoyed you will LOSE anywhere from 1 - 9 points. </p>","","0","instructions","","","","","","","","","","",""
"learning-instructions","182","688312","0.0-11.0-1.0-0.5","4243","2","15","Male","approach_avoid_spark_v1","""event"",""trial"",""time""
""fullscreenenter"",""1"",""1753""
","
","
","""event"",""trial"",""time""
""fullscreenenter"",""1"",""1753""
","
","","","","","","294.5","<p> You will see how many points you won or lost in the center of the screen. </p><p> Here is what you would see if you won 5 points: </p><p style=""color:green;font-size:50px;font-weight:bolder"">5</p>","","0","instructions","","","","","","","","","","",""
"learning-instructions","183","691832","0.0-11.0-1.0-0.6","4243","2","15","Male","approach_avoid_spark_v1","""event"",""trial"",""time""
""fullscreenenter"",""1"",""1753""
","
","
","""event"",""trial"",""time""
""fullscreenenter"",""1"",""1753""
","
","","","","","","690.3000000119209","<p> And here is what you would see if you lost 3 points: </p><p style=""color:red;font-size:50px;font-weight:bolder"">-3</p>","","0","instructions","","","","","","","","","","",""
"learning-instructions","184","709528","0.0-11.0-1.0-0.7","4243","2","15","Male","approach_avoid_spark_v1","""event"",""trial"",""time""
""fullscreenenter"",""1"",""1753""
","
","
","""event"",""trial"",""time""
""fullscreenenter"",""1"",""1753""
","
","","","","","","583","<p> Some pieces of furniture will make her feel very happy or very annoyed. </p><p> These pieces of furniture will make you win or lose LOTS of points. </p><p> Other pieces of furniture will only make her feel a little happy or a little annoyed. </p><p> These pieces of furniture will make you win or lose small amounts of points. </p>","","0","instructions","","","","","","","","","","",""
"learning-instructions","185","723735","0.0-11.0-1.0-0.8","4243","2","15","Male","approach_avoid_spark_v1","""event"",""trial"",""time""
""fullscreenenter"",""1"",""1753""
","
","
","""event"",""trial"",""time""
""fullscreenenter"",""1"",""1753""
","
","","","","","","336.19999998807907","<p> If you choose to deliver a piece of furniture elsewhere, you will not win or lose any points. </p><p>  However, in the center of the screen, you will see the number of points you WOULD HAVE won or lost if you had given the furniture to your friend. </p>","","0","instructions","","","","","","","","","","",""
"learning-instructions","186","735489","0.0-11.0-1.0-0.9","4243","2","15","Male","approach_avoid_spark_v1","""event"",""trial"",""time""
""fullscreenenter"",""1"",""1753""
","
","
","""event"",""trial"",""time""
""fullscreenenter"",""1"",""1753""
","
","","","","","","528.1000000238419","<p> Here is what you might see if you did not give a piece of furniture to your friend that would have made her happy: </p><p style=""color:grey; font-size:50px; display: inline-block; border-spacing: 15px; border-width:3px; border-style:solid; border-color:red"">  &nbsp; 6 &nbsp; </p><p> Remember, in this case, you would not win or lose ANY points because you did not give her the furniture.  </p>","","0","instructions","","","","","","","","","","",""
"learning-instructions","187","744239","0.0-11.0-1.0-0.10","4243","2","15","Male","approach_avoid_spark_v1","""event"",""trial"",""time""
""fullscreenenter"",""1"",""1753""
","
","
","""event"",""trial"",""time""
""fullscreenenter"",""1"",""1753""
","
","","","","","","799","<p> Try to make the best choice for each piece of furniture because </p><p> at the end of the game, you will earn bonus money based on how many points you earned. </p>","","0","instructions","","","","","","","","","","",""
"learning-instructions","188","753080","0.0-11.0-1.0-0.11","4243","2","15","Male","approach_avoid_spark_v1","""event"",""trial"",""time""
""fullscreenenter"",""1"",""1753""
","
","
","""event"",""trial"",""time""
""fullscreenenter"",""1"",""1753""
","
","","","","","","657.6999999880791","<p> You will have 3 seconds to make each choice. Try to respond before time runs out! </p><p> You will lose 5 points each time you do not make a response. </p>","","0","instructions","","","","","","","","","","",""
"html-keyboard-response","189","753682","0.0-11.0-2.0-0.0","4243","2","15","Male","approach_avoid_spark_v1","""event"",""trial"",""time""
""fullscreenenter"",""1"",""1753""
","
","
","""event"",""trial"",""time""
""fullscreenenter"",""1"",""1753""
","
","","","","","","null","<div style=""font-size:60px;"">+</div>","null","","fixation","","","","","","","","","","",""
"aa-learning-trial","190","756699","0.0-11.0-2.0-1.0","4243","2","15","Male","approach_avoid_spark_v1","""event"",""trial"",""time""
""fullscreenenter"",""1"",""1753""
","
","
","""event"",""trial"",""time""
""fullscreenenter"",""1"",""1753""
","
","","","","","","1424","images/bed4.png","","","learning","7","7","1","1","bed","furniture","1","1","","good","[5]"
"html-keyboard-response","191","757220","0.0-11.0-2.0-0.1","4243","2","15","Male","approach_avoid_spark_v1","""event"",""trial"",""time""
""fullscreenenter"",""1"",""1753""
","
","
","""event"",""trial"",""time""
""fullscreenenter"",""1"",""1753""
","
","","","","","","null","<div style=""font-size:60px;"">+</div>","null","","fixation","","","","","","","","","","",""
"aa-learning-trial","192","760227","0.0-11.0-2.0-1.1","4243","2","15","Male","approach_avoid_spark_v1","""event"",""trial"",""time""
""fullscreenenter"",""1"",""1753""
","
","
","""event"",""trial"",""time""
""fullscreenenter"",""1"",""1753""
","
","","","","","","810.2000000476837","images/bed8.png","","","learning","6","6","1","1","bed","furniture","1","1","","good","[5]"
"html-keyboard-response","193","760744","0.0-11.0-2.0-0.2","4243","2","15","Male","approach_avoid_spark_v1","""event"",""trial"",""time""
""fullscreenenter"",""1"",""1753""
","
","
","""event"",""trial"",""time""
""fullscreenenter"",""1"",""1753""
","
","","","","","","null","<div style=""font-size:60px;"">+</div>","null","","fixation","","","","","","","","","","",""
"aa-learning-trial","194","763749","0.0-11.0-2.0-1.2","4243","2","15","Male","approach_avoid_spark_v1","""event"",""trial"",""time""
""fullscreenenter"",""1"",""1753""
","
","
","""event"",""trial"",""time""
""fullscreenenter"",""1"",""1753""
","
","","","","","","846.5","images/chair6.png","","","learning","[1]","1","1","1","chair","furniture","1","1","","neutral","0"
"html-keyboard-response","195","764250","0.0-11.0-2.0-0.3","4243","2","15","Male","approach_avoid_spark_v1","""event"",""trial"",""time""
""fullscreenenter"",""1"",""1753""
","
","
","""event"",""trial"",""time""
""fullscreenenter"",""1"",""1753""
","
","","","","","","null","<div style=""font-size:60px;"">+</div>","null","","fixation","","","","","","","","","","",""
"aa-learning-trial","196","767259","0.0-11.0-2.0-1.3","4243","2","15","Male","approach_avoid_spark_v1","""event"",""trial"",""time""
""fullscreenenter"",""1"",""1753""
","
","
","""event"",""trial"",""time""
""fullscreenenter"",""1"",""1753""
","
","","","","","","746.6000000238419","images/chair8.png","","","learning","[1]","0","0","0","chair","furniture","1","1","","neutral","0"
"html-keyboard-response","197","767775","0.0-11.0-2.0-0.4","4243","2","15","Male","approach_avoid_spark_v1","""event"",""trial"",""time""
""fullscreenenter"",""1"",""1753""
","
","
","""event"",""trial"",""time""
""fullscreenenter"",""1"",""1753""
","
","","","","","","null","<div style=""font-size:60px;"">+</div>","null","","fixation","","","","","","","","","","",""
"aa-learning-trial","198","770788","0.0-11.0-2.0-1.4","4243","2","15","Male","approach_avoid_spark_v1","""event"",""trial"",""time""
""fullscreenenter"",""1"",""1753""
","
","
","""event"",""trial"",""time""
""fullscreenenter"",""1"",""1753""
","
","","","","","","566","images/bed4.png","","","learning","5","5","1","1","bed","furniture","1","1","","good","[5]"
"html-keyboard-response","199","771312","0.0-11.0-2.0-0.5","4243","2","15","Male","approach_avoid_spark_v1","""event"",""trial"",""time""
""fullscreenenter"",""1"",""1753""
","
","
","""event"",""trial"",""time""
""fullscreenenter"",""1"",""1753""
","
","","","","","","null","<div style=""font-size:60px;"">+</div>","null","","fixation","","","","","","","","","","",""
"aa-learning-trial","200","774320","0.0-11.0-2.0-1.5","4243","2","15","Male","approach_avoid_spark_v1","""event"",""trial"",""time""
""fullscreenenter"",""1"",""1753""
","
","
","""event"",""trial"",""time""
""fullscreenenter"",""1"",""1753""
","
","","","","","","650.3999999761581","images/table1.png","","","learning","-8","0","0","0","table","furniture","1","1","","bad","[-6]"
"html-keyboard-response","201","774842","0.0-11.0-2.0-0.6","4243","2","15","Male","approach_avoid_spark_v1","""event"",""trial"",""time""
""fullscreenenter"",""1"",""1753""
","
","
","""event"",""trial"",""time""
""fullscreenenter"",""1"",""1753""
","
","","","","","","null","<div style=""font-size:60px;"">+</div>","null","","fixation","","","","","","","","","","",""
"aa-learning-trial","202","777850","0.0-11.0-2.0-1.6","4243","2","15","Male","approach_avoid_spark_v1","""event"",""trial"",""time""
""fullscreenenter"",""1"",""1753""
","
","
","""event"",""trial"",""time""
""fullscreenenter"",""1"",""1753""
","
","","","","","","1043","images/table2.png","","","learning","-4","-4","1","1","table","furniture","1","1","","bad","[-6]"
"html-keyboard-response","203","778369","0.0-11.0-2.0-0.7","4243","2","15","Male","approach_avoid_spark_v1","""event"",""trial"",""time""
""fullscreenenter"",""1"",""1753""
","
","
","""event"",""trial"",""time""
""fullscreenenter"",""1"",""1753""
","
","","","","","","null","<div style=""font-size:60px;"">+</div>","null","","fixation","","","","","","","","","","",""
"aa-learning-trial","204","781393","0.0-11.0-2.0-1.7","4243","2","15","Male","approach_avoid_spark_v1","""event"",""trial"",""time""
""fullscreenenter"",""1"",""1753""
","
","
","""event"",""trial"",""time""
""fullscreenenter"",""1"",""1753""
","
","","","","","","1166.9000000357628","images/chair3.png","","","learning","[-1]","0","0","0","chair","furniture","1","1","","neutral","0"
"html-keyboard-response","205","781914","0.0-11.0-2.0-0.8","4243","2","15","Male","approach_avoid_spark_v1","""event"",""trial"",""time""
""fullscreenenter"",""1"",""1753""
","
","
","""event"",""trial"",""time""
""fullscreenenter"",""1"",""1753""
","
","","","","","","null","<div style=""font-size:60px;"">+</div>","null","","fixation","","","","","","","","","","",""
"aa-learning-trial","206","784918","0.0-11.0-2.0-1.8","4243","2","15","Male","approach_avoid_spark_v1","""event"",""trial"",""time""
""fullscreenenter"",""1"",""1753""
","
","
","""event"",""trial"",""time""
""fullscreenenter"",""1"",""1753""
","
","","","","","","611.8000000119209","images/chair6.png","","","learning","[1]","1","1","1","chair","furniture","1","1","","neutral","0"
"html-keyboard-response","207","785420","0.0-11.0-2.0-0.9","4243","2","15","Male","approach_avoid_spark_v1","""event"",""trial"",""time""
""fullscreenenter"",""1"",""1753""
","
","
","""event"",""trial"",""time""
""fullscreenenter"",""1"",""1753""
","
","","","","","","null","<div style=""font-size:60px;"">+</div>","null","","fixation","","","","","","","","","","",""
"aa-learning-trial","208","788422","0.0-11.0-2.0-1.9","4243","2","15","Male","approach_avoid_spark_v1","""event"",""trial"",""time""
""fullscreenenter"",""1"",""1753""
","
","
","""event"",""trial"",""time""
""fullscreenenter"",""1"",""1753""
","
","","","","","","947.0999999642372","images/chair8.png","","","learning","-2","-2","1","1","chair","furniture","1","1","","neutral","0"
"html-keyboard-response","209","788923","0.0-11.0-2.0-0.10","4243","2","15","Male","approach_avoid_spark_v1","""event"",""trial"",""time""
""fullscreenenter"",""1"",""1753""
","
","
","""event"",""trial"",""time""
""fullscreenenter"",""1"",""1753""
","
","","","","","","null","<div style=""font-size:60px;"">+</div>","null","","fixation","","","","","","","","","","",""
"aa-learning-trial","210","791925","0.0-11.0-2.0-1.10","4243","2","15","Male","approach_avoid_spark_v1","""event"",""trial"",""time""
""fullscreenenter"",""1"",""1753""
","
","
","""event"",""trial"",""time""
""fullscreenenter"",""1"",""1753""
","
","","","","","","664","images/bed5.png","","","learning","8","8","1","1","bed","furniture","1","1","","good","[5]"
"html-keyboard-response","211","792427","0.0-11.0-2.0-0.11","4243","2","15","Male","approach_avoid_spark_v1","""event"",""trial"",""time""
""fullscreenenter"",""1"",""1753""
","
","
","""event"",""trial"",""time""
""fullscreenenter"",""1"",""1753""
","
","","","","","","null","<div style=""font-size:60px;"">+</div>","null","","fixation","","","","","","","","","","",""
"aa-learning-trial","212","795431","0.0-11.0-2.0-1.11","4243","2","15","Male","approach_avoid_spark_v1","""event"",""trial"",""time""
""fullscreenenter"",""1"",""1753""
","
","
","""event"",""trial"",""time""
""fullscreenenter"",""1"",""1753""
","
","","","","","","978.1999999880791","images/table2.png","","","learning","-5","0","0","0","table","furniture","1","1","","bad","[-6]"
"html-keyboard-response","213","795932","0.0-11.0-2.0-0.12","4243","2","15","Male","approach_avoid_spark_v1","""event"",""trial"",""time""
""fullscreenenter"",""1"",""1753""
","
","
","""event"",""trial"",""time""
""fullscreenenter"",""1"",""1753""
","
","","","","","","null","<div style=""font-size:60px;"">+</div>","null","","fixation","","","","","","","","","","",""
"aa-learning-trial","214","798942","0.0-11.0-2.0-1.12","4243","2","15","Male","approach_avoid_spark_v1","""event"",""trial"",""time""
""fullscreenenter"",""1"",""1753""
","
","
","""event"",""trial"",""time""
""fullscreenenter"",""1"",""1753""
","
","","","","","","644.3999999761581","images/bed5.png","","","learning","6","6","1","1","bed","furniture","1","1","","good","[5]"
"html-keyboard-response","215","799443","0.0-11.0-2.0-0.13","4243","2","15","Male","approach_avoid_spark_v1","""event"",""trial"",""time""
""fullscreenenter"",""1"",""1753""
","
","
","""event"",""trial"",""time""
""fullscreenenter"",""1"",""1753""
","
","","","","","","null","<div style=""font-size:60px;"">+</div>","null","","fixation","","","","","","","","","","",""
"aa-learning-trial","216","802446","0.0-11.0-2.0-1.13","4243","2","15","Male","approach_avoid_spark_v1","""event"",""trial"",""time""
""fullscreenenter"",""1"",""1753""
","
","
","""event"",""trial"",""time""
""fullscreenenter"",""1"",""1753""
","
","","","","","","819.8000000119209","images/table5.png","","","learning","-6","0","0","0","table","furniture","1","1","","bad","[-6]"
"html-keyboard-response","217","802947","0.0-11.0-2.0-0.14","4243","2","15","Male","approach_avoid_spark_v1","""event"",""trial"",""time""
""fullscreenenter"",""1"",""1753""
","
","
","""event"",""trial"",""time""
""fullscreenenter"",""1"",""1753""
","
","","","","","","null","<div style=""font-size:60px;"">+</div>","null","","fixation","","","","","","","","","","",""
"aa-learning-trial","218","805950","0.0-11.0-2.0-1.14","4243","2","15","Male","approach_avoid_spark_v1","""event"",""trial"",""time""
""fullscreenenter"",""1"",""1753""
","
","
","""event"",""trial"",""time""
""fullscreenenter"",""1"",""1753""
","
","","","","","","732.5","images/table1.png","","","learning","-6","0","0","0","table","furniture","1","1","","bad","[-6]"
"html-keyboard-response","219","806452","0.0-11.0-2.0-0.15","4243","2","15","Male","approach_avoid_spark_v1","""event"",""trial"",""time""
""fullscreenenter"",""1"",""1753""
","
","
","""event"",""trial"",""time""
""fullscreenenter"",""1"",""1753""
","
","","","","","","null","<div style=""font-size:60px;"">+</div>","null","","fixation","","","","","","","","","","",""
"aa-learning-trial","220","809454","0.0-11.0-2.0-1.15","4243","2","15","Male","approach_avoid_spark_v1","""event"",""trial"",""time""
""fullscreenenter"",""1"",""1753""
","
","
","""event"",""trial"",""time""
""fullscreenenter"",""1"",""1753""
","
","","","","","","835.8000000119209","images/table6.png","","","learning","-6","0","0","0","table","furniture","1","1","","bad","[-6]"
"html-keyboard-response","221","809956","0.0-11.0-2.0-0.16","4243","2","15","Male","approach_avoid_spark_v1","""event"",""trial"",""time""
""fullscreenenter"",""1"",""1753""
","
","
","""event"",""trial"",""time""
""fullscreenenter"",""1"",""1753""
","
","","","","","","null","<div style=""font-size:60px;"">+</div>","null","","fixation","","","","","","","","","","",""
"aa-learning-trial","222","812959","0.0-11.0-2.0-1.16","4243","2","15","Male","approach_avoid_spark_v1","""event"",""trial"",""time""
""fullscreenenter"",""1"",""1753""
","
","
","""event"",""trial"",""time""
""fullscreenenter"",""1"",""1753""
","
","","","","","","671.8999999761581","images/bed5.png","","","learning","5","5","1","1","bed","furniture","1","1","","good","[5]"
"html-keyboard-response","223","813462","0.0-11.0-2.0-0.17","4243","2","15","Male","approach_avoid_spark_v1","""event"",""trial"",""time""
""fullscreenenter"",""1"",""1753""
","
","
","""event"",""trial"",""time""
""fullscreenenter"",""1"",""1753""
","
","","","","","","null","<div style=""font-size:60px;"">+</div>","null","","fixation","","","","","","","","","","",""
"aa-learning-trial","224","816464","0.0-11.0-2.0-1.17","4243","2","15","Male","approach_avoid_spark_v1","""event"",""trial"",""time""
""fullscreenenter"",""1"",""1753""
","
","
","""event"",""trial"",""time""
""fullscreenenter"",""1"",""1753""
","
","","","","","","547.1000000238419","images/chair6.png","","","learning","-2","-2","1","1","chair","furniture","1","1","","neutral","0"
"html-keyboard-response","225","816965","0.0-11.0-2.0-0.18","4243","2","15","Male","approach_avoid_spark_v1","""event"",""trial"",""time""
""fullscreenenter"",""1"",""1753""
","
","
","""event"",""trial"",""time""
""fullscreenenter"",""1"",""1753""
","
","","","","","","null","<div style=""font-size:60px;"">+</div>","null","","fixation","","","","","","","","","","",""
"aa-learning-trial","226","819969","0.0-11.0-2.0-1.18","4243","2","15","Male","approach_avoid_spark_v1","""event"",""trial"",""time""
""fullscreenenter"",""1"",""1753""
","
","
","""event"",""trial"",""time""
""fullscreenenter"",""1"",""1753""
","
","","","","","","1005.5","images/table4.png","","","learning","-8","0","0","0","table","furniture","1","1","","bad","[-6]"
"html-keyboard-response","227","820471","0.0-11.0-2.0-0.19","4243","2","15","Male","approach_avoid_spark_v1","""event"",""trial"",""time""
""fullscreenenter"",""1"",""1753""
","
","
","""event"",""trial"",""time""
""fullscreenenter"",""1"",""1753""
","
","","","","","","null","<div style=""font-size:60px;"">+</div>","null","","fixation","","","","","","","","","","",""
"aa-learning-trial","228","823474","0.0-11.0-2.0-1.19","4243","2","15","Male","approach_avoid_spark_v1","""event"",""trial"",""time""
""fullscreenenter"",""1"",""1753""
","
","
","""event"",""trial"",""time""
""fullscreenenter"",""1"",""1753""
","
","","","","","","482.0999999642372","images/bed8.png","","","learning","7","7","1","1","bed","furniture","1","1","","good","[5]"
"html-keyboard-response","229","823975","0.0-11.0-2.0-0.20","4243","2","15","Male","approach_avoid_spark_v1","""event"",""trial"",""time""
""fullscreenenter"",""1"",""1753""
","
","
","""event"",""trial"",""time""
""fullscreenenter"",""1"",""1753""
","
","","","","","","null","<div style=""font-size:60px;"">+</div>","null","","fixation","","","","","","","","","","",""
"aa-learning-trial","230","826977","0.0-11.0-2.0-1.20","4243","2","15","Male","approach_avoid_spark_v1","""event"",""trial"",""time""
""fullscreenenter"",""1"",""1753""
","
","
","""event"",""trial"",""time""
""fullscreenenter"",""1"",""1753""
","
","","","","","","627.2999999523163","images/table2.png","","","learning","-5","-5","1","1","table","furniture","1","1","","bad","[-6]"
"html-keyboard-response","231","827480","0.0-11.0-2.0-0.21","4243","2","15","Male","approach_avoid_spark_v1","""event"",""trial"",""time""
""fullscreenenter"",""1"",""1753""
","
","
","""event"",""trial"",""time""
""fullscreenenter"",""1"",""1753""
","
","","","","","","null","<div style=""font-size:60px;"">+</div>","null","","fixation","","","","","","","","","","",""
"aa-learning-trial","232","830482","0.0-11.0-2.0-1.21","4243","2","15","Male","approach_avoid_spark_v1","""event"",""trial"",""time""
""fullscreenenter"",""1"",""1753""
","
","
","""event"",""trial"",""time""
""fullscreenenter"",""1"",""1753""
","
","","","","","","675.1999999880791","images/chair3.png","","","learning","-2","-2","1","1","chair","furniture","1","1","","neutral","0"
"html-keyboard-response","233","830983","0.0-11.0-2.0-0.22","4243","2","15","Male","approach_avoid_spark_v1","""event"",""trial"",""time""
""fullscreenenter"",""1"",""1753""
","
","
","""event"",""trial"",""time""
""fullscreenenter"",""1"",""1753""
","
","","","","","","null","<div style=""font-size:60px;"">+</div>","null","","fixation","","","","","","","","","","",""
"aa-learning-trial","234","833986","0.0-11.0-2.0-1.22","4243","2","15","Male","approach_avoid_spark_v1","""event"",""trial"",""time""
""fullscreenenter"",""1"",""1753""
","
","
","""event"",""trial"",""time""
""fullscreenenter"",""1"",""1753""
","
","","","","","","860.8000000119209","images/chair5.png","","","learning","[1]","1","1","1","chair","furniture","1","1","","neutral","0"
"html-keyboard-response","235","834488","0.0-11.0-2.0-0.23","4243","2","15","Male","approach_avoid_spark_v1","""event"",""trial"",""time""
""fullscreenenter"",""1"",""1753""
","
","
","""event"",""trial"",""time""
""fullscreenenter"",""1"",""1753""
","
","","","","","","null","<div style=""font-size:60px;"">+</div>","null","","fixation","","","","","","","","","","",""
"aa-learning-trial","236","837493","0.0-11.0-2.0-1.23","4243","2","15","Male","approach_avoid_spark_v1","""event"",""trial"",""time""
""fullscreenenter"",""1"",""1753""
","
","
","""event"",""trial"",""time""
""fullscreenenter"",""1"",""1753""
","
","","","","","","1063.5","images/chair8.png","","","learning","2","2","1","1","chair","furniture","1","1","","neutral","0"
"html-keyboard-response","237","837995","0.0-11.0-2.0-0.24","4243","2","15","Male","approach_avoid_spark_v1","""event"",""trial"",""time""
""fullscreenenter"",""1"",""1753""
","
","
","""event"",""trial"",""time""
""fullscreenenter"",""1"",""1753""
","
