"trial_type","trial_index","time_elapsed","internal_node_id","subject_id","task_condition","age","gender","task_version","interactions","blur_events","focus_events","fullscreenenter_events","fullscreenexit_events","success","timeout","failed_images","failed_audio","failed_video","rt","stimulus","response","button_pressed","task_part","approach_reward","points","key_press","option_selected","stim_cat","task_block","block_condition","block_number","correct","cat_type","mean_cat_reward"
"pavlovia","0","5","0.0-0.0","4491","1","13","Male","approach_avoid_spark_v1","""event"",""trial"",""time""
""fullscreenenter"",""1"",""2661""
","
","
","""event"",""trial"",""time""
""fullscreenenter"",""1"",""2661""
","
","","","","","","","","","","","","","","","","","","","","",""
"fullscreen","1","3640","0.0-1.0","4491","1","13","Male","approach_avoid_spark_v1","""event"",""trial"",""time""
""fullscreenenter"",""1"",""2661""
","
","
","""event"",""trial"",""time""
""fullscreenenter"",""1"",""2661""
","
","true","","","","","","","","","","","","","","","","","","","",""
"preload","2","8849","0.0-2.0","4491","1","13","Male","approach_avoid_spark_v1","""event"",""trial"",""time""
""fullscreenenter"",""1"",""2661""
","
","
","""event"",""trial"",""time""
""fullscreenenter"",""1"",""2661""
","
","true","false","[]","[]","[]","","","","","","","","","","","","","","","",""
"audio-keyboard-response","3","30964","0.0-3.0","4491","1","13","Male","approach_avoid_spark_v1","""event"",""trial"",""time""
""fullscreenenter"",""1"",""2661""
","
","
","""event"",""trial"",""time""
""fullscreenenter"",""1"",""2661""
","
","","","","","","22109.333333333332","audio/beep_loop.wav"," ","","","","","","","","","","","","",""
"audio-button-response","4","36138","0.0-4.0","4491","1","13","Male","approach_avoid_spark_v1","""event"",""trial"",""time""
""fullscreenenter"",""1"",""2661""
","
","
","""event"",""trial"",""time""
""fullscreenenter"",""1"",""2661""
","
","","","","","","5171","audio/shark.wav","0","","","","","","","","","","","","",""
"audio-button-response","5","38666","0.0-5.0","4491","1","13","Male","approach_avoid_spark_v1","""event"",""trial"",""time""
""fullscreenenter"",""1"",""2661""
","
","
","""event"",""trial"",""time""
""fullscreenenter"",""1"",""2661""
","
","","","","","","1520","audio/turtle.wav","1","","","","","","","","","","","","",""
"preload","6","42011","0.0-6.0","4491","1","13","Male","approach_avoid_spark_v1","""event"",""trial"",""time""
""fullscreenenter"",""1"",""2661""
","
","
","""event"",""trial"",""time""
""fullscreenenter"",""1"",""2661""
","
","true","false","[]","[]","[]","","","","","","","","","","","","","","","",""
"html-keyboard-response","7","44419","0.0-7.0","4491","1","13","Male","approach_avoid_spark_v1","""event"",""trial"",""time""
""fullscreenenter"",""1"",""2661""
","
","
","""event"",""trial"",""time""
""fullscreenenter"",""1"",""2661""
","
","","","","","","2405","Welcome to the experiment. Press any key to begin and to advance the instructions.","i","","","","","","","","","","","","",""
"learning-instructions","8","53642","0.0-8.0-0.0-0.0","4491","1","13","Male","approach_avoid_spark_v1","""event"",""trial"",""time""
""fullscreenenter"",""1"",""2661""
","
","
","""event"",""trial"",""time""
""fullscreenenter"",""1"",""2661""
","
","","","","","","2263","<p> Welcome! Today you are going to play 6 different rounds of a decision-making game. </p><p> Use the mouse to click next to continue. </p>","","0","instructions","","","","","","","","","","",""
"learning-instructions","9","58018","0.0-8.0-0.0-0.1","4491","1","13","Male","approach_avoid_spark_v1","""event"",""trial"",""time""
""fullscreenenter"",""1"",""2661""
","
","
","""event"",""trial"",""time""
""fullscreenenter"",""1"",""2661""
","
","","","","","","1649","<p> You will start with a practice round to learn the rules. </p>","","0","instructions","","","","","","","","","","",""
"learning-instructions","10","62010","0.0-8.0-0.0-0.2","4491","1","13","Male","approach_avoid_spark_v1","""event"",""trial"",""time""
""fullscreenenter"",""1"",""2661""
","
","
","""event"",""trial"",""time""
""fullscreenenter"",""1"",""2661""
","
","","","","","","531","<p> Your goal in this round is to give out sports equipment to kids. </p></div>","","0","instructions","","","","","","","","","","",""
"learning-instructions","11","70562","0.0-8.0-0.0-0.3","4491","1","13","Male","approach_avoid_spark_v1","""event"",""trial"",""time""
""fullscreenenter"",""1"",""2661""
","
","
","""event"",""trial"",""time""
""fullscreenenter"",""1"",""2661""
","
","","","","","","1003","<p> The kids only like some of the equipment.  </p><p> On each turn, you will see a piece of sports equipment.   </p><p> You need to decide whether to give it to the kids or not.  </p>","","0","instructions","","","","","","","","","","",""
"learning-instructions","12","75970","0.0-8.0-0.0-0.4","4491","1","13","Male","approach_avoid_spark_v1","""event"",""trial"",""time""
""fullscreenenter"",""1"",""2661""
","
","
","""event"",""trial"",""time""
""fullscreenenter"",""1"",""2661""
","
","","","","","","661","<p> You can give them the equipment by pressing 1 and choose not to give it to them by pressing 0. </p><br><div class=""choice-instructions-grid""> <div class=""choice-option""><img src=""images/approach.png"" class=""choice-option-img"" stage=""instructions"" position=""0"" ><div class=""choice-option-text""> Press ""1."" </div></div><div class=""choice-option""><img src=""images/avoid.png"" class=""choice-option-img"" stage=""instructions"" position=""1"" ><div class=""choice-option-text""> Press ""0."" </div></div>","","0","instructions","","","","","","","","","","",""
"learning-instructions","13","84618","0.0-8.0-0.0-0.5","4491","1","13","Male","approach_avoid_spark_v1","""event"",""trial"",""time""
""fullscreenenter"",""1"",""2661""
","
","
","""event"",""trial"",""time""
""fullscreenenter"",""1"",""2661""
","
","","","","","","1269","<p> If you give them a piece of equipment they like, they will be happy! </p><p> But if you give them a piece of equipment they do not like, they will be sad. </p>","","0","instructions","","","","","","","","","","",""
"learning-instructions","14","95706","0.0-8.0-0.0-0.6","4491","1","13","Male","approach_avoid_spark_v1","""event"",""trial"",""time""
""fullscreenenter"",""1"",""2661""
","
","
","""event"",""trial"",""time""
""fullscreenenter"",""1"",""2661""
","
","","","","","","577","<p> You will earn points based on how you make kids feel. </p><p> If you make them happy, you will WIN anywhere from 1 - 9 points, </p><p> but if you make them sad, you will LOSE anywhere from 1 - 9 points. </p>","","0","instructions","","","","","","","","","","",""
"learning-instructions","15","105611","0.0-8.0-0.0-0.7","4491","1","13","Male","approach_avoid_spark_v1","""event"",""trial"",""time""
""fullscreenenter"",""1"",""2661""
","
","
","""event"",""trial"",""time""
""fullscreenenter"",""1"",""2661""
","
","","","","","","341","<p> You will see how many points you won or lost in the center of the screen. </p><p> Here is what you would see if you won 6 points: </p><p style=""color:green;font-size:50px;font-weight:bolder"">6</p><p style=""color:green"">The text is GREEN because you WON points.</p>","","0","instructions","","","","","","","","","","",""
"learning-instructions","16","111939","0.0-8.0-0.0-0.8","4491","1","13","Male","approach_avoid_spark_v1","""event"",""trial"",""time""
""fullscreenenter"",""1"",""2661""
","
","
","""event"",""trial"",""time""
""fullscreenenter"",""1"",""2661""
","
","","","","","","809","<p> And here is what you would see if you lost 4 points: </p><p style=""color:red;font-size:50px;font-weight:bolder"">-4</p><p style=""color:red"">The text is RED because you LOST points. </p>","","0","instructions","","","","","","","","","","",""
"learning-instructions","17","126954","0.0-8.0-0.0-0.9","4491","1","13","Male","approach_avoid_spark_v1","""event"",""trial"",""time""
""fullscreenenter"",""1"",""2661""
","
","
","""event"",""trial"",""time""
""fullscreenenter"",""1"",""2661""
","
","","","","","","305","<p> Some of the equipment will make the kids VERY happy or sad. </p><p> These pieces of equipment will make you win or lose LOTS of points. </p><p> Other pieces of equipment will only make the kids a little happy or sad. </p><p> These pieces of equipment will make you win or lose small amounts of points. </p>","","0","instructions","","","","","","","","","","",""
"learning-instructions","18","137810","0.0-8.0-0.0-0.10","4491","1","13","Male","approach_avoid_spark_v1","""event"",""trial"",""time""
""fullscreenenter"",""1"",""2661""
","
","
","""event"",""trial"",""time""
""fullscreenenter"",""1"",""2661""
","
","","","","","","221","<p> If you choose not to give them the equipment, you will not win or lose any points. </p><p>  However, in the center of the screen, you will see the number of points you WOULD HAVE won or lost if you had given them the equipment. </p>","","0","instructions","","","","","","","","","","",""
"learning-instructions","19","160306","0.0-8.0-0.0-0.11","4491","1","13","Male","approach_avoid_spark_v1","""event"",""trial"",""time""
""fullscreenenter"",""1"",""2661""
","
","
","""event"",""trial"",""time""
""fullscreenenter"",""1"",""2661""
","
","","","","","","957","<p> Here is what you might see if you did not give the equipment to the kids but it would have made them happy: </p><p style=""color:grey; font-size:50px; display: inline-block; border-spacing: 15px; border-width:3px; border-style:solid; border-color:red"">  &nbsp; 7 &nbsp; </p><p> Remember, in this case, you would not win or lose ANY points because you did not give them the equipment.  </p><p style=""color:grey"">The text is GREY because you earned ZERO points. </p><p style=""color:red"">However, choosing to give the kids the equipment would have made you win points. The box around the text is RED because you chose the worse option. </p>","","0","instructions","","","","","","","","","","",""
"learning-instructions","20","181874","0.0-8.0-0.0-0.12","4491","1","13","Male","approach_avoid_spark_v1","""event"",""trial"",""time""
""fullscreenenter"",""1"",""2661""
","
","
","""event"",""trial"",""time""
""fullscreenenter"",""1"",""2661""
","
","","","","","","495","<p> Here is what you might see if you did not give the equipment to the kids but it would have made them sad: </p><p style=""color:grey;font-size:50px; display: inline-block; border-spacing: 15px; border-width:3px; border-style:solid; border-color:green"">  &nbsp; -8 &nbsp; </p><p> Remember, in this case, you would not win or lose ANY points because you did not give them the equipment.  </p><p style=""color:grey"">The text is GREY because you earned ZERO points. </p><p  style=""color:green""> Choosing to give the kids the equipment would have made you lose points. The box around the text is GREEN because you chose the better option.</p>","","0","instructions","","","","","","","","","","",""
"learning-instructions","21","192066","0.0-8.0-0.0-0.13","4491","1","13","Male","approach_avoid_spark_v1","""event"",""trial"",""time""
""fullscreenenter"",""1"",""2661""
","
","
","""event"",""trial"",""time""
""fullscreenenter"",""1"",""2661""
","
","","","","","","1317","<p> You will have 3 seconds to make each choice. Try to respond before time runs out! </p><p> You will lose 5 points each time you do not make a response. </p>","","0","instructions","","","","","","","","","","",""
"learning-instructions","22","198851","0.0-8.0-0.0-0.14","4491","1","13","Male","approach_avoid_spark_v1","""event"",""trial"",""time""
""fullscreenenter"",""1"",""2661""
","
","
","""event"",""trial"",""time""
""fullscreenenter"",""1"",""2661""
","
","","","","","","1371","<p> This is just a practice round, but in the real game, your bonus payment will depend on your total number of points.","","0","instructions","","","","","","","","","","",""
"learning-instructions","23","205906","0.0-8.0-0.0-0.15","4491","1","13","Male","approach_avoid_spark_v1","""event"",""trial"",""time""
""fullscreenenter"",""1"",""2661""
","
","
","""event"",""trial"",""time""
""fullscreenenter"",""1"",""2661""
","
","","","","","","1276","<p> Remember, you can give them the equipment by pressing 1 and choose not to give it to them by pressing 0. </p><br><div class=""choice-instructions-grid""> <div class=""choice-option""><img src=""images/approach.png"" class=""choice-option-img"" stage=""instructions"" position=""0"" ><div class=""choice-option-text""> Press ""1."" </div></div><div class=""choice-option""><img src=""images/avoid.png"" class=""choice-option-img"" stage=""instructions"" position=""1"" ><div class=""choice-option-text""> Press ""0."" </div></div>","","0","instructions","","","","","","","","","","",""
"html-button-response","24","207099","0.0-8.0-1.0","4491","1","13","Male","approach_avoid_spark_v1","""event"",""trial"",""time""
""fullscreenenter"",""1"",""2661""
","
","
","""event"",""trial"",""time""
""fullscreenenter"",""1"",""2661""
","
","","","","","","1088","<p> Ready to practice? </p>","0","","","","","","","","","","","","",""
"html-keyboard-response","25","207722","0.0-8.0-2.0-0.0","4491","1","13","Male","approach_avoid_spark_v1","""event"",""trial"",""time""
""fullscreenenter"",""1"",""2661""
","
","
","""event"",""trial"",""time""
""fullscreenenter"",""1"",""2661""
","
","","","","","","null","<div style=""font-size:60px;"">+</div>","null","","fixation","","","","","","","","","","",""
"aa-learning-trial","26","210743","0.0-8.0-2.0-1.0","4491","1","13","Male","approach_avoid_spark_v1","""event"",""trial"",""time""
""fullscreenenter"",""1"",""2661""
","
","
","""event"",""trial"",""time""
""fullscreenenter"",""1"",""2661""
","
","","","","","","null","images/ball4.png","","","learning","-9","-5","","null","practice","practice","practice","-1","","",""
"html-keyboard-response","27","211252","0.0-8.0-2.0-0.1","4491","1","13","Male","approach_avoid_spark_v1","""event"",""trial"",""time""
""fullscreenenter"",""1"",""2661""
","
","
","""event"",""trial"",""time""
""fullscreenenter"",""1"",""2661""
","
","","","","","","null","<div style=""font-size:60px;"">+</div>","null","","fixation","","","","","","","","","","",""
"aa-learning-trial","28","214269","0.0-8.0-2.0-1.1","4491","1","13","Male","approach_avoid_spark_v1","""event"",""trial"",""time""
""fullscreenenter"",""1"",""2661""
","
","
","""event"",""trial"",""time""
""fullscreenenter"",""1"",""2661""
","
","","","","","","2554","images/racket3.png","","","learning","2","0","0","0","practice","practice","practice","-1","","",""
"html-keyboard-response","29","214780","0.0-8.0-2.0-0.2","4491","1","13","Male","approach_avoid_spark_v1","""event"",""trial"",""time""
""fullscreenenter"",""1"",""2661""
","
","
","""event"",""trial"",""time""
""fullscreenenter"",""1"",""2661""
","
","","","","","","null","<div style=""font-size:60px;"">+</div>","null","","fixation","","","","","","","","","","",""
"aa-learning-trial","30","217795","0.0-8.0-2.0-1.2","4491","1","13","Male","approach_avoid_spark_v1","""event"",""trial"",""time""
""fullscreenenter"",""1"",""2661""
","
","
","""event"",""trial"",""time""
""fullscreenenter"",""1"",""2661""
","
","","","","","","2187","images/racket2.png","","","learning","-6","0","0","0","practice","practice","practice","-1","","",""
"html-keyboard-response","31","218306","0.0-8.0-2.0-0.3","4491","1","13","Male","approach_avoid_spark_v1","""event"",""trial"",""time""
""fullscreenenter"",""1"",""2661""
","
","
","""event"",""trial"",""time""
""fullscreenenter"",""1"",""2661""
","
","","","","","","null","<div style=""font-size:60px;"">+</div>","null","","fixation","","","","","","","","","","",""
"aa-learning-trial","32","221316","0.0-8.0-2.0-1.3","4491","1","13","Male","approach_avoid_spark_v1","""event"",""trial"",""time""
""fullscreenenter"",""1"",""2661""
","
","
","""event"",""trial"",""time""
""fullscreenenter"",""1"",""2661""
","
","","","","","","1404","images/racket1.png","","","learning","4","0","0","0","practice","practice","practice","-1","","",""
"html-keyboard-response","33","221826","0.0-8.0-2.0-0.4","4491","1","13","Male","approach_avoid_spark_v1","""event"",""trial"",""time""
""fullscreenenter"",""1"",""2661""
","
","
","""event"",""trial"",""time""
""fullscreenenter"",""1"",""2661""
","
","","","","","","null","<div style=""font-size:60px;"">+</div>","null","","fixation","","","","","","","","","","",""
"aa-learning-trial","34","224832","0.0-8.0-2.0-1.4","4491","1","13","Male","approach_avoid_spark_v1","""event"",""trial"",""time""
""fullscreenenter"",""1"",""2661""
","
","
","""event"",""trial"",""time""
""fullscreenenter"",""1"",""2661""
","
","","","","","","1060","images/racket3.png","","","learning","-2","0","0","0","practice","practice","practice","-1","","",""
"html-keyboard-response","35","225341","0.0-8.0-2.0-0.5","4491","1","13","Male","approach_avoid_spark_v1","""event"",""trial"",""time""
""fullscreenenter"",""1"",""2661""
","
","
","""event"",""trial"",""time""
""fullscreenenter"",""1"",""2661""
","
","","","","","","null","<div style=""font-size:60px;"">+</div>","null","","fixation","","","","","","","","","","",""
"aa-learning-trial","36","228355","0.0-8.0-2.0-1.5","4491","1","13","Male","approach_avoid_spark_v1","""event"",""trial"",""time""
""fullscreenenter"",""1"",""2661""
","
","
","""event"",""trial"",""time""
""fullscreenenter"",""1"",""2661""
","
","","","","","","737","images/ball3.png","","","learning","4","4","1","1","practice","practice","practice","-1","","",""
"html-keyboard-response","37","228865","0.0-8.0-2.0-0.6","4491","1","13","Male","approach_avoid_spark_v1","""event"",""trial"",""time""
""fullscreenenter"",""1"",""2661""
","
","
","""event"",""trial"",""time""
""fullscreenenter"",""1"",""2661""
","
","","","","","","null","<div style=""font-size:60px;"">+</div>","null","","fixation","","","","","","","","","","",""
"aa-learning-trial","38","231880","0.0-8.0-2.0-1.6","4491","1","13","Male","approach_avoid_spark_v1","""event"",""trial"",""time""
""fullscreenenter"",""1"",""2661""
","
","
","""event"",""trial"",""time""
""fullscreenenter"",""1"",""2661""
","
","","","","","","509","images/ball4.png","","","learning","-1","-1","1","1","practice","practice","practice","-1","","",""
"html-keyboard-response","39","232394","0.0-8.0-2.0-0.7","4491","1","13","Male","approach_avoid_spark_v1","""event"",""trial"",""time""
""fullscreenenter"",""1"",""2661""
","
","
","""event"",""trial"",""time""
""fullscreenenter"",""1"",""2661""
","
","","","","","","null","<div style=""font-size:60px;"">+</div>","null","","fixation","","","","","","","","","","",""
"aa-learning-trial","40","235401","0.0-8.0-2.0-1.7","4491","1","13","Male","approach_avoid_spark_v1","""event"",""trial"",""time""
""fullscreenenter"",""1"",""2661""
","
","
","""event"",""trial"",""time""
""fullscreenenter"",""1"",""2661""
","
","","","","","","1451","images/racket1.png","","","learning","4","0","0","0","practice","practice","practice","-1","","",""
"html-keyboard-response","41","235906","0.0-8.0-2.0-0.8","4491","1","13","Male","approach_avoid_spark_v1","""event"",""trial"",""time""
""fullscreenenter"",""1"",""2661""
","
","
","""event"",""trial"",""time""
""fullscreenenter"",""1"",""2661""
","
","","","","","","null","<div style=""font-size:60px;"">+</div>","null","","fixation","","","","","","","","","","",""
"aa-learning-trial","42","238914","0.0-8.0-2.0-1.8","4491","1","13","Male","approach_avoid_spark_v1","""event"",""trial"",""time""
""fullscreenenter"",""1"",""2661""
","
","
","""event"",""trial"",""time""
""fullscreenenter"",""1"",""2661""
","
","","","","","","405","images/ball1.png","","","learning","4","4","1","1","practice","practice","practice","-1","","",""
"html-keyboard-response","43","239417","0.0-8.0-2.0-0.9","4491","1","13","Male","approach_avoid_spark_v1","""event"",""trial"",""time""
""fullscreenenter"",""1"",""2661""
","
","
","""event"",""trial"",""time""
""fullscreenenter"",""1"",""2661""
","
","","","","","","null","<div style=""font-size:60px;"">+</div>","null","","fixation","","","","","","","","","","",""
"aa-learning-trial","44","242426","0.0-8.0-2.0-1.9","4491","1","13","Male","approach_avoid_spark_v1","""event"",""trial"",""time""
""fullscreenenter"",""1"",""2661""
","
","
","""event"",""trial"",""time""
""fullscreenenter"",""1"",""2661""
","
","","","","","","1325","images/racket1.png","","","learning","7","7","1","1","practice","practice","practice","-1","","",""
"html-keyboard-response","45","242929","0.0-8.0-2.0-0.10","4491","1","13","Male","approach_avoid_spark_v1","""event"",""trial"",""time""
""fullscreenenter"",""1"",""2661""
","
","
","""event"",""trial"",""time""
""fullscreenenter"",""1"",""2661""
","
","","","","","","null","<div style=""font-size:60px;"">+</div>","null","","fixation","","","","","","","","","","",""
"aa-learning-trial","46","245937","0.0-8.0-2.0-1.10","4491","1","13","Male","approach_avoid_spark_v1","""event"",""trial"",""time""
""fullscreenenter"",""1"",""2661""
","
","
","""event"",""trial"",""time""
""fullscreenenter"",""1"",""2661""
","
","","","","","","1174","images/racket2.png","","","learning","4","4","1","1","practice","practice","practice","-1","","",""
"html-keyboard-response","47","246441","0.0-8.0-2.0-0.11","4491","1","13","Male","approach_avoid_spark_v1","""event"",""trial"",""time""
""fullscreenenter"",""1"",""2661""
","
","
","""event"",""trial"",""time""
""fullscreenenter"",""1"",""2661""
","
","","","","","","null","<div style=""font-size:60px;"">+</div>","null","","fixation","","","","","","","","","","",""
"aa-learning-trial","48","249449","0.0-8.0-2.0-1.11","4491","1","13","Male","approach_avoid_spark_v1","""event"",""trial"",""time""
""fullscreenenter"",""1"",""2661""
","
","
","""event"",""trial"",""time""
""fullscreenenter"",""1"",""2661""
","
","","","","","","1254","images/ball3.png","","","learning","7","7","1","1","practice","practice","practice","-1","","",""
"html-button-response","49","251531","0.0-8.0-3.0","4491","1","13","Male","approach_avoid_spark_v1","""event"",""trial"",""time""
""fullscreenenter"",""1"",""2661""
","
","
","""event"",""trial"",""time""
""fullscreenenter"",""1"",""2661""
","
","","","","","","2079","<p> You earned 20 points in the practice round! </p>","0","","break","","","","","","","","","","",""
"learning-instructions","50","258555","0.0-8.0-4.0-0.0","4491","1","13","Male","approach_avoid_spark_v1","""event"",""trial"",""time""
""fullscreenenter"",""1"",""2661""
","
","
","""event"",""trial"",""time""
""fullscreenenter"",""1"",""2661""
","
","","","","","","1043","<p> It's almost time to start the real game. </p><p> Before you start, we're going to ask you a few questions about how the game works. </p>","","0","instructions","","","","","","","","","","",""
"preload","51","260106","0.0-8.0-5.0","4491","1","13","Male","approach_avoid_spark_v1","""event"",""trial"",""time""
""fullscreenenter"",""1"",""2661""
","
","
","""event"",""trial"",""time""
""fullscreenenter"",""1"",""2661""
","
","true","false","[]","[]","[]","","","","","","","","","","","","","","","",""
"comp-q","52","265852","0.0-8.0-6.0-0.0","4491","1","13","Male","approach_avoid_spark_v1","""event"",""trial"",""time""
""fullscreenenter"",""1"",""2661""
","
","
","""event"",""trial"",""time""
""fullscreenenter"",""1"",""2661""
","
","","","","","","748","<p> <b> True or False? </b> </p><p> If you see a number in GREY, that means you earned that many points. </p>","","1","comp_question","","","","","","","","","true","",""
"comp-q","53","275083","0.0-8.0-6.0-1.0","4491","1","13","Male","approach_avoid_spark_v1","""event"",""trial"",""time""
""fullscreenenter"",""1"",""2661""
","
","
","""event"",""trial"",""time""
""fullscreenenter"",""1"",""2661""
","
","","","","","","871","<p><b> That's right! </b> If you see a grey number, it means you earned ZERO points. <br> The grey numbers show the points you WOULD HAVE earned if you had made the other choice. </p>","","0","comp_answer","","","","","","","","","","",""
"comp-q","54","280459","0.0-8.0-7.0-0.0","4491","1","13","Male","approach_avoid_spark_v1","""event"",""trial"",""time""
""fullscreenenter"",""1"",""2661""
","
","
","""event"",""trial"",""time""
""fullscreenenter"",""1"",""2661""
","
","","","","","","677","<p> <b> True or False? </b> </p><p> You will have as much time as you want to make each choice. </p>","","1","comp_question","","","","","","","","","true","",""
"comp-q","55","286947","0.0-8.0-7.0-1.0","4491","1","13","Male","approach_avoid_spark_v1","""event"",""trial"",""time""
""fullscreenenter"",""1"",""2661""
","
","
","""event"",""trial"",""time""
""fullscreenenter"",""1"",""2661""
","
","","","","","","2445","<p> <b> That's right! </b> You will only have 3 seconds to make each choice. </p>","","0","comp_answer","","","","","","","","","","",""
"comp-q","56","291971","0.0-8.0-8.0-0.0","4491","1","13","Male","approach_avoid_spark_v1","""event"",""trial"",""time""
""fullscreenenter"",""1"",""2661""
","
","
","""event"",""trial"",""time""
""fullscreenenter"",""1"",""2661""
","
","","","","","","359","<p> <b> True or False? </b> </p><p> You should use the '1' and '0' keys to make your choices. </p>","","0","comp_question","","","","","","","","","true","",""
"comp-q","57","297579","0.0-8.0-8.0-1.0","4491","1","13","Male","approach_avoid_spark_v1","""event"",""trial"",""time""
""fullscreenenter"",""1"",""2661""
","
","
","""event"",""trial"",""time""
""fullscreenenter"",""1"",""2661""
","
","","","","","","996","<p> <b> That's right! </b> You should use the '1' and '0' keys to make each choice. </p>","","0","comp_answer","","","","","","","","","","",""
"learning-instructions","58","305323","0.0-8.0-9.0-0.0","4491","1","13","Male","approach_avoid_spark_v1","""event"",""trial"",""time""
""fullscreenenter"",""1"",""2661""
","
","
","""event"",""trial"",""time""
""fullscreenenter"",""1"",""2661""
","
","","","","","","1470","<p> It's now time to start the real game. </p>Do your best, because the points you earn in the next rounds will influence your bonus payment. </p>","","0","instructions","","","","","","","","","","",""
"preload","59","305473","0.0-9.0-0.0","4491","1","13","Male","approach_avoid_spark_v1","""event"",""trial"",""time""
""fullscreenenter"",""1"",""2661""
","
","
","""event"",""trial"",""time""
""fullscreenenter"",""1"",""2661""
","
","true","false","[]","[]","[]","","","","","","","","","","","","","","","",""
"learning-instructions","60","312539","0.0-9.0-1.0-0.0","4491","1","13","Male","approach_avoid_spark_v1","""event"",""trial"",""time""
""fullscreenenter"",""1"",""2661""
","
","
","""event"",""trial"",""time""
""fullscreenenter"",""1"",""2661""
","
","","","","","","2627","<p> Your goal in this round is to decorate your friend's new house with furniture. </p></div>","","0","instructions","","","","","","","","","","",""
"learning-instructions","61","323282","0.0-9.0-1.0-0.1","4491","1","13","Male","approach_avoid_spark_v1","""event"",""trial"",""time""
""fullscreenenter"",""1"",""2661""
","
","
","""event"",""trial"",""time""
""fullscreenenter"",""1"",""2661""
","
","","","","","","1231","<p> Your friend likes some pieces of furniture but not others.  </p><p> On each turn, you will see a piece of furniture.   </p><p> You need to decide whether to put it in your friend's house or not.  </p>","","0","instructions","","","","","","","","","","",""
"learning-instructions","62","343763","0.0-9.0-1.0-0.2","4491","1","13","Male","approach_avoid_spark_v1","""event"",""trial"",""time""
""fullscreenenter"",""1"",""2661""
","
","
","""event"",""trial"",""time""
""fullscreenenter"",""1"",""2661""
","
","","","","","","14991","<p> You can put the furniture in her house by pressing 1 and deliver it elsewhere by pressing 0. </p><br><div class=""choice-instructions-grid""> <div class=""choice-option""><img src=""images/approach.png"" class=""choice-option-img"" stage=""instructions"" position=""0"" ><div class=""choice-option-text""> Press ""1."" </div></div><div class=""choice-option""><img src=""images/avoid.png"" class=""choice-option-img"" stage=""instructions"" position=""1"" ><div class=""choice-option-text""> Press ""0."" </div></div>","","0","instructions","","","","","","","","","","",""
"learning-instructions","63","352730","0.0-9.0-1.0-0.3","4491","1","13","Male","approach_avoid_spark_v1","""event"",""trial"",""time""
""fullscreenenter"",""1"",""2661""
","
","
","""event"",""trial"",""time""
""fullscreenenter"",""1"",""2661""
","
","","","","","","409","<p> If you decorate your friend's house with furniture she likes, she will be happy! </p><p> But if you give her furniture that she does not like, she will be annoyed. </p>","","0","instructions","","","","","","","","","","",""
"learning-instructions","64","365179","0.0-9.0-1.0-0.4","4491","1","13","Male","approach_avoid_spark_v1","""event"",""trial"",""time""
""fullscreenenter"",""1"",""2661""
","
","
","""event"",""trial"",""time""
""fullscreenenter"",""1"",""2661""
","
","","","","","","587","<p> You will earn points based on how you made your friend feel. </p><p> If you made her happy, you will WIN anywhere from 1 - 9 points, </p><p> but if you made her annoyed you will LOSE anywhere from 1 - 9 points. </p>","","0","instructions","","","","","","","","","","",""
"learning-instructions","65","373402","0.0-9.0-1.0-0.5","4491","1","13","Male","approach_avoid_spark_v1","""event"",""trial"",""time""
""fullscreenenter"",""1"",""2661""
","
","
","""event"",""trial"",""time""
""fullscreenenter"",""1"",""2661""
","
","","","","","","901","<p> You will see how many points you won or lost in the center of the screen. </p><p> Here is what you would see if you won 5 points: </p><p style=""color:green;font-size:50px;font-weight:bolder"">5</p>","","0","instructions","","","","","","","","","","",""
"learning-instructions","66","377274","0.0-9.0-1.0-0.6","4491","1","13","Male","approach_avoid_spark_v1","""event"",""trial"",""time""
""fullscreenenter"",""1"",""2661""
","
","
","""event"",""trial"",""time""
""fullscreenenter"",""1"",""2661""
","
","","","","","","573","<p> And here is what you would see if you lost 3 points: </p><p style=""color:red;font-size:50px;font-weight:bolder"">-3</p>","","0","instructions","","","","","","","","","","",""
"learning-instructions","67","401298","0.0-9.0-1.0-0.7","4491","1","13","Male","approach_avoid_spark_v1","""event"",""trial"",""time""
""fullscreenenter"",""1"",""2661""
","
","
","""event"",""trial"",""time""
""fullscreenenter"",""1"",""2661""
","
","","","","","","7047","<p> Some pieces of furniture will make her feel very happy or very annoyed. </p><p> These pieces of furniture will make you win or lose LOTS of points. </p><p> Other pieces of furniture will only make her feel a little happy or a little annoyed. </p><p> These pieces of furniture will make you win or lose small amounts of points. </p>","","0","instructions","","","","","","","","","","",""
"learning-instructions","68","414594","0.0-9.0-1.0-0.8","4491","1","13","Male","approach_avoid_spark_v1","""event"",""trial"",""time""
""fullscreenenter"",""1"",""2661""
","
","
","""event"",""trial"",""time""
""fullscreenenter"",""1"",""2661""
","
","","","","","","753","<p> If you choose to deliver a piece of furniture elsewhere, you will not win or lose any points. </p><p>  However, in the center of the screen, you will see the number of points you WOULD HAVE won or lost if you had given the furniture to your friend. </p>","","0","instructions","","","","","","","","","","",""
"learning-instructions","69","427314","0.0-9.0-1.0-0.9","4491","1","13","Male","approach_avoid_spark_v1","""event"",""trial"",""time""
""fullscreenenter"",""1"",""2661""
","
","
","""event"",""trial"",""time""
""fullscreenenter"",""1"",""2661""
","
","","","","","","1573","<p> Here is what you might see if you did not give a piece of furniture to your friend that would have made her happy: </p><p style=""color:grey; font-size:50px; display: inline-block; border-spacing: 15px; border-width:3px; border-style:solid; border-color:red"">  &nbsp; 6 &nbsp; </p><p> Remember, in this case, you would not win or lose ANY points because you did not give her the furniture.  </p>","","0","instructions","","","","","","","","","","",""
"learning-instructions","70","435843","0.0-9.0-1.0-0.10","4491","1","13","Male","approach_avoid_spark_v1","""event"",""trial"",""time""
""fullscreenenter"",""1"",""2661""
","
","
","""event"",""trial"",""time""
""fullscreenenter"",""1"",""2661""
","
","","","","","","1161","<p> Try to make the best choice for each piece of furniture because </p><p> at the end of the game, you will earn bonus money based on how many points you earned. </p>","","0","instructions","","","","","","","","","","",""
"learning-instructions","71","444818","0.0-9.0-1.0-0.11","4491","1","13","Male","approach_avoid_spark_v1","""event"",""trial"",""time""
""fullscreenenter"",""1"",""2661""
","
","
","""event"",""trial"",""time""
""fullscreenenter"",""1"",""2661""
","
","","","","","","787","<p> You will have 3 seconds to make each choice. Try to respond before time runs out! </p><p> You will lose 5 points each time you do not make a response. </p>","","0","instructions","","","","","","","","","","",""
"html-keyboard-response","72","445437","0.0-9.0-2.0-0.0","4491","1","13","Male","approach_avoid_spark_v1","""event"",""trial"",""time""
""fullscreenenter"",""1"",""2661""
","
","
","""event"",""trial"",""time""
""fullscreenenter"",""1"",""2661""
","
","","","","","","null","<div style=""font-size:60px;"">+</div>","null","","fixation","","","","","","","","","","",""
"aa-learning-trial","73","448443","0.0-9.0-2.0-1.0","4491","1","13","Male","approach_avoid_spark_v1","""event"",""trial"",""time""
""fullscreenenter"",""1"",""2661""
","
","
","""event"",""trial"",""time""
""fullscreenenter"",""1"",""2661""
","
","","","","","","1705","images/sofa6.png","","","learning","5","5","1","1","sofa","furniture","1","0","","good","[4]"
"html-keyboard-response","74","448946","0.0-9.0-2.0-0.1","4491","1","13","Male","approach_avoid_spark_v1","""event"",""trial"",""time""
""fullscreenenter"",""1"",""2661""
","
","
","""event"",""trial"",""time""
""fullscreenenter"",""1"",""2661""
","
","","","","","","null","<div style=""font-size:60px;"">+</div>","null","","fixation","","","","","","","","","","",""
"aa-learning-trial","75","451959","0.0-9.0-2.0-1.1","4491","1","13","Male","approach_avoid_spark_v1","""event"",""trial"",""time""
""fullscreenenter"",""1"",""2661""
","
","
","""event"",""trial"",""time""
""fullscreenenter"",""1"",""2661""
","
","","","","","","1477","images/table2.png","","","learning","2","0","0","0","table","furniture","1","0","","neutral","0"
"html-keyboard-response","76","452467","0.0-9.0-2.0-0.2","4491","1","13","Male","approach_avoid_spark_v1","""event"",""trial"",""time""
""fullscreenenter"",""1"",""2661""
","
","
","""event"",""trial"",""time""
""fullscreenenter"",""1"",""2661""
","
","","","","","","null","<div style=""font-size:60px;"">+</div>","null","","fixation","","","","","","","","","","",""
"aa-learning-trial","77","455473","0.0-9.0-2.0-1.2","4491","1","13","Male","approach_avoid_spark_v1","""event"",""trial"",""time""
""fullscreenenter"",""1"",""2661""
","
","
","""event"",""trial"",""time""
""fullscreenenter"",""1"",""2661""
","
","","","","","","1427","images/table1.png","","","learning","4","4","1","1","table","furniture","1","0","","neutral","0"
"html-keyboard-response","78","455982","0.0-9.0-2.0-0.3","4491","1","13","Male","approach_avoid_spark_v1","""event"",""trial"",""time""
""fullscreenenter"",""1"",""2661""
","
","
","""event"",""trial"",""time""
""fullscreenenter"",""1"",""2661""
","
","","","","","","null","<div style=""font-size:60px;"">+</div>","null","","fixation","","","","","","","","","","",""
"aa-learning-trial","79","458985","0.0-9.0-2.0-1.3","4491","1","13","Male","approach_avoid_spark_v1","""event"",""trial"",""time""
""fullscreenenter"",""1"",""2661""
","
","
","""event"",""trial"",""time""
""fullscreenenter"",""1"",""2661""
","
","","","","","","1017","images/sofa5.png","","","learning","4","4","1","1","sofa","furniture","1","0","","good","[4]"
"html-keyboard-response","80","459503","0.0-9.0-2.0-0.4","4491","1","13","Male","approach_avoid_spark_v1","""event"",""trial"",""time""
""fullscreenenter"",""1"",""2661""
","
","
","""event"",""trial"",""time""
""fullscreenenter"",""1"",""2661""
","
","","","","","","null","<div style=""font-size:60px;"">+</div>","null","","fixation","","","","","","","","","","",""
"aa-learning-trial","81","462513","0.0-9.0-2.0-1.4","4491","1","13","Male","approach_avoid_spark_v1","""event"",""trial"",""time""
""fullscreenenter"",""1"",""2661""
","
","
","""event"",""trial"",""time""
""fullscreenenter"",""1"",""2661""
","
","","","","","","1759","images/sofa6.png","","","learning","4","0","0","0","sofa","furniture","1","0","","good","[4]"
"html-keyboard-response","82","463022","0.0-9.0-2.0-0.5","4491","1","13","Male","approach_avoid_spark_v1","""event"",""trial"",""time""
""fullscreenenter"",""1"",""2661""
","
","
","""event"",""trial"",""time""
""fullscreenenter"",""1"",""2661""
","
","","","","","","null","<div style=""font-size:60px;"">+</div>","null","","fixation","","","","","","","","","","",""
"aa-learning-trial","83","466035","0.0-9.0-2.0-1.5","4491","1","13","Male","approach_avoid_spark_v1","""event"",""trial"",""time""
""fullscreenenter"",""1"",""2661""
","
","
","""event"",""trial"",""time""
""fullscreenenter"",""1"",""2661""
","
","","","","","","624","images/sofa3.png","","","learning","3","3","1","1","sofa","furniture","1","0","","good","[4]"
"html-keyboard-response","84","466548","0.0-9.0-2.0-0.6","4491","1","13","Male","approach_avoid_spark_v1","""event"",""trial"",""time""
""fullscreenenter"",""1"",""2661""
","
","
","""event"",""trial"",""time""
""fullscreenenter"",""1"",""2661""
","
","","","","","","null","<div style=""font-size:60px;"">+</div>","null","","fixation","","","","","","","","","","",""
"aa-learning-trial","85","469555","0.0-9.0-2.0-1.6","4491","1","13","Male","approach_avoid_spark_v1","""event"",""trial"",""time""
""fullscreenenter"",""1"",""2661""
","
","
","""event"",""trial"",""time""
""fullscreenenter"",""1"",""2661""
","
","","","","","","1570","images/table2.png","","","learning","2","2","1","1","table","furniture","1","0","","neutral","0"
"html-keyboard-response","86","470066","0.0-9.0-2.0-0.7","4491","1","13","Male","approach_avoid_spark_v1","""event"",""trial"",""time""
""fullscreenenter"",""1"",""2661""
","
","
","""event"",""trial"",""time""
""fullscreenenter"",""1"",""2661""
","
","","","","","","null","<div style=""font-size:60px;"">+</div>","null","","fixation","","","","","","","","","","",""
"aa-learning-trial","87","473074","0.0-9.0-2.0-1.7","4491","1","13","Male","approach_avoid_spark_v1","""event"",""trial"",""time""
""fullscreenenter"",""1"",""2661""
","
","
","""event"",""trial"",""time""
""fullscreenenter"",""1"",""2661""
","
","","","","","","1148","images/bed4.png","","","learning","-3","-3","1","1","bed","furniture","1","0","","bad","[-3]"
"html-keyboard-response","88","473584","0.0-9.0-2.0-0.8","4491","1","13","Male","approach_avoid_spark_v1","""event"",""trial"",""time""
""fullscreenenter"",""1"",""2661""
","
","
","""event"",""trial"",""time""
""fullscreenenter"",""1"",""2661""
","
","","","","","","null","<div style=""font-size:60px;"">+</div>","null","","fixation","","","","","","","","","","",""
"aa-learning-trial","89","476593","0.0-9.0-2.0-1.8","4491","1","13","Male","approach_avoid_spark_v1","""event"",""trial"",""time""
""fullscreenenter"",""1"",""2661""
","
","
","""event"",""trial"",""time""
""fullscreenenter"",""1"",""2661""
","
","","","","","","1375","images/bed6.png","","","learning","-2","-2","1","1","bed","furniture","1","0","","bad","[-3]"
"html-keyboard-response","90","477097","0.0-9.0-2.0-0.9","4491","1","13","Male","approach_avoid_spark_v1","""event"",""trial"",""time""
""fullscreenenter"",""1"",""2661""
","
","
","""event"",""trial"",""time""
""fullscreenenter"",""1"",""2661""
","
","","","","","","null","<div style=""font-size:60px;"">+</div>","null","","fixation","","","","","","","","","","",""
"aa-learning-trial","91","480106","0.0-9.0-2.0-1.9","4491","1","13","Male","approach_avoid_spark_v1","""event"",""trial"",""time""
""fullscreenenter"",""1"",""2661""
","
","
","""event"",""trial"",""time""
""fullscreenenter"",""1"",""2661""
","
","","","","","","1245","images/table6.png","","","learning","[-1]","-1","1","1","table","furniture","1","0","","neutral","0"
"html-keyboard-response","92","480609","0.0-9.0-2.0-0.10","4491","1","13","Male","approach_avoid_spark_v1","""event"",""trial"",""time""
""fullscreenenter"",""1"",""2661""
","
","
","""event"",""trial"",""time""
""fullscreenenter"",""1"",""2661""
","
","","","","","","null","<div style=""font-size:60px;"">+</div>","null","","fixation","","","","","","","","","","",""
"aa-learning-trial","93","483617","0.0-9.0-2.0-1.10","4491","1","13","Male","approach_avoid_spark_v1","""event"",""trial"",""time""
""fullscreenenter"",""1"",""2661""
","
","
","""event"",""trial"",""time""
""fullscreenenter"",""1"",""2661""
","
","","","","","","1342","images/bed4.png","","","learning","-1","-1","1","1","bed","furniture","1","0","","bad","[-3]"
"html-keyboard-response","94","484121","0.0-9.0-2.0-0.11","4491","1","13","Male","approach_avoid_spark_v1","""event"",""trial"",""time""
""fullscreenenter"",""1"",""2661""
","
","
","""event"",""trial"",""time""
""fullscreenenter"",""1"",""2661""
","
","","","","","","null","<div style=""font-size:60px;"">+</div>","null","","fixation","","","","","","","","","","",""
"aa-learning-trial","95","487129","0.0-9.0-2.0-1.11","4491","1","13","Male","approach_avoid_spark_v1","""event"",""trial"",""time""
""fullscreenenter"",""1"",""2661""
","
","
","""event"",""trial"",""time""
""fullscreenenter"",""1"",""2661""
","
","","","","","","437","images/bed6.png","","","learning","-6","0","0","0","bed","furniture","1","0","","bad","[-3]"
"html-keyboard-response","96","487633","0.0-9.0-2.0-0.12","4491","1","13","Male","approach_avoid_spark_v1","""event"",""trial"",""time""
""fullscreenenter"",""1"",""2661""
","
","
","""event"",""trial"",""time""
""fullscreenenter"",""1"",""2661""
","
","","","","","","null","<div style=""font-size:60px;"">+</div>","null","","fixation","","","","","","","","","","",""
"aa-learning-trial","97","490641","0.0-9.0-2.0-1.12","4491","1","13","Male","approach_avoid_spark_v1","""event"",""trial"",""time""
""fullscreenenter"",""1"",""2661""
","
","
","""event"",""trial"",""time""
""fullscreenenter"",""1"",""2661""
","
","","","","","","1062","images/sofa3.png","","","learning","1","1","1","1","sofa","furniture","1","0","","good","[4]"
"html-keyboard-response","98","491146","0.0-9.0-2.0-0.13","4491","1","13","Male","approach_avoid_spark_v1","""event"",""trial"",""time""
""fullscreenenter"",""1"",""2661""
","
","
","""event"",""trial"",""time""
""fullscreenenter"",""1"",""2661""
","
","","","","","","null","<div style=""font-size:60px;"">+</div>","null","","fixation","","","","","","","","","","",""
"aa-learning-trial","99","494154","0.0-9.0-2.0-1.13","4491","1","13","Male","approach_avoid_spark_v1","""event"",""trial"",""time""
""fullscreenenter"",""1"",""2661""
","
","
","""event"",""trial"",""time""
""fullscreenenter"",""1"",""2661""
","
","","","","","","757","images/table1.png","","","learning","[1]","1","1","1","table","furniture","1","0","","neutral","0"
"html-keyboard-response","100","494659","0.0-9.0-2.0-0.14","4491","1","13","Male","approach_avoid_spark_v1","""event"",""trial"",""time""
""fullscreenenter"",""1"",""2661""
","
","
","""event"",""trial"",""time""
""fullscreenenter"",""1"",""2661""
","
","","","","","","null","<div style=""font-size:60px;"">+</div>","null","","fixation","","","","","","","","","","",""
"aa-learning-trial","101","497666","0.0-9.0-2.0-1.14","4491","1","13","Male","approach_avoid_spark_v1","""event"",""trial"",""time""
""fullscreenenter"",""1"",""2661""
","
","
","""event"",""trial"",""time""
""fullscreenenter"",""1"",""2661""
","
","","","","","","1252","images/bed1.png","","","learning","2","2","1","1","bed","furniture","1","0","","bad","[-3]"
"html-keyboard-response","102","498170","0.0-9.0-2.0-0.15","4491","1","13","Male","approach_avoid_spark_v1","""event"",""trial"",""time""
""fullscreenenter"",""1"",""2661""
","
","
","""event"",""trial"",""time""
""fullscreenenter"",""1"",""2661""
","
","","","","","","null","<div style=""font-size:60px;"">+</div>","null","","fixation","","","","","","","","","","",""
"aa-learning-trial","103","501178","0.0-9.0-2.0-1.15","4491","1","13","Male","approach_avoid_spark_v1","""event"",""trial"",""time""
""fullscreenenter"",""1"",""2661""
","
","
","""event"",""trial"",""time""
""fullscreenenter"",""1"",""2661""
","
","","","","","","1086","images/sofa3.png","","","learning","4","4","1","1","sofa","furniture","1","0","","good","[4]"
"html-keyboard-response","104","501682","0.0-9.0-2.0-0.16","4491","1","13","Male","approach_avoid_spark_v1","""event"",""trial"",""time""
""fullscreenenter"",""1"",""2661""
","
","
","""event"",""trial"",""time""
""fullscreenenter"",""1"",""2661""
","
","","","","","","null","<div style=""font-size:60px;"">+</div>","null","","fixation","","","","","","","","","","",""
"aa-learning-trial","105","504690","0.0-9.0-2.0-1.16","4491","1","13","Male","approach_avoid_spark_v1","""event"",""trial"",""time""
""fullscreenenter"",""1"",""2661""
","
","
","""event"",""trial"",""time""
""fullscreenenter"",""1"",""2661""
","
","","","","","","829","images/bed6.png","","","learning","-3","0","0","0","bed","furniture","1","0","","bad","[-3]"
"html-keyboard-response","106","505195","0.0-9.0-2.0-0.17","4491","1","13","Male","approach_avoid_spark_v1","""event"",""trial"",""time""
""fullscreenenter"",""1"",""2661""
","
","
","""event"",""trial"",""time""
""fullscreenenter"",""1"",""2661""
","
","","","","","","null","<div style=""font-size:60px;"">+</div>","null","","fixation","","","","","","","","","","",""
"aa-learning-trial","107","508202","0.0-9.0-2.0-1.17","4491","1","13","Male","approach_avoid_spark_v1","""event"",""trial"",""time""
""fullscreenenter"",""1"",""2661""
","
","
","""event"",""trial"",""time""
""fullscreenenter"",""1"",""2661""
","
","","","","","","885","images/bed4.png","","","learning","-1","0","0","0","bed","furniture","1","0","","bad","[-3]"
"html-keyboard-response","108","508707","0.0-9.0-2.0-0.18","4491","1","13","Male","approach_avoid_spark_v1","""event"",""trial"",""time""
""fullscreenenter"",""1"",""2661""
","
","
","""event"",""trial"",""time""
""fullscreenenter"",""1"",""2661""
","
","","","","","","null","<div style=""font-size:60px;"">+</div>","null","","fixation","","","","","","","","","","",""
"aa-learning-trial","109","511715","0.0-9.0-2.0-1.18","4491","1","13","Male","approach_avoid_spark_v1","""event"",""trial"",""time""
""fullscreenenter"",""1"",""2661""
","
","
","""event"",""trial"",""time""
""fullscreenenter"",""1"",""2661""
","
","","","","","","1773","images/table6.png","","","learning","-1","-1","1","1","table","furniture","1","0","","neutral","0"
"html-keyboard-response","110","512218","0.0-9.0-2.0-0.19","4491","1","13","Male","approach_avoid_spark_v1","""event"",""trial"",""time""
""fullscreenenter"",""1"",""2661""
","
","
","""event"",""trial"",""time""
""fullscreenenter"",""1"",""2661""
","
","","","","","","null","<div style=""font-size:60px;"">+</div>","null","","fixation","","","","","","","","","","",""
"aa-learning-trial","111","515226","0.0-9.0-2.0-1.19","4491","1","13","Male","approach_avoid_spark_v1","""event"",""trial"",""time""
""fullscreenenter"",""1"",""2661""
","
","
","""event"",""trial"",""time""
""fullscreenenter"",""1"",""2661""
","
","","","","","","734","images/table1.png","","","learning","-1","-1","1","1","table","furniture","1","0","","neutral","0"
"html-keyboard-response","112","515730","0.0-9.0-2.0-0.20","4491","1","13","Male","approach_avoid_spark_v1","""event"",""trial"",""time""
""fullscreenenter"",""1"",""2661""
","
","
","""event"",""trial"",""time""
""fullscreenenter"",""1"",""2661""
","
","","","","","","null","<div style=""font-size:60px;"">+</div>","null","","fixation","","","","","","","","","","",""
"aa-learning-trial","113","518738","0.0-9.0-2.0-1.20","4491","1","13","Male","approach_avoid_spark_v1","""event"",""trial"",""time""
""fullscreenenter"",""1"",""2661""
","
","
","""event"",""trial"",""time""
""fullscreenenter"",""1"",""2661""
","
","","","","","","902","images/sofa5.png","","","learning","4","0","0","0","sofa","furniture","1","0","","good","[4]"
"html-keyboard-response","114","519242","0.0-9.0-2.0-0.21","4491","1","13","Male","approach_avoid_spark_v1","""event"",""trial"",""time""
""fullscreenenter"",""1"",""2661""
","
","
","""event"",""trial"",""time""
""fullscreenenter"",""1"",""2661""
","
","","","","","","null","<div style=""font-size:60px;"">+</div>","null","","fixation","","","","","","","","","","",""
"aa-learning-trial","115","522250","0.0-9.0-2.0-1.21","4491","1","13","Male","approach_avoid_spark_v1","""event"",""trial"",""time""
""fullscreenenter"",""1"",""2661""
","
","
","""event"",""trial"",""time""
""fullscreenenter"",""1"",""2661""
","
","","","","","","798","images/bed4.png","","","learning","-4","-4","1","1","bed","furniture","1","0","","bad","[-3]"
"html-keyboard-response","116","522755","0.0-9.0-2.0-0.22","4491","1","13","Male","approach_avoid_spark_v1","""event"",""trial"",""time""
""fullscreenenter"",""1"",""2661""
","
","
","""event"",""trial"",""time""
""fullscreenenter"",""1"",""2661""
","
","","","","","","null","<div style=""font-size:60px;"">+</div>","null","","fixation","","","","","","","","","","",""
"aa-learning-trial","117","525762","0.0-9.0-2.0-1.22","4491","1","13","Male","approach_avoid_spark_v1","""event"",""trial"",""time""
""fullscreenenter"",""1"",""2661""
","
","
","""event"",""trial"",""time""
""fullscreenenter"",""1"",""2661""
","
","","","","","","820","images/sofa6.png","","","learning","5","5","1","1","sofa","furniture","1","0","","good","[4]"
"html-keyboard-response","118","526266","0.0-9.0-2.0-0.23","4491","1","13","Male","approach_avoid_spark_v1","""event"",""trial"",""time""
""fullscreenenter"",""1"",""2661""
","
","
","""event"",""trial"",""time""
""fullscreenenter"",""1"",""2661""
","
","","","","","","null","<div style=""font-size:60px;"">+</div>","null","","fixation","","","","","","","","","","",""
"aa-learning-trial","119","529275","0.0-9.0-2.0-1.23","4491","1","13","Male","approach_avoid_spark_v1","""event"",""trial"",""time""
""fullscreenenter"",""1"",""2661""
","
","
","""event"",""trial"",""time""
""fullscreenenter"",""1"",""2661""
","
","","","","","","1349","images/bed8.png","","","learning","-2","-2","1","1","bed","furniture","1","0","","bad","[-3]"
"html-keyboard-response","120","529778","0.0-9.0-2.0-0.24","4491","1","13","Male","approach_avoid_spark_v1","""event"",""trial"",""time""
""fullscreenenter"",""1"",""2661""
","
","
","""event"",""trial"",""time""
""fullscreenenter"",""1"",""2661""
","
","","","","","","null","<div style=""font-size:60px;"">+</div>","null","","fixation","","","","","","","","","","",""
"aa-learning-trial","121","532786","0.0-9.0-2.0-1.24","4491","1","13","Male","approach_avoid_spark_v1","""event"",""trial"",""time""
""fullscreenenter"",""1"",""2661""
","
","
","""event"",""trial"",""time""
""fullscreenenter"",""1"",""2661""
","
","","","","","","1334","images/sofa3.png","","","learning","3","3","1","1","sofa","furniture","1","0","","good","[4]"
"html-keyboard-response","122","533290","0.0-9.0-2.0-0.25","4491","1","13","Male","approach_avoid_spark_v1","""event"",""trial"",""time""
""fullscreenenter"",""1"",""2661""
","
","
","""event"",""trial"",""time""
""fullscreenenter"",""1"",""2661""
","
","","","","","","null","<div style=""font-size:60px;"">+</div>","null","","fixation","","","","","","","","","","",""
"aa-learning-trial","123","536298","0.0-9.0-2.0-1.25","4491","1","13","Male","approach_avoid_spark_v1","""event"",""trial"",""time""
""fullscreenenter"",""1"",""2661""
","
","
","""event"",""trial"",""time""
""fullscreenenter"",""1"",""2661""
","
","","","","","","783","images/table6.png","","","learning","3","3","1","1","table","furniture","1","0","","neutral","0"
"html-keyboard-response","124","536802","0.0-9.0-2.0-0.26","4491","1","13","Male","approach_avoid_spark_v1","""event"",""trial"",""time""
""fullscreenenter"",""1"",""2661""
","
","
","""event"",""trial"",""time""
""fullscreenenter"",""1"",""2661""
","
","","","","","","null","<div style=""font-size:60px;"">+</div>","null","","fixation","","","","","","","","","","",""
"aa-learning-trial","125","539810","0.0-9.0-2.0-1.26","4491","1","13","Male","approach_avoid_spark_v1","""event"",""trial"",""time""
""fullscreenenter"",""1"",""2661""
","
","
","""event"",""trial"",""time""
""fullscreenenter"",""1"",""2661""
","
","","","","","","1253","images/table2.png","","","learning","1","1","1","1","table","furniture","1","0","","neutral","0"
"html-keyboard-response","126","540314","0.0-9.0-2.0-0.27","4491","1","13","Male","approach_avoid_spark_v1","""event"",""trial"",""time""
""fullscreenenter"",""1"",""2661""
","
","
","""event"",""trial"",""time""
""fullscreenenter"",""1"",""2661""
","
","","","","","","null","<div style=""font-size:60px;"">+</div>","null","","fixation","","","","","","","","","","",""
"aa-learning-trial","127","543323","0.0-9.0-2.0-1.27","4491","1","13","Male","approach_avoid_spark_v1","""event"",""trial"",""time""
""fullscreenenter"",""1"",""2661""
","
","
","""event"",""trial"",""time""
""fullscreenenter"",""1"",""2661""
","
","","","","","","854","images/table1.png","","","learning","-2","-2","1","1","table","furniture","1","0","","neutral","0"
"html-keyboard-response","128","543826","0.0-9.0-2.0-0.28","4491","1","13","Male","approach_avoid_spark_v1","""event"",""trial"",""time""
""fullscreenenter"",""1"",""2661""
","
","
","""event"",""trial"",""time""
""fullscreenenter"",""1"",""2661""
","
","","","","","","null","<div style=""font-size:60px;"">+</div>","null","","fixation","","","","","","","","","","",""
"aa-learning-trial","129","546834","0.0-9.0-2.0-1.28","4491","1","13","Male","approach_avoid_spark_v1","""event"",""trial"",""time""
""fullscreenenter"",""1"",""2661""
","
","
","""event"",""trial"",""time""
""fullscreenenter"",""1"",""2661""
","
","","","","","","598","images/table1.png","","","learning","1","1","1","1","table","furniture","1","0","","neutral","0"
"html-keyboard-response","130","547338","0.0-9.0-2.0-0.29","4491","1","13","Male","approach_avoid_spark_v1","""event"",""trial"",""time""
""fullscreenenter"",""1"",""2661""
","
","
","""event"",""trial"",""time""
""fullscreenenter"",""1"",""2661""
","
","","","","","","null","<div style=""font-size:60px;"">+</div>","null","","fixation","","","","","","","","","","",""
"aa-learning-trial","131","550346","0.0-9.0-2.0-1.29","4491","1","13","Male","approach_avoid_spark_v1","""event"",""trial"",""time""
""fullscreenenter"",""1"",""2661""
","
","
","""event"",""trial"",""time""
""fullscreenenter"",""1"",""2661""
","
","","","","","","1382","images/bed6.png","","","learning","-2","0","0","0","bed","furniture","1","0","","bad","[-3]"
"html-keyboard-response","132","550850","0.0-9.0-2.0-0.30","4491","1","13","Male","approach_avoid_spark_v1","""event"",""trial"",""time""
""fullscreenenter"",""1"",""2661""
","
","
","""event"",""trial"",""time""
""fullscreenenter"",""1"",""2661""
","
","","","","","","null","<div style=""font-size:60px;"">+</div>","null","","fixation","","","","","","","","","","",""
"aa-learning-trial","133","553857","0.0-9.0-2.0-1.30","4491","1","13","Male","approach_avoid_spark_v1","""event"",""trial"",""time""
""fullscreenenter"",""1"",""2661""
","
","
","""event"",""trial"",""time""
""fullscreenenter"",""1"",""2661""
","
","","","","","","966","images/sofa6.png","","","learning","4","4","1","1","sofa","furniture","1","0","","good","[4]"
"html-keyboard-response","134","554362","0.0-9.0-2.0-0.31","4491","1","13","Male","approach_avoid_spark_v1","""event"",""trial"",""time""
""fullscreenenter"",""1"",""2661""
","
","
","""event"",""trial"",""time""
""fullscreenenter"",""1"",""2661""
","
","","","","","","null","<div style=""font-size:60px;"">+</div>","null","","fixation","","","","","","","","","","",""
"aa-learning-trial","135","557369","0.0-9.0-2.0-1.31","4491","1","13","Male","approach_avoid_spark_v1","""event"",""trial"",""time""
""fullscreenenter"",""1"",""2661""
","
","
","""event"",""trial"",""time""
""fullscreenenter"",""1"",""2661""
","
","","","","","","2038","images/sofa7.png","","","learning","4","4","1","1","sofa","furniture","1","0","","good","[4]"
"html-keyboard-response","136","557873","0.0-9.0-2.0-0.32","4491","1","13","Male","approach_avoid_spark_v1","""event"",""trial"",""time""
""fullscreenenter"",""1"",""2661""
","
","
","""event"",""trial"",""time""
""fullscreenenter"",""1"",""2661""
","
","","","","","","null","<div style=""font-size:60px;"">+</div>","null","","fixation","","","","","","","","","","",""
"aa-learning-trial","137","560881","0.0-9.0-2.0-1.32","4491","1","13","Male","approach_avoid_spark_v1","""event"",""trial"",""time""
""fullscreenenter"",""1"",""2661""
","
","
","""event"",""trial"",""time""
""fullscreenenter"",""1"",""2661""
","
","","","","","","1670","images/sofa6.png","","","learning","2","2","1","1","sofa","furniture","1","0","","good","[4]"
"html-keyboard-response","138","561386","0.0-9.0-2.0-0.33","4491","1","13","Male","approach_avoid_spark_v1","""event"",""trial"",""time""
""fullscreenenter"",""1"",""2661""
","
","
","""event"",""trial"",""time""
""fullscreenenter"",""1"",""2661""
","
","","","","","","null","<div style=""font-size:60px;"">+</div>","null","","fixation","","","","","","","","","","",""
"aa-learning-trial","139","564394","0.0-9.0-2.0-1.33","4491","1","13","Male","approach_avoid_spark_v1","""event"",""trial"",""time""
""fullscreenenter"",""1"",""2661""
","
","
","""event"",""trial"",""time""
""fullscreenenter"",""1"",""2661""
","
","","","","","","997","images/bed6.png","","","learning","-5","0","0","0","bed","furniture","1","0","","bad","[-3]"
"html-keyboard-response","140","564898","0.0-9.0-2.0-0.34","4491","1","13","Male","approach_avoid_spark_v1","""event"",""trial"",""time""
""fullscreenenter"",""1"",""2661""
","
","
","""event"",""trial"",""time""
""fullscreenenter"",""1"",""2661""
","
","","","","","","null","<div style=""font-size:60px;"">+</div>","null","","fixation","","","","","","","","","","",""
"aa-learning-trial","141","567906","0.0-9.0-2.0-1.34","4491","1","13","Male","approach_avoid_spark_v1","""event"",""trial"",""time""
""fullscreenenter"",""1"",""2661""
","
","
","""event"",""trial"",""time""
""fullscreenenter"",""1"",""2661""
","
","","","","","","1173","images/table7.png","","","learning","-1","-1","1","1","table","furniture","1","0","","neutral","0"
"html-keyboard-response","142","568409","0.0-9.0-2.0-0.35","4491","1","13","Male","approach_avoid_spark_v1","""event"",""trial"",""time""
""fullscreenenter"",""1"",""2661""
","
","
","""event"",""trial"",""time""
""fullscreenenter"",""1"",""2661""
","
","","","","","","null","<div style=""font-size:60px;"">+</div>","null","","fixation","","","","","","","","","","",""
"aa-learning-trial","143","571417","0.0-9.0-2.0-1.35","4491","1","13","Male","approach_avoid_spark_v1","""event"",""trial"",""time""
""fullscreenenter"",""1"",""2661""
","
","
","""event"",""trial"",""time""
""fullscreenenter"",""1"",""2661""
","
","","","","","","927","images/sofa5.png","","","learning","3","3","1","1","sofa","furniture","1","0","","good","[4]"
"html-keyboard-response","144","571921","0.0-9.0-2.0-0.36","4491","1","13","Male","approach_avoid_spark_v1","""event"",""trial"",""time""
""fullscreenenter"",""1"",""2661""
","
","
","""event"",""trial"",""time""
""fullscreenenter"",""1"",""2661""
","
","","","","","","null","<div style=""font-size:60px;"">+</div>","null","","fixation","","","","","","","","","","",""
"aa-learning-trial","145","574929","0.0-9.0-2.0-1.36","4491","1","13","Male","approach_avoid_spark_v1","""event"",""trial"",""time""
""fullscreenenter"",""1"",""2661""
","
","
","""event"",""trial"",""time""
""fullscreenenter"",""1"",""2661""
","
","","","","","","1342","images/table2.png","","","learning","-1","0","0","0","table","furniture","1","0","","neutral","0"
"html-keyboard-response","146","575433","0.0-9.0-2.0-0.37","4491","1","13","Male","approach_avoid_spark_v1","""event"",""trial"",""time""
""fullscreenenter"",""1"",""2661""
","
","
","""event"",""trial"",""time""
""fullscreenenter"",""1"",""2661""
","
","","","","","","null","<div style=""font-size:60px;"">+</div>","null","","fixation","","","","","","","","","","",""
"aa-learning-trial","147","578437","0.0-9.0-2.0-1.37","4491","1","13","Male","approach_avoid_spark_v1","""event"",""trial"",""time""
""fullscreenenter"",""1"",""2661""
","
","
","""event"",""trial"",""time""
""fullscreenenter"",""1"",""2661""
","
","","","","","","2415","images/table4.png","","","learning","1","1","1","1","table","furniture","1","0","","neutral","0"
"html-keyboard-response","148","578945","0.0-9.0-2.0-0.38","4491","1","13","Male","approach_avoid_spark_v1","""event"",""trial"",""time""
""fullscreenenter"",""1"",""2661""
","
","
","""event"",""trial"",""time""
""fullscreenenter"",""1"",""2661""
","
","","","","","","null","<div style=""font-size:60px;"">+</div>","null","","fixation","","","","","","","","","","",""
"aa-learning-trial","149","581953","0.0-9.0-2.0-1.38","4491","1","13","Male","approach_avoid_spark_v1","""event"",""trial"",""time""
""fullscreenenter"",""1"",""2661""
","
","
","""event"",""trial"",""time""
""fullscreenenter"",""1"",""2661""
","
","","","","","","1229","images/bed1.png","","","learning","-1","-1","1","1","bed","furniture","1","0","","bad","[-3]"
"html-keyboard-response","150","582457","0.0-9.0-2.0-0.39","4491","1","13","Male","approach_avoid_spark_v1","""event"",""trial"",""time""
""fullscreenenter"",""1"",""2661""
","
","
","""event"",""trial"",""time""
""fullscreenenter"",""1"",""2661""
","
","","","","","","null","<div style=""font-size:60px;"">+</div>","null","","fixation","","","","","","","","","","",""
"aa-learning-trial","151","585465","0.0-9.0-2.0-1.39","4491","1","13","Male","approach_avoid_spark_v1","""event"",""trial"",""time""
""fullscreenenter"",""1"",""2661""
","
","
","""event"",""trial"",""time""
""fullscreenenter"",""1"",""2661""
","
","","","","","","1837","images/sofa4.png","","","learning","4","0","0","0","sofa","furniture","1","0","","good","[4]"
"html-keyboard-response","152","585969","0.0-9.0-2.0-0.40","4491","1","13","Male","approach_avoid_spark_v1","""event"",""trial"",""time""
""fullscreenenter"",""1"",""2661""
","
","
","""event"",""trial"",""time""
""fullscreenenter"",""1"",""2661""
","
","","","","","","null","<div style=""font-size:60px;"">+</div>","null","","fixation","","","","","","","","","","",""
"aa-learning-trial","153","588978","0.0-9.0-2.0-1.40","4491","1","13","Male","approach_avoid_spark_v1","""event"",""trial"",""time""
""fullscreenenter"",""1"",""2661""
","
","
","""event"",""trial"",""time""
""fullscreenenter"",""1"",""2661""
","
","","","","","","558","images/sofa3.png","","","learning","4","4","1","1","sofa","furniture","1","0","","good","[4]"
"html-keyboard-response","154","589481","0.0-9.0-2.0-0.41","4491","1","13","Male","approach_avoid_spark_v1","""event"",""trial"",""time""
""fullscreenenter"",""1"",""2661""
","
","
","""event"",""trial"",""time""
""fullscreenenter"",""1"",""2661""
","
","","","","","","null","<div style=""font-size:60px;"">+</div>","null","","fixation","","","","","","","","","","",""
"aa-learning-trial","155","592489","0.0-9.0-2.0-1.41","4491","1","13","Male","approach_avoid_spark_v1","""event"",""trial"",""time""
""fullscreenenter"",""1"",""2661""
","
","
","""event"",""trial"",""time""
""fullscreenenter"",""1"",""2661""
","
","","","","","","1782","images/bed7.png","","","learning","-3","-3","1","1","bed","furniture","1","0","","bad","[-3]"
"html-keyboard-response","156","592993","0.0-9.0-2.0-0.42","4491","1","13","Male","approach_avoid_spark_v1","""event"",""trial"",""time""
""fullscreenenter"",""1"",""2661""
","
","
","""event"",""trial"",""time""
""fullscreenenter"",""1"",""2661""
","
","","","","","","null","<div style=""font-size:60px;"">+</div>","null","","fixation","","","","","","","","","","",""
"aa-learning-trial","157","596002","0.0-9.0-2.0-1.42","4491","1","13","Male","approach_avoid_spark_v1","""event"",""trial"",""time""
""fullscreenenter"",""1"",""2661""
","
","
","""event"",""trial"",""time""
""fullscreenenter"",""1"",""2661""
","
","","","","","","1373","images/bed4.png","","","learning","-5","0","0","0","bed","furniture","1","0","","bad","[-3]"
"html-keyboard-response","158","596506","0.0-9.0-2.0-0.43","4491","1","13","Male","approach_avoid_spark_v1","""event"",""trial"",""time""
""fullscreenenter"",""1"",""2661""
","
","
","""event"",""trial"",""time""
""fullscreenenter"",""1"",""2661""
","
","","","","","","null","<div style=""font-size:60px;"">+</div>","null","","fixation","","","","","","","","","","",""
"aa-learning-trial","159","599513","0.0-9.0-2.0-1.43","4491","1","13","Male","approach_avoid_spark_v1","""event"",""trial"",""time""
""fullscreenenter"",""1"",""2661""
","
","
","""event"",""trial"",""time""
""fullscreenenter"",""1"",""2661""
","
","","","","","","1357","images/sofa6.png","","","learning","6","0","0","0","sofa","furniture","1","0","","good","[4]"
"html-keyboard-response","160","600017","0.0-9.0-2.0-0.44","4491","1","13","Male","approach_avoid_spark_v1","""event"",""trial"",""time""
""fullscreenenter"",""1"",""2661""
","
","
","""event"",""trial"",""time""
""fullscreenenter"",""1"",""2661""
","
","","","","","","null","<div style=""font-size:60px;"">+</div>","null","","fixation","","","","","","","","","","",""
"aa-learning-trial","161","603025","0.0-9.0-2.0-1.44","4491","1","13","Male","approach_avoid_spark_v1","""event"",""trial"",""time""
""fullscreenenter"",""1"",""2661""
","
","
","""event"",""trial"",""time""
""fullscreenenter"",""1"",""2661""
","
","","","","","","566","images/bed1.png","","","learning","-2","-2","1","1","bed","furniture","1","0","","bad","[-3]"
"html-keyboard-response","162","603529","0.0-9.0-2.0-0.45","4491","1","13","Male","approach_avoid_spark_v1","""event"",""trial"",""time""
""fullscreenenter"",""1"",""2661""
","
","
","""event"",""trial"",""time""
""fullscreenenter"",""1"",""2661""
","
","","","","","","null","<div style=""font-size:60px;"">+</div>","null","","fixation","","","","","","","","","","",""
"aa-learning-trial","163","606537","0.0-9.0-2.0-1.45","4491","1","13","Male","approach_avoid_spark_v1","""event"",""trial"",""time""
""fullscreenenter"",""1"",""2661""
","
","
","""event"",""trial"",""time""
""fullscreenenter"",""1"",""2661""
","
","","","","","","566","images/table1.png","","","learning","1","1","1","1","table","furniture","1","0","","neutral","0"
"html-keyboard-response","164","607041","0.0-9.0-2.0-0.46","4491","1","13","Male","approach_avoid_spark_v1","""event"",""trial"",""time""
""fullscreenenter"",""1"",""2661""
","
","
","""event"",""trial"",""time""
""fullscreenenter"",""1"",""2661""
","
","","","","","","null","<div style=""font-size:60px;"">+</div>","null","","fixation","","","","","","","","","","",""
"aa-learning-trial","165","610049","0.0-9.0-2.0-1.46","4491","1","13","Male","approach_avoid_spark_v1","""event"",""trial"",""time""
""fullscreenenter"",""1"",""2661""
","
","
","""event"",""trial"",""time""
""fullscreenenter"",""1"",""2661""
","
","","","","","","1118","images/bed6.png","","","learning","-4","0","0","0","bed","furniture","1","0","","bad","[-3]"
"html-keyboard-response","166","610553","0.0-9.0-2.0-0.47","4491","1","13","Male","approach_avoid_spark_v1","""event"",""trial"",""time""
""fullscreenenter"",""1"",""2661""
","
","
","""event"",""trial"",""time""
""fullscreenenter"",""1"",""2661""
","
","","","","","","null","<div style=""font-size:60px;"">+</div>","null","","fixation","","","","","","","","","","",""
"aa-learning-trial","167","613561","0.0-9.0-2.0-1.47","4491","1","13","Male","approach_avoid_spark_v1","""event"",""trial"",""time""
""fullscreenenter"",""1"",""2661""
","
","
","""event"",""trial"",""time""
""fullscreenenter"",""1"",""2661""
","
","","","","","","549","images/bed4.png","","","learning","-3","-3","1","1","bed","furniture","1","0","","bad","[-3]"
"html-keyboard-response","168","614065","0.0-9.0-2.0-0.48","4491","1","13","Male","approach_avoid_spark_v1","""event"",""trial"",""time""
""fullscreenenter"",""1"",""2661""
","
","
","""event"",""trial"",""time""
""fullscreenenter"",""1"",""2661""
","
","","","","","","null","<div style=""font-size:60px;"">+</div>","null","","fixation","","","","","","","","","","",""
"aa-learning-trial","169","617073","0.0-9.0-2.0-1.48","4491","1","13","Male","approach_avoid_spark_v1","""event"",""trial"",""time""
""fullscreenenter"",""1"",""2661""
","
","
","""event"",""trial"",""time""
""fullscreenenter"",""1"",""2661""
","
","","","","","","846","images/table2.png","","","learning","[-1]","-1","1","1","table","furniture","1","0","","neutral","0"
"html-keyboard-response","170","617578","0.0-9.0-2.0-0.49","4491","1","13","Male","approach_avoid_spark_v1","""event"",""trial"",""time""
""fullscreenenter"",""1"",""2661""
","
","
","""event"",""trial"",""time""
""fullscreenenter"",""1"",""2661""
","
","","","","","","null","<div style=""font-size:60px;"">+</div>","null","","fixation","","","","","","","","","","",""
"aa-learning-trial","171","620585","0.0-9.0-2.0-1.49","4491","1","13","Male","approach_avoid_spark_v1","""event"",""trial"",""time""
""fullscreenenter"",""1"",""2661""
","
","
","""event"",""trial"",""time""
""fullscreenenter"",""1"",""2661""
","
","","","","","","677","images/sofa3.png","","","learning","3","3","1","1","sofa","furniture","1","0","","good","[4]"
"html-keyboard-response","172","621089","0.0-9.0-2.0-0.50","4491","1","13","Male","approach_avoid_spark_v1","""event"",""trial"",""time""
""fullscreenenter"",""1"",""2661""
","
","
","""event"",""trial"",""time""
""fullscreenenter"",""1"",""2661""
","
","","","","","","null","<div style=""font-size:60px;"">+</div>","null","","fixation","","","","","","","","","","",""
"aa-learning-trial","173","624098","0.0-9.0-2.0-1.50","4491","1","13","Male","approach_avoid_spark_v1","""event"",""trial"",""time""
""fullscreenenter"",""1"",""2661""
","
","
","""event"",""trial"",""time""
""fullscreenenter"",""1"",""2661""
","
","","","","","","1551","images/table2.png","","","learning","1","1","1","1","table","furniture","1","0","","neutral","0"
"html-button-response","174","627954","0.0-9.0-3.0","4491","1","13","Male","approach_avoid_spark_v1","""event"",""trial"",""time""
""fullscreenenter"",""1"",""2661""
","
","
","""event"",""trial"",""time""
""fullscreenenter"",""1"",""2661""
","
","","","","","","3855","<p> You have completed the round! <p> In this round, you earned 34 points! </p>","0","","break","","","","","","","","","","",""
"html-button-response","175","628666","0.0-10.0","4491","1","13","Male","approach_avoid_spark_v1","""event"",""trial"",""time""
""fullscreenenter"",""1"",""2661""
","
","
","""event"",""trial"",""time""
""fullscreenenter"",""1"",""2661""
","
","","","","","","711","<p> Now it's time to play another round. </p>","0","","transition_screen","","","","","","","","","","",""
"preload","176","628809","0.0-11.0-0.0","4491","1","13","Male","approach_avoid_spark_v1","""event"",""trial"",""time""
""fullscreenenter"",""1"",""2661""
","
","
","""event"",""trial"",""time""
""fullscreenenter"",""1"",""2661""
","
","true","false","[]","[]","[]","","","","","","","","","","","","","","","",""
"learning-instructions","177","722387","0.0-11.0-1.0-0.0","4491","1","13","Male","approach_avoid_spark_v1","""event"",""trial"",""time""
""fullscreenenter"",""1"",""2661""
","
","
","""event"",""trial"",""time""
""fullscreenenter"",""1"",""2661""
","
","","","","","","88205","<p> Your goal in this round is to take your friend for rides in different vehicles. </p></div>","","0","instructions","","","","","","","","","","",""
"learning-instructions","178","733923","0.0-11.0-1.0-0.1","4491","1","13","Male","approach_avoid_spark_v1","""event"",""trial"",""time""
""fullscreenenter"",""1"",""2661""
","
","
","""event"",""trial"",""time""
""fullscreenenter"",""1"",""2661""
","
","","","","","","1710","<p> Your friend enjoys riding in some vehicles but not in others.  </p><p> On each turn, you will see a vehicle.   </p><p> You need to decide whether to take your friend for a ride or not.  </p>","","0","instructions","","","","","","","","","","",""
"learning-instructions","179","775435","0.0-11.0-1.0-0.2","4491","1","13","Male","approach_avoid_spark_v1","""event"",""trial"",""time""
""fullscreenenter"",""1"",""2661""
","
","
","""event"",""trial"",""time""
""fullscreenenter"",""1"",""2661""
","
","","","","","","35111","<p> You can take your friend for a ride in the vehicle by pressing 1 and skip the ride by pressing 0. </p><br><div class=""choice-instructions-grid""> <div class=""choice-option""><img src=""images/approach.png"" class=""choice-option-img"" stage=""instructions"" position=""0"" ><div class=""choice-option-text""> Press ""1."" </div></div><div class=""choice-option""><img src=""images/avoid.png"" class=""choice-option-img"" stage=""instructions"" position=""1"" ><div class=""choice-option-text""> Press ""0."" </div></div>","","0","instructions","","","","","","","","","","",""
"learning-instructions","180","785749","0.0-11.0-1.0-0.3","4491","1","13","Male","approach_avoid_spark_v1","""event"",""trial"",""time""
""fullscreenenter"",""1"",""2661""
","
","
","""event"",""trial"",""time""
""fullscreenenter"",""1"",""2661""
","
","","","","","","1639","<p> If you take them for a ride in a vehicle they like, they will be thrilled! </p><p> But if you take them for a ride in a vehicle they do not like, they will be upset. </p>","","0","instructions","","","","","","","","","","",""
"learning-instructions","181","798027","0.0-11.0-1.0-0.4","4491","1","13","Male","approach_avoid_spark_v1","""event"",""trial"",""time""
""fullscreenenter"",""1"",""2661""
","
","
","""event"",""trial"",""time""
""fullscreenenter"",""1"",""2661""
","
","","","","","","679","<p> You will earn points based on how you made your friend feel. </p><p> If you made him thrilled, you will WIN anywhere from 1 - 9 points, </p><p> but if you made him upset, you will LOSE anywhere from 1 - 9 points. </p>","","0","instructions","","","","","","","","","","",""
"learning-instructions","182","809548","0.0-11.0-1.0-0.5","4491","1","13","Male","approach_avoid_spark_v1","""event"",""trial"",""time""
""fullscreenenter"",""1"",""2661""
","
","
","""event"",""trial"",""time""
""fullscreenenter"",""1"",""2661""
","
","","","","","","4860","<p> You will see how many points you won or lost in the center of the screen. </p><p> Here is what you would see if you won 5 points: </p><p style=""color:green;font-size:50px;font-weight:bolder"">5</p>","","0","instructions","","","","","","","","","","",""
"learning-instructions","183","813643","0.0-11.0-1.0-0.6","4491","1","13","Male","approach_avoid_spark_v1","""event"",""trial"",""time""
""fullscreenenter"",""1"",""2661""
","
","
","""event"",""trial"",""time""
""fullscreenenter"",""1"",""2661""
","
","","","","","","1255","<p> And here is what you would see if you lost 3 points: </p><p style=""color:red;font-size:50px;font-weight:bolder"">-3</p>","","0","instructions","","","","","","","","","","",""
"learning-instructions","184","829291","0.0-11.0-1.0-0.7","4491","1","13","Male","approach_avoid_spark_v1","""event"",""trial"",""time""
""fullscreenenter"",""1"",""2661""
","
","
","""event"",""trial"",""time""
""fullscreenenter"",""1"",""2661""
","
","","","","","","513","<p> Some vehicles will make your friend REALLY thrilled or upset. </p><p> These vehicles will make you win or lose LOTS of points. </p><p> Other vehicles will only make him feel a little thrilled or upset. </p><p> These vehicles will make you win or lose small amounts of points. </p>","","0","instructions","","","","","","","","","","",""
"learning-instructions","185","841730","0.0-11.0-1.0-0.8","4491","1","13","Male","approach_avoid_spark_v1","""event"",""trial"",""time""
""fullscreenenter"",""1"",""2661""
","
","
","""event"",""trial"",""time""
""fullscreenenter"",""1"",""2661""
","
","","","","","","753","<p> If you choose to skip the ride, you will not win or lose any points. </p><p>  However, in the center of the screen, you will see the number of points you WOULD HAVE won or lost if you had taken your friend for a ride. </p>","","0","instructions","","","","","","","","","","",""
"learning-instructions","186","862042","0.0-11.0-1.0-0.9","4491","1","13","Male","approach_avoid_spark_v1","""event"",""trial"",""time""
""fullscreenenter"",""1"",""2661""
","
","
","""event"",""trial"",""time""
""fullscreenenter"",""1"",""2661""
","
","","","","","","9645","<p> Here is what you might see if you did not take your friend for a ride but he would have enjoyed it: </p><p style=""color:grey; font-size:50px; display: inline-block; border-spacing: 15px; border-width:3px; border-style:solid; border-color:red"">  &nbsp; 6 &nbsp; </p><p> Remember, in this case, you would not win or lose ANY points because you skipped the ride.  </p>","","0","instructions","","","","","","","","","","",""
"learning-instructions","187","872011","0.0-11.0-1.0-0.10","4491","1","13","Male","approach_avoid_spark_v1","""event"",""trial"",""time""
""fullscreenenter"",""1"",""2661""
","
","
","""event"",""trial"",""time""
""fullscreenenter"",""1"",""2661""
","
","","","","","","2494","<p> Try to make the best choice for each vehicle because </p><p> at the end of the game, you will earn bonus money based on how many points you earned. </p>","","0","instructions","","","","","","","","","","",""
"learning-instructions","188","881410","0.0-11.0-1.0-0.11","4491","1","13","Male","approach_avoid_spark_v1","""event"",""trial"",""time""
""fullscreenenter"",""1"",""2661""
","
","
","""event"",""trial"",""time""
""fullscreenenter"",""1"",""2661""
","
","","","","","","1213","<p> You will have 3 seconds to make each choice. Try to respond before time runs out! </p><p> You will lose 5 points each time you do not make a response. </p>","","0","instructions","","","","","","","","","","",""
"html-keyboard-response","189","882030","0.0-11.0-2.0-0.0","4491","1","13","Male","approach_avoid_spark_v1","""event"",""trial"",""time""
""fullscreenenter"",""1"",""2661""
","
","
","""event"",""trial"",""time""
""fullscreenenter"",""1"",""2661""
","
","","","","","","null","<div style=""font-size:60px;"">+</div>","null","","fixation","","","","","","","","","","",""
"aa-learning-trial","190","885044","0.0-11.0-2.0-1.0","4491","1","13","Male","approach_avoid_spark_v1","""event"",""trial"",""time""
""fullscreenenter"",""1"",""2661""
","
","
","""event"",""trial"",""time""
""fullscreenenter"",""1"",""2661""
","
","","","","","","1464","images/train2.png","","","learning","1","1","1","1","train","vehicles","2","1","","bad","[-4]"
"html-keyboard-response","191","885558","0.0-11.0-2.0-0.1","4491","1","13","Male","approach_avoid_spark_v1","""event"",""trial"",""time""
""fullscreenenter"",""1"",""2661""
""fullscreenexit"",""192"",""888218""
","
","
","""event"",""trial"",""time""
""fullscreenenter"",""1"",""2661""
","""event"",""trial"",""time""
""fullscreenexit"",""192"",""888218""
","","","","","","null","<div style=""font-size:60px;"">+</div>","null","","fixation","","","","","","","","","","",""
"aa-learning-trial","192","888574","0.0-11.0-2.0-1.1","4491","1","13","Male","approach_avoid_spark_v1","""event"",""trial"",""time""
""fullscreenenter"",""1"",""2661""
""fullscreenexit"",""192"",""888218""
","
","
","""event"",""trial"",""time""
""fullscreenenter"",""1"",""2661""
","""event"",""trial"",""time""
""fullscreenexit"",""192"",""888218""
","","","","","","729","images/train6.png","","","learning","5","5","1","1","train","vehicles","2","1","","bad","[-4]"
"html-keyboard-response","193","889087","0.0-11.0-2.0-0.2","4491","1","13","Male","approach_avoid_spark_v1","""event"",""trial"",""time""
""fullscreenenter"",""1"",""2661""
""fullscreenexit"",""192"",""888218""
","
","
","""event"",""trial"",""time""
""fullscreenenter"",""1"",""2661""
","""event"",""trial"",""time""
""fullscreenexit"",""192"",""888218""
","","","","","","null","<div style=""font-size:60px;"">+</div>","null","","fixation","","","","","","","","","","",""
"aa-learning-trial","194","892103","0.0-11.0-2.0-1.2","4491","1","13","Male","approach_avoid_spark_v1","""event"",""trial"",""time""
""fullscreenenter"",""1"",""2661""
""fullscreenexit"",""192"",""888218""
","
","
","""event"",""trial"",""time""
""fullscreenenter"",""1"",""2661""
","""event"",""trial"",""time""
""fullscreenexit"",""192"",""888218""
","","","","","","1408","images/boat6.png","","","learning","6","6","1","1","boat","vehicles","2","1","","good","[4]"
"html-keyboard-response","195","892615","0.0-11.0-2.0-0.3","4491","1","13","Male","approach_avoid_spark_v1","""event"",""trial"",""time""
""fullscreenenter"",""1"",""2661""
""fullscreenexit"",""192"",""888218""
","
","
","""event"",""trial"",""time""
""fullscreenenter"",""1"",""2661""
","""event"",""trial"",""time""
""fullscreenexit"",""192"",""888218""
","","","","","","null","<div style=""font-size:60px;"">+</div>","null","","fixation","","","","","","","","","","",""
"aa-learning-trial","196","895638","0.0-11.0-2.0-1.3","4491","1","13","Male","approach_avoid_spark_v1","""event"",""trial"",""time""
""fullscreenenter"",""1"",""2661""
""fullscreenexit"",""192"",""888218""
","
","
","""event"",""trial"",""time""
""fullscreenenter"",""1"",""2661""
","""event"",""trial"",""time""
""fullscreenexit"",""192"",""888218""
","","","","","","1503","images/boat7.png","","","learning","-7","0","0","0","boat","vehicles","2","1","","good","[4]"
"html-keyboard-response","197","896151","0.0-11.0-2.0-0.4","4491","1","13","Male","approach_avoid_spark_v1","""event"",""trial"",""time""
""fullscreenenter"",""1"",""2661""
""fullscreenexit"",""192"",""888218""
","
","
","""event"",""trial"",""time""
""fullscreenenter"",""1"",""2661""
","""event"",""trial"",""time""
""fullscreenexit"",""192"",""888218""
","","","","","","null","<div style=""font-size:60px;"">+</div>","null","","fixation","","","","","","","","","","",""
"aa-learning-trial","198","899172","0.0-11.0-2.0-1.4","4491","1","13","Male","approach_avoid_spark_v1","""event"",""trial"",""time""
""fullscreenenter"",""1"",""2661""
""fullscreenexit"",""192"",""888218""
","
","
","""event"",""trial"",""time""
""fullscreenenter"",""1"",""2661""
","""event"",""trial"",""time""
""fullscreenexit"",""192"",""888218""
","","","","","","583","images/train6.png","","","learning","5","-5","escape","","train","vehicles","2","1","","bad","[-4]"
"html-keyboard-response","199","899684","0.0-11.0-2.0-0.5","4491","1","13","Male","approach_avoid_spark_v1","""event"",""trial"",""time""
""fullscreenenter"",""1"",""2661""
""fullscreenexit"",""192"",""888218""
","
","
","""event"",""trial"",""time""
""fullscreenenter"",""1"",""2661""
","""event"",""trial"",""time""
""fullscreenexit"",""192"",""888218""
","","","","","","null","<div style=""font-size:60px;"">+</div>","null","","fixation","","","","","","","","","","",""
"aa-learning-trial","200","902692","0.0-11.0-2.0-1.5","4491","1","13","Male","approach_avoid_spark_v1","""event"",""trial"",""time""
""fullscreenenter"",""1"",""2661""
""fullscreenexit"",""192"",""888218""
","
","
","""event"",""trial"",""time""
""fullscreenenter"",""1"",""2661""
","""event"",""trial"",""time""
""fullscreenexit"",""192"",""888218""
","","","","","","2130","images/boat3.png","","","learning","3","3","1","1","boat","vehicles","2","1","","good","[4]"
"html-keyboard-response","201","903206","0.0-11.0-2.0-0.6","4491","1","13","Male","approach_avoid_spark_v1","""event"",""trial"",""time""
""fullscreenenter"",""1"",""2661""
""fullscreenexit"",""192"",""888218""
","
","
","""event"",""trial"",""time""
""fullscreenenter"",""1"",""2661""
","""event"",""trial"",""time""
""fullscreenexit"",""192"",""888218""
","","","","","","null","<div style=""font-size:60px;"">+</div>","null","","fixation","","","","","","","","","","",""
"aa-learning-trial","202","906225","0.0-11.0-2.0-1.6","4491","1","13","Male","approach_avoid_spark_v1","""event"",""trial"",""time""
""fullscreenenter"",""1"",""2661""
""fullscreenexit"",""192"",""888218""
","
","
","""event"",""trial"",""time""
""fullscreenenter"",""1"",""2661""
","""event"",""trial"",""time""
""fullscreenexit"",""192"",""888218""
","","","","","","47","images/truck7.png","","","learning","-8","-5","f4","","truck","vehicles","2","1","","neutral","0"
"html-keyboard-response","203","906737","0.0-11.0-2.0-0.7","4491","1","13","Male","approach_avoid_spark_v1","""event"",""trial"",""time""
""fullscreenenter"",""1"",""2661""
""fullscreenexit"",""192"",""888218""
","
","
","""event"",""trial"",""time""
""fullscreenenter"",""1"",""2661""
","""event"",""trial"",""time""
""fullscreenexit"",""192"",""888218""
","","","","","","null","<div style=""font-size:60px;"">+</div>","null","","fixation","","","","","","","","","","",""
"aa-learning-trial","204","909749","0.0-11.0-2.0-1.7","4491","1","13","Male","approach_avoid_spark_v1","""event"",""trial"",""time""
""fullscreenenter"",""1"",""2661""
""fullscreenexit"",""192"",""888218""
","
","
","""event"",""trial"",""time""
""fullscreenenter"",""1"",""2661""
","""event"",""trial"",""time""
""fullscreenexit"",""192"",""888218""
","","","","","","989","images/truck5.png","","","learning","-1","0","0","0","truck","vehicles","2","1","","neutral","0"
"html-keyboard-response","205","910269","0.0-11.0-2.0-0.8","4491","1","13","Male","approach_avoid_spark_v1","""event"",""trial"",""time""
""fullscreenenter"",""1"",""2661""
""fullscreenexit"",""192"",""888218""
","
","
","""event"",""trial"",""time""
""fullscreenenter"",""1"",""2661""
","""event"",""trial"",""time""
""fullscreenexit"",""192"",""888218""
","","","","","","null","<div style=""font-size:60px;"">+</div>","null","","fixation","","","","","","","","","","",""
"aa-learning-trial","206","913273","0.0-11.0-2.0-1.8","4491","1","13","Male","approach_avoid_spark_v1","""event"",""trial"",""time""
""fullscreenenter"",""1"",""2661""
""fullscreenexit"",""192"",""888218""
","
","
","""event"",""trial"",""time""
""fullscreenenter"",""1"",""2661""
","""event"",""trial"",""time""
""fullscreenexit"",""192"",""888218""
","","","","","","1570","images/truck5.png","","","learning","-1","-1","1","1","truck","vehicles","2","1","","neutral","0"
"html-keyboard-response","207","913777","0.0-11.0-2.0-0.9","4491","1","13","Male","approach_avoid_spark_v1","""event"",""trial"",""time""
""fullscreenenter"",""1"",""2661""
""fullscreenexit"",""192"",""888218""
","
","
","""event"",""trial"",""time""
""fullscreenenter"",""1"",""2661""
","""event"",""trial"",""time""
""fullscreenexit"",""192"",""888218""
","","","","","","null","<div style=""font-size:60px;"">+</div>","null","","fixation","","","","","","","","","","",""
"aa-learning-trial","208","916785","0.0-11.0-2.0-1.9","4491","1","13","Male","approach_avoid_spark_v1","""event"",""trial"",""time""
""fullscreenenter"",""1"",""2661""
""fullscreenexit"",""192"",""888218""
","
","
","""event"",""trial"",""time""
""fullscreenenter"",""1"",""2661""
","""event"",""trial"",""time""
""fullscreenexit"",""192"",""888218""
","","","","","","766","images/train3.png","","","learning","-9","-9","1","1","train","vehicles","2","1","","bad","[-4]"
"html-keyboard-response","209","917289","0.0-11.0-2.0-0.10","4491","1","13","Male","approach_avoid_spark_v1","""event"",""trial"",""time""
""fullscreenenter"",""1"",""2661""
""fullscreenexit"",""192"",""888218""
","
","
","""event"",""trial"",""time""
""fullscreenenter"",""1"",""2661""
","""event"",""trial"",""time""
""fullscreenexit"",""192"",""888218""
","","","","","","null","<div style=""font-size:60px;"">+</div>","null","","fixation","","","","","","","","","","",""
"aa-learning-trial","210","920297","0.0-11.0-2.0-1.10","4491","1","13","Male","approach_avoid_spark_v1","""event"",""trial"",""time""
""fullscreenenter"",""1"",""2661""
""fullscreenexit"",""192"",""888218""
","
","
","""event"",""trial"",""time""
""fullscreenenter"",""1"",""2661""
","""event"",""trial"",""time""
""fullscreenexit"",""192"",""888218""
","","","","","","829","images/truck7.png","","","learning","-8","0","0","0","truck","vehicles","2","1","","neutral","0"
"html-keyboard-response","211","920801","0.0-11.0-2.0-0.11","4491","1","13","Male","approach_avoid_spark_v1","""event"",""trial"",""time""
""fullscreenenter"",""1"",""2661""
""fullscreenexit"",""192"",""888218""
","
","
","""event"",""trial"",""time""
""fullscreenenter"",""1"",""2661""
","""event"",""trial"",""time""
""fullscreenexit"",""192"",""888218""
","","","","","","null","<div style=""font-size:60px;"">+</div>","null","","fixation","","","","","","","","","","",""
"aa-learning-trial","212","923809","0.0-11.0-2.0-1.11","4491","1","13","Male","approach_avoid_spark_v1","""event"",""trial"",""time""
""fullscreenenter"",""1"",""2661""
""fullscreenexit"",""192"",""888218""
","
","
","""event"",""trial"",""time""
""fullscreenenter"",""1"",""2661""
","""event"",""trial"",""time""
""fullscreenexit"",""192"",""888218""
","","","","","","702","images/boat7.png","","","learning","-7","-7","1","1","boat","vehicles","2","1","","good","[4]"
"html-keyboard-response","213","924314","0.0-11.0-2.0-0.12","4491","1","13","Male","approach_avoid_spark_v1","""event"",""trial"",""time""
""fullscreenenter"",""1"",""2661""
""fullscreenexit"",""192"",""888218""
","
","
","""event"",""trial"",""time""
""fullscreenenter"",""1"",""2661""
","""event"",""trial"",""time""
""fullscreenexit"",""192"",""888218""
","","","","","","null","<div style=""font-size:60px;"">+</div>","null","","fixation","","","","","","","","","","",""
"aa-learning-trial","214","927321","0.0-11.0-2.0-1.12","4491","1","13","Male","approach_avoid_spark_v1","""event"",""trial"",""time""
""fullscreenenter"",""1"",""2661""
""fullscreenexit"",""192"",""888218""
","
","
","""event"",""trial"",""time""
""fullscreenenter"",""1"",""2661""
","""event"",""trial"",""time""
""fullscreenexit"",""192"",""888218""
","","","","","","853","images/train3.png","","","learning","-9","0","0","0","train","vehicles","2","1","","bad","[-4]"
"html-keyboard-response","215","927825","0.0-11.0-2.0-0.13","4491","1","13","Male","approach_avoid_spark_v1","""event"",""trial"",""time""
""fullscreenenter"",""1"",""2661""
""fullscreenexit"",""192"",""888218""
","
","
","""event"",""trial"",""time""
""fullscreenenter"",""1"",""2661""
","""event"",""trial"",""time""
""fullscreenexit"",""192"",""888218""
","","","","","","null","<div style=""font-size:60px;"">+</div>","null","","fixation","","","","","","","","","","",""
"aa-learning-trial","216","930833","0.0-11.0-2.0-1.13","4491","1","13","Male","approach_avoid_spark_v1","""event"",""trial"",""time""
""fullscreenenter"",""1"",""2661""
""fullscreenexit"",""192"",""888218""
","
","
","""event"",""trial"",""time""
""fullscreenenter"",""1"",""2661""
","""event"",""trial"",""time""
""fullscreenexit"",""192"",""888218""
","","","","","","1062","images/truck6.png","","","learning","-3","-3","1","1","truck","vehicles","2","1","","neutral","0"
"html-keyboard-response","217","931338","0.0-11.0-2.0-0.14","4491","1","13","Male","approach_avoid_spark_v1","""event"",""trial"",""time""
""fullscreenenter"",""1"",""2661""
""fullscreenexit"",""192"",""888218""
","
","
","""event"",""trial"",""time""
""fullscreenenter"",""1"",""2661""
","""event"",""trial"",""time""
""fullscreenexit"",""192"",""888218""
","","","","","","null","<div style=""font-size:60px;"">+</div>","null","","fixation","","","","","","","","","","",""
"aa-learning-trial","218","934346","0.0-11.0-2.0-1.14","4491","1","13","Male","approach_avoid_spark_v1","""event"",""trial"",""time""
""fullscreenenter"",""1"",""2661""
""fullscreenexit"",""192"",""888218""
","
","
","""event"",""trial"",""time""
""fullscreenenter"",""1"",""2661""
","""event"",""trial"",""time""
""fullscreenexit"",""192"",""888218""
","","","","","","693","images/boat3.png","","","learning","3","3","1","1","boat","vehicles","2","1","","good","[4]"
"html-keyboard-response","219","934849","0.0-11.0-2.0-0.15","4491","1","13","Male","approach_avoid_spark_v1","""event"",""trial"",""time""
""fullscreenenter"",""1"",""2661""
""fullscreenexit"",""192"",""888218""
","
","
","""event"",""trial"",""time""
""fullscreenenter"",""1"",""2661""
","""event"",""trial"",""time""
""fullscreenexit"",""192"",""888218""
","","","","","","null","<div style=""font-size:60px;"">+</div>","null","","fixation","","","","","","","","","","",""
"aa-learning-trial","220","937857","0.0-11.0-2.0-1.15","4491","1","13","Male","approach_avoid_spark_v1","""event"",""trial"",""time""
""fullscreenenter"",""1"",""2661""
""fullscreenexit"",""192"",""888218""
","
","
","""event"",""trial"",""time""
""fullscreenenter"",""1"",""2661""
","""event"",""trial"",""time""
""fullscreenexit"",""192"",""888218""
","","","","","","1038","images/boat3.png","","","learning","3","0","0","0","boat","vehicles","2","1","","good","[4]"
"html-keyboard-response","221","938363","0.0-11.0-2.0-0.16","4491","1","13","Male","approach_avoid_spark_v1","""event"",""trial"",""time""
""fullscreenenter"",""1"",""2661""
""fullscreenexit"",""192"",""888218""
","
","
","""event"",""trial"",""time""
""fullscreenenter"",""1"",""2661""
","""event"",""trial"",""time""
""fullscreenexit"",""192"",""888218""
","","","","","","null","<div style=""font-size:60px;"">+</div>","null","","fixation","","","","","","","","","","",""
"aa-learning-trial","222","941369","0.0-11.0-2.0-1.16","4491","1","13","Male","approach_avoid_spark_v1","""event"",""trial"",""time""
""fullscreenenter"",""1"",""2661""
""fullscreenexit"",""192"",""888218""
","
","
","""event"",""trial"",""time""
""fullscreenenter"",""1"",""2661""
","""event"",""trial"",""time""
""fullscreenexit"",""192"",""888218""
","","","","","","1173","images/boat6.png","","","learning","6","6","1","1","boat","vehicles","2","1","","good","[4]"
"html-keyboard-response","223","941873","0.0-11.0-2.0-0.17","4491","1","13","Male","approach_avoid_spark_v1","""event"",""trial"",""time""
""fullscreenenter"",""1"",""2661""
""fullscreenexit"",""192"",""888218""
","
","
","""event"",""trial"",""time""
""fullscreenenter"",""1"",""2661""
","""event"",""trial"",""time""
""fullscreenexit"",""192"",""888218""
","","","","","","null","<div style=""font-size:60px;"">+</div>","null","","fixation","","","","","","","","","","",""
"aa-learning-trial","224","944881","0.0-11.0-2.0-1.17","4491","1","13","Male","approach_avoid_spark_v1","""event"",""trial"",""time""
""fullscreenenter"",""1"",""2661""
""fullscreenexit"",""192"",""888218""
","
","
","""event"",""trial"",""time""
""fullscreenenter"",""1"",""2661""
","""event"",""trial"",""time""
""fullscreenexit"",""192"",""888218""
","","","","","","958","images/train6.png","","","learning","5","5","1","1","train","vehicles","2","1","","bad","[-4]"
"html-keyboard-response","225","945385","0.0-11.0-2.0-0.18","4491","1","13","Male","approach_avoid_spark_v1","""event"",""trial"",""time""
""fullscreenenter"",""1"",""2661""
""fullscreenexit"",""192"",""888218""
","
","
","""event"",""trial"",""time""
""fullscreenenter"",""1"",""2661""
","""event"",""trial"",""time""
""fullscreenexit"",""192"",""888218""
","","","","","","null","<div style=""font-size:60px;"">+</div>","null","","fixation","","","","","","","","","","",""
"aa-learning-trial","226","948394","0.0-11.0-2.0-1.18","4491","1","13","Male","approach_avoid_spark_v1","""event"",""trial"",""time""
""fullscreenenter"",""1"",""2661""
""fullscreenexit"",""192"",""888218""
","
","
","""event"",""trial"",""time""
""fullscreenenter"",""1"",""2661""
","""event"",""trial"",""time""
""fullscreenexit"",""192"",""888218""
","","","","","","1421","images/boat7.png","","","learning","-7","-7","1","1","boat","vehicles","2","1","","good","[4]"
"html-keyboard-response","227","948898","0.0-11.0-2.0-0.19","4491","1","13","Male","approach_avoid_spark_v1","""event"",""trial"",""time""
""fullscreenenter"",""1"",""2661""
""fullscreenexit"",""192"",""888218""
","
","
","""event"",""trial"",""time""
""fullscreenenter"",""1"",""2661""
","""event"",""trial"",""time""
""fullscreenexit"",""192"",""888218""
","","","","","","null","<div style=""font-size:60px;"">+</div>","null","","fixation","","","","","","","","","","",""
"aa-learning-trial","228","951905","0.0-11.0-2.0-1.19","4491","1","13","Male","approach_avoid_spark_v1","""event"",""trial"",""time""
""fullscreenenter"",""1"",""2661""
""fullscreenexit"",""192"",""888218""
","
","
","""event"",""trial"",""time""
""fullscreenenter"",""1"",""2661""
","""event"",""trial"",""time""
""fullscreenexit"",""192"",""888218""
","","","","","","909","images/train3.png","","","learning","-9","0","0","0","train","vehicles","2","1","","bad","[-4]"
"html-keyboard-response","229","952410","0.0-11.0-2.0-0.20","4491","1","13","Male","approach_avoid_spark_v1","""event"",""trial"",""time""
""fullscreenenter"",""1"",""2661""
""fullscreenexit"",""192"",""888218""
","
","
","""event"",""trial"",""time""
""fullscreenenter"",""1"",""2661""
","""event"",""trial"",""time""
""fullscreenexit"",""192"",""888218""
","","","","","","null","<div style=""font-size:60px;"">+</div>","null","","fixation","","","","","","","","","","",""
