"trial_type","trial_index","time_elapsed","internal_node_id","subject_id","task_condition","age","gender","task_version","interactions","blur_events","focus_events","fullscreenenter_events","fullscreenexit_events","success","timeout","failed_images","failed_audio","failed_video","rt","stimulus","response","button_pressed","task_part","approach_reward","points","key_press","option_selected","stim_cat","task_block","block_condition","block_number","correct","cat_type","mean_cat_reward"
"pavlovia","0","2","0.0-0.0","6223","2","9","Female","approach_avoid_spark_v1","""event"",""trial"",""time""
""fullscreenenter"",""1"",""2101""
","
","
","""event"",""trial"",""time""
""fullscreenenter"",""1"",""2101""
","
","","","","","","","","","","","","","","","","","","","","",""
"fullscreen","1","3093","0.0-1.0","6223","2","9","Female","approach_avoid_spark_v1","""event"",""trial"",""time""
""fullscreenenter"",""1"",""2101""
","
","
","""event"",""trial"",""time""
""fullscreenenter"",""1"",""2101""
","
","true","","","","","","","","","","","","","","","","","","","",""
"preload","2","37317","0.0-2.0","6223","2","9","Female","approach_avoid_spark_v1","""event"",""trial"",""time""
""fullscreenenter"",""1"",""2101""
","
","
","""event"",""trial"",""time""
""fullscreenenter"",""1"",""2101""
","
","true","false","[]","[]","[]","","","","","","","","","","","","","","","",""
"audio-keyboard-response","3","41491","0.0-3.0","6223","2","9","Female","approach_avoid_spark_v1","""event"",""trial"",""time""
""fullscreenenter"",""1"",""2101""
","
","
","""event"",""trial"",""time""
""fullscreenenter"",""1"",""2101""
","
","","","","","","4189.33333333333","audio/beep_loop.wav"," ","","","","","","","","","","","","",""
"audio-button-response","4","44543","0.0-4.0","6223","2","9","Female","approach_avoid_spark_v1","""event"",""trial"",""time""
""fullscreenenter"",""1"",""2101""
","
","
","""event"",""trial"",""time""
""fullscreenenter"",""1"",""2101""
","
","","","","","","3051","audio/shark.wav","4","","","","","","","","","","","","",""
"audio-button-response","5","48257","0.0-5.0","6223","2","9","Female","approach_avoid_spark_v1","""event"",""trial"",""time""
""fullscreenenter"",""1"",""2101""
","
","
","""event"",""trial"",""time""
""fullscreenenter"",""1"",""2101""
","
","","","","","","2691","audio/turtle.wav","1","","","","","","","","","","","","",""
"preload","6","84532","0.0-6.0","6223","2","9","Female","approach_avoid_spark_v1","""event"",""trial"",""time""
""fullscreenenter"",""1"",""2101""
","
","
","""event"",""trial"",""time""
""fullscreenenter"",""1"",""2101""
","
","true","false","[]","[]","[]","","","","","","","","","","","","","","","",""
"html-keyboard-response","7","87947","0.0-7.0","6223","2","9","Female","approach_avoid_spark_v1","""event"",""trial"",""time""
""fullscreenenter"",""1"",""2101""
","
","
","""event"",""trial"",""time""
""fullscreenenter"",""1"",""2101""
","
","","","","","","3413","Welcome to the experiment. Press any key to begin and to advance the instructions.","m","","","","","","","","","","","","",""
"learning-instructions","8","96531","0.0-8.0-0.0-0.0","6223","2","9","Female","approach_avoid_spark_v1","""event"",""trial"",""time""
""fullscreenenter"",""1"",""2101""
","
","
","""event"",""trial"",""time""
""fullscreenenter"",""1"",""2101""
","
","","","","","","1619.5","<p> Welcome! Today you are going to play 6 different rounds of a decision-making game. </p><p> Use the mouse to click next to continue. </p>","","0","instructions","","","","","","","","","","",""
"learning-instructions","9","100772","0.0-8.0-0.0-0.1","6223","2","9","Female","approach_avoid_spark_v1","""event"",""trial"",""time""
""fullscreenenter"",""1"",""2101""
","
","
","""event"",""trial"",""time""
""fullscreenenter"",""1"",""2101""
","
","","","","","","1510","<p> You will start with a practice round to learn the rules. </p>","","0","instructions","","","","","","","","","","",""
"learning-instructions","10","105741","0.0-8.0-0.0-0.2","6223","2","9","Female","approach_avoid_spark_v1","""event"",""trial"",""time""
""fullscreenenter"",""1"",""2101""
","
","
","""event"",""trial"",""time""
""fullscreenenter"",""1"",""2101""
","
","","","","","","1509.5","<p> Your goal in this round is to give out sports equipment to kids. </p></div>","","0","instructions","","","","","","","","","","",""
"learning-instructions","11","116245","0.0-8.0-0.0-0.3","6223","2","9","Female","approach_avoid_spark_v1","""event"",""trial"",""time""
""fullscreenenter"",""1"",""2101""
","
","
","""event"",""trial"",""time""
""fullscreenenter"",""1"",""2101""
","
","","","","","","2924","<p> The kids only like some of the equipment.  </p><p> On each turn, you will see a piece of sports equipment.   </p><p> You need to decide whether to give it to the kids or not.  </p>","","0","instructions","","","","","","","","","","",""
"learning-instructions","12","125382","0.0-8.0-0.0-0.4","6223","2","9","Female","approach_avoid_spark_v1","""event"",""trial"",""time""
""fullscreenenter"",""1"",""2101""
","
","
","""event"",""trial"",""time""
""fullscreenenter"",""1"",""2101""
","
","","","","","","4369.5","<p> You can give them the equipment by pressing 1 and choose not to give it to them by pressing 0. </p><br><div class=""choice-instructions-grid""> <div class=""choice-option""><img src=""images/approach.png"" class=""choice-option-img"" stage=""instructions"" position=""0"" ><div class=""choice-option-text""> Press ""1."" </div></div><div class=""choice-option""><img src=""images/avoid.png"" class=""choice-option-img"" stage=""instructions"" position=""1"" ><div class=""choice-option-text""> Press ""0."" </div></div>","","0","instructions","","","","","","","","","","",""
"learning-instructions","13","135447","0.0-8.0-0.0-0.5","6223","2","9","Female","approach_avoid_spark_v1","""event"",""trial"",""time""
""fullscreenenter"",""1"",""2101""
","
","
","""event"",""trial"",""time""
""fullscreenenter"",""1"",""2101""
","
","","","","","","2676","<p> If you give them a piece of equipment they like, they will be happy! </p><p> But if you give them a piece of equipment they do not like, they will be sad. </p>","","0","instructions","","","","","","","","","","",""
"learning-instructions","14","158710","0.0-8.0-0.0-0.6","6223","2","9","Female","approach_avoid_spark_v1","""event"",""trial"",""time""
""fullscreenenter"",""1"",""2101""
","
","
","""event"",""trial"",""time""
""fullscreenenter"",""1"",""2101""
","
","","","","","","12749.700000017881","<p> You will earn points based on how you make kids feel. </p><p> If you make them happy, you will WIN anywhere from 1 - 9 points, </p><p> but if you make them sad, you will LOSE anywhere from 1 - 9 points. </p>","","0","instructions","","","","","","","","","","",""
"learning-instructions","15","177105","0.0-8.0-0.0-0.7","6223","2","9","Female","approach_avoid_spark_v1","""event"",""trial"",""time""
""fullscreenenter"",""1"",""2101""
","
","
","""event"",""trial"",""time""
""fullscreenenter"",""1"",""2101""
","
","","","","","","8815","<p> You will see how many points you won or lost in the center of the screen. </p><p> Here is what you would see if you won 6 points: </p><p style=""color:green;font-size:50px;font-weight:bolder"">6</p><p style=""color:green"">The text is GREEN because you WON points.</p>","","0","instructions","","","","","","","","","","",""
"learning-instructions","16","183584","0.0-8.0-0.0-0.8","6223","2","9","Female","approach_avoid_spark_v1","""event"",""trial"",""time""
""fullscreenenter"",""1"",""2101""
","
","
","""event"",""trial"",""time""
""fullscreenenter"",""1"",""2101""
","
","","","","","","973","<p> And here is what you would see if you lost 4 points: </p><p style=""color:red;font-size:50px;font-weight:bolder"">-4</p><p style=""color:red"">The text is RED because you LOST points. </p>","","0","instructions","","","","","","","","","","",""
"learning-instructions","17","199670","0.0-8.0-0.0-0.9","6223","2","9","Female","approach_avoid_spark_v1","""event"",""trial"",""time""
""fullscreenenter"",""1"",""2101""
","
","
","""event"",""trial"",""time""
""fullscreenenter"",""1"",""2101""
","
","","","","","","1360.4000000059605","<p> Some of the equipment will make the kids VERY happy or sad. </p><p> These pieces of equipment will make you win or lose LOTS of points. </p><p> Other pieces of equipment will only make the kids a little happy or sad. </p><p> These pieces of equipment will make you win or lose small amounts of points. </p>","","0","instructions","","","","","","","","","","",""
"learning-instructions","18","212400","0.0-8.0-0.0-0.10","6223","2","9","Female","approach_avoid_spark_v1","""event"",""trial"",""time""
""fullscreenenter"",""1"",""2101""
","
","
","""event"",""trial"",""time""
""fullscreenenter"",""1"",""2101""
","
","","","","","","2089.899999976158","<p> If you choose not to give them the equipment, you will not win or lose any points. </p><p>  However, in the center of the screen, you will see the number of points you WOULD HAVE won or lost if you had given them the equipment. </p>","","0","instructions","","","","","","","","","","",""
"learning-instructions","19","239029","0.0-8.0-0.0-0.11","6223","2","9","Female","approach_avoid_spark_v1","""event"",""trial"",""time""
""fullscreenenter"",""1"",""2101""
","
","
","""event"",""trial"",""time""
""fullscreenenter"",""1"",""2101""
","
","","","","","","5089.9000000059605","<p> Here is what you might see if you did not give the equipment to the kids but it would have made them happy: </p><p style=""color:grey; font-size:50px; display: inline-block; border-spacing: 15px; border-width:3px; border-style:solid; border-color:red"">  &nbsp; 7 &nbsp; </p><p> Remember, in this case, you would not win or lose ANY points because you did not give them the equipment.  </p><p style=""color:grey"">The text is GREY because you earned ZERO points. </p><p style=""color:red"">However, choosing to give the kids the equipment would have made you win points. The box around the text is RED because you chose the worse option. </p>","","0","instructions","","","","","","","","","","",""
"learning-instructions","20","261169","0.0-8.0-0.0-0.12","6223","2","9","Female","approach_avoid_spark_v1","""event"",""trial"",""time""
""fullscreenenter"",""1"",""2101""
","
","
","""event"",""trial"",""time""
""fullscreenenter"",""1"",""2101""
","
","","","","","","1059.800000011921","<p> Here is what you might see if you did not give the equipment to the kids but it would have made them sad: </p><p style=""color:grey;font-size:50px; display: inline-block; border-spacing: 15px; border-width:3px; border-style:solid; border-color:green"">  &nbsp; -8 &nbsp; </p><p> Remember, in this case, you would not win or lose ANY points because you did not give them the equipment.  </p><p style=""color:grey"">The text is GREY because you earned ZERO points. </p><p  style=""color:green""> Choosing to give the kids the equipment would have made you lose points. The box around the text is GREEN because you chose the better option.</p>","","0","instructions","","","","","","","","","","",""
"learning-instructions","21","292919","0.0-8.0-0.0-0.13","6223","2","9","Female","approach_avoid_spark_v1","""event"",""trial"",""time""
""fullscreenenter"",""1"",""2101""
","
","
","""event"",""trial"",""time""
""fullscreenenter"",""1"",""2101""
","
","","","","","","18649.30000001192","<p> You will have 3 seconds to make each choice. Try to respond before time runs out! </p><p> You will lose 5 points each time you do not make a response. </p>","","0","instructions","","","","","","","","","","",""
"learning-instructions","22","315309","0.0-8.0-0.0-0.14","6223","2","9","Female","approach_avoid_spark_v1","""event"",""trial"",""time""
""fullscreenenter"",""1"",""2101""
","
","
","""event"",""trial"",""time""
""fullscreenenter"",""1"",""2101""
","
","","","","","","16960.100000023842","<p> This is just a practice round, but in the real game, your bonus payment will depend on your total number of points.","","0","instructions","","","","","","","","","","",""
"learning-instructions","23","327559","0.0-8.0-0.0-0.15","6223","2","9","Female","approach_avoid_spark_v1","""event"",""trial"",""time""
""fullscreenenter"",""1"",""2101""
","
","
","""event"",""trial"",""time""
""fullscreenenter"",""1"",""2101""
","
","","","","","","6480.5","<p> Remember, you can give them the equipment by pressing 1 and choose not to give it to them by pressing 0. </p><br><div class=""choice-instructions-grid""> <div class=""choice-option""><img src=""images/approach.png"" class=""choice-option-img"" stage=""instructions"" position=""0"" ><div class=""choice-option-text""> Press ""1."" </div></div><div class=""choice-option""><img src=""images/avoid.png"" class=""choice-option-img"" stage=""instructions"" position=""1"" ><div class=""choice-option-text""> Press ""0."" </div></div>","","0","instructions","","","","","","","","","","",""
"html-button-response","24","329917","0.0-8.0-1.0","6223","2","9","Female","approach_avoid_spark_v1","""event"",""trial"",""time""
""fullscreenenter"",""1"",""2101""
","
","
","""event"",""trial"",""time""
""fullscreenenter"",""1"",""2101""
","
","","","","","","2238.7000000178814","<p> Ready to practice? </p>","0","","","","","","","","","","","","",""
"html-keyboard-response","25","330537","0.0-8.0-2.0-0.0","6223","2","9","Female","approach_avoid_spark_v1","""event"",""trial"",""time""
""fullscreenenter"",""1"",""2101""
","
","
","""event"",""trial"",""time""
""fullscreenenter"",""1"",""2101""
","
","","","","","","null","<div style=""font-size:60px;"">+</div>","null","","fixation","","","","","","","","","","",""
"aa-learning-trial","26","333557","0.0-8.0-2.0-1.0","6223","2","9","Female","approach_avoid_spark_v1","""event"",""trial"",""time""
""fullscreenenter"",""1"",""2101""
","
","
","""event"",""trial"",""time""
""fullscreenenter"",""1"",""2101""
","
","","","","","","null","images/ball3.png","","","learning","7","-5","","null","practice","practice","practice","-1","","",""
"html-keyboard-response","27","334077","0.0-8.0-2.0-0.1","6223","2","9","Female","approach_avoid_spark_v1","""event"",""trial"",""time""
""fullscreenenter"",""1"",""2101""
","
","
","""event"",""trial"",""time""
""fullscreenenter"",""1"",""2101""
","
","","","","","","null","<div style=""font-size:60px;"">+</div>","null","","fixation","","","","","","","","","","",""
"aa-learning-trial","28","337085","0.0-8.0-2.0-1.1","6223","2","9","Female","approach_avoid_spark_v1","""event"",""trial"",""time""
""fullscreenenter"",""1"",""2101""
","
","
","""event"",""trial"",""time""
""fullscreenenter"",""1"",""2101""
","
","","","","","","2307.300000011921","images/ball3.png","","","learning","-8","-8","1","1","practice","practice","practice","-1","","",""
"html-keyboard-response","29","337607","0.0-8.0-2.0-0.2","6223","2","9","Female","approach_avoid_spark_v1","""event"",""trial"",""time""
""fullscreenenter"",""1"",""2101""
","
","
","""event"",""trial"",""time""
""fullscreenenter"",""1"",""2101""
","
","","","","","","null","<div style=""font-size:60px;"">+</div>","null","","fixation","","","","","","","","","","",""
"aa-learning-trial","30","340627","0.0-8.0-2.0-1.2","6223","2","9","Female","approach_avoid_spark_v1","""event"",""trial"",""time""
""fullscreenenter"",""1"",""2101""
","
","
","""event"",""trial"",""time""
""fullscreenenter"",""1"",""2101""
","
","","","","","","1428.199999988079","images/racket2.png","","","learning","6","0","0","0","practice","practice","practice","-1","","",""
"html-keyboard-response","31","341137","0.0-8.0-2.0-0.3","6223","2","9","Female","approach_avoid_spark_v1","""event"",""trial"",""time""
""fullscreenenter"",""1"",""2101""
","
","
","""event"",""trial"",""time""
""fullscreenenter"",""1"",""2101""
","
","","","","","","null","<div style=""font-size:60px;"">+</div>","null","","fixation","","","","","","","","","","",""
"aa-learning-trial","32","344157","0.0-8.0-2.0-1.3","6223","2","9","Female","approach_avoid_spark_v1","""event"",""trial"",""time""
""fullscreenenter"",""1"",""2101""
","
","
","""event"",""trial"",""time""
""fullscreenenter"",""1"",""2101""
","
","","","","","","1379.300000011921","images/ball4.png","","","learning","5","0","0","0","practice","practice","practice","-1","","",""
"html-keyboard-response","33","344677","0.0-8.0-2.0-0.4","6223","2","9","Female","approach_avoid_spark_v1","""event"",""trial"",""time""
""fullscreenenter"",""1"",""2101""
","
","
","""event"",""trial"",""time""
""fullscreenenter"",""1"",""2101""
","
","","","","","","null","<div style=""font-size:60px;"">+</div>","null","","fixation","","","","","","","","","","",""
"aa-learning-trial","34","347694","0.0-8.0-2.0-1.4","6223","2","9","Female","approach_avoid_spark_v1","""event"",""trial"",""time""
""fullscreenenter"",""1"",""2101""
","
","
","""event"",""trial"",""time""
""fullscreenenter"",""1"",""2101""
","
","","","","","","2068.0999999940395","images/ball4.png","","","learning","9","9","1","1","practice","practice","practice","-1","","",""
"html-keyboard-response","35","348207","0.0-8.0-2.0-0.5","6223","2","9","Female","approach_avoid_spark_v1","""event"",""trial"",""time""
""fullscreenenter"",""1"",""2101""
","
","
","""event"",""trial"",""time""
""fullscreenenter"",""1"",""2101""
","
","","","","","","null","<div style=""font-size:60px;"">+</div>","null","","fixation","","","","","","","","","","",""
"aa-learning-trial","36","351216","0.0-8.0-2.0-1.5","6223","2","9","Female","approach_avoid_spark_v1","""event"",""trial"",""time""
""fullscreenenter"",""1"",""2101""
","
","
","""event"",""trial"",""time""
""fullscreenenter"",""1"",""2101""
","
","","","","","","1835.2999999821186","images/racket1.png","","","learning","-4","0","0","0","practice","practice","practice","-1","","",""
"html-keyboard-response","37","351721","0.0-8.0-2.0-0.6","6223","2","9","Female","approach_avoid_spark_v1","""event"",""trial"",""time""
""fullscreenenter"",""1"",""2101""
","
","
","""event"",""trial"",""time""
""fullscreenenter"",""1"",""2101""
","
","","","","","","null","<div style=""font-size:60px;"">+</div>","null","","fixation","","","","","","","","","","",""
"aa-learning-trial","38","354728","0.0-8.0-2.0-1.6","6223","2","9","Female","approach_avoid_spark_v1","""event"",""trial"",""time""
""fullscreenenter"",""1"",""2101""
","
","
","""event"",""trial"",""time""
""fullscreenenter"",""1"",""2101""
","
","","","","","","1252.800000011921","images/ball3.png","","","learning","-6","-6","1","1","practice","practice","practice","-1","","",""
"html-keyboard-response","39","355232","0.0-8.0-2.0-0.7","6223","2","9","Female","approach_avoid_spark_v1","""event"",""trial"",""time""
""fullscreenenter"",""1"",""2101""
","
","
","""event"",""trial"",""time""
""fullscreenenter"",""1"",""2101""
","
","","","","","","null","<div style=""font-size:60px;"">+</div>","null","","fixation","","","","","","","","","","",""
"aa-learning-trial","40","358240","0.0-8.0-2.0-1.7","6223","2","9","Female","approach_avoid_spark_v1","""event"",""trial"",""time""
""fullscreenenter"",""1"",""2101""
","
","
","""event"",""trial"",""time""
""fullscreenenter"",""1"",""2101""
","
","","","","","","899.6999999880791","images/ball4.png","","","learning","-2","0","0","0","practice","practice","practice","-1","","",""
"html-keyboard-response","41","358745","0.0-8.0-2.0-0.8","6223","2","9","Female","approach_avoid_spark_v1","""event"",""trial"",""time""
""fullscreenenter"",""1"",""2101""
","
","
","""event"",""trial"",""time""
""fullscreenenter"",""1"",""2101""
","
","","","","","","null","<div style=""font-size:60px;"">+</div>","null","","fixation","","","","","","","","","","",""
"aa-learning-trial","42","361751","0.0-8.0-2.0-1.8","6223","2","9","Female","approach_avoid_spark_v1","""event"",""trial"",""time""
""fullscreenenter"",""1"",""2101""
","
","
","""event"",""trial"",""time""
""fullscreenenter"",""1"",""2101""
","
","","","","","","2943.5","images/ball2.png","","","learning","-4","-4","1","1","practice","practice","practice","-1","","",""
"html-keyboard-response","43","362256","0.0-8.0-2.0-0.9","6223","2","9","Female","approach_avoid_spark_v1","""event"",""trial"",""time""
""fullscreenenter"",""1"",""2101""
","
","
","""event"",""trial"",""time""
""fullscreenenter"",""1"",""2101""
","
","","","","","","null","<div style=""font-size:60px;"">+</div>","null","","fixation","","","","","","","","","","",""
"aa-learning-trial","44","365264","0.0-8.0-2.0-1.9","6223","2","9","Female","approach_avoid_spark_v1","""event"",""trial"",""time""
""fullscreenenter"",""1"",""2101""
","
","
","""event"",""trial"",""time""
""fullscreenenter"",""1"",""2101""
","
","","","","","","1222.5","images/ball4.png","","","learning","1","1","1","1","practice","practice","practice","-1","","",""
"html-keyboard-response","45","365768","0.0-8.0-2.0-0.10","6223","2","9","Female","approach_avoid_spark_v1","""event"",""trial"",""time""
""fullscreenenter"",""1"",""2101""
","
","
","""event"",""trial"",""time""
""fullscreenenter"",""1"",""2101""
","
","","","","","","null","<div style=""font-size:60px;"">+</div>","null","","fixation","","","","","","","","","","",""
"aa-learning-trial","46","368776","0.0-8.0-2.0-1.10","6223","2","9","Female","approach_avoid_spark_v1","""event"",""trial"",""time""
""fullscreenenter"",""1"",""2101""
","
","
","""event"",""trial"",""time""
""fullscreenenter"",""1"",""2101""
","
","","","","","","1128.2000000178814","images/racket4.png","","","learning","-1","-1","1","1","practice","practice","practice","-1","","",""
"html-keyboard-response","47","369280","0.0-8.0-2.0-0.11","6223","2","9","Female","approach_avoid_spark_v1","""event"",""trial"",""time""
""fullscreenenter"",""1"",""2101""
","
","
","""event"",""trial"",""time""
""fullscreenenter"",""1"",""2101""
","
","","","","","","null","<div style=""font-size:60px;"">+</div>","null","","fixation","","","","","","","","","","",""
"aa-learning-trial","48","372288","0.0-8.0-2.0-1.11","6223","2","9","Female","approach_avoid_spark_v1","""event"",""trial"",""time""
""fullscreenenter"",""1"",""2101""
","
","
","""event"",""trial"",""time""
""fullscreenenter"",""1"",""2101""
","
","","","","","","1137.800000011921","images/racket1.png","","","learning","4","0","0","0","practice","practice","practice","-1","","",""
"html-button-response","49","377039","0.0-8.0-3.0","6223","2","9","Female","approach_avoid_spark_v1","""event"",""trial"",""time""
""fullscreenenter"",""1"",""2101""
","
","
","""event"",""trial"",""time""
""fullscreenenter"",""1"",""2101""
","
","","","","","","4748.800000011921","<p> You earned -14 points in the practice round! </p>","0","","break","","","","","","","","","","",""
"learning-instructions","50","387812","0.0-8.0-4.0-0.0","6223","2","9","Female","approach_avoid_spark_v1","""event"",""trial"",""time""
""fullscreenenter"",""1"",""2101""
","
","
","""event"",""trial"",""time""
""fullscreenenter"",""1"",""2101""
","
","","","","","","4801.9000000059605","<p> It's almost time to start the real game. </p><p> Before you start, we're going to ask you a few questions about how the game works. </p>","","0","instructions","","","","","","","","","","",""
"preload","51","396839","0.0-8.0-5.0","6223","2","9","Female","approach_avoid_spark_v1","""event"",""trial"",""time""
""fullscreenenter"",""1"",""2101""
","
","
","""event"",""trial"",""time""
""fullscreenenter"",""1"",""2101""
","
","true","false","[]","[]","[]","","","","","","","","","","","","","","","",""
"comp-q","52","403548","0.0-8.0-6.0-0.0","6223","2","9","Female","approach_avoid_spark_v1","""event"",""trial"",""time""
""fullscreenenter"",""1"",""2101""
","
","
","""event"",""trial"",""time""
""fullscreenenter"",""1"",""2101""
","
","","","","","","1716.5","<p> <b> True or False? </b> </p><p> If you see a number in GREY, that means you earned that many points. </p>","","1","comp_question","","","","","","","","","true","",""
"comp-q","53","413895","0.0-8.0-6.0-1.0","6223","2","9","Female","approach_avoid_spark_v1","""event"",""trial"",""time""
""fullscreenenter"",""1"",""2101""
","
","
","""event"",""trial"",""time""
""fullscreenenter"",""1"",""2101""
","
","","","","","","1974.0999999940395","<p><b> That's right! </b> If you see a grey number, it means you earned ZERO points. <br> The grey numbers show the points you WOULD HAVE earned if you had made the other choice. </p>","","0","comp_answer","","","","","","","","","","",""
"comp-q","54","419441","0.0-8.0-7.0-0.0","6223","2","9","Female","approach_avoid_spark_v1","""event"",""trial"",""time""
""fullscreenenter"",""1"",""2101""
","
","
","""event"",""trial"",""time""
""fullscreenenter"",""1"",""2101""
","
","","","","","","839.9000000059605","<p> <b> True or False? </b> </p><p> You will have as much time as you want to make each choice. </p>","","1","comp_question","","","","","","","","","true","",""
"comp-q","55","425419","0.0-8.0-7.0-1.0","6223","2","9","Female","approach_avoid_spark_v1","""event"",""trial"",""time""
""fullscreenenter"",""1"",""2101""
","
","
","""event"",""trial"",""time""
""fullscreenenter"",""1"",""2101""
","
","","","","","","1918.800000011921","<p> <b> That's right! </b> You will only have 3 seconds to make each choice. </p>","","0","comp_answer","","","","","","","","","","",""
"comp-q","56","431079","0.0-8.0-8.0-0.0","6223","2","9","Female","approach_avoid_spark_v1","""event"",""trial"",""time""
""fullscreenenter"",""1"",""2101""
","
","
","""event"",""trial"",""time""
""fullscreenenter"",""1"",""2101""
","
","","","","","","988.2999999821186","<p> <b> True or False? </b> </p><p> You should use the '1' and '0' keys to make your choices. </p>","","0","comp_question","","","","","","","","","true","",""
"comp-q","57","437454","0.0-8.0-8.0-1.0","6223","2","9","Female","approach_avoid_spark_v1","""event"",""trial"",""time""
""fullscreenenter"",""1"",""2101""
","
","
","""event"",""trial"",""time""
""fullscreenenter"",""1"",""2101""
","
","","","","","","1753.199999988079","<p> <b> That's right! </b> You should use the '1' and '0' keys to make each choice. </p>","","0","comp_answer","","","","","","","","","","",""
"learning-instructions","58","447614","0.0-8.0-9.0-0.0","6223","2","9","Female","approach_avoid_spark_v1","""event"",""trial"",""time""
""fullscreenenter"",""1"",""2101""
","
","
","""event"",""trial"",""time""
""fullscreenenter"",""1"",""2101""
","
","","","","","","3863.5999999940395","<p> It's now time to start the real game. </p>Do your best, because the points you earn in the next rounds will influence your bonus payment. </p>","","0","instructions","","","","","","","","","","",""
"preload","59","447759","0.0-9.0-0.0","6223","2","9","Female","approach_avoid_spark_v1","""event"",""trial"",""time""
""fullscreenenter"",""1"",""2101""
","
","
","""event"",""trial"",""time""
""fullscreenenter"",""1"",""2101""
","
","true","false","[]","[]","[]","","","","","","","","","","","","","","","",""
"learning-instructions","60","455250","0.0-9.0-1.0-0.0","6223","2","9","Female","approach_avoid_spark_v1","""event"",""trial"",""time""
""fullscreenenter"",""1"",""2101""
","
","
","""event"",""trial"",""time""
""fullscreenenter"",""1"",""2101""
","
","","","","","","2120.600000023842","<p> Your goal in this round is to take your friend for rides in different vehicles. </p></div>","","0","instructions","","","","","","","","","","",""
"learning-instructions","61","466829","0.0-9.0-1.0-0.1","6223","2","9","Female","approach_avoid_spark_v1","""event"",""trial"",""time""
""fullscreenenter"",""1"",""2101""
","
","
","""event"",""trial"",""time""
""fullscreenenter"",""1"",""2101""
","
","","","","","","1080.2000000178814","<p> Your friend enjoys riding in some vehicles but not in others.  </p><p> On each turn, you will see a vehicle.   </p><p> You need to decide whether to take your friend for a ride or not.  </p>","","0","instructions","","","","","","","","","","",""
"learning-instructions","62","476043","0.0-9.0-1.0-0.2","6223","2","9","Female","approach_avoid_spark_v1","""event"",""trial"",""time""
""fullscreenenter"",""1"",""2101""
","
","
","""event"",""trial"",""time""
""fullscreenenter"",""1"",""2101""
","
","","","","","","2373.2999999821186","<p> You can take your friend for a ride in the vehicle by pressing 1 and skip the ride by pressing 0. </p><br><div class=""choice-instructions-grid""> <div class=""choice-option""><img src=""images/approach.png"" class=""choice-option-img"" stage=""instructions"" position=""0"" ><div class=""choice-option-text""> Press ""1."" </div></div><div class=""choice-option""><img src=""images/avoid.png"" class=""choice-option-img"" stage=""instructions"" position=""1"" ><div class=""choice-option-text""> Press ""0."" </div></div>","","0","instructions","","","","","","","","","","",""
"learning-instructions","63","485929","0.0-9.0-1.0-0.3","6223","2","9","Female","approach_avoid_spark_v1","""event"",""trial"",""time""
""fullscreenenter"",""1"",""2101""
","
","
","""event"",""trial"",""time""
""fullscreenenter"",""1"",""2101""
","
","","","","","","860.5999999940395","<p> If you take them for a ride in a vehicle they like, they will be thrilled! </p><p> But if you take them for a ride in a vehicle they do not like, they will be upset. </p>","","0","instructions","","","","","","","","","","",""
"learning-instructions","64","499289","0.0-9.0-1.0-0.4","6223","2","9","Female","approach_avoid_spark_v1","""event"",""trial"",""time""
""fullscreenenter"",""1"",""2101""
","
","
","""event"",""trial"",""time""
""fullscreenenter"",""1"",""2101""
","
","","","","","","1279.699999988079","<p> You will earn points based on how you made your friend feel. </p><p> If you made him thrilled, you will WIN anywhere from 1 - 9 points, </p><p> but if you made him upset, you will LOSE anywhere from 1 - 9 points. </p>","","0","instructions","","","","","","","","","","",""
"learning-instructions","65","508298","0.0-9.0-1.0-0.5","6223","2","9","Female","approach_avoid_spark_v1","""event"",""trial"",""time""
""fullscreenenter"",""1"",""2101""
","
","
","""event"",""trial"",""time""
""fullscreenenter"",""1"",""2101""
","
","","","","","","1369.5","<p> You will see how many points you won or lost in the center of the screen. </p><p> Here is what you would see if you won 5 points: </p><p style=""color:green;font-size:50px;font-weight:bolder"">5</p>","","0","instructions","","","","","","","","","","",""
"learning-instructions","66","513138","0.0-9.0-1.0-0.6","6223","2","9","Female","approach_avoid_spark_v1","""event"",""trial"",""time""
""fullscreenenter"",""1"",""2101""
","
","
","""event"",""trial"",""time""
""fullscreenenter"",""1"",""2101""
","
","","","","","","1170.4000000059605","<p> And here is what you would see if you lost 3 points: </p><p style=""color:red;font-size:50px;font-weight:bolder"">-3</p>","","0","instructions","","","","","","","","","","",""
"learning-instructions","67","529689","0.0-9.0-1.0-0.7","6223","2","9","Female","approach_avoid_spark_v1","""event"",""trial"",""time""
""fullscreenenter"",""1"",""2101""
","
","
","""event"",""trial"",""time""
""fullscreenenter"",""1"",""2101""
","
","","","","","","969.5","<p> Some vehicles will make your friend REALLY thrilled or upset. </p><p> These vehicles will make you win or lose LOTS of points. </p><p> Other vehicles will only make him feel a little thrilled or upset. </p><p> These vehicles will make you win or lose small amounts of points. </p>","","0","instructions","","","","","","","","","","",""
"learning-instructions","68","542539","0.0-9.0-1.0-0.8","6223","2","9","Female","approach_avoid_spark_v1","""event"",""trial"",""time""
""fullscreenenter"",""1"",""2101""
","
","
","""event"",""trial"",""time""
""fullscreenenter"",""1"",""2101""
","
","","","","","","709.7999999821186","<p> If you choose to skip the ride, you will not win or lose any points. </p><p>  However, in the center of the screen, you will see the number of points you WOULD HAVE won or lost if you had taken your friend for a ride. </p>","","0","instructions","","","","","","","","","","",""
"learning-instructions","69","554138","0.0-9.0-1.0-0.9","6223","2","9","Female","approach_avoid_spark_v1","""event"",""trial"",""time""
""fullscreenenter"",""1"",""2101""
","
","
","""event"",""trial"",""time""
""fullscreenenter"",""1"",""2101""
","
","","","","","","549.8999999761581","<p> Here is what you might see if you did not take your friend for a ride but he would have enjoyed it: </p><p style=""color:grey; font-size:50px; display: inline-block; border-spacing: 15px; border-width:3px; border-style:solid; border-color:red"">  &nbsp; 6 &nbsp; </p><p> Remember, in this case, you would not win or lose ANY points because you skipped the ride.  </p>","","0","instructions","","","","","","","","","","",""
"learning-instructions","70","562919","0.0-9.0-1.0-0.10","6223","2","9","Female","approach_avoid_spark_v1","""event"",""trial"",""time""
""fullscreenenter"",""1"",""2101""
","
","
","""event"",""trial"",""time""
""fullscreenenter"",""1"",""2101""
","
","","","","","","1029.800000011921","<p> Try to make the best choice for each vehicle because </p><p> at the end of the game, you will earn bonus money based on how many points you earned. </p>","","0","instructions","","","","","","","","","","",""
"learning-instructions","71","572229","0.0-9.0-1.0-0.11","6223","2","9","Female","approach_avoid_spark_v1","""event"",""trial"",""time""
""fullscreenenter"",""1"",""2101""
","
","
","""event"",""trial"",""time""
""fullscreenenter"",""1"",""2101""
","
","","","","","","1109.9000000059605","<p> You will have 3 seconds to make each choice. Try to respond before time runs out! </p><p> You will lose 5 points each time you do not make a response. </p>","","0","instructions","","","","","","","","","","",""
"html-keyboard-response","72","572847","0.0-9.0-2.0-0.0","6223","2","9","Female","approach_avoid_spark_v1","""event"",""trial"",""time""
""fullscreenenter"",""1"",""2101""
","
","
","""event"",""trial"",""time""
""fullscreenenter"",""1"",""2101""
","
","","","","","","null","<div style=""font-size:60px;"">+</div>","null","","fixation","","","","","","","","","","",""
"aa-learning-trial","73","575850","0.0-9.0-2.0-1.0","6223","2","9","Female","approach_avoid_spark_v1","""event"",""trial"",""time""
""fullscreenenter"",""1"",""2101""
","
","
","""event"",""trial"",""time""
""fullscreenenter"",""1"",""2101""
","
","","","","","","2549.0999999940395","images/truck7.png","","","learning","3","0","0","0","truck","vehicles","2","0","","neutral","0"
"html-keyboard-response","74","576367","0.0-9.0-2.0-0.1","6223","2","9","Female","approach_avoid_spark_v1","""event"",""trial"",""time""
""fullscreenenter"",""1"",""2101""
","
","
","""event"",""trial"",""time""
""fullscreenenter"",""1"",""2101""
","
","","","","","","null","<div style=""font-size:60px;"">+</div>","null","","fixation","","","","","","","","","","",""
"aa-learning-trial","75","579377","0.0-9.0-2.0-1.1","6223","2","9","Female","approach_avoid_spark_v1","""event"",""trial"",""time""
""fullscreenenter"",""1"",""2101""
","
","
","""event"",""trial"",""time""
""fullscreenenter"",""1"",""2101""
","
","","","","","","1432.7000000178814","images/plane2.png","","","learning","-5","0","0","0","plane","vehicles","2","0","","bad","[-6]"
"html-keyboard-response","76","579887","0.0-9.0-2.0-0.2","6223","2","9","Female","approach_avoid_spark_v1","""event"",""trial"",""time""
""fullscreenenter"",""1"",""2101""
","
","
","""event"",""trial"",""time""
""fullscreenenter"",""1"",""2101""
","
","","","","","","null","<div style=""font-size:60px;"">+</div>","null","","fixation","","","","","","","","","","",""
"aa-learning-trial","77","582897","0.0-9.0-2.0-1.2","6223","2","9","Female","approach_avoid_spark_v1","""event"",""trial"",""time""
""fullscreenenter"",""1"",""2101""
","
","
","""event"",""trial"",""time""
""fullscreenenter"",""1"",""2101""
","
","","","","","","1297.7000000178814","images/plane2.png","","","learning","-5","0","0","0","plane","vehicles","2","0","","bad","[-6]"
"html-keyboard-response","78","583407","0.0-9.0-2.0-0.3","6223","2","9","Female","approach_avoid_spark_v1","""event"",""trial"",""time""
""fullscreenenter"",""1"",""2101""
","
","
","""event"",""trial"",""time""
""fullscreenenter"",""1"",""2101""
","
","","","","","","null","<div style=""font-size:60px;"">+</div>","null","","fixation","","","","","","","","","","",""
"aa-learning-trial","79","586417","0.0-9.0-2.0-1.3","6223","2","9","Female","approach_avoid_spark_v1","""event"",""trial"",""time""
""fullscreenenter"",""1"",""2101""
","
","
","""event"",""trial"",""time""
""fullscreenenter"",""1"",""2101""
","
","","","","","","1158.800000011921","images/truck7.png","","","learning","3","0","0","0","truck","vehicles","2","0","","neutral","0"
"html-keyboard-response","80","586927","0.0-9.0-2.0-0.4","6223","2","9","Female","approach_avoid_spark_v1","""event"",""trial"",""time""
""fullscreenenter"",""1"",""2101""
","
","
","""event"",""trial"",""time""
""fullscreenenter"",""1"",""2101""
","
","","","","","","null","<div style=""font-size:60px;"">+</div>","null","","fixation","","","","","","","","","","",""
"aa-learning-trial","81","589946","0.0-9.0-2.0-1.4","6223","2","9","Female","approach_avoid_spark_v1","""event"",""trial"",""time""
""fullscreenenter"",""1"",""2101""
","
","
","""event"",""trial"",""time""
""fullscreenenter"",""1"",""2101""
","
","","","","","","1152.7000000178814","images/truck1.png","","","learning","6","6","1","1","truck","vehicles","2","0","","neutral","0"
"html-keyboard-response","82","590467","0.0-9.0-2.0-0.5","6223","2","9","Female","approach_avoid_spark_v1","""event"",""trial"",""time""
""fullscreenenter"",""1"",""2101""
","
","
","""event"",""trial"",""time""
""fullscreenenter"",""1"",""2101""
","
","","","","","","null","<div style=""font-size:60px;"">+</div>","null","","fixation","","","","","","","","","","",""
"aa-learning-trial","83","593477","0.0-9.0-2.0-1.5","6223","2","9","Female","approach_avoid_spark_v1","""event"",""trial"",""time""
""fullscreenenter"",""1"",""2101""
","
","
","""event"",""trial"",""time""
""fullscreenenter"",""1"",""2101""
","
","","","","","","1685.4000000059605","images/plane1.png","","","learning","5","0","0","0","plane","vehicles","2","0","","bad","[-6]"
"html-keyboard-response","84","593986","0.0-9.0-2.0-0.6","6223","2","9","Female","approach_avoid_spark_v1","""event"",""trial"",""time""
""fullscreenenter"",""1"",""2101""
","
","
","""event"",""trial"",""time""
""fullscreenenter"",""1"",""2101""
","
","","","","","","null","<div style=""font-size:60px;"">+</div>","null","","fixation","","","","","","","","","","",""
"aa-learning-trial","85","596997","0.0-9.0-2.0-1.6","6223","2","9","Female","approach_avoid_spark_v1","""event"",""trial"",""time""
""fullscreenenter"",""1"",""2101""
","
","
","""event"",""trial"",""time""
""fullscreenenter"",""1"",""2101""
","
","","","","","","1135","images/plane1.png","","","learning","5","5","1","1","plane","vehicles","2","0","","bad","[-6]"
"html-keyboard-response","86","597506","0.0-9.0-2.0-0.7","6223","2","9","Female","approach_avoid_spark_v1","""event"",""trial"",""time""
""fullscreenenter"",""1"",""2101""
","
","
","""event"",""trial"",""time""
""fullscreenenter"",""1"",""2101""
","
","","","","","","null","<div style=""font-size:60px;"">+</div>","null","","fixation","","","","","","","","","","",""
"aa-learning-trial","87","600516","0.0-9.0-2.0-1.7","6223","2","9","Female","approach_avoid_spark_v1","""event"",""trial"",""time""
""fullscreenenter"",""1"",""2101""
","
","
","""event"",""trial"",""time""
""fullscreenenter"",""1"",""2101""
","
","","","","","","1515.5999999940395","images/train5.png","","","learning","-2","-2","1","1","train","vehicles","2","0","","good","[5]"
"html-keyboard-response","88","601027","0.0-9.0-2.0-0.8","6223","2","9","Female","approach_avoid_spark_v1","""event"",""trial"",""time""
""fullscreenenter"",""1"",""2101""
","
","
","""event"",""trial"",""time""
""fullscreenenter"",""1"",""2101""
","
","","","","","","null","<div style=""font-size:60px;"">+</div>","null","","fixation","","","","","","","","","","",""
"aa-learning-trial","89","604031","0.0-9.0-2.0-1.8","6223","2","9","Female","approach_avoid_spark_v1","""event"",""trial"",""time""
""fullscreenenter"",""1"",""2101""
","
","
","""event"",""trial"",""time""
""fullscreenenter"",""1"",""2101""
","
","","","","","","1744.5","images/truck3.png","","","learning","-1","0","0","0","truck","vehicles","2","0","","neutral","0"
"html-keyboard-response","90","604535","0.0-9.0-2.0-0.9","6223","2","9","Female","approach_avoid_spark_v1","""event"",""trial"",""time""
""fullscreenenter"",""1"",""2101""
","
","
","""event"",""trial"",""time""
""fullscreenenter"",""1"",""2101""
","
","","","","","","null","<div style=""font-size:60px;"">+</div>","null","","fixation","","","","","","","","","","",""
"aa-learning-trial","91","607543","0.0-9.0-2.0-1.9","6223","2","9","Female","approach_avoid_spark_v1","""event"",""trial"",""time""
""fullscreenenter"",""1"",""2101""
","
","
","""event"",""trial"",""time""
""fullscreenenter"",""1"",""2101""
","
","","","","","","1549.7000000178814","images/train6.png","","","learning","-7","-7","1","1","train","vehicles","2","0","","good","[5]"
"html-keyboard-response","92","608047","0.0-9.0-2.0-0.10","6223","2","9","Female","approach_avoid_spark_v1","""event"",""trial"",""time""
""fullscreenenter"",""1"",""2101""
","
","
","""event"",""trial"",""time""
""fullscreenenter"",""1"",""2101""
","
","","","","","","null","<div style=""font-size:60px;"">+</div>","null","","fixation","","","","","","","","","","",""
"aa-learning-trial","93","611056","0.0-9.0-2.0-1.10","6223","2","9","Female","approach_avoid_spark_v1","""event"",""trial"",""time""
""fullscreenenter"",""1"",""2101""
","
","
","""event"",""trial"",""time""
""fullscreenenter"",""1"",""2101""
","
","","","","","","1589.2999999821186","images/train7.png","","","learning","-4","0","0","0","train","vehicles","2","0","","good","[5]"
"html-keyboard-response","94","611560","0.0-9.0-2.0-0.11","6223","2","9","Female","approach_avoid_spark_v1","""event"",""trial"",""time""
""fullscreenenter"",""1"",""2101""
","
","
","""event"",""trial"",""time""
""fullscreenenter"",""1"",""2101""
","
","","","","","","null","<div style=""font-size:60px;"">+</div>","null","","fixation","","","","","","","","","","",""
"aa-learning-trial","95","614563","0.0-9.0-2.0-1.11","6223","2","9","Female","approach_avoid_spark_v1","""event"",""trial"",""time""
""fullscreenenter"",""1"",""2101""
","
","
","""event"",""trial"",""time""
""fullscreenenter"",""1"",""2101""
","
","","","","","","1723.199999988079","images/plane7.png","","","learning","7","7","1","1","plane","vehicles","2","0","","bad","[-6]"
"html-keyboard-response","96","615072","0.0-9.0-2.0-0.12","6223","2","9","Female","approach_avoid_spark_v1","""event"",""trial"",""time""
""fullscreenenter"",""1"",""2101""
","
","
","""event"",""trial"",""time""
""fullscreenenter"",""1"",""2101""
","
","","","","","","null","<div style=""font-size:60px;"">+</div>","null","","fixation","","","","","","","","","","",""
"aa-learning-trial","97","618080","0.0-9.0-2.0-1.12","6223","2","9","Female","approach_avoid_spark_v1","""event"",""trial"",""time""
""fullscreenenter"",""1"",""2101""
","
","
","""event"",""trial"",""time""
""fullscreenenter"",""1"",""2101""
","
","","","","","","757.4000000059605","images/train6.png","","","learning","-7","-7","1","1","train","vehicles","2","0","","good","[5]"
"html-keyboard-response","98","618583","0.0-9.0-2.0-0.13","6223","2","9","Female","approach_avoid_spark_v1","""event"",""trial"",""time""
""fullscreenenter"",""1"",""2101""
","
","
","""event"",""trial"",""time""
""fullscreenenter"",""1"",""2101""
","
","","","","","","null","<div style=""font-size:60px;"">+</div>","null","","fixation","","","","","","","","","","",""
"aa-learning-trial","99","621592","0.0-9.0-2.0-1.13","6223","2","9","Female","approach_avoid_spark_v1","""event"",""trial"",""time""
""fullscreenenter"",""1"",""2101""
","
","
","""event"",""trial"",""time""
""fullscreenenter"",""1"",""2101""
","
","","","","","","2315.5999999940395","images/truck1.png","","","learning","6","6","1","1","truck","vehicles","2","0","","neutral","0"
"html-keyboard-response","100","622095","0.0-9.0-2.0-0.14","6223","2","9","Female","approach_avoid_spark_v1","""event"",""trial"",""time""
""fullscreenenter"",""1"",""2101""
","
","
","""event"",""trial"",""time""
""fullscreenenter"",""1"",""2101""
","
","","","","","","null","<div style=""font-size:60px;"">+</div>","null","","fixation","","","","","","","","","","",""
"aa-learning-trial","101","625104","0.0-9.0-2.0-1.14","6223","2","9","Female","approach_avoid_spark_v1","""event"",""trial"",""time""
""fullscreenenter"",""1"",""2101""
","
","
","""event"",""trial"",""time""
""fullscreenenter"",""1"",""2101""
","
","","","","","","2100.9000000059605","images/train5.png","","","learning","-2","0","0","0","train","vehicles","2","0","","good","[5]"
"html-keyboard-response","102","625607","0.0-9.0-2.0-0.15","6223","2","9","Female","approach_avoid_spark_v1","""event"",""trial"",""time""
""fullscreenenter"",""1"",""2101""
","
","
","""event"",""trial"",""time""
""fullscreenenter"",""1"",""2101""
","
","","","","","","null","<div style=""font-size:60px;"">+</div>","null","","fixation","","","","","","","","","","",""
"aa-learning-trial","103","628614","0.0-9.0-2.0-1.15","6223","2","9","Female","approach_avoid_spark_v1","""event"",""trial"",""time""
""fullscreenenter"",""1"",""2101""
","
","
","""event"",""trial"",""time""
""fullscreenenter"",""1"",""2101""
","
","","","","","","2757.2999999821186","images/plane2.png","","","learning","-5","0","0","0","plane","vehicles","2","0","","bad","[-6]"
"html-keyboard-response","104","629119","0.0-9.0-2.0-0.16","6223","2","9","Female","approach_avoid_spark_v1","""event"",""trial"",""time""
""fullscreenenter"",""1"",""2101""
","
","
","""event"",""trial"",""time""
""fullscreenenter"",""1"",""2101""
","
","","","","","","null","<div style=""font-size:60px;"">+</div>","null","","fixation","","","","","","","","","","",""
"aa-learning-trial","105","632128","0.0-9.0-2.0-1.16","6223","2","9","Female","approach_avoid_spark_v1","""event"",""trial"",""time""
""fullscreenenter"",""1"",""2101""
","
","
","""event"",""trial"",""time""
""fullscreenenter"",""1"",""2101""
","
","","","","","","1521.5999999940395","images/truck1.png","","","learning","6","6","1","1","truck","vehicles","2","0","","neutral","0"
"html-keyboard-response","106","632632","0.0-9.0-2.0-0.17","6223","2","9","Female","approach_avoid_spark_v1","""event"",""trial"",""time""
""fullscreenenter"",""1"",""2101""
","
","
","""event"",""trial"",""time""
""fullscreenenter"",""1"",""2101""
","
","","","","","","null","<div style=""font-size:60px;"">+</div>","null","","fixation","","","","","","","","","","",""
"aa-learning-trial","107","635640","0.0-9.0-2.0-1.17","6223","2","9","Female","approach_avoid_spark_v1","""event"",""trial"",""time""
""fullscreenenter"",""1"",""2101""
","
","
","""event"",""trial"",""time""
""fullscreenenter"",""1"",""2101""
","
","","","","","","2726.7999999821186","images/plane8.png","","","learning","-6","-6","1","1","plane","vehicles","2","0","","bad","[-6]"
"html-keyboard-response","108","636144","0.0-9.0-2.0-0.18","6223","2","9","Female","approach_avoid_spark_v1","""event"",""trial"",""time""
""fullscreenenter"",""1"",""2101""
","
","
","""event"",""trial"",""time""
""fullscreenenter"",""1"",""2101""
","
","","","","","","null","<div style=""font-size:60px;"">+</div>","null","","fixation","","","","","","","","","","",""
"aa-learning-trial","109","639147","0.0-9.0-2.0-1.18","6223","2","9","Female","approach_avoid_spark_v1","""event"",""trial"",""time""
""fullscreenenter"",""1"",""2101""
","
","
","""event"",""trial"",""time""
""fullscreenenter"",""1"",""2101""
","
","","","","","","2869","images/truck7.png","","","learning","3","0","0","0","truck","vehicles","2","0","","neutral","0"
"html-keyboard-response","110","639655","0.0-9.0-2.0-0.19","6223","2","9","Female","approach_avoid_spark_v1","""event"",""trial"",""time""
""fullscreenenter"",""1"",""2101""
","
","
","""event"",""trial"",""time""
""fullscreenenter"",""1"",""2101""
","
","","","","","","null","<div style=""font-size:60px;"">+</div>","null","","fixation","","","","","","","","","","",""
"aa-learning-trial","111","642664","0.0-9.0-2.0-1.19","6223","2","9","Female","approach_avoid_spark_v1","""event"",""trial"",""time""
""fullscreenenter"",""1"",""2101""
","
","
","""event"",""trial"",""time""
""fullscreenenter"",""1"",""2101""
","
","","","","","","1120.5","images/truck7.png","","","learning","3","0","0","0","truck","vehicles","2","0","","neutral","0"
"html-keyboard-response","112","643178","0.0-9.0-2.0-0.20","6223","2","9","Female","approach_avoid_spark_v1","""event"",""trial"",""time""
""fullscreenenter"",""1"",""2101""
","
","
","""event"",""trial"",""time""
""fullscreenenter"",""1"",""2101""
","
","","","","","","null","<div style=""font-size:60px;"">+</div>","null","","fixation","","","","","","","","","","",""
"aa-learning-trial","113","646184","0.0-9.0-2.0-1.20","6223","2","9","Female","approach_avoid_spark_v1","""event"",""trial"",""time""
""fullscreenenter"",""1"",""2101""
","
","
","""event"",""trial"",""time""
""fullscreenenter"",""1"",""2101""
","
","","","","","","2359.0999999940395","images/train5.png","","","learning","-2","0","0","0","train","vehicles","2","0","","good","[5]"
"html-keyboard-response","114","646687","0.0-9.0-2.0-0.21","6223","2","9","Female","approach_avoid_spark_v1","""event"",""trial"",""time""
""fullscreenenter"",""1"",""2101""
","
","
","""event"",""trial"",""time""
""fullscreenenter"",""1"",""2101""
","
","","","","","","null","<div style=""font-size:60px;"">+</div>","null","","fixation","","","","","","","","","","",""
"aa-learning-trial","115","649696","0.0-9.0-2.0-1.21","6223","2","9","Female","approach_avoid_spark_v1","""event"",""trial"",""time""
""fullscreenenter"",""1"",""2101""
","
","
","""event"",""trial"",""time""
""fullscreenenter"",""1"",""2101""
","
","","","","","","1906.0999999940395","images/truck2.png","","","learning","-3","-3","1","1","truck","vehicles","2","0","","neutral","0"
"html-keyboard-response","116","650199","0.0-9.0-2.0-0.22","6223","2","9","Female","approach_avoid_spark_v1","""event"",""trial"",""time""
""fullscreenenter"",""1"",""2101""
","
","
","""event"",""trial"",""time""
""fullscreenenter"",""1"",""2101""
","
","","","","","","null","<div style=""font-size:60px;"">+</div>","null","","fixation","","","","","","","","","","",""
"aa-learning-trial","117","653207","0.0-9.0-2.0-1.22","6223","2","9","Female","approach_avoid_spark_v1","""event"",""trial"",""time""
""fullscreenenter"",""1"",""2101""
","
","
","""event"",""trial"",""time""
""fullscreenenter"",""1"",""2101""
","
","","","","","","1614.300000011921","images/truck1.png","","","learning","6","6","1","1","truck","vehicles","2","0","","neutral","0"
"html-keyboard-response","118","653712","0.0-9.0-2.0-0.23","6223","2","9","Female","approach_avoid_spark_v1","""event"",""trial"",""time""
""fullscreenenter"",""1"",""2101""
","
","
","""event"",""trial"",""time""
""fullscreenenter"",""1"",""2101""
","
","","","","","","null","<div style=""font-size:60px;"">+</div>","null","","fixation","","","","","","","","","","",""
"aa-learning-trial","119","656720","0.0-9.0-2.0-1.23","6223","2","9","Female","approach_avoid_spark_v1","""event"",""trial"",""time""
""fullscreenenter"",""1"",""2101""
","
","
","""event"",""trial"",""time""
""fullscreenenter"",""1"",""2101""
","
","","","","","","1621.0999999940395","images/train6.png","","","learning","-7","0","0","0","train","vehicles","2","0","","good","[5]"
"html-keyboard-response","120","657224","0.0-9.0-2.0-0.24","6223","2","9","Female","approach_avoid_spark_v1","""event"",""trial"",""time""
""fullscreenenter"",""1"",""2101""
","
","
","""event"",""trial"",""time""
""fullscreenenter"",""1"",""2101""
","
","","","","","","null","<div style=""font-size:60px;"">+</div>","null","","fixation","","","","","","","","","","",""
"aa-learning-trial","121","660232","0.0-9.0-2.0-1.24","6223","2","9","Female","approach_avoid_spark_v1","""event"",""trial"",""time""
""fullscreenenter"",""1"",""2101""
","
","
","""event"",""trial"",""time""
""fullscreenenter"",""1"",""2101""
","
","","","","","","2126.9000000059605","images/truck7.png","","","learning","3","0","0","0","truck","vehicles","2","0","","neutral","0"
"html-keyboard-response","122","660735","0.0-9.0-2.0-0.25","6223","2","9","Female","approach_avoid_spark_v1","""event"",""trial"",""time""
""fullscreenenter"",""1"",""2101""
","
","
","""event"",""trial"",""time""
""fullscreenenter"",""1"",""2101""
","
","","","","","","null","<div style=""font-size:60px;"">+</div>","null","","fixation","","","","","","","","","","",""
"aa-learning-trial","123","663744","0.0-9.0-2.0-1.25","6223","2","9","Female","approach_avoid_spark_v1","""event"",""trial"",""time""
""fullscreenenter"",""1"",""2101""
","
","
","""event"",""trial"",""time""
""fullscreenenter"",""1"",""2101""
","
","","","","","","1924.6000000238419","images/train5.png","","","learning","-2","0","0","0","train","vehicles","2","0","","good","[5]"
"html-keyboard-response","124","664247","0.0-9.0-2.0-0.26","6223","2","9","Female","approach_avoid_spark_v1","""event"",""trial"",""time""
""fullscreenenter"",""1"",""2101""
","
","
","""event"",""trial"",""time""
""fullscreenenter"",""1"",""2101""
","
","","","","","","null","<div style=""font-size:60px;"">+</div>","null","","fixation","","","","","","","","","","",""
"aa-learning-trial","125","667256","0.0-9.0-2.0-1.26","6223","2","9","Female","approach_avoid_spark_v1","""event"",""trial"",""time""
""fullscreenenter"",""1"",""2101""
","
","
","""event"",""trial"",""time""
""fullscreenenter"",""1"",""2101""
","
","","","","","","998.5","images/train5.png","","","learning","-2","0","0","0","train","vehicles","2","0","","good","[5]"
"html-keyboard-response","126","667760","0.0-9.0-2.0-0.27","6223","2","9","Female","approach_avoid_spark_v1","""event"",""trial"",""time""
""fullscreenenter"",""1"",""2101""
","
","
","""event"",""trial"",""time""
""fullscreenenter"",""1"",""2101""
","
","","","","","","null","<div style=""font-size:60px;"">+</div>","null","","fixation","","","","","","","","","","",""
"aa-learning-trial","127","670768","0.0-9.0-2.0-1.27","6223","2","9","Female","approach_avoid_spark_v1","""event"",""trial"",""time""
""fullscreenenter"",""1"",""2101""
","
","
","""event"",""trial"",""time""
""fullscreenenter"",""1"",""2101""
","
","","","","","","838.4000000059605","images/train5.png","","","learning","-2","0","0","0","train","vehicles","2","0","","good","[5]"
"html-keyboard-response","128","671272","0.0-9.0-2.0-0.28","6223","2","9","Female","approach_avoid_spark_v1","""event"",""trial"",""time""
""fullscreenenter"",""1"",""2101""
","
","
","""event"",""trial"",""time""
""fullscreenenter"",""1"",""2101""
","
","","","","","","null","<div style=""font-size:60px;"">+</div>","null","","fixation","","","","","","","","","","",""
"aa-learning-trial","129","674280","0.0-9.0-2.0-1.28","6223","2","9","Female","approach_avoid_spark_v1","""event"",""trial"",""time""
""fullscreenenter"",""1"",""2101""
","
","
","""event"",""trial"",""time""
""fullscreenenter"",""1"",""2101""
","
","","","","","","1802.9000000059605","images/plane2.png","","","learning","-5","0","0","0","plane","vehicles","2","0","","bad","[-6]"
"html-keyboard-response","130","674784","0.0-9.0-2.0-0.29","6223","2","9","Female","approach_avoid_spark_v1","""event"",""trial"",""time""
""fullscreenenter"",""1"",""2101""
","
","
","""event"",""trial"",""time""
""fullscreenenter"",""1"",""2101""
","
","","","","","","null","<div style=""font-size:60px;"">+</div>","null","","fixation","","","","","","","","","","",""
"aa-learning-trial","131","677792","0.0-9.0-2.0-1.29","6223","2","9","Female","approach_avoid_spark_v1","""event"",""trial"",""time""
""fullscreenenter"",""1"",""2101""
","
","
","""event"",""trial"",""time""
""fullscreenenter"",""1"",""2101""
","
","","","","","","null","images/truck7.png","","","learning","3","-5","","null","truck","vehicles","2","0","","neutral","0"
"html-keyboard-response","132","678296","0.0-9.0-2.0-0.30","6223","2","9","Female","approach_avoid_spark_v1","""event"",""trial"",""time""
""fullscreenenter"",""1"",""2101""
","
","
","""event"",""trial"",""time""
""fullscreenenter"",""1"",""2101""
","
","","","","","","null","<div style=""font-size:60px;"">+</div>","null","","fixation","","","","","","","","","","",""
"aa-learning-trial","133","681304","0.0-9.0-2.0-1.30","6223","2","9","Female","approach_avoid_spark_v1","""event"",""trial"",""time""
""fullscreenenter"",""1"",""2101""
","
","
","""event"",""trial"",""time""
""fullscreenenter"",""1"",""2101""
","
","","","","","","1933.5999999940395","images/truck5.png","","","learning","-8","-8","1","1","truck","vehicles","2","0","","neutral","0"
"html-keyboard-response","134","681807","0.0-9.0-2.0-0.31","6223","2","9","Female","approach_avoid_spark_v1","""event"",""trial"",""time""
""fullscreenenter"",""1"",""2101""
","
","
","""event"",""trial"",""time""
""fullscreenenter"",""1"",""2101""
","
","","","","","","null","<div style=""font-size:60px;"">+</div>","null","","fixation","","","","","","","","","","",""
"aa-learning-trial","135","684816","0.0-9.0-2.0-1.31","6223","2","9","Female","approach_avoid_spark_v1","""event"",""trial"",""time""
""fullscreenenter"",""1"",""2101""
","
","
","""event"",""trial"",""time""
""fullscreenenter"",""1"",""2101""
","
","","","","","","2251.300000011921","images/plane7.png","","","learning","7","0","0","0","plane","vehicles","2","0","","bad","[-6]"
"html-keyboard-response","136","685320","0.0-9.0-2.0-0.32","6223","2","9","Female","approach_avoid_spark_v1","""event"",""trial"",""time""
""fullscreenenter"",""1"",""2101""
","
","
","""event"",""trial"",""time""
""fullscreenenter"",""1"",""2101""
","
","","","","","","null","<div style=""font-size:60px;"">+</div>","null","","fixation","","","","","","","","","","",""
"aa-learning-trial","137","688328","0.0-9.0-2.0-1.32","6223","2","9","Female","approach_avoid_spark_v1","""event"",""trial"",""time""
""fullscreenenter"",""1"",""2101""
","
","
","""event"",""trial"",""time""
""fullscreenenter"",""1"",""2101""
","
","","","","","","2480.9000000059605","images/plane2.png","","","learning","-5","0","0","0","plane","vehicles","2","0","","bad","[-6]"
"html-keyboard-response","138","688845","0.0-9.0-2.0-0.33","6223","2","9","Female","approach_avoid_spark_v1","""event"",""trial"",""time""
""fullscreenenter"",""1"",""2101""
","
","
","""event"",""trial"",""time""
""fullscreenenter"",""1"",""2101""
","
","","","","","","null","<div style=""font-size:60px;"">+</div>","null","","fixation","","","","","","","","","","",""
"aa-learning-trial","139","691848","0.0-9.0-2.0-1.33","6223","2","9","Female","approach_avoid_spark_v1","""event"",""trial"",""time""
""fullscreenenter"",""1"",""2101""
","
","
","""event"",""trial"",""time""
""fullscreenenter"",""1"",""2101""
","
","","","","","","2180.4000000059605","images/train8.png","","","learning","8","8","1","1","train","vehicles","2","0","","good","[5]"
"html-keyboard-response","140","692352","0.0-9.0-2.0-0.34","6223","2","9","Female","approach_avoid_spark_v1","""event"",""trial"",""time""
""fullscreenenter"",""1"",""2101""
","
","
","""event"",""trial"",""time""
""fullscreenenter"",""1"",""2101""
","
","","","","","","null","<div style=""font-size:60px;"">+</div>","null","","fixation","","","","","","","","","","",""
"aa-learning-trial","141","695360","0.0-9.0-2.0-1.34","6223","2","9","Female","approach_avoid_spark_v1","""event"",""trial"",""time""
""fullscreenenter"",""1"",""2101""
","
","
","""event"",""trial"",""time""
""fullscreenenter"",""1"",""2101""
","
","","","","","","2069.699999988079","images/plane1.png","","","learning","5","0","0","0","plane","vehicles","2","0","","bad","[-6]"
"html-keyboard-response","142","695864","0.0-9.0-2.0-0.35","6223","2","9","Female","approach_avoid_spark_v1","""event"",""trial"",""time""
""fullscreenenter"",""1"",""2101""
","
","
","""event"",""trial"",""time""
""fullscreenenter"",""1"",""2101""
","
","","","","","","null","<div style=""font-size:60px;"">+</div>","null","","fixation","","","","","","","","","","",""
"aa-learning-trial","143","698872","0.0-9.0-2.0-1.35","6223","2","9","Female","approach_avoid_spark_v1","""event"",""trial"",""time""
""fullscreenenter"",""1"",""2101""
","
","
","""event"",""trial"",""time""
""fullscreenenter"",""1"",""2101""
","
","","","","","","1867.7000000178814","images/truck3.png","","","learning","-1","-1","1","1","truck","vehicles","2","0","","neutral","0"
"html-keyboard-response","144","699376","0.0-9.0-2.0-0.36","6223","2","9","Female","approach_avoid_spark_v1","""event"",""trial"",""time""
""fullscreenenter"",""1"",""2101""
","
","
","""event"",""trial"",""time""
""fullscreenenter"",""1"",""2101""
","
","","","","","","null","<div style=""font-size:60px;"">+</div>","null","","fixation","","","","","","","","","","",""
"aa-learning-trial","145","702384","0.0-9.0-2.0-1.36","6223","2","9","Female","approach_avoid_spark_v1","""event"",""trial"",""time""
""fullscreenenter"",""1"",""2101""
","
","
","""event"",""trial"",""time""
""fullscreenenter"",""1"",""2101""
","
","","","","","","1994.300000011921","images/train6.png","","","learning","-7","0","0","0","train","vehicles","2","0","","good","[5]"
"html-keyboard-response","146","702888","0.0-9.0-2.0-0.37","6223","2","9","Female","approach_avoid_spark_v1","""event"",""trial"",""time""
""fullscreenenter"",""1"",""2101""
","
","
","""event"",""trial"",""time""
""fullscreenenter"",""1"",""2101""
","
","","","","","","null","<div style=""font-size:60px;"">+</div>","null","","fixation","","","","","","","","","","",""
"aa-learning-trial","147","705890","0.0-9.0-2.0-1.37","6223","2","9","Female","approach_avoid_spark_v1","""event"",""trial"",""time""
""fullscreenenter"",""1"",""2101""
","
","
","""event"",""trial"",""time""
""fullscreenenter"",""1"",""2101""
","
","","","","","","1669.4000000059605","images/plane7.png","","","learning","7","7","1","1","plane","vehicles","2","0","","bad","[-6]"
"html-keyboard-response","148","706392","0.0-9.0-2.0-0.38","6223","2","9","Female","approach_avoid_spark_v1","""event"",""trial"",""time""
""fullscreenenter"",""1"",""2101""
","
","
","""event"",""trial"",""time""
""fullscreenenter"",""1"",""2101""
","
","","","","","","null","<div style=""font-size:60px;"">+</div>","null","","fixation","","","","","","","","","","",""
"aa-learning-trial","149","709400","0.0-9.0-2.0-1.38","6223","2","9","Female","approach_avoid_spark_v1","""event"",""trial"",""time""
""fullscreenenter"",""1"",""2101""
","
","
","""event"",""trial"",""time""
""fullscreenenter"",""1"",""2101""
","
","","","","","","null","images/train7.png","","","learning","-4","-5","","null","train","vehicles","2","0","","good","[5]"
"html-keyboard-response","150","709904","0.0-9.0-2.0-0.39","6223","2","9","Female","approach_avoid_spark_v1","""event"",""trial"",""time""
""fullscreenenter"",""1"",""2101""
","
","
","""event"",""trial"",""time""
""fullscreenenter"",""1"",""2101""
","
","","","","","","null","<div style=""font-size:60px;"">+</div>","null","","fixation","","","","","","","","","","",""
"aa-learning-trial","151","712913","0.0-9.0-2.0-1.39","6223","2","9","Female","approach_avoid_spark_v1","""event"",""trial"",""time""
""fullscreenenter"",""1"",""2101""
","
","
","""event"",""trial"",""time""
""fullscreenenter"",""1"",""2101""
","
","","","","","","889.5","images/truck1.png","","","learning","6","0","0","0","truck","vehicles","2","0","","neutral","0"
"html-keyboard-response","152","713417","0.0-9.0-2.0-0.40","6223","2","9","Female","approach_avoid_spark_v1","""event"",""trial"",""time""
""fullscreenenter"",""1"",""2101""
","
","
","""event"",""trial"",""time""
""fullscreenenter"",""1"",""2101""
","
","","","","","","null","<div style=""font-size:60px;"">+</div>","null","","fixation","","","","","","","","","","",""
"aa-learning-trial","153","716423","0.0-9.0-2.0-1.40","6223","2","9","Female","approach_avoid_spark_v1","""event"",""trial"",""time""
""fullscreenenter"",""1"",""2101""
","
","
","""event"",""trial"",""time""
""fullscreenenter"",""1"",""2101""
","
","","","","","","2056.800000011921","images/train7.png","","","learning","-4","-4","1","1","train","vehicles","2","0","","good","[5]"
"html-keyboard-response","154","716928","0.0-9.0-2.0-0.41","6223","2","9","Female","approach_avoid_spark_v1","""event"",""trial"",""time""
""fullscreenenter"",""1"",""2101""
","
","
","""event"",""trial"",""time""
""fullscreenenter"",""1"",""2101""
","
","","","","","","null","<div style=""font-size:60px;"">+</div>","null","","fixation","","","","","","","","","","",""
"aa-learning-trial","155","719936","0.0-9.0-2.0-1.41","6223","2","9","Female","approach_avoid_spark_v1","""event"",""trial"",""time""
""fullscreenenter"",""1"",""2101""
","
","
","""event"",""trial"",""time""
""fullscreenenter"",""1"",""2101""
","
","","","","","","1606.3999999761581","images/train6.png","","","learning","-7","0","0","0","train","vehicles","2","0","","good","[5]"
"html-keyboard-response","156","720440","0.0-9.0-2.0-0.42","6223","2","9","Female","approach_avoid_spark_v1","""event"",""trial"",""time""
""fullscreenenter"",""1"",""2101""
","
","
","""event"",""trial"",""time""
""fullscreenenter"",""1"",""2101""
","
","","","","","","null","<div style=""font-size:60px;"">+</div>","null","","fixation","","","","","","","","","","",""
"aa-learning-trial","157","723449","0.0-9.0-2.0-1.42","6223","2","9","Female","approach_avoid_spark_v1","""event"",""trial"",""time""
""fullscreenenter"",""1"",""2101""
","
","
","""event"",""trial"",""time""
""fullscreenenter"",""1"",""2101""
","
","","","","","","1563.4000000059605","images/train4.png","","","learning","4","4","1","1","train","vehicles","2","0","","good","[5]"
"html-keyboard-response","158","723952","0.0-9.0-2.0-0.43","6223","2","9","Female","approach_avoid_spark_v1","""event"",""trial"",""time""
""fullscreenenter"",""1"",""2101""
","
","
","""event"",""trial"",""time""
""fullscreenenter"",""1"",""2101""
","
","","","","","","null","<div style=""font-size:60px;"">+</div>","null","","fixation","","","","","","","","","","",""
"aa-learning-trial","159","726960","0.0-9.0-2.0-1.43","6223","2","9","Female","approach_avoid_spark_v1","""event"",""trial"",""time""
""fullscreenenter"",""1"",""2101""
","
","
","""event"",""trial"",""time""
""fullscreenenter"",""1"",""2101""
","
","","","","","","1291.5999999940395","images/plane1.png","","","learning","5","0","0","0","plane","vehicles","2","0","","bad","[-6]"
"html-keyboard-response","160","727464","0.0-9.0-2.0-0.44","6223","2","9","Female","approach_avoid_spark_v1","""event"",""trial"",""time""
""fullscreenenter"",""1"",""2101""
","
","
","""event"",""trial"",""time""
""fullscreenenter"",""1"",""2101""
","
","","","","","","null","<div style=""font-size:60px;"">+</div>","null","","fixation","","","","","","","","","","",""
"aa-learning-trial","161","730473","0.0-9.0-2.0-1.44","6223","2","9","Female","approach_avoid_spark_v1","""event"",""trial"",""time""
""fullscreenenter"",""1"",""2101""
","
","
","""event"",""trial"",""time""
""fullscreenenter"",""1"",""2101""
","
","","","","","","2011.0999999940395","images/truck1.png","","","learning","6","6","1","1","truck","vehicles","2","0","","neutral","0"
"html-keyboard-response","162","730977","0.0-9.0-2.0-0.45","6223","2","9","Female","approach_avoid_spark_v1","""event"",""trial"",""time""
""fullscreenenter"",""1"",""2101""
","
","
","""event"",""trial"",""time""
""fullscreenenter"",""1"",""2101""
","
","","","","","","null","<div style=""font-size:60px;"">+</div>","null","","fixation","","","","","","","","","","",""
"aa-learning-trial","163","733984","0.0-9.0-2.0-1.45","6223","2","9","Female","approach_avoid_spark_v1","""event"",""trial"",""time""
""fullscreenenter"",""1"",""2101""
","
","
","""event"",""trial"",""time""
""fullscreenenter"",""1"",""2101""
","
","","","","","","null","images/plane6.png","","","learning","2","-5","","null","plane","vehicles","2","0","","bad","[-6]"
"html-keyboard-response","164","734489","0.0-9.0-2.0-0.46","6223","2","9","Female","approach_avoid_spark_v1","""event"",""trial"",""time""
""fullscreenenter"",""1"",""2101""
","
","
","""event"",""trial"",""time""
""fullscreenenter"",""1"",""2101""
","
","","","","","","null","<div style=""font-size:60px;"">+</div>","null","","fixation","","","","","","","","","","",""
"aa-learning-trial","165","737496","0.0-9.0-2.0-1.46","6223","2","9","Female","approach_avoid_spark_v1","""event"",""trial"",""time""
""fullscreenenter"",""1"",""2101""
","
","
","""event"",""trial"",""time""
""fullscreenenter"",""1"",""2101""
","
","","","","","","1513.5","images/truck3.png","","","learning","-1","-1","1","1","truck","vehicles","2","0","","neutral","0"
"html-keyboard-response","166","738001","0.0-9.0-2.0-0.47","6223","2","9","Female","approach_avoid_spark_v1","""event"",""trial"",""time""
""fullscreenenter"",""1"",""2101""
","
","
","""event"",""trial"",""time""
""fullscreenenter"",""1"",""2101""
","
","","","","","","null","<div style=""font-size:60px;"">+</div>","null","","fixation","","","","","","","","","","",""
"aa-learning-trial","167","741009","0.0-9.0-2.0-1.47","6223","2","9","Female","approach_avoid_spark_v1","""event"",""trial"",""time""
""fullscreenenter"",""1"",""2101""
","
","
","""event"",""trial"",""time""
""fullscreenenter"",""1"",""2101""
","
","","","","","","2669","images/plane1.png","","","learning","5","0","0","0","plane","vehicles","2","0","","bad","[-6]"
"html-keyboard-response","168","741513","0.0-9.0-2.0-0.48","6223","2","9","Female","approach_avoid_spark_v1","""event"",""trial"",""time""
""fullscreenenter"",""1"",""2101""
","
","
","""event"",""trial"",""time""
""fullscreenenter"",""1"",""2101""
","
","","","","","","null","<div style=""font-size:60px;"">+</div>","null","","fixation","","","","","","","","","","",""
"aa-learning-trial","169","744521","0.0-9.0-2.0-1.48","6223","2","9","Female","approach_avoid_spark_v1","""event"",""trial"",""time""
""fullscreenenter"",""1"",""2101""
","
","
","""event"",""trial"",""time""
""fullscreenenter"",""1"",""2101""
","
","","","","","","1386.7000000178814","images/plane1.png","","","learning","5","5","1","1","plane","vehicles","2","0","","bad","[-6]"
"html-keyboard-response","170","745026","0.0-9.0-2.0-0.49","6223","2","9","Female","approach_avoid_spark_v1","""event"",""trial"",""time""
""fullscreenenter"",""1"",""2101""
","
","
","""event"",""trial"",""time""
""fullscreenenter"",""1"",""2101""
","
","","","","","","null","<div style=""font-size:60px;"">+</div>","null","","fixation","","","","","","","","","","",""
"aa-learning-trial","171","748032","0.0-9.0-2.0-1.49","6223","2","9","Female","approach_avoid_spark_v1","""event"",""trial"",""time""
""fullscreenenter"",""1"",""2101""
","
","
","""event"",""trial"",""time""
""fullscreenenter"",""1"",""2101""
","
","","","","","","2501.699999988079","images/train6.png","","","learning","-7","0","0","0","train","vehicles","2","0","","good","[5]"
"html-keyboard-response","172","748536","0.0-9.0-2.0-0.50","6223","2","9","Female","approach_avoid_spark_v1","""event"",""trial"",""time""
""fullscreenenter"",""1"",""2101""
","
","
","""event"",""trial"",""time""
""fullscreenenter"",""1"",""2101""
","
","","","","","","null","<div style=""font-size:60px;"">+</div>","null","","fixation","","","","","","","","","","",""
"aa-learning-trial","173","751544","0.0-9.0-2.0-1.50","6223","2","9","Female","approach_avoid_spark_v1","""event"",""trial"",""time""
""fullscreenenter"",""1"",""2101""
","
","
","""event"",""trial"",""time""
""fullscreenenter"",""1"",""2101""
","
","","","","","","1469.300000011921","images/plane2.png","","","learning","-5","0","0","0","plane","vehicles","2","0","","bad","[-6]"
"html-button-response","174","757215","0.0-9.0-3.0","6223","2","9","Female","approach_avoid_spark_v1","""event"",""trial"",""time""
""fullscreenenter"",""1"",""2101""
","
","
","""event"",""trial"",""time""
""fullscreenenter"",""1"",""2101""
","
","","","","","","5669.5999999940395","<p> You have completed the round! <p> In this round, you earned 12 points! </p>","0","","break","","","","","","","","","","",""
"html-button-response","175","759031","0.0-10.0","6223","2","9","Female","approach_avoid_spark_v1","""event"",""trial"",""time""
""fullscreenenter"",""1"",""2101""
","
","
","""event"",""trial"",""time""
""fullscreenenter"",""1"",""2101""
","
","","","","","","1815.6000000238419","<p> Now it's time to play another round. </p>","0","","transition_screen","","","","","","","","","","",""
"preload","176","759156","0.0-11.0-0.0","6223","2","9","Female","approach_avoid_spark_v1","""event"",""trial"",""time""
""fullscreenenter"",""1"",""2101""
","
","
","""event"",""trial"",""time""
""fullscreenenter"",""1"",""2101""
","
","true","false","[]","[]","[]","","","","","","","","","","","","","","","",""
"learning-instructions","177","768341","0.0-11.0-1.0-0.0","6223","2","9","Female","approach_avoid_spark_v1","""event"",""trial"",""time""
""fullscreenenter"",""1"",""2101""
","
","
","""event"",""trial"",""time""
""fullscreenenter"",""1"",""2101""
","
","","","","","","3259.300000011921","<p> Your goal in this round is to sell different plants to a picky customer. </p></div>","","0","instructions","","","","","","","","","","",""
"learning-instructions","178","784599","0.0-11.0-1.0-0.1","6223","2","9","Female","approach_avoid_spark_v1","""event"",""trial"",""time""
""fullscreenenter"",""1"",""2101""
","
","
","""event"",""trial"",""time""
""fullscreenenter"",""1"",""2101""
","
","","","","","","6467.800000011921","<p> The customer likes some plants and dislikes others.  </p><p> On each turn, you will see a plant.   </p><p> You need to decide whether to offer it to the customer or not.  </p>","","0","instructions","","","","","","","","","","",""
"learning-instructions","179","792742","0.0-11.0-1.0-0.2","6223","2","9","Female","approach_avoid_spark_v1","""event"",""trial"",""time""
""fullscreenenter"",""1"",""2101""
","
","
","""event"",""trial"",""time""
""fullscreenenter"",""1"",""2101""
","
","","","","","","2421","<p> You can offer the plant by pressing 1 and decide to not offer it by pressing 0. </p><br><div class=""choice-instructions-grid""> <div class=""choice-option""><img src=""images/approach.png"" class=""choice-option-img"" stage=""instructions"" position=""0"" ><div class=""choice-option-text""> Press ""1."" </div></div><div class=""choice-option""><img src=""images/avoid.png"" class=""choice-option-img"" stage=""instructions"" position=""1"" ><div class=""choice-option-text""> Press ""0."" </div></div>","","0","instructions","","","","","","","","","","",""
"learning-instructions","180","803171","0.0-11.0-1.0-0.3","6223","2","9","Female","approach_avoid_spark_v1","""event"",""trial"",""time""
""fullscreenenter"",""1"",""2101""
","
","
","""event"",""trial"",""time""
""fullscreenenter"",""1"",""2101""
","
","","","","","","710.3000000119209","<p> If you offer a plant to the customer that she likes, she will be very pleased! </p><p> But if you offer a plant that she does NOT like, she will be annoyed. </p>","","0","instructions","","","","","","","","","","",""
"learning-instructions","181","821511","0.0-11.0-1.0-0.4","6223","2","9","Female","approach_avoid_spark_v1","""event"",""trial"",""time""
""fullscreenenter"",""1"",""2101""
","
","
","""event"",""trial"",""time""
""fullscreenenter"",""1"",""2101""
","
","","","","","","5580.5999999940395","<p> You will earn points based on how you made the customer feel. </p><p> If you made her pleased, you will WIN anywhere from 1 - 9 points, </p><p> but if you made her annoyed, you will LOSE anywhere from 1 - 9 points. </p>","","0","instructions","","","","","","","","","","",""
"learning-instructions","182","830500","0.0-11.0-1.0-0.5","6223","2","9","Female","approach_avoid_spark_v1","""event"",""trial"",""time""
""fullscreenenter"",""1"",""2101""
","
","
","""event"",""trial"",""time""
""fullscreenenter"",""1"",""2101""
","
","","","","","","2329.5999999940395","<p> You will see how many points you won or lost in the center of the screen. </p><p> Here is what you would see if you won 5 points: </p><p style=""color:green;font-size:50px;font-weight:bolder"">5</p>","","0","instructions","","","","","","","","","","",""
"learning-instructions","183","835778","0.0-11.0-1.0-0.6","6223","2","9","Female","approach_avoid_spark_v1","""event"",""trial"",""time""
""fullscreenenter"",""1"",""2101""
","
","
","""event"",""trial"",""time""
""fullscreenenter"",""1"",""2101""
","
","","","","","","2428.4000000059605","<p> And here is what you would see if you lost 3 points: </p><p style=""color:red;font-size:50px;font-weight:bolder"">-3</p>","","0","instructions","","","","","","","","","","",""
"learning-instructions","184","853470","0.0-11.0-1.0-0.7","6223","2","9","Female","approach_avoid_spark_v1","""event"",""trial"",""time""
""fullscreenenter"",""1"",""2101""
","
","
","""event"",""trial"",""time""
""fullscreenenter"",""1"",""2101""
","
","","","","","","1310.0999999940395","<p> Some plants will make the customer VERY pleased or annoyed. </p><p> These plants will make you win or lose LOTS of points. </p><p> The customer will have less strong feelings about other plants. </p><p> These plants will make you win or lose small amounts of points. </p>","","0","instructions","","","","","","","","","","",""
"learning-instructions","185","867699","0.0-11.0-1.0-0.8","6223","2","9","Female","approach_avoid_spark_v1","""event"",""trial"",""time""
""fullscreenenter"",""1"",""2101""
","
","
","""event"",""trial"",""time""
""fullscreenenter"",""1"",""2101""
","
","","","","","","1359.699999988079","<p> If you choose to not offer the plant to the customer, you will not win or lose any points. </p><p>  However, in the center of the screen, you will see the number of points you WOULD HAVE won or lost if you had offered the plant. </p>","","0","instructions","","","","","","","","","","",""
"learning-instructions","186","889744","0.0-11.0-1.0-0.9","6223","2","9","Female","approach_avoid_spark_v1","""event"",""trial"",""time""
""fullscreenenter"",""1"",""2101""
","
","
","""event"",""trial"",""time""
""fullscreenenter"",""1"",""2101""
","
","","","","","","7095.5999999940395","<p> Here is what you might see if you did not offer the plant but the customer would have liked it: </p><p style=""color:grey; font-size:50px; display: inline-block; border-spacing: 15px; border-width:3px; border-style:solid; border-color:red"">  &nbsp; 6 &nbsp; </p><p> Remember, in this case, you would not win or lose ANY points because you did not offer the plant.  </p>","","0","instructions","","","","","","","","","","",""
"learning-instructions","187","900770","0.0-11.0-1.0-0.10","6223","2","9","Female","approach_avoid_spark_v1","""event"",""trial"",""time""
""fullscreenenter"",""1"",""2101""
","
","
","""event"",""trial"",""time""
""fullscreenenter"",""1"",""2101""
","
","","","","","","3130.5","<p> Try to make the best choice for each plant because </p><p> at the end of the game, you will earn bonus money based on how many points you earned. </p>","","0","instructions","","","","","","","","","","",""
"learning-instructions","188","910929","0.0-11.0-1.0-0.11","6223","2","9","Female","approach_avoid_spark_v1","""event"",""trial"",""time""
""fullscreenenter"",""1"",""2101""
","
","
","""event"",""trial"",""time""
""fullscreenenter"",""1"",""2101""
","
","","","","","","1969.7999999821186","<p> You will have 3 seconds to make each choice. Try to respond before time runs out! </p><p> You will lose 5 points each time you do not make a response. </p>","","0","instructions","","","","","","","","","","",""
"html-keyboard-response","189","911560","0.0-11.0-2.0-0.0","6223","2","9","Female","approach_avoid_spark_v1","""event"",""trial"",""time""
""fullscreenenter"",""1"",""2101""
","
","
","""event"",""trial"",""time""
""fullscreenenter"",""1"",""2101""
","
","","","","","","null","<div style=""font-size:60px;"">+</div>","null","","fixation","","","","","","","","","","",""
"aa-learning-trial","190","914585","0.0-11.0-2.0-1.0","6223","2","9","Female","approach_avoid_spark_v1","""event"",""trial"",""time""
""fullscreenenter"",""1"",""2101""
","
","
","""event"",""trial"",""time""
""fullscreenenter"",""1"",""2101""
","
","","","","","","3023","images/cactus5.png","","","learning","4","4","1","1","cactus","plants","1","1","","good","[5]"
"html-keyboard-response","191","915108","0.0-11.0-2.0-0.1","6223","2","9","Female","approach_avoid_spark_v1","""event"",""trial"",""time""
""fullscreenenter"",""1"",""2101""
","
","
","""event"",""trial"",""time""
""fullscreenenter"",""1"",""2101""
","
","","","","","","null","<div style=""font-size:60px;"">+</div>","null","","fixation","","","","","","","","","","",""
"aa-learning-trial","192","918123","0.0-11.0-2.0-1.1","6223","2","9","Female","approach_avoid_spark_v1","""event"",""trial"",""time""
""fullscreenenter"",""1"",""2101""
","
","
","""event"",""trial"",""time""
""fullscreenenter"",""1"",""2101""
","
","","","","","","2196.899999976158","images/cactus6.png","","","learning","5","5","1","1","cactus","plants","1","1","","good","[5]"
"html-keyboard-response","193","918648","0.0-11.0-2.0-0.2","6223","2","9","Female","approach_avoid_spark_v1","""event"",""trial"",""time""
""fullscreenenter"",""1"",""2101""
","
","
","""event"",""trial"",""time""
""fullscreenenter"",""1"",""2101""
","
","","","","","","null","<div style=""font-size:60px;"">+</div>","null","","fixation","","","","","","","","","","",""
"aa-learning-trial","194","921668","0.0-11.0-2.0-1.2","6223","2","9","Female","approach_avoid_spark_v1","""event"",""trial"",""time""
""fullscreenenter"",""1"",""2101""
","
","
","""event"",""trial"",""time""
""fullscreenenter"",""1"",""2101""
","
","","","","","","1554.699999988079","images/bush7.png","","","learning","1","0","0","0","bush","plants","1","1","","neutral","0"
"html-keyboard-response","195","922188","0.0-11.0-2.0-0.3","6223","2","9","Female","approach_avoid_spark_v1","""event"",""trial"",""time""
""fullscreenenter"",""1"",""2101""
","
","
","""event"",""trial"",""time""
""fullscreenenter"",""1"",""2101""
","
","","","","","","null","<div style=""font-size:60px;"">+</div>","null","","fixation","","","","","","","","","","",""
"aa-learning-trial","196","925208","0.0-11.0-2.0-1.3","6223","2","9","Female","approach_avoid_spark_v1","""event"",""trial"",""time""
""fullscreenenter"",""1"",""2101""
","
","
","""event"",""trial"",""time""
""fullscreenenter"",""1"",""2101""
","
","","","","","","857.3999999761581","images/tree3.png","","","learning","-7","-7","1","1","tree","plants","1","1","","bad","[-4]"
"html-keyboard-response","197","925718","0.0-11.0-2.0-0.4","6223","2","9","Female","approach_avoid_spark_v1","""event"",""trial"",""time""
""fullscreenenter"",""1"",""2101""
","
","
","""event"",""trial"",""time""
""fullscreenenter"",""1"",""2101""
","
","","","","","","null","<div style=""font-size:60px;"">+</div>","null","","fixation","","","","","","","","","","",""
"aa-learning-trial","198","928735","0.0-11.0-2.0-1.4","6223","2","9","Female","approach_avoid_spark_v1","""event"",""trial"",""time""
""fullscreenenter"",""1"",""2101""
","
","
","""event"",""trial"",""time""
""fullscreenenter"",""1"",""2101""
","
","","","","","","1160.3999999761581","images/tree1.png","","","learning","-4","0","0","0","tree","plants","1","1","","bad","[-4]"
"html-keyboard-response","199","929248","0.0-11.0-2.0-0.5","6223","2","9","Female","approach_avoid_spark_v1","""event"",""trial"",""time""
""fullscreenenter"",""1"",""2101""
","
","
","""event"",""trial"",""time""
""fullscreenenter"",""1"",""2101""
","
","","","","","","null","<div style=""font-size:60px;"">+</div>","null","","fixation","","","","","","","","","","",""
"aa-learning-trial","200","932268","0.0-11.0-2.0-1.5","6223","2","9","Female","approach_avoid_spark_v1","""event"",""trial"",""time""
""fullscreenenter"",""1"",""2101""
","
","
","""event"",""trial"",""time""
""fullscreenenter"",""1"",""2101""
","
","","","","","","1281.5","images/cactus8.png","","","learning","4","4","1","1","cactus","plants","1","1","","good","[5]"
"html-keyboard-response","201","932788","0.0-11.0-2.0-0.6","6223","2","9","Female","approach_avoid_spark_v1","""event"",""trial"",""time""
""fullscreenenter"",""1"",""2101""
","
","
","""event"",""trial"",""time""
""fullscreenenter"",""1"",""2101""
","
","","","","","","null","<div style=""font-size:60px;"">+</div>","null","","fixation","","","","","","","","","","",""
"aa-learning-trial","202","935798","0.0-11.0-2.0-1.6","6223","2","9","Female","approach_avoid_spark_v1","""event"",""trial"",""time""
""fullscreenenter"",""1"",""2101""
","
","
","""event"",""trial"",""time""
""fullscreenenter"",""1"",""2101""
","
","","","","","","921.1999999880791","images/tree1.png","","","learning","-4","0","0","0","tree","plants","1","1","","bad","[-4]"
"html-keyboard-response","203","936308","0.0-11.0-2.0-0.7","6223","2","9","Female","approach_avoid_spark_v1","""event"",""trial"",""time""
""fullscreenenter"",""1"",""2101""
","
","
","""event"",""trial"",""time""
""fullscreenenter"",""1"",""2101""
","
","","","","","","null","<div style=""font-size:60px;"">+</div>","null","","fixation","","","","","","","","","","",""
"aa-learning-trial","204","939312","0.0-11.0-2.0-1.7","6223","2","9","Female","approach_avoid_spark_v1","""event"",""trial"",""time""
""fullscreenenter"",""1"",""2101""
","
","
","""event"",""trial"",""time""
""fullscreenenter"",""1"",""2101""
","
","","","","","","788.7999999821186","images/tree3.png","","","learning","-4","0","0","0","tree","plants","1","1","","bad","[-4]"
"html-keyboard-response","205","939816","0.0-11.0-2.0-0.8","6223","2","9","Female","approach_avoid_spark_v1","""event"",""trial"",""time""
""fullscreenenter"",""1"",""2101""
","
","
","""event"",""trial"",""time""
""fullscreenenter"",""1"",""2101""
","
","","","","","","null","<div style=""font-size:60px;"">+</div>","null","","fixation","","","","","","","","","","",""
"aa-learning-trial","206","942825","0.0-11.0-2.0-1.8","6223","2","9","Female","approach_avoid_spark_v1","""event"",""trial"",""time""
""fullscreenenter"",""1"",""2101""
","
","
","""event"",""trial"",""time""
""fullscreenenter"",""1"",""2101""
","
","","","","","","2714","images/bush3.png","","","learning","-1","-1","1","1","bush","plants","1","1","","neutral","0"
"html-keyboard-response","207","943329","0.0-11.0-2.0-0.9","6223","2","9","Female","approach_avoid_spark_v1","""event"",""trial"",""time""
""fullscreenenter"",""1"",""2101""
","
","
","""event"",""trial"",""time""
""fullscreenenter"",""1"",""2101""
","
","","","","","","null","<div style=""font-size:60px;"">+</div>","null","","fixation","","","","","","","","","","",""
"aa-learning-trial","208","946337","0.0-11.0-2.0-1.9","6223","2","9","Female","approach_avoid_spark_v1","""event"",""trial"",""time""
""fullscreenenter"",""1"",""2101""
","
","
","""event"",""trial"",""time""
""fullscreenenter"",""1"",""2101""
","
","","","","","","1020.5999999940395","images/bush3.png","","","learning","-3","-3","1","1","bush","plants","1","1","","neutral","0"
"html-keyboard-response","209","946841","0.0-11.0-2.0-0.10","6223","2","9","Female","approach_avoid_spark_v1","""event"",""trial"",""time""
""fullscreenenter"",""1"",""2101""
","
","
","""event"",""trial"",""time""
""fullscreenenter"",""1"",""2101""
","
","","","","","","null","<div style=""font-size:60px;"">+</div>","null","","fixation","","","","","","","","","","",""
"aa-learning-trial","210","949848","0.0-11.0-2.0-1.10","6223","2","9","Female","approach_avoid_spark_v1","""event"",""trial"",""time""
""fullscreenenter"",""1"",""2101""
","
","
","""event"",""trial"",""time""
""fullscreenenter"",""1"",""2101""
","
","","","","","","1347","images/cactus6.png","","","learning","4","4","1","1","cactus","plants","1","1","","good","[5]"
"html-keyboard-response","211","950352","0.0-11.0-2.0-0.11","6223","2","9","Female","approach_avoid_spark_v1","""event"",""trial"",""time""
""fullscreenenter"",""1"",""2101""
","
","
","""event"",""trial"",""time""
""fullscreenenter"",""1"",""2101""
","
","","","","","","null","<div style=""font-size:60px;"">+</div>","null","","fixation","","","","","","","","","","",""
"aa-learning-trial","212","953361","0.0-11.0-2.0-1.11","6223","2","9","Female","approach_avoid_spark_v1","""event"",""trial"",""time""
""fullscreenenter"",""1"",""2101""
","
","
","""event"",""trial"",""time""
""fullscreenenter"",""1"",""2101""
","
","","","","","","524.9000000059605","images/tree7.png","","","learning","-4","-4","1","1","tree","plants","1","1","","bad","[-4]"
"html-keyboard-response","213","953864","0.0-11.0-2.0-0.12","6223","2","9","Female","approach_avoid_spark_v1","""event"",""trial"",""time""
""fullscreenenter"",""1"",""2101""
","
","
","""event"",""trial"",""time""
""fullscreenenter"",""1"",""2101""
","
","","","","","","null","<div style=""font-size:60px;"">+</div>","null","","fixation","","","","","","","","","","",""
"aa-learning-trial","214","956872","0.0-11.0-2.0-1.12","6223","2","9","Female","approach_avoid_spark_v1","""event"",""trial"",""time""
""fullscreenenter"",""1"",""2101""
","
","
","""event"",""trial"",""time""
""fullscreenenter"",""1"",""2101""
","
","","","","","","2419.100000023842","images/bush7.png","","","learning","-1","0","0","0","bush","plants","1","1","","neutral","0"
"html-keyboard-response","215","957377","0.0-11.0-2.0-0.13","6223","2","9","Female","approach_avoid_spark_v1","""event"",""trial"",""time""
""fullscreenenter"",""1"",""2101""
","
","
","""event"",""trial"",""time""
""fullscreenenter"",""1"",""2101""
","
","","","","","","null","<div style=""font-size:60px;"">+</div>","null","","fixation","","","","","","","","","","",""
"aa-learning-trial","216","960380","0.0-11.0-2.0-1.13","6223","2","9","Female","approach_avoid_spark_v1","""event"",""trial"",""time""
""fullscreenenter"",""1"",""2101""
","
","
","""event"",""trial"",""time""
""fullscreenenter"",""1"",""2101""
","
","","","","","","1927.0999999940395","images/cactus8.png","","","learning","5","5","1","1","cactus","plants","1","1","","good","[5]"
"html-keyboard-response","217","960889","0.0-11.0-2.0-0.14","6223","2","9","Female","approach_avoid_spark_v1","""event"",""trial"",""time""
""fullscreenenter"",""1"",""2101""
","
","
","""event"",""trial"",""time""
""fullscreenenter"",""1"",""2101""
","
","","","","","","null","<div style=""font-size:60px;"">+</div>","null","","fixation","","","","","","","","","","",""
"aa-learning-trial","218","963896","0.0-11.0-2.0-1.14","6223","2","9","Female","approach_avoid_spark_v1","""event"",""trial"",""time""
""fullscreenenter"",""1"",""2101""
","
","
","""event"",""trial"",""time""
""fullscreenenter"",""1"",""2101""
","
","","","","","","1984.5999999940395","images/bush4.png","","","learning","-1","0","0","0","bush","plants","1","1","","neutral","0"
"html-keyboard-response","219","964400","0.0-11.0-2.0-0.15","6223","2","9","Female","approach_avoid_spark_v1","""event"",""trial"",""time""
""fullscreenenter"",""1"",""2101""
","
","
","""event"",""trial"",""time""
""fullscreenenter"",""1"",""2101""
","
","","","","","","null","<div style=""font-size:60px;"">+</div>","null","","fixation","","","","","","","","","","",""
"aa-learning-trial","220","967409","0.0-11.0-2.0-1.15","6223","2","9","Female","approach_avoid_spark_v1","""event"",""trial"",""time""
""fullscreenenter"",""1"",""2101""
","
","
","""event"",""trial"",""time""
""fullscreenenter"",""1"",""2101""
","
","","","","","","1462.9000000059605","images/bush7.png","","","learning","4","0","0","0","bush","plants","1","1","","neutral","0"
"html-keyboard-response","221","967912","0.0-11.0-2.0-0.16","6223","2","9","Female","approach_avoid_spark_v1","""event"",""trial"",""time""
""fullscreenenter"",""1"",""2101""
","
","
","""event"",""trial"",""time""
""fullscreenenter"",""1"",""2101""
","
","","","","","","null","<div style=""font-size:60px;"">+</div>","null","","fixation","","","","","","","","","","",""
"aa-learning-trial","222","970921","0.0-11.0-2.0-1.16","6223","2","9","Female","approach_avoid_spark_v1","""event"",""trial"",""time""
""fullscreenenter"",""1"",""2101""
","
","
","""event"",""trial"",""time""
""fullscreenenter"",""1"",""2101""
","
","","","","","","1810.800000011921","images/tree3.png","","","learning","-5","0","0","0","tree","plants","1","1","","bad","[-4]"
"html-keyboard-response","223","971424","0.0-11.0-2.0-0.17","6223","2","9","Female","approach_avoid_spark_v1","""event"",""trial"",""time""
""fullscreenenter"",""1"",""2101""
","
","
","""event"",""trial"",""time""
""fullscreenenter"",""1"",""2101""
","
","","","","","","null","<div style=""font-size:60px;"">+</div>","null","","fixation","","","","","","","","","","",""
"aa-learning-trial","224","974432","0.0-11.0-2.0-1.17","6223","2","9","Female","approach_avoid_spark_v1","""event"",""trial"",""time""
""fullscreenenter"",""1"",""2101""
","
","
","""event"",""trial"",""time""
""fullscreenenter"",""1"",""2101""
","
","","","","","","1564.699999988079","images/cactus3.png","","","learning","4","4","1","1","cactus","plants","1","1","","good","[5]"
"html-keyboard-response","225","974936","0.0-11.0-2.0-0.18","6223","2","9","Female","approach_avoid_spark_v1","""event"",""trial"",""time""
""fullscreenenter"",""1"",""2101""
","
","
","""event"",""trial"",""time""
""fullscreenenter"",""1"",""2101""
","
","","","","","","null","<div style=""font-size:60px;"">+</div>","null","","fixation","","","","","","","","","","",""
"aa-learning-trial","226","977944","0.0-11.0-2.0-1.18","6223","2","9","Female","approach_avoid_spark_v1","""event"",""trial"",""time""
""fullscreenenter"",""1"",""2101""
","
","
","""event"",""trial"",""time""
""fullscreenenter"",""1"",""2101""
","
","","","","","","1350.5999999940395","images/bush4.png","","","learning","-1","0","0","0","bush","plants","1","1","","neutral","0"
"html-keyboard-response","227","978449","0.0-11.0-2.0-0.19","6223","2","9","Female","approach_avoid_spark_v1","""event"",""trial"",""time""
""fullscreenenter"",""1"",""2101""
","
","
","""event"",""trial"",""time""
""fullscreenenter"",""1"",""2101""
","
","","","","","","null","<div style=""font-size:60px;"">+</div>","null","","fixation","","","","","","","","","","",""
"aa-learning-trial","228","981456","0.0-11.0-2.0-1.19","6223","2","9","Female","approach_avoid_spark_v1","""event"",""trial"",""time""
""fullscreenenter"",""1"",""2101""
","
","
","""event"",""trial"",""time""
""fullscreenenter"",""1"",""2101""
","
","","","","","","1607.699999988079","images/cactus8.png","","","learning","3","3","1","1","cactus","plants","1","1","","good","[5]"
"html-keyboard-response","229","981960","0.0-11.0-2.0-0.20","6223","2","9","Female","approach_avoid_spark_v1","""event"",""trial"",""time""
""fullscreenenter"",""1"",""2101""
","
","
","""event"",""trial"",""time""
""fullscreenenter"",""1"",""2101""
","
","","","","","","null","<div style=""font-size:60px;"">+</div>","null","","fixation","","","","","","","","","","",""
"aa-learning-trial","230","984968","0.0-11.0-2.0-1.20","6223","2","9","Female","approach_avoid_spark_v1","""event"",""trial"",""time""
""fullscreenenter"",""1"",""2101""
","
","
","""event"",""trial"",""time""
""fullscreenenter"",""1"",""2101""
","
","","","","","","1658.5","images/bush3.png","","","learning","5","0","0","0","bush","plants","1","1","","neutral","0"
"html-keyboard-response","231","985472","0.0-11.0-2.0-0.21","6223","2","9","Female","approach_avoid_spark_v1","""event"",""trial"",""time""
""fullscreenenter"",""1"",""2101""
","
","
","""event"",""trial"",""time""
""fullscreenenter"",""1"",""2101""
","
","","","","","","null","<div style=""font-size:60px;"">+</div>","null","","fixation","","","","","","","","","","",""
"aa-learning-trial","232","988480","0.0-11.0-2.0-1.21","6223","2","9","Female","approach_avoid_spark_v1","""event"",""trial"",""time""
""fullscreenenter"",""1"",""2101""
","
","
","""event"",""trial"",""time""
""fullscreenenter"",""1"",""2101""
","
","","","","","","2364.7000000178814","images/cactus1.png","","","learning","4","4","1","1","cactus","plants","1","1","","good","[5]"
"html-keyboard-response","233","988984","0.0-11.0-2.0-0.22","6223","2","9","Female","approach_avoid_spark_v1","""event"",""trial"",""time""
""fullscreenenter"",""1"",""2101""
","
","
","""event"",""trial"",""time""
""fullscreenenter"",""1"",""2101""
","
","","","","","","null","<div style=""font-size:60px;"">+</div>","null","","fixation","","","","","","","","","","",""
"aa-learning-trial","234","991993","0.0-11.0-2.0-1.22","6223","2","9","Female","approach_avoid_spark_v1","""event"",""trial"",""time""
""fullscreenenter"",""1"",""2101""
","
","
","""event"",""trial"",""time""
""fullscreenenter"",""1"",""2101""
","
","","","","","","1235.5","images/tree1.png","","","learning","-1","0","0","0","tree","plants","1","1","","bad","[-4]"
"html-keyboard-response","235","992496","0.0-11.0-2.0-0.23","6223","2","9","Female","approach_avoid_spark_v1","""event"",""trial"",""time""
""fullscreenenter"",""1"",""2101""
","
","
","""event"",""trial"",""time""
""fullscreenenter"",""1"",""2101""
","
","","","","","","null","<div style=""font-size:60px;"">+</div>","null","","fixation","","","","","","","","","","",""
"aa-learning-trial","236","995499","0.0-11.0-2.0-1.23","6223","2","9","Female","approach_avoid_spark_v1","""event"",""trial"",""time""
""fullscreenenter"",""1"",""2101""
","
","
","""event"",""trial"",""time""
""fullscreenenter"",""1"",""2101""
","
","","","","","","1962.5999999940395","images/bush3.png","","","learning","-1","-1","1","1","bush","plants","1","1","","neutral","0"
