"trial_type","trial_index","time_elapsed","internal_node_id","subject_id","task_condition","age","gender","task_version","interactions","blur_events","focus_events","fullscreenenter_events","fullscreenexit_events","success","timeout","failed_images","failed_audio","failed_video","rt","stimulus","response","button_pressed","task_part","approach_reward","points","key_press","option_selected","stim_cat","task_block","block_condition","block_number","correct","cat_type","mean_cat_reward"
"pavlovia","0","7","0.0-0.0","3861","2","16","Female","approach_avoid_spark_v1","""event"",""trial"",""time""
""focus"",""0"",""0""
""fullscreenenter"",""1"",""2416""
","
","""event"",""trial"",""time""
""focus"",""0"",""0""
","""event"",""trial"",""time""
""fullscreenenter"",""1"",""2416""
","
","","","","","","","","","","","","","","","","","","","","",""
"fullscreen","1","3211","0.0-1.0","3861","2","16","Female","approach_avoid_spark_v1","""event"",""trial"",""time""
""focus"",""0"",""0""
""fullscreenenter"",""1"",""2416""
","
","""event"",""trial"",""time""
""focus"",""0"",""0""
","""event"",""trial"",""time""
""fullscreenenter"",""1"",""2416""
","
","true","","","","","","","","","","","","","","","","","","","",""
"preload","2","6095","0.0-2.0","3861","2","16","Female","approach_avoid_spark_v1","""event"",""trial"",""time""
""focus"",""0"",""0""
""fullscreenenter"",""1"",""2416""
","
","""event"",""trial"",""time""
""focus"",""0"",""0""
","""event"",""trial"",""time""
""fullscreenenter"",""1"",""2416""
","
","true","false","[]","[]","[]","","","","","","","","","","","","","","","",""
"audio-keyboard-response","3","9167","0.0-3.0","3861","2","16","Female","approach_avoid_spark_v1","""event"",""trial"",""time""
""focus"",""0"",""0""
""fullscreenenter"",""1"",""2416""
","
","""event"",""trial"",""time""
""focus"",""0"",""0""
","""event"",""trial"",""time""
""fullscreenenter"",""1"",""2416""
","
","","","","","","3072","audio/beep_loop.wav"," ","","","","","","","","","","","","",""
"audio-button-response","4","17401","0.0-4.0","3861","2","16","Female","approach_avoid_spark_v1","""event"",""trial"",""time""
""focus"",""0"",""0""
""fullscreenenter"",""1"",""2416""
","
","""event"",""trial"",""time""
""focus"",""0"",""0""
","""event"",""trial"",""time""
""fullscreenenter"",""1"",""2416""
","
","","","","","","8235","audio/shark.wav","0","","","","","","","","","","","","",""
"audio-button-response","5","20090","0.0-5.0","3861","2","16","Female","approach_avoid_spark_v1","""event"",""trial"",""time""
""focus"",""0"",""0""
""fullscreenenter"",""1"",""2416""
","
","""event"",""trial"",""time""
""focus"",""0"",""0""
","""event"",""trial"",""time""
""fullscreenenter"",""1"",""2416""
","
","","","","","","1685","audio/turtle.wav","1","","","","","","","","","","","","",""
"preload","6","22367","0.0-6.0","3861","2","16","Female","approach_avoid_spark_v1","""event"",""trial"",""time""
""focus"",""0"",""0""
""fullscreenenter"",""1"",""2416""
","
","""event"",""trial"",""time""
""focus"",""0"",""0""
","""event"",""trial"",""time""
""fullscreenenter"",""1"",""2416""
","
","true","false","[]","[]","[]","","","","","","","","","","","","","","","",""
"html-keyboard-response","7","29016","0.0-7.0","3861","2","16","Female","approach_avoid_spark_v1","""event"",""trial"",""time""
""focus"",""0"",""0""
""fullscreenenter"",""1"",""2416""
""blur"",""8"",""31194""
""focus"",""8"",""33724""
","""event"",""trial"",""time""
""blur"",""8"",""31194""
","""event"",""trial"",""time""
""focus"",""0"",""0""
""focus"",""8"",""33724""
","""event"",""trial"",""time""
""fullscreenenter"",""1"",""2416""
","
","","","","","","6648","Welcome to the experiment. Press any key to begin and to advance the instructions."," ","","","","","","","","","","","","",""
"learning-instructions","8","37604","0.0-8.0-0.0-0.0","3861","2","16","Female","approach_avoid_spark_v1","""event"",""trial"",""time""
""focus"",""0"",""0""
""fullscreenenter"",""1"",""2416""
""blur"",""8"",""31194""
""focus"",""8"",""33724""
","""event"",""trial"",""time""
""blur"",""8"",""31194""
","""event"",""trial"",""time""
""focus"",""0"",""0""
""focus"",""8"",""33724""
","""event"",""trial"",""time""
""fullscreenenter"",""1"",""2416""
","
","","","","","","1626","<p> Welcome! Today you are going to play 6 different rounds of a decision-making game. </p><p> Use the mouse to click next to continue. </p>","","0","instructions","","","","","","","","","","",""
"learning-instructions","9","43157","0.0-8.0-0.0-0.1","3861","2","16","Female","approach_avoid_spark_v1","""event"",""trial"",""time""
""focus"",""0"",""0""
""fullscreenenter"",""1"",""2416""
""blur"",""8"",""31194""
""focus"",""8"",""33724""
","""event"",""trial"",""time""
""blur"",""8"",""31194""
","""event"",""trial"",""time""
""focus"",""0"",""0""
""focus"",""8"",""33724""
","""event"",""trial"",""time""
""fullscreenenter"",""1"",""2416""
","
","","","","","","2816","<p> You will start with a practice round to learn the rules. </p>","","0","instructions","","","","","","","","","","",""
"learning-instructions","10","47378","0.0-8.0-0.0-0.2","3861","2","16","Female","approach_avoid_spark_v1","""event"",""trial"",""time""
""focus"",""0"",""0""
""fullscreenenter"",""1"",""2416""
""blur"",""8"",""31194""
""focus"",""8"",""33724""
","""event"",""trial"",""time""
""blur"",""8"",""31194""
","""event"",""trial"",""time""
""focus"",""0"",""0""
""focus"",""8"",""33724""
","""event"",""trial"",""time""
""fullscreenenter"",""1"",""2416""
","
","","","","","","752","<p> Your goal in this round is to give out sports equipment to kids. </p></div>","","0","instructions","","","","","","","","","","",""
"learning-instructions","11","55589","0.0-8.0-0.0-0.3","3861","2","16","Female","approach_avoid_spark_v1","""event"",""trial"",""time""
""focus"",""0"",""0""
""fullscreenenter"",""1"",""2416""
""blur"",""8"",""31194""
""focus"",""8"",""33724""
","""event"",""trial"",""time""
""blur"",""8"",""31194""
","""event"",""trial"",""time""
""focus"",""0"",""0""
""focus"",""8"",""33724""
","""event"",""trial"",""time""
""fullscreenenter"",""1"",""2416""
","
","","","","","","655","<p> The kids only like some of the equipment.  </p><p> On each turn, you will see a piece of sports equipment.   </p><p> You need to decide whether to give it to the kids or not.  </p>","","0","instructions","","","","","","","","","","",""
"learning-instructions","12","61078","0.0-8.0-0.0-0.4","3861","2","16","Female","approach_avoid_spark_v1","""event"",""trial"",""time""
""focus"",""0"",""0""
""fullscreenenter"",""1"",""2416""
""blur"",""8"",""31194""
""focus"",""8"",""33724""
","""event"",""trial"",""time""
""blur"",""8"",""31194""
","""event"",""trial"",""time""
""focus"",""0"",""0""
""focus"",""8"",""33724""
","""event"",""trial"",""time""
""fullscreenenter"",""1"",""2416""
","
","","","","","","726","<p> You can give them the equipment by pressing 1 and choose not to give it to them by pressing 0. </p><br><div class=""choice-instructions-grid""> <div class=""choice-option""><img src=""images/approach.png"" class=""choice-option-img"" stage=""instructions"" position=""0"" ><div class=""choice-option-text""> Press ""1."" </div></div><div class=""choice-option""><img src=""images/avoid.png"" class=""choice-option-img"" stage=""instructions"" position=""1"" ><div class=""choice-option-text""> Press ""0."" </div></div>","","0","instructions","","","","","","","","","","",""
"learning-instructions","13","69098","0.0-8.0-0.0-0.5","3861","2","16","Female","approach_avoid_spark_v1","""event"",""trial"",""time""
""focus"",""0"",""0""
""fullscreenenter"",""1"",""2416""
""blur"",""8"",""31194""
""focus"",""8"",""33724""
","""event"",""trial"",""time""
""blur"",""8"",""31194""
","""event"",""trial"",""time""
""focus"",""0"",""0""
""focus"",""8"",""33724""
","""event"",""trial"",""time""
""fullscreenenter"",""1"",""2416""
","
","","","","","","628","<p> If you give them a piece of equipment they like, they will be happy! </p><p> But if you give them a piece of equipment they do not like, they will be sad. </p>","","0","instructions","","","","","","","","","","",""
"learning-instructions","14","80160","0.0-8.0-0.0-0.6","3861","2","16","Female","approach_avoid_spark_v1","""event"",""trial"",""time""
""focus"",""0"",""0""
""fullscreenenter"",""1"",""2416""
""blur"",""8"",""31194""
""focus"",""8"",""33724""
","""event"",""trial"",""time""
""blur"",""8"",""31194""
","""event"",""trial"",""time""
""focus"",""0"",""0""
""focus"",""8"",""33724""
","""event"",""trial"",""time""
""fullscreenenter"",""1"",""2416""
","
","","","","","","543","<p> You will earn points based on how you make kids feel. </p><p> If you make them happy, you will WIN anywhere from 1 - 9 points, </p><p> but if you make them sad, you will LOSE anywhere from 1 - 9 points. </p>","","0","instructions","","","","","","","","","","",""
"learning-instructions","15","91371","0.0-8.0-0.0-0.7","3861","2","16","Female","approach_avoid_spark_v1","""event"",""trial"",""time""
""focus"",""0"",""0""
""fullscreenenter"",""1"",""2416""
""blur"",""8"",""31194""
""focus"",""8"",""33724""
","""event"",""trial"",""time""
""blur"",""8"",""31194""
","""event"",""trial"",""time""
""focus"",""0"",""0""
""focus"",""8"",""33724""
","""event"",""trial"",""time""
""fullscreenenter"",""1"",""2416""
","
","","","","","","1641","<p> You will see how many points you won or lost in the center of the screen. </p><p> Here is what you would see if you won 6 points: </p><p style=""color:green;font-size:50px;font-weight:bolder"">6</p><p style=""color:green"">The text is GREEN because you WON points.</p>","","0","instructions","","","","","","","","","","",""
"learning-instructions","16","97611","0.0-8.0-0.0-0.8","3861","2","16","Female","approach_avoid_spark_v1","""event"",""trial"",""time""
""focus"",""0"",""0""
""fullscreenenter"",""1"",""2416""
""blur"",""8"",""31194""
""focus"",""8"",""33724""
","""event"",""trial"",""time""
""blur"",""8"",""31194""
","""event"",""trial"",""time""
""focus"",""0"",""0""
""focus"",""8"",""33724""
","""event"",""trial"",""time""
""fullscreenenter"",""1"",""2416""
","
","","","","","","714","<p> And here is what you would see if you lost 4 points: </p><p style=""color:red;font-size:50px;font-weight:bolder"">-4</p><p style=""color:red"">The text is RED because you LOST points. </p>","","0","instructions","","","","","","","","","","",""
"learning-instructions","17","113031","0.0-8.0-0.0-0.9","3861","2","16","Female","approach_avoid_spark_v1","""event"",""trial"",""time""
""focus"",""0"",""0""
""fullscreenenter"",""1"",""2416""
""blur"",""8"",""31194""
""focus"",""8"",""33724""
","""event"",""trial"",""time""
""blur"",""8"",""31194""
","""event"",""trial"",""time""
""focus"",""0"",""0""
""focus"",""8"",""33724""
","""event"",""trial"",""time""
""fullscreenenter"",""1"",""2416""
","
","","","","","","698","<p> Some of the equipment will make the kids VERY happy or sad. </p><p> These pieces of equipment will make you win or lose LOTS of points. </p><p> Other pieces of equipment will only make the kids a little happy or sad. </p><p> These pieces of equipment will make you win or lose small amounts of points. </p>","","0","instructions","","","","","","","","","","",""
"learning-instructions","18","124278","0.0-8.0-0.0-0.10","3861","2","16","Female","approach_avoid_spark_v1","""event"",""trial"",""time""
""focus"",""0"",""0""
""fullscreenenter"",""1"",""2416""
""blur"",""8"",""31194""
""focus"",""8"",""33724""
","""event"",""trial"",""time""
""blur"",""8"",""31194""
","""event"",""trial"",""time""
""focus"",""0"",""0""
""focus"",""8"",""33724""
","""event"",""trial"",""time""
""fullscreenenter"",""1"",""2416""
","
","","","","","","605","<p> If you choose not to give them the equipment, you will not win or lose any points. </p><p>  However, in the center of the screen, you will see the number of points you WOULD HAVE won or lost if you had given them the equipment. </p>","","0","instructions","","","","","","","","","","",""
"learning-instructions","19","148062","0.0-8.0-0.0-0.11","3861","2","16","Female","approach_avoid_spark_v1","""event"",""trial"",""time""
""focus"",""0"",""0""
""fullscreenenter"",""1"",""2416""
""blur"",""8"",""31194""
""focus"",""8"",""33724""
","""event"",""trial"",""time""
""blur"",""8"",""31194""
","""event"",""trial"",""time""
""focus"",""0"",""0""
""focus"",""8"",""33724""
","""event"",""trial"",""time""
""fullscreenenter"",""1"",""2416""
","
","","","","","","2246","<p> Here is what you might see if you did not give the equipment to the kids but it would have made them happy: </p><p style=""color:grey; font-size:50px; display: inline-block; border-spacing: 15px; border-width:3px; border-style:solid; border-color:red"">  &nbsp; 7 &nbsp; </p><p> Remember, in this case, you would not win or lose ANY points because you did not give them the equipment.  </p><p style=""color:grey"">The text is GREY because you earned ZERO points. </p><p style=""color:red"">However, choosing to give the kids the equipment would have made you win points. The box around the text is RED because you chose the worse option. </p>","","0","instructions","","","","","","","","","","",""
"learning-instructions","20","170266","0.0-8.0-0.0-0.12","3861","2","16","Female","approach_avoid_spark_v1","""event"",""trial"",""time""
""focus"",""0"",""0""
""fullscreenenter"",""1"",""2416""
""blur"",""8"",""31194""
""focus"",""8"",""33724""
","""event"",""trial"",""time""
""blur"",""8"",""31194""
","""event"",""trial"",""time""
""focus"",""0"",""0""
""focus"",""8"",""33724""
","""event"",""trial"",""time""
""fullscreenenter"",""1"",""2416""
","
","","","","","","1109","<p> Here is what you might see if you did not give the equipment to the kids but it would have made them sad: </p><p style=""color:grey;font-size:50px; display: inline-block; border-spacing: 15px; border-width:3px; border-style:solid; border-color:green"">  &nbsp; -8 &nbsp; </p><p> Remember, in this case, you would not win or lose ANY points because you did not give them the equipment.  </p><p style=""color:grey"">The text is GREY because you earned ZERO points. </p><p  style=""color:green""> Choosing to give the kids the equipment would have made you lose points. The box around the text is GREEN because you chose the better option.</p>","","0","instructions","","","","","","","","","","",""
"learning-instructions","21","180344","0.0-8.0-0.0-0.13","3861","2","16","Female","approach_avoid_spark_v1","""event"",""trial"",""time""
""focus"",""0"",""0""
""fullscreenenter"",""1"",""2416""
""blur"",""8"",""31194""
""focus"",""8"",""33724""
","""event"",""trial"",""time""
""blur"",""8"",""31194""
","""event"",""trial"",""time""
""focus"",""0"",""0""
""focus"",""8"",""33724""
","""event"",""trial"",""time""
""fullscreenenter"",""1"",""2416""
","
","","","","","","1311","<p> You will have 3 seconds to make each choice. Try to respond before time runs out! </p><p> You will lose 5 points each time you do not make a response. </p>","","0","instructions","","","","","","","","","","",""
"learning-instructions","22","187087","0.0-8.0-0.0-0.14","3861","2","16","Female","approach_avoid_spark_v1","""event"",""trial"",""time""
""focus"",""0"",""0""
""fullscreenenter"",""1"",""2416""
""blur"",""8"",""31194""
""focus"",""8"",""33724""
","""event"",""trial"",""time""
""blur"",""8"",""31194""
","""event"",""trial"",""time""
""focus"",""0"",""0""
""focus"",""8"",""33724""
","""event"",""trial"",""time""
""fullscreenenter"",""1"",""2416""
","
","","","","","","1312","<p> This is just a practice round, but in the real game, your bonus payment will depend on your total number of points.","","0","instructions","","","","","","","","","","",""
"learning-instructions","23","196794","0.0-8.0-0.0-0.15","3861","2","16","Female","approach_avoid_spark_v1","""event"",""trial"",""time""
""focus"",""0"",""0""
""fullscreenenter"",""1"",""2416""
""blur"",""8"",""31194""
""focus"",""8"",""33724""
","""event"",""trial"",""time""
""blur"",""8"",""31194""
","""event"",""trial"",""time""
""focus"",""0"",""0""
""focus"",""8"",""33724""
","""event"",""trial"",""time""
""fullscreenenter"",""1"",""2416""
","
","","","","","","3925","<p> Remember, you can give them the equipment by pressing 1 and choose not to give it to them by pressing 0. </p><br><div class=""choice-instructions-grid""> <div class=""choice-option""><img src=""images/approach.png"" class=""choice-option-img"" stage=""instructions"" position=""0"" ><div class=""choice-option-text""> Press ""1."" </div></div><div class=""choice-option""><img src=""images/avoid.png"" class=""choice-option-img"" stage=""instructions"" position=""1"" ><div class=""choice-option-text""> Press ""0."" </div></div>","","0","instructions","","","","","","","","","","",""
"html-button-response","24","198459","0.0-8.0-1.0","3861","2","16","Female","approach_avoid_spark_v1","""event"",""trial"",""time""
""focus"",""0"",""0""
""fullscreenenter"",""1"",""2416""
""blur"",""8"",""31194""
""focus"",""8"",""33724""
","""event"",""trial"",""time""
""blur"",""8"",""31194""
","""event"",""trial"",""time""
""focus"",""0"",""0""
""focus"",""8"",""33724""
","""event"",""trial"",""time""
""fullscreenenter"",""1"",""2416""
","
","","","","","","1563","<p> Ready to practice? </p>","0","","","","","","","","","","","","",""
"html-keyboard-response","25","199069","0.0-8.0-2.0-0.0","3861","2","16","Female","approach_avoid_spark_v1","""event"",""trial"",""time""
""focus"",""0"",""0""
""fullscreenenter"",""1"",""2416""
""blur"",""8"",""31194""
""focus"",""8"",""33724""
","""event"",""trial"",""time""
""blur"",""8"",""31194""
","""event"",""trial"",""time""
""focus"",""0"",""0""
""focus"",""8"",""33724""
","""event"",""trial"",""time""
""fullscreenenter"",""1"",""2416""
","
","","","","","","null","<div style=""font-size:60px;"">+</div>","null","","fixation","","","","","","","","","","",""
"aa-learning-trial","26","202077","0.0-8.0-2.0-1.0","3861","2","16","Female","approach_avoid_spark_v1","""event"",""trial"",""time""
""focus"",""0"",""0""
""fullscreenenter"",""1"",""2416""
""blur"",""8"",""31194""
""focus"",""8"",""33724""
","""event"",""trial"",""time""
""blur"",""8"",""31194""
","""event"",""trial"",""time""
""focus"",""0"",""0""
""focus"",""8"",""33724""
","""event"",""trial"",""time""
""fullscreenenter"",""1"",""2416""
","
","","","","","","1229","images/ball2.png","","","learning","1","1","1","1","practice","practice","practice","-1","","",""
"html-keyboard-response","27","202581","0.0-8.0-2.0-0.1","3861","2","16","Female","approach_avoid_spark_v1","""event"",""trial"",""time""
""focus"",""0"",""0""
""fullscreenenter"",""1"",""2416""
""blur"",""8"",""31194""
""focus"",""8"",""33724""
","""event"",""trial"",""time""
""blur"",""8"",""31194""
","""event"",""trial"",""time""
""focus"",""0"",""0""
""focus"",""8"",""33724""
","""event"",""trial"",""time""
""fullscreenenter"",""1"",""2416""
","
","","","","","","null","<div style=""font-size:60px;"">+</div>","null","","fixation","","","","","","","","","","",""
"aa-learning-trial","28","205600","0.0-8.0-2.0-1.1","3861","2","16","Female","approach_avoid_spark_v1","""event"",""trial"",""time""
""focus"",""0"",""0""
""fullscreenenter"",""1"",""2416""
""blur"",""8"",""31194""
""focus"",""8"",""33724""
","""event"",""trial"",""time""
""blur"",""8"",""31194""
","""event"",""trial"",""time""
""focus"",""0"",""0""
""focus"",""8"",""33724""
","""event"",""trial"",""time""
""fullscreenenter"",""1"",""2416""
","
","","","","","","672","images/racket1.png","","","learning","-6","-6","1","1","practice","practice","practice","-1","","",""
"html-keyboard-response","29","206107","0.0-8.0-2.0-0.2","3861","2","16","Female","approach_avoid_spark_v1","""event"",""trial"",""time""
""focus"",""0"",""0""
""fullscreenenter"",""1"",""2416""
""blur"",""8"",""31194""
""focus"",""8"",""33724""
","""event"",""trial"",""time""
""blur"",""8"",""31194""
","""event"",""trial"",""time""
""focus"",""0"",""0""
""focus"",""8"",""33724""
","""event"",""trial"",""time""
""fullscreenenter"",""1"",""2416""
","
","","","","","","null","<div style=""font-size:60px;"">+</div>","null","","fixation","","","","","","","","","","",""
"aa-learning-trial","30","209120","0.0-8.0-2.0-1.2","3861","2","16","Female","approach_avoid_spark_v1","""event"",""trial"",""time""
""focus"",""0"",""0""
""fullscreenenter"",""1"",""2416""
""blur"",""8"",""31194""
""focus"",""8"",""33724""
","""event"",""trial"",""time""
""blur"",""8"",""31194""
","""event"",""trial"",""time""
""focus"",""0"",""0""
""focus"",""8"",""33724""
","""event"",""trial"",""time""
""fullscreenenter"",""1"",""2416""
","
","","","","","","1461","images/ball1.png","","","learning","-5","-5","1","1","practice","practice","practice","-1","","",""
"html-keyboard-response","31","209630","0.0-8.0-2.0-0.3","3861","2","16","Female","approach_avoid_spark_v1","""event"",""trial"",""time""
""focus"",""0"",""0""
""fullscreenenter"",""1"",""2416""
""blur"",""8"",""31194""
""focus"",""8"",""33724""
","""event"",""trial"",""time""
""blur"",""8"",""31194""
","""event"",""trial"",""time""
""focus"",""0"",""0""
""focus"",""8"",""33724""
","""event"",""trial"",""time""
""fullscreenenter"",""1"",""2416""
","
","","","","","","null","<div style=""font-size:60px;"">+</div>","null","","fixation","","","","","","","","","","",""
"aa-learning-trial","32","212643","0.0-8.0-2.0-1.3","3861","2","16","Female","approach_avoid_spark_v1","""event"",""trial"",""time""
""focus"",""0"",""0""
""fullscreenenter"",""1"",""2416""
""blur"",""8"",""31194""
""focus"",""8"",""33724""
","""event"",""trial"",""time""
""blur"",""8"",""31194""
","""event"",""trial"",""time""
""focus"",""0"",""0""
""focus"",""8"",""33724""
","""event"",""trial"",""time""
""fullscreenenter"",""1"",""2416""
","
","","","","","","729","images/racket3.png","","","learning","2","2","1","1","practice","practice","practice","-1","","",""
"html-keyboard-response","33","213155","0.0-8.0-2.0-0.4","3861","2","16","Female","approach_avoid_spark_v1","""event"",""trial"",""time""
""focus"",""0"",""0""
""fullscreenenter"",""1"",""2416""
""blur"",""8"",""31194""
""focus"",""8"",""33724""
","""event"",""trial"",""time""
""blur"",""8"",""31194""
","""event"",""trial"",""time""
""focus"",""0"",""0""
""focus"",""8"",""33724""
","""event"",""trial"",""time""
""fullscreenenter"",""1"",""2416""
","
","","","","","","null","<div style=""font-size:60px;"">+</div>","null","","fixation","","","","","","","","","","",""
"aa-learning-trial","34","216169","0.0-8.0-2.0-1.4","3861","2","16","Female","approach_avoid_spark_v1","""event"",""trial"",""time""
""focus"",""0"",""0""
""fullscreenenter"",""1"",""2416""
""blur"",""8"",""31194""
""focus"",""8"",""33724""
","""event"",""trial"",""time""
""blur"",""8"",""31194""
","""event"",""trial"",""time""
""focus"",""0"",""0""
""focus"",""8"",""33724""
","""event"",""trial"",""time""
""fullscreenenter"",""1"",""2416""
","
","","","","","","737","images/racket4.png","","","learning","3","3","1","1","practice","practice","practice","-1","","",""
"html-keyboard-response","35","216670","0.0-8.0-2.0-0.5","3861","2","16","Female","approach_avoid_spark_v1","""event"",""trial"",""time""
""focus"",""0"",""0""
""fullscreenenter"",""1"",""2416""
""blur"",""8"",""31194""
""focus"",""8"",""33724""
","""event"",""trial"",""time""
""blur"",""8"",""31194""
","""event"",""trial"",""time""
""focus"",""0"",""0""
""focus"",""8"",""33724""
","""event"",""trial"",""time""
""fullscreenenter"",""1"",""2416""
","
","","","","","","null","<div style=""font-size:60px;"">+</div>","null","","fixation","","","","","","","","","","",""
"aa-learning-trial","36","219673","0.0-8.0-2.0-1.5","3861","2","16","Female","approach_avoid_spark_v1","""event"",""trial"",""time""
""focus"",""0"",""0""
""fullscreenenter"",""1"",""2416""
""blur"",""8"",""31194""
""focus"",""8"",""33724""
","""event"",""trial"",""time""
""blur"",""8"",""31194""
","""event"",""trial"",""time""
""focus"",""0"",""0""
""focus"",""8"",""33724""
","""event"",""trial"",""time""
""fullscreenenter"",""1"",""2416""
","
","","","","","","435","images/ball4.png","","","learning","3","3","1","1","practice","practice","practice","-1","","",""
"html-keyboard-response","37","220175","0.0-8.0-2.0-0.6","3861","2","16","Female","approach_avoid_spark_v1","""event"",""trial"",""time""
""focus"",""0"",""0""
""fullscreenenter"",""1"",""2416""
""blur"",""8"",""31194""
""focus"",""8"",""33724""
","""event"",""trial"",""time""
""blur"",""8"",""31194""
","""event"",""trial"",""time""
""focus"",""0"",""0""
""focus"",""8"",""33724""
","""event"",""trial"",""time""
""fullscreenenter"",""1"",""2416""
","
","","","","","","null","<div style=""font-size:60px;"">+</div>","null","","fixation","","","","","","","","","","",""
"aa-learning-trial","38","223192","0.0-8.0-2.0-1.6","3861","2","16","Female","approach_avoid_spark_v1","""event"",""trial"",""time""
""focus"",""0"",""0""
""fullscreenenter"",""1"",""2416""
""blur"",""8"",""31194""
""focus"",""8"",""33724""
","""event"",""trial"",""time""
""blur"",""8"",""31194""
","""event"",""trial"",""time""
""focus"",""0"",""0""
""focus"",""8"",""33724""
","""event"",""trial"",""time""
""fullscreenenter"",""1"",""2416""
","
","","","","","","865","images/racket3.png","","","learning","3","3","1","1","practice","practice","practice","-1","","",""
"html-keyboard-response","39","223700","0.0-8.0-2.0-0.7","3861","2","16","Female","approach_avoid_spark_v1","""event"",""trial"",""time""
""focus"",""0"",""0""
""fullscreenenter"",""1"",""2416""
""blur"",""8"",""31194""
""focus"",""8"",""33724""
","""event"",""trial"",""time""
""blur"",""8"",""31194""
","""event"",""trial"",""time""
""focus"",""0"",""0""
""focus"",""8"",""33724""
","""event"",""trial"",""time""
""fullscreenenter"",""1"",""2416""
","
","","","","","","null","<div style=""font-size:60px;"">+</div>","null","","fixation","","","","","","","","","","",""
"aa-learning-trial","40","226702","0.0-8.0-2.0-1.7","3861","2","16","Female","approach_avoid_spark_v1","""event"",""trial"",""time""
""focus"",""0"",""0""
""fullscreenenter"",""1"",""2416""
""blur"",""8"",""31194""
""focus"",""8"",""33724""
","""event"",""trial"",""time""
""blur"",""8"",""31194""
","""event"",""trial"",""time""
""focus"",""0"",""0""
""focus"",""8"",""33724""
","""event"",""trial"",""time""
""fullscreenenter"",""1"",""2416""
","
","","","","","","798","images/racket4.png","","","learning","-1","0","0","0","practice","practice","practice","-1","","",""
"html-keyboard-response","41","227205","0.0-8.0-2.0-0.8","3861","2","16","Female","approach_avoid_spark_v1","""event"",""trial"",""time""
""focus"",""0"",""0""
""fullscreenenter"",""1"",""2416""
""blur"",""8"",""31194""
""focus"",""8"",""33724""
","""event"",""trial"",""time""
""blur"",""8"",""31194""
","""event"",""trial"",""time""
""focus"",""0"",""0""
""focus"",""8"",""33724""
","""event"",""trial"",""time""
""fullscreenenter"",""1"",""2416""
","
","","","","","","null","<div style=""font-size:60px;"">+</div>","null","","fixation","","","","","","","","","","",""
"aa-learning-trial","42","230207","0.0-8.0-2.0-1.8","3861","2","16","Female","approach_avoid_spark_v1","""event"",""trial"",""time""
""focus"",""0"",""0""
""fullscreenenter"",""1"",""2416""
""blur"",""8"",""31194""
""focus"",""8"",""33724""
","""event"",""trial"",""time""
""blur"",""8"",""31194""
","""event"",""trial"",""time""
""focus"",""0"",""0""
""focus"",""8"",""33724""
","""event"",""trial"",""time""
""fullscreenenter"",""1"",""2416""
","
","","","","","","683","images/ball3.png","","","learning","-5","-5","1","1","practice","practice","practice","-1","","",""
"html-keyboard-response","43","230720","0.0-8.0-2.0-0.9","3861","2","16","Female","approach_avoid_spark_v1","""event"",""trial"",""time""
""focus"",""0"",""0""
""fullscreenenter"",""1"",""2416""
""blur"",""8"",""31194""
""focus"",""8"",""33724""
","""event"",""trial"",""time""
""blur"",""8"",""31194""
","""event"",""trial"",""time""
""focus"",""0"",""0""
""focus"",""8"",""33724""
","""event"",""trial"",""time""
""fullscreenenter"",""1"",""2416""
","
","","","","","","null","<div style=""font-size:60px;"">+</div>","null","","fixation","","","","","","","","","","",""
"aa-learning-trial","44","233729","0.0-8.0-2.0-1.9","3861","2","16","Female","approach_avoid_spark_v1","""event"",""trial"",""time""
""focus"",""0"",""0""
""fullscreenenter"",""1"",""2416""
""blur"",""8"",""31194""
""focus"",""8"",""33724""
","""event"",""trial"",""time""
""blur"",""8"",""31194""
","""event"",""trial"",""time""
""focus"",""0"",""0""
""focus"",""8"",""33724""
","""event"",""trial"",""time""
""fullscreenenter"",""1"",""2416""
","
","","","","","","1110","images/racket2.png","","","learning","-5","-5","1","1","practice","practice","practice","-1","","",""
"html-keyboard-response","45","234242","0.0-8.0-2.0-0.10","3861","2","16","Female","approach_avoid_spark_v1","""event"",""trial"",""time""
""focus"",""0"",""0""
""fullscreenenter"",""1"",""2416""
""blur"",""8"",""31194""
""focus"",""8"",""33724""
","""event"",""trial"",""time""
""blur"",""8"",""31194""
","""event"",""trial"",""time""
""focus"",""0"",""0""
""focus"",""8"",""33724""
","""event"",""trial"",""time""
""fullscreenenter"",""1"",""2416""
","
","","","","","","null","<div style=""font-size:60px;"">+</div>","null","","fixation","","","","","","","","","","",""
"aa-learning-trial","46","237246","0.0-8.0-2.0-1.10","3861","2","16","Female","approach_avoid_spark_v1","""event"",""trial"",""time""
""focus"",""0"",""0""
""fullscreenenter"",""1"",""2416""
""blur"",""8"",""31194""
""focus"",""8"",""33724""
","""event"",""trial"",""time""
""blur"",""8"",""31194""
","""event"",""trial"",""time""
""focus"",""0"",""0""
""focus"",""8"",""33724""
","""event"",""trial"",""time""
""fullscreenenter"",""1"",""2416""
","
","","","","","","814","images/racket2.png","","","learning","-7","0","0","0","practice","practice","practice","-1","","",""
"html-keyboard-response","47","237762","0.0-8.0-2.0-0.11","3861","2","16","Female","approach_avoid_spark_v1","""event"",""trial"",""time""
""focus"",""0"",""0""
""fullscreenenter"",""1"",""2416""
""blur"",""8"",""31194""
""focus"",""8"",""33724""
","""event"",""trial"",""time""
""blur"",""8"",""31194""
","""event"",""trial"",""time""
""focus"",""0"",""0""
""focus"",""8"",""33724""
","""event"",""trial"",""time""
""fullscreenenter"",""1"",""2416""
","
","","","","","","null","<div style=""font-size:60px;"">+</div>","null","","fixation","","","","","","","","","","",""
"aa-learning-trial","48","240772","0.0-8.0-2.0-1.11","3861","2","16","Female","approach_avoid_spark_v1","""event"",""trial"",""time""
""focus"",""0"",""0""
""fullscreenenter"",""1"",""2416""
""blur"",""8"",""31194""
""focus"",""8"",""33724""
","""event"",""trial"",""time""
""blur"",""8"",""31194""
","""event"",""trial"",""time""
""focus"",""0"",""0""
""focus"",""8"",""33724""
","""event"",""trial"",""time""
""fullscreenenter"",""1"",""2416""
","
","","","","","","589","images/ball2.png","","","learning","3","3","1","1","practice","practice","practice","-1","","",""
"html-button-response","49","243471","0.0-8.0-3.0","3861","2","16","Female","approach_avoid_spark_v1","""event"",""trial"",""time""
""focus"",""0"",""0""
""fullscreenenter"",""1"",""2416""
""blur"",""8"",""31194""
""focus"",""8"",""33724""
","""event"",""trial"",""time""
""blur"",""8"",""31194""
","""event"",""trial"",""time""
""focus"",""0"",""0""
""focus"",""8"",""33724""
","""event"",""trial"",""time""
""fullscreenenter"",""1"",""2416""
","
","","","","","","2698","<p> You earned -6 points in the practice round! </p>","0","","break","","","","","","","","","","",""
"learning-instructions","50","252073","0.0-8.0-4.0-0.0","3861","2","16","Female","approach_avoid_spark_v1","""event"",""trial"",""time""
""focus"",""0"",""0""
""fullscreenenter"",""1"",""2416""
""blur"",""8"",""31194""
""focus"",""8"",""33724""
","""event"",""trial"",""time""
""blur"",""8"",""31194""
","""event"",""trial"",""time""
""focus"",""0"",""0""
""focus"",""8"",""33724""
","""event"",""trial"",""time""
""fullscreenenter"",""1"",""2416""
","
","","","","","","2637","<p> It's almost time to start the real game. </p><p> Before you start, we're going to ask you a few questions about how the game works. </p>","","0","instructions","","","","","","","","","","",""
"preload","51","253104","0.0-8.0-5.0","3861","2","16","Female","approach_avoid_spark_v1","""event"",""trial"",""time""
""focus"",""0"",""0""
""fullscreenenter"",""1"",""2416""
""blur"",""8"",""31194""
""focus"",""8"",""33724""
","""event"",""trial"",""time""
""blur"",""8"",""31194""
","""event"",""trial"",""time""
""focus"",""0"",""0""
""focus"",""8"",""33724""
","""event"",""trial"",""time""
""fullscreenenter"",""1"",""2416""
","
","true","false","[]","[]","[]","","","","","","","","","","","","","","","",""
"comp-q","52","259992","0.0-8.0-6.0-0.0","3861","2","16","Female","approach_avoid_spark_v1","""event"",""trial"",""time""
""focus"",""0"",""0""
""fullscreenenter"",""1"",""2416""
""blur"",""8"",""31194""
""focus"",""8"",""33724""
","""event"",""trial"",""time""
""blur"",""8"",""31194""
","""event"",""trial"",""time""
""focus"",""0"",""0""
""focus"",""8"",""33724""
","""event"",""trial"",""time""
""fullscreenenter"",""1"",""2416""
","
","","","","","","1883","<p> <b> True or False? </b> </p><p> If you see a number in GREY, that means you earned that many points. </p>","","1","comp_question","","","","","","","","","true","",""
"comp-q","53","269459","0.0-8.0-6.0-1.0","3861","2","16","Female","approach_avoid_spark_v1","""event"",""trial"",""time""
""focus"",""0"",""0""
""fullscreenenter"",""1"",""2416""
""blur"",""8"",""31194""
""focus"",""8"",""33724""
","""event"",""trial"",""time""
""blur"",""8"",""31194""
","""event"",""trial"",""time""
""focus"",""0"",""0""
""focus"",""8"",""33724""
","""event"",""trial"",""time""
""fullscreenenter"",""1"",""2416""
","
","","","","","","1088","<p><b> That's right! </b> If you see a grey number, it means you earned ZERO points. <br> The grey numbers show the points you WOULD HAVE earned if you had made the other choice. </p>","","0","comp_answer","","","","","","","","","","",""
"comp-q","54","275230","0.0-8.0-7.0-0.0","3861","2","16","Female","approach_avoid_spark_v1","""event"",""trial"",""time""
""focus"",""0"",""0""
""fullscreenenter"",""1"",""2416""
""blur"",""8"",""31194""
""focus"",""8"",""33724""
","""event"",""trial"",""time""
""blur"",""8"",""31194""
","""event"",""trial"",""time""
""focus"",""0"",""0""
""focus"",""8"",""33724""
","""event"",""trial"",""time""
""fullscreenenter"",""1"",""2416""
","
","","","","","","1068","<p> <b> True or False? </b> </p><p> You will have as much time as you want to make each choice. </p>","","1","comp_question","","","","","","","","","true","",""
"comp-q","55","281107","0.0-8.0-7.0-1.0","3861","2","16","Female","approach_avoid_spark_v1","""event"",""trial"",""time""
""focus"",""0"",""0""
""fullscreenenter"",""1"",""2416""
""blur"",""8"",""31194""
""focus"",""8"",""33724""
","""event"",""trial"",""time""
""blur"",""8"",""31194""
","""event"",""trial"",""time""
""focus"",""0"",""0""
""focus"",""8"",""33724""
","""event"",""trial"",""time""
""fullscreenenter"",""1"",""2416""
","
","","","","","","1813","<p> <b> That's right! </b> You will only have 3 seconds to make each choice. </p>","","0","comp_answer","","","","","","","","","","",""
"comp-q","56","287031","0.0-8.0-8.0-0.0","3861","2","16","Female","approach_avoid_spark_v1","""event"",""trial"",""time""
""focus"",""0"",""0""
""fullscreenenter"",""1"",""2416""
""blur"",""8"",""31194""
""focus"",""8"",""33724""
","""event"",""trial"",""time""
""blur"",""8"",""31194""
","""event"",""trial"",""time""
""focus"",""0"",""0""
""focus"",""8"",""33724""
","""event"",""trial"",""time""
""fullscreenenter"",""1"",""2416""
","
","","","","","","1252","<p> <b> True or False? </b> </p><p> You should use the '1' and '0' keys to make your choices. </p>","","0","comp_question","","","","","","","","","true","",""
"comp-q","57","292942","0.0-8.0-8.0-1.0","3861","2","16","Female","approach_avoid_spark_v1","""event"",""trial"",""time""
""focus"",""0"",""0""
""fullscreenenter"",""1"",""2416""
""blur"",""8"",""31194""
""focus"",""8"",""33724""
","""event"",""trial"",""time""
""blur"",""8"",""31194""
","""event"",""trial"",""time""
""focus"",""0"",""0""
""focus"",""8"",""33724""
","""event"",""trial"",""time""
""fullscreenenter"",""1"",""2416""
","
","","","","","","1275","<p> <b> That's right! </b> You should use the '1' and '0' keys to make each choice. </p>","","0","comp_answer","","","","","","","","","","",""
"learning-instructions","58","301992","0.0-8.0-9.0-0.0","3861","2","16","Female","approach_avoid_spark_v1","""event"",""trial"",""time""
""focus"",""0"",""0""
""fullscreenenter"",""1"",""2416""
""blur"",""8"",""31194""
""focus"",""8"",""33724""
","""event"",""trial"",""time""
""blur"",""8"",""31194""
","""event"",""trial"",""time""
""focus"",""0"",""0""
""focus"",""8"",""33724""
","""event"",""trial"",""time""
""fullscreenenter"",""1"",""2416""
","
","","","","","","2773","<p> It's now time to start the real game. </p>Do your best, because the points you earn in the next rounds will influence your bonus payment. </p>","","0","instructions","","","","","","","","","","",""
"preload","59","302112","0.0-9.0-0.0","3861","2","16","Female","approach_avoid_spark_v1","""event"",""trial"",""time""
""focus"",""0"",""0""
""fullscreenenter"",""1"",""2416""
""blur"",""8"",""31194""
""focus"",""8"",""33724""
","""event"",""trial"",""time""
""blur"",""8"",""31194""
","""event"",""trial"",""time""
""focus"",""0"",""0""
""focus"",""8"",""33724""
","""event"",""trial"",""time""
""fullscreenenter"",""1"",""2416""
","
","true","false","[]","[]","[]","","","","","","","","","","","","","","","",""
"learning-instructions","60","308328","0.0-9.0-1.0-0.0","3861","2","16","Female","approach_avoid_spark_v1","""event"",""trial"",""time""
""focus"",""0"",""0""
""fullscreenenter"",""1"",""2416""
""blur"",""8"",""31194""
""focus"",""8"",""33724""
","""event"",""trial"",""time""
""blur"",""8"",""31194""
","""event"",""trial"",""time""
""focus"",""0"",""0""
""focus"",""8"",""33724""
","""event"",""trial"",""time""
""fullscreenenter"",""1"",""2416""
","
","","","","","","1312","<p> Your goal in this round is to take your friend for rides in different vehicles. </p></div>","","0","instructions","","","","","","","","","","",""
"learning-instructions","61","318793","0.0-9.0-1.0-0.1","3861","2","16","Female","approach_avoid_spark_v1","""event"",""trial"",""time""
""focus"",""0"",""0""
""fullscreenenter"",""1"",""2416""
""blur"",""8"",""31194""
""focus"",""8"",""33724""
","""event"",""trial"",""time""
""blur"",""8"",""31194""
","""event"",""trial"",""time""
""focus"",""0"",""0""
""focus"",""8"",""33724""
","""event"",""trial"",""time""
""fullscreenenter"",""1"",""2416""
","
","","","","","","661","<p> Your friend enjoys riding in some vehicles but not in others.  </p><p> On each turn, you will see a vehicle.   </p><p> You need to decide whether to take your friend for a ride or not.  </p>","","0","instructions","","","","","","","","","","",""
"learning-instructions","62","325706","0.0-9.0-1.0-0.2","3861","2","16","Female","approach_avoid_spark_v1","""event"",""trial"",""time""
""focus"",""0"",""0""
""fullscreenenter"",""1"",""2416""
""blur"",""8"",""31194""
""focus"",""8"",""33724""
","""event"",""trial"",""time""
""blur"",""8"",""31194""
","""event"",""trial"",""time""
""focus"",""0"",""0""
""focus"",""8"",""33724""
","""event"",""trial"",""time""
""fullscreenenter"",""1"",""2416""
","
","","","","","","543","<p> You can take your friend for a ride in the vehicle by pressing 1 and skip the ride by pressing 0. </p><br><div class=""choice-instructions-grid""> <div class=""choice-option""><img src=""images/approach.png"" class=""choice-option-img"" stage=""instructions"" position=""0"" ><div class=""choice-option-text""> Press ""1."" </div></div><div class=""choice-option""><img src=""images/avoid.png"" class=""choice-option-img"" stage=""instructions"" position=""1"" ><div class=""choice-option-text""> Press ""0."" </div></div>","","0","instructions","","","","","","","","","","",""
"learning-instructions","63","334713","0.0-9.0-1.0-0.3","3861","2","16","Female","approach_avoid_spark_v1","""event"",""trial"",""time""
""focus"",""0"",""0""
""fullscreenenter"",""1"",""2416""
""blur"",""8"",""31194""
""focus"",""8"",""33724""
","""event"",""trial"",""time""
""blur"",""8"",""31194""
","""event"",""trial"",""time""
""focus"",""0"",""0""
""focus"",""8"",""33724""
","""event"",""trial"",""time""
""fullscreenenter"",""1"",""2416""
","
","","","","","","410","<p> If you take them for a ride in a vehicle they like, they will be thrilled! </p><p> But if you take them for a ride in a vehicle they do not like, they will be upset. </p>","","0","instructions","","","","","","","","","","",""
"learning-instructions","64","346517","0.0-9.0-1.0-0.4","3861","2","16","Female","approach_avoid_spark_v1","""event"",""trial"",""time""
""focus"",""0"",""0""
""fullscreenenter"",""1"",""2416""
""blur"",""8"",""31194""
""focus"",""8"",""33724""
","""event"",""trial"",""time""
""blur"",""8"",""31194""
","""event"",""trial"",""time""
""focus"",""0"",""0""
""focus"",""8"",""33724""
","""event"",""trial"",""time""
""fullscreenenter"",""1"",""2416""
","
","","","","","","268","<p> You will earn points based on how you made your friend feel. </p><p> If you made him thrilled, you will WIN anywhere from 1 - 9 points, </p><p> but if you made him upset, you will LOSE anywhere from 1 - 9 points. </p>","","0","instructions","","","","","","","","","","",""
"learning-instructions","65","354261","0.0-9.0-1.0-0.5","3861","2","16","Female","approach_avoid_spark_v1","""event"",""trial"",""time""
""focus"",""0"",""0""
""fullscreenenter"",""1"",""2416""
""blur"",""8"",""31194""
""focus"",""8"",""33724""
","""event"",""trial"",""time""
""blur"",""8"",""31194""
","""event"",""trial"",""time""
""focus"",""0"",""0""
""focus"",""8"",""33724""
","""event"",""trial"",""time""
""fullscreenenter"",""1"",""2416""
","
","","","","","","491","<p> You will see how many points you won or lost in the center of the screen. </p><p> Here is what you would see if you won 5 points: </p><p style=""color:green;font-size:50px;font-weight:bolder"">5</p>","","0","instructions","","","","","","","","","","",""
"learning-instructions","66","358014","0.0-9.0-1.0-0.6","3861","2","16","Female","approach_avoid_spark_v1","""event"",""trial"",""time""
""focus"",""0"",""0""
""fullscreenenter"",""1"",""2416""
""blur"",""8"",""31194""
""focus"",""8"",""33724""
","""event"",""trial"",""time""
""blur"",""8"",""31194""
","""event"",""trial"",""time""
""focus"",""0"",""0""
""focus"",""8"",""33724""
","""event"",""trial"",""time""
""fullscreenenter"",""1"",""2416""
","
","","","","","","520","<p> And here is what you would see if you lost 3 points: </p><p style=""color:red;font-size:50px;font-weight:bolder"">-3</p>","","0","instructions","","","","","","","","","","",""
"learning-instructions","67","373893","0.0-9.0-1.0-0.7","3861","2","16","Female","approach_avoid_spark_v1","""event"",""trial"",""time""
""focus"",""0"",""0""
""fullscreenenter"",""1"",""2416""
""blur"",""8"",""31194""
""focus"",""8"",""33724""
","""event"",""trial"",""time""
""blur"",""8"",""31194""
","""event"",""trial"",""time""
""focus"",""0"",""0""
""focus"",""8"",""33724""
","""event"",""trial"",""time""
""fullscreenenter"",""1"",""2416""
","
","","","","","","847","<p> Some vehicles will make your friend REALLY thrilled or upset. </p><p> These vehicles will make you win or lose LOTS of points. </p><p> Other vehicles will only make him feel a little thrilled or upset. </p><p> These vehicles will make you win or lose small amounts of points. </p>","","0","instructions","","","","","","","","","","",""
"learning-instructions","68","386067","0.0-9.0-1.0-0.8","3861","2","16","Female","approach_avoid_spark_v1","""event"",""trial"",""time""
""focus"",""0"",""0""
""fullscreenenter"",""1"",""2416""
""blur"",""8"",""31194""
""focus"",""8"",""33724""
","""event"",""trial"",""time""
""blur"",""8"",""31194""
","""event"",""trial"",""time""
""focus"",""0"",""0""
""focus"",""8"",""33724""
","""event"",""trial"",""time""
""fullscreenenter"",""1"",""2416""
","
","","","","","","571","<p> If you choose to skip the ride, you will not win or lose any points. </p><p>  However, in the center of the screen, you will see the number of points you WOULD HAVE won or lost if you had taken your friend for a ride. </p>","","0","instructions","","","","","","","","","","",""
"learning-instructions","69","397205","0.0-9.0-1.0-0.9","3861","2","16","Female","approach_avoid_spark_v1","""event"",""trial"",""time""
""focus"",""0"",""0""
""fullscreenenter"",""1"",""2416""
""blur"",""8"",""31194""
""focus"",""8"",""33724""
","""event"",""trial"",""time""
""blur"",""8"",""31194""
","""event"",""trial"",""time""
""focus"",""0"",""0""
""focus"",""8"",""33724""
","""event"",""trial"",""time""
""fullscreenenter"",""1"",""2416""
","
","","","","","","542","<p> Here is what you might see if you did not take your friend for a ride but he would have enjoyed it: </p><p style=""color:grey; font-size:50px; display: inline-block; border-spacing: 15px; border-width:3px; border-style:solid; border-color:red"">  &nbsp; 6 &nbsp; </p><p> Remember, in this case, you would not win or lose ANY points because you skipped the ride.  </p>","","0","instructions","","","","","","","","","","",""
"learning-instructions","70","405197","0.0-9.0-1.0-0.10","3861","2","16","Female","approach_avoid_spark_v1","""event"",""trial"",""time""
""focus"",""0"",""0""
""fullscreenenter"",""1"",""2416""
""blur"",""8"",""31194""
""focus"",""8"",""33724""
","""event"",""trial"",""time""
""blur"",""8"",""31194""
","""event"",""trial"",""time""
""focus"",""0"",""0""
""focus"",""8"",""33724""
","""event"",""trial"",""time""
""fullscreenenter"",""1"",""2416""
","
","","","","","","577","<p> Try to make the best choice for each vehicle because </p><p> at the end of the game, you will earn bonus money based on how many points you earned. </p>","","0","instructions","","","","","","","","","","",""
"learning-instructions","71","413958","0.0-9.0-1.0-0.11","3861","2","16","Female","approach_avoid_spark_v1","""event"",""trial"",""time""
""focus"",""0"",""0""
""fullscreenenter"",""1"",""2416""
""blur"",""8"",""31194""
""focus"",""8"",""33724""
","""event"",""trial"",""time""
""blur"",""8"",""31194""
","""event"",""trial"",""time""
""focus"",""0"",""0""
""focus"",""8"",""33724""
","""event"",""trial"",""time""
""fullscreenenter"",""1"",""2416""
","
","","","","","","559","<p> You will have 3 seconds to make each choice. Try to respond before time runs out! </p><p> You will lose 5 points each time you do not make a response. </p>","","0","instructions","","","","","","","","","","",""
"html-keyboard-response","72","414570","0.0-9.0-2.0-0.0","3861","2","16","Female","approach_avoid_spark_v1","""event"",""trial"",""time""
""focus"",""0"",""0""
""fullscreenenter"",""1"",""2416""
""blur"",""8"",""31194""
""focus"",""8"",""33724""
","""event"",""trial"",""time""
""blur"",""8"",""31194""
","""event"",""trial"",""time""
""focus"",""0"",""0""
""focus"",""8"",""33724""
","""event"",""trial"",""time""
""fullscreenenter"",""1"",""2416""
","
","","","","","","null","<div style=""font-size:60px;"">+</div>","null","","fixation","","","","","","","","","","",""
"aa-learning-trial","73","417582","0.0-9.0-2.0-1.0","3861","2","16","Female","approach_avoid_spark_v1","""event"",""trial"",""time""
""focus"",""0"",""0""
""fullscreenenter"",""1"",""2416""
""blur"",""8"",""31194""
""focus"",""8"",""33724""
","""event"",""trial"",""time""
""blur"",""8"",""31194""
","""event"",""trial"",""time""
""focus"",""0"",""0""
""focus"",""8"",""33724""
","""event"",""trial"",""time""
""fullscreenenter"",""1"",""2416""
","
","","","","","","1049","images/train6.png","","","learning","9","9","1","1","train","vehicles","2","0","","neutral","0"
"html-keyboard-response","74","418092","0.0-9.0-2.0-0.1","3861","2","16","Female","approach_avoid_spark_v1","""event"",""trial"",""time""
""focus"",""0"",""0""
""fullscreenenter"",""1"",""2416""
""blur"",""8"",""31194""
""focus"",""8"",""33724""
","""event"",""trial"",""time""
""blur"",""8"",""31194""
","""event"",""trial"",""time""
""focus"",""0"",""0""
""focus"",""8"",""33724""
","""event"",""trial"",""time""
""fullscreenenter"",""1"",""2416""
","
","","","","","","null","<div style=""font-size:60px;"">+</div>","null","","fixation","","","","","","","","","","",""
"aa-learning-trial","75","421098","0.0-9.0-2.0-1.1","3861","2","16","Female","approach_avoid_spark_v1","""event"",""trial"",""time""
""focus"",""0"",""0""
""fullscreenenter"",""1"",""2416""
""blur"",""8"",""31194""
""focus"",""8"",""33724""
","""event"",""trial"",""time""
""blur"",""8"",""31194""
","""event"",""trial"",""time""
""focus"",""0"",""0""
""focus"",""8"",""33724""
","""event"",""trial"",""time""
""fullscreenenter"",""1"",""2416""
","
","","","","","","1131","images/train4.png","","","learning","-9","0","0","0","train","vehicles","2","0","","neutral","0"
"html-keyboard-response","76","421605","0.0-9.0-2.0-0.2","3861","2","16","Female","approach_avoid_spark_v1","""event"",""trial"",""time""
""focus"",""0"",""0""
""fullscreenenter"",""1"",""2416""
""blur"",""8"",""31194""
""focus"",""8"",""33724""
","""event"",""trial"",""time""
""blur"",""8"",""31194""
","""event"",""trial"",""time""
""focus"",""0"",""0""
""focus"",""8"",""33724""
","""event"",""trial"",""time""
""fullscreenenter"",""1"",""2416""
","
","","","","","","null","<div style=""font-size:60px;"">+</div>","null","","fixation","","","","","","","","","","",""
"aa-learning-trial","77","424608","0.0-9.0-2.0-1.2","3861","2","16","Female","approach_avoid_spark_v1","""event"",""trial"",""time""
""focus"",""0"",""0""
""fullscreenenter"",""1"",""2416""
""blur"",""8"",""31194""
""focus"",""8"",""33724""
","""event"",""trial"",""time""
""blur"",""8"",""31194""
","""event"",""trial"",""time""
""focus"",""0"",""0""
""focus"",""8"",""33724""
","""event"",""trial"",""time""
""fullscreenenter"",""1"",""2416""
","
","","","","","","906","images/boat3.png","","","learning","-5","-5","1","1","boat","vehicles","2","0","","bad","[-6]"
"html-keyboard-response","78","425110","0.0-9.0-2.0-0.3","3861","2","16","Female","approach_avoid_spark_v1","""event"",""trial"",""time""
""focus"",""0"",""0""
""fullscreenenter"",""1"",""2416""
""blur"",""8"",""31194""
""focus"",""8"",""33724""
","""event"",""trial"",""time""
""blur"",""8"",""31194""
","""event"",""trial"",""time""
""focus"",""0"",""0""
""focus"",""8"",""33724""
","""event"",""trial"",""time""
""fullscreenenter"",""1"",""2416""
","
","","","","","","null","<div style=""font-size:60px;"">+</div>","null","","fixation","","","","","","","","","","",""
"aa-learning-trial","79","428125","0.0-9.0-2.0-1.3","3861","2","16","Female","approach_avoid_spark_v1","""event"",""trial"",""time""
""focus"",""0"",""0""
""fullscreenenter"",""1"",""2416""
""blur"",""8"",""31194""
""focus"",""8"",""33724""
","""event"",""trial"",""time""
""blur"",""8"",""31194""
","""event"",""trial"",""time""
""focus"",""0"",""0""
""focus"",""8"",""33724""
","""event"",""trial"",""time""
""fullscreenenter"",""1"",""2416""
","
","","","","","","477","images/train7.png","","","learning","-4","-4","1","1","train","vehicles","2","0","","neutral","0"
"html-keyboard-response","80","428635","0.0-9.0-2.0-0.4","3861","2","16","Female","approach_avoid_spark_v1","""event"",""trial"",""time""
""focus"",""0"",""0""
""fullscreenenter"",""1"",""2416""
""blur"",""8"",""31194""
""focus"",""8"",""33724""
","""event"",""trial"",""time""
""blur"",""8"",""31194""
","""event"",""trial"",""time""
""focus"",""0"",""0""
""focus"",""8"",""33724""
","""event"",""trial"",""time""
""fullscreenenter"",""1"",""2416""
","
","","","","","","null","<div style=""font-size:60px;"">+</div>","null","","fixation","","","","","","","","","","",""
"aa-learning-trial","81","431643","0.0-9.0-2.0-1.4","3861","2","16","Female","approach_avoid_spark_v1","""event"",""trial"",""time""
""focus"",""0"",""0""
""fullscreenenter"",""1"",""2416""
""blur"",""8"",""31194""
""focus"",""8"",""33724""
","""event"",""trial"",""time""
""blur"",""8"",""31194""
","""event"",""trial"",""time""
""focus"",""0"",""0""
""focus"",""8"",""33724""
","""event"",""trial"",""time""
""fullscreenenter"",""1"",""2416""
","
","","","","","","670","images/boat7.png","","","learning","-8","-8","1","1","boat","vehicles","2","0","","bad","[-6]"
"html-keyboard-response","82","432145","0.0-9.0-2.0-0.5","3861","2","16","Female","approach_avoid_spark_v1","""event"",""trial"",""time""
""focus"",""0"",""0""
""fullscreenenter"",""1"",""2416""
""blur"",""8"",""31194""
""focus"",""8"",""33724""
","""event"",""trial"",""time""
""blur"",""8"",""31194""
","""event"",""trial"",""time""
""focus"",""0"",""0""
""focus"",""8"",""33724""
","""event"",""trial"",""time""
""fullscreenenter"",""1"",""2416""
","
","","","","","","null","<div style=""font-size:60px;"">+</div>","null","","fixation","","","","","","","","","","",""
"aa-learning-trial","83","435146","0.0-9.0-2.0-1.5","3861","2","16","Female","approach_avoid_spark_v1","""event"",""trial"",""time""
""focus"",""0"",""0""
""fullscreenenter"",""1"",""2416""
""blur"",""8"",""31194""
""focus"",""8"",""33724""
","""event"",""trial"",""time""
""blur"",""8"",""31194""
","""event"",""trial"",""time""
""focus"",""0"",""0""
""focus"",""8"",""33724""
","""event"",""trial"",""time""
""fullscreenenter"",""1"",""2416""
","
","","","","","","864","images/train6.png","","","learning","9","9","1","1","train","vehicles","2","0","","neutral","0"
"html-keyboard-response","84","435655","0.0-9.0-2.0-0.6","3861","2","16","Female","approach_avoid_spark_v1","""event"",""trial"",""time""
""focus"",""0"",""0""
""fullscreenenter"",""1"",""2416""
""blur"",""8"",""31194""
""focus"",""8"",""33724""
","""event"",""trial"",""time""
""blur"",""8"",""31194""
","""event"",""trial"",""time""
""focus"",""0"",""0""
""focus"",""8"",""33724""
","""event"",""trial"",""time""
""fullscreenenter"",""1"",""2416""
","
","","","","","","null","<div style=""font-size:60px;"">+</div>","null","","fixation","","","","","","","","","","",""
"aa-learning-trial","85","438671","0.0-9.0-2.0-1.6","3861","2","16","Female","approach_avoid_spark_v1","""event"",""trial"",""time""
""focus"",""0"",""0""
""fullscreenenter"",""1"",""2416""
""blur"",""8"",""31194""
""focus"",""8"",""33724""
","""event"",""trial"",""time""
""blur"",""8"",""31194""
","""event"",""trial"",""time""
""focus"",""0"",""0""
""focus"",""8"",""33724""
","""event"",""trial"",""time""
""fullscreenenter"",""1"",""2416""
","
","","","","","","1113","images/plane7.png","","","learning","6","0","0","0","plane","vehicles","2","0","","good","[5]"
"html-keyboard-response","86","439172","0.0-9.0-2.0-0.7","3861","2","16","Female","approach_avoid_spark_v1","""event"",""trial"",""time""
""focus"",""0"",""0""
""fullscreenenter"",""1"",""2416""
""blur"",""8"",""31194""
""focus"",""8"",""33724""
","""event"",""trial"",""time""
""blur"",""8"",""31194""
","""event"",""trial"",""time""
""focus"",""0"",""0""
""focus"",""8"",""33724""
","""event"",""trial"",""time""
""fullscreenenter"",""1"",""2416""
","
","","","","","","null","<div style=""font-size:60px;"">+</div>","null","","fixation","","","","","","","","","","",""
"aa-learning-trial","87","442183","0.0-9.0-2.0-1.7","3861","2","16","Female","approach_avoid_spark_v1","""event"",""trial"",""time""
""focus"",""0"",""0""
""fullscreenenter"",""1"",""2416""
""blur"",""8"",""31194""
""focus"",""8"",""33724""
","""event"",""trial"",""time""
""blur"",""8"",""31194""
","""event"",""trial"",""time""
""focus"",""0"",""0""
""focus"",""8"",""33724""
","""event"",""trial"",""time""
""fullscreenenter"",""1"",""2416""
","
","","","","","","1497","images/plane8.png","","","learning","2","0","0","0","plane","vehicles","2","0","","good","[5]"
"html-keyboard-response","88","442690","0.0-9.0-2.0-0.8","3861","2","16","Female","approach_avoid_spark_v1","""event"",""trial"",""time""
""focus"",""0"",""0""
""fullscreenenter"",""1"",""2416""
""blur"",""8"",""31194""
""focus"",""8"",""33724""
","""event"",""trial"",""time""
""blur"",""8"",""31194""
","""event"",""trial"",""time""
""focus"",""0"",""0""
""focus"",""8"",""33724""
","""event"",""trial"",""time""
""fullscreenenter"",""1"",""2416""
","
","","","","","","null","<div style=""font-size:60px;"">+</div>","null","","fixation","","","","","","","","","","",""
"aa-learning-trial","89","445704","0.0-9.0-2.0-1.8","3861","2","16","Female","approach_avoid_spark_v1","""event"",""trial"",""time""
""focus"",""0"",""0""
""fullscreenenter"",""1"",""2416""
""blur"",""8"",""31194""
""focus"",""8"",""33724""
","""event"",""trial"",""time""
""blur"",""8"",""31194""
","""event"",""trial"",""time""
""focus"",""0"",""0""
""focus"",""8"",""33724""
","""event"",""trial"",""time""
""fullscreenenter"",""1"",""2416""
","
","","","","","","934","images/plane7.png","","","learning","6","6","1","1","plane","vehicles","2","0","","good","[5]"
"html-keyboard-response","90","446206","0.0-9.0-2.0-0.9","3861","2","16","Female","approach_avoid_spark_v1","""event"",""trial"",""time""
""focus"",""0"",""0""
""fullscreenenter"",""1"",""2416""
""blur"",""8"",""31194""
""focus"",""8"",""33724""
","""event"",""trial"",""time""
""blur"",""8"",""31194""
","""event"",""trial"",""time""
""focus"",""0"",""0""
""focus"",""8"",""33724""
","""event"",""trial"",""time""
""fullscreenenter"",""1"",""2416""
","
","","","","","","null","<div style=""font-size:60px;"">+</div>","null","","fixation","","","","","","","","","","",""
"aa-learning-trial","91","449209","0.0-9.0-2.0-1.9","3861","2","16","Female","approach_avoid_spark_v1","""event"",""trial"",""time""
""focus"",""0"",""0""
""fullscreenenter"",""1"",""2416""
""blur"",""8"",""31194""
""focus"",""8"",""33724""
","""event"",""trial"",""time""
""blur"",""8"",""31194""
","""event"",""trial"",""time""
""focus"",""0"",""0""
""focus"",""8"",""33724""
","""event"",""trial"",""time""
""fullscreenenter"",""1"",""2416""
","
","","","","","","932","images/plane1.png","","","learning","-6","0","0","0","plane","vehicles","2","0","","good","[5]"
"html-keyboard-response","92","449711","0.0-9.0-2.0-0.10","3861","2","16","Female","approach_avoid_spark_v1","""event"",""trial"",""time""
""focus"",""0"",""0""
""fullscreenenter"",""1"",""2416""
""blur"",""8"",""31194""
""focus"",""8"",""33724""
","""event"",""trial"",""time""
""blur"",""8"",""31194""
","""event"",""trial"",""time""
""focus"",""0"",""0""
""focus"",""8"",""33724""
","""event"",""trial"",""time""
""fullscreenenter"",""1"",""2416""
","
","","","","","","null","<div style=""font-size:60px;"">+</div>","null","","fixation","","","","","","","","","","",""
"aa-learning-trial","93","452721","0.0-9.0-2.0-1.10","3861","2","16","Female","approach_avoid_spark_v1","""event"",""trial"",""time""
""focus"",""0"",""0""
""fullscreenenter"",""1"",""2416""
""blur"",""8"",""31194""
""focus"",""8"",""33724""
","""event"",""trial"",""time""
""blur"",""8"",""31194""
","""event"",""trial"",""time""
""focus"",""0"",""0""
""focus"",""8"",""33724""
","""event"",""trial"",""time""
""fullscreenenter"",""1"",""2416""
","
","","","","","","1440","images/boat7.png","","","learning","-8","0","0","0","boat","vehicles","2","0","","bad","[-6]"
"html-keyboard-response","94","453227","0.0-9.0-2.0-0.11","3861","2","16","Female","approach_avoid_spark_v1","""event"",""trial"",""time""
""focus"",""0"",""0""
""fullscreenenter"",""1"",""2416""
""blur"",""8"",""31194""
""focus"",""8"",""33724""
","""event"",""trial"",""time""
""blur"",""8"",""31194""
","""event"",""trial"",""time""
""focus"",""0"",""0""
""focus"",""8"",""33724""
","""event"",""trial"",""time""
""fullscreenenter"",""1"",""2416""
","
","","","","","","null","<div style=""font-size:60px;"">+</div>","null","","fixation","","","","","","","","","","",""
"aa-learning-trial","95","456241","0.0-9.0-2.0-1.11","3861","2","16","Female","approach_avoid_spark_v1","""event"",""trial"",""time""
""focus"",""0"",""0""
""fullscreenenter"",""1"",""2416""
""blur"",""8"",""31194""
""focus"",""8"",""33724""
","""event"",""trial"",""time""
""blur"",""8"",""31194""
","""event"",""trial"",""time""
""focus"",""0"",""0""
""focus"",""8"",""33724""
","""event"",""trial"",""time""
""fullscreenenter"",""1"",""2416""
","
","","","","","","1269","images/boat2.png","","","learning","3","3","1","1","boat","vehicles","2","0","","bad","[-6]"
"html-keyboard-response","96","456751","0.0-9.0-2.0-0.12","3861","2","16","Female","approach_avoid_spark_v1","""event"",""trial"",""time""
""focus"",""0"",""0""
""fullscreenenter"",""1"",""2416""
""blur"",""8"",""31194""
""focus"",""8"",""33724""
","""event"",""trial"",""time""
""blur"",""8"",""31194""
","""event"",""trial"",""time""
""focus"",""0"",""0""
""focus"",""8"",""33724""
","""event"",""trial"",""time""
""fullscreenenter"",""1"",""2416""
","
","","","","","","null","<div style=""font-size:60px;"">+</div>","null","","fixation","","","","","","","","","","",""
"aa-learning-trial","97","459767","0.0-9.0-2.0-1.12","3861","2","16","Female","approach_avoid_spark_v1","""event"",""trial"",""time""
""focus"",""0"",""0""
""fullscreenenter"",""1"",""2416""
""blur"",""8"",""31194""
""focus"",""8"",""33724""
","""event"",""trial"",""time""
""blur"",""8"",""31194""
","""event"",""trial"",""time""
""focus"",""0"",""0""
""focus"",""8"",""33724""
","""event"",""trial"",""time""
""fullscreenenter"",""1"",""2416""
","
","","","","","","814","images/boat2.png","","","learning","3","3","1","1","boat","vehicles","2","0","","bad","[-6]"
"html-keyboard-response","98","460268","0.0-9.0-2.0-0.13","3861","2","16","Female","approach_avoid_spark_v1","""event"",""trial"",""time""
""focus"",""0"",""0""
""fullscreenenter"",""1"",""2416""
""blur"",""8"",""31194""
""focus"",""8"",""33724""
","""event"",""trial"",""time""
""blur"",""8"",""31194""
","""event"",""trial"",""time""
""focus"",""0"",""0""
""focus"",""8"",""33724""
","""event"",""trial"",""time""
""fullscreenenter"",""1"",""2416""
","
","","","","","","null","<div style=""font-size:60px;"">+</div>","null","","fixation","","","","","","","","","","",""
"aa-learning-trial","99","463281","0.0-9.0-2.0-1.13","3861","2","16","Female","approach_avoid_spark_v1","""event"",""trial"",""time""
""focus"",""0"",""0""
""fullscreenenter"",""1"",""2416""
""blur"",""8"",""31194""
""focus"",""8"",""33724""
","""event"",""trial"",""time""
""blur"",""8"",""31194""
","""event"",""trial"",""time""
""focus"",""0"",""0""
""focus"",""8"",""33724""
","""event"",""trial"",""time""
""fullscreenenter"",""1"",""2416""
","
","","","","","","951","images/plane8.png","","","learning","2","2","1","1","plane","vehicles","2","0","","good","[5]"
"html-keyboard-response","100","463782","0.0-9.0-2.0-0.14","3861","2","16","Female","approach_avoid_spark_v1","""event"",""trial"",""time""
""focus"",""0"",""0""
""fullscreenenter"",""1"",""2416""
""blur"",""8"",""31194""
""focus"",""8"",""33724""
","""event"",""trial"",""time""
""blur"",""8"",""31194""
","""event"",""trial"",""time""
""focus"",""0"",""0""
""focus"",""8"",""33724""
","""event"",""trial"",""time""
""fullscreenenter"",""1"",""2416""
","
","","","","","","null","<div style=""font-size:60px;"">+</div>","null","","fixation","","","","","","","","","","",""
"aa-learning-trial","101","466795","0.0-9.0-2.0-1.14","3861","2","16","Female","approach_avoid_spark_v1","""event"",""trial"",""time""
""focus"",""0"",""0""
""fullscreenenter"",""1"",""2416""
""blur"",""8"",""31194""
""focus"",""8"",""33724""
","""event"",""trial"",""time""
""blur"",""8"",""31194""
","""event"",""trial"",""time""
""focus"",""0"",""0""
""focus"",""8"",""33724""
","""event"",""trial"",""time""
""fullscreenenter"",""1"",""2416""
","
","","","","","","1254","images/train4.png","","","learning","-9","-9","1","1","train","vehicles","2","0","","neutral","0"
"html-keyboard-response","102","467296","0.0-9.0-2.0-0.15","3861","2","16","Female","approach_avoid_spark_v1","""event"",""trial"",""time""
""focus"",""0"",""0""
""fullscreenenter"",""1"",""2416""
""blur"",""8"",""31194""
""focus"",""8"",""33724""
","""event"",""trial"",""time""
""blur"",""8"",""31194""
","""event"",""trial"",""time""
""focus"",""0"",""0""
""focus"",""8"",""33724""
","""event"",""trial"",""time""
""fullscreenenter"",""1"",""2416""
","
","","","","","","null","<div style=""font-size:60px;"">+</div>","null","","fixation","","","","","","","","","","",""
"aa-learning-trial","103","470307","0.0-9.0-2.0-1.15","3861","2","16","Female","approach_avoid_spark_v1","""event"",""trial"",""time""
""focus"",""0"",""0""
""fullscreenenter"",""1"",""2416""
""blur"",""8"",""31194""
""focus"",""8"",""33724""
","""event"",""trial"",""time""
""blur"",""8"",""31194""
","""event"",""trial"",""time""
""focus"",""0"",""0""
""focus"",""8"",""33724""
","""event"",""trial"",""time""
""fullscreenenter"",""1"",""2416""
","
","","","","","","1009","images/plane7.png","","","learning","6","6","1","1","plane","vehicles","2","0","","good","[5]"
"html-keyboard-response","104","470818","0.0-9.0-2.0-0.16","3861","2","16","Female","approach_avoid_spark_v1","""event"",""trial"",""time""
""focus"",""0"",""0""
""fullscreenenter"",""1"",""2416""
""blur"",""8"",""31194""
""focus"",""8"",""33724""
","""event"",""trial"",""time""
""blur"",""8"",""31194""
","""event"",""trial"",""time""
""focus"",""0"",""0""
""focus"",""8"",""33724""
","""event"",""trial"",""time""
""fullscreenenter"",""1"",""2416""
","
","","","","","","null","<div style=""font-size:60px;"">+</div>","null","","fixation","","","","","","","","","","",""
"aa-learning-trial","105","473835","0.0-9.0-2.0-1.16","3861","2","16","Female","approach_avoid_spark_v1","""event"",""trial"",""time""
""focus"",""0"",""0""
""fullscreenenter"",""1"",""2416""
""blur"",""8"",""31194""
""focus"",""8"",""33724""
","""event"",""trial"",""time""
""blur"",""8"",""31194""
","""event"",""trial"",""time""
""focus"",""0"",""0""
""focus"",""8"",""33724""
","""event"",""trial"",""time""
""fullscreenenter"",""1"",""2416""
","
","","","","","","1090","images/boat5.png","","","learning","8","0","0","0","boat","vehicles","2","0","","bad","[-6]"
"html-keyboard-response","106","474342","0.0-9.0-2.0-0.17","3861","2","16","Female","approach_avoid_spark_v1","""event"",""trial"",""time""
""focus"",""0"",""0""
""fullscreenenter"",""1"",""2416""
""blur"",""8"",""31194""
""focus"",""8"",""33724""
","""event"",""trial"",""time""
""blur"",""8"",""31194""
","""event"",""trial"",""time""
""focus"",""0"",""0""
""focus"",""8"",""33724""
","""event"",""trial"",""time""
""fullscreenenter"",""1"",""2416""
","
","","","","","","null","<div style=""font-size:60px;"">+</div>","null","","fixation","","","","","","","","","","",""
"aa-learning-trial","107","477356","0.0-9.0-2.0-1.17","3861","2","16","Female","approach_avoid_spark_v1","""event"",""trial"",""time""
""focus"",""0"",""0""
""fullscreenenter"",""1"",""2416""
""blur"",""8"",""31194""
""focus"",""8"",""33724""
","""event"",""trial"",""time""
""blur"",""8"",""31194""
","""event"",""trial"",""time""
""focus"",""0"",""0""
""focus"",""8"",""33724""
","""event"",""trial"",""time""
""fullscreenenter"",""1"",""2416""
","
","","","","","","1378","images/boat7.png","","","learning","-8","-8","1","1","boat","vehicles","2","0","","bad","[-6]"
"html-keyboard-response","108","477862","0.0-9.0-2.0-0.18","3861","2","16","Female","approach_avoid_spark_v1","""event"",""trial"",""time""
""focus"",""0"",""0""
""fullscreenenter"",""1"",""2416""
""blur"",""8"",""31194""
""focus"",""8"",""33724""
","""event"",""trial"",""time""
""blur"",""8"",""31194""
","""event"",""trial"",""time""
""focus"",""0"",""0""
""focus"",""8"",""33724""
","""event"",""trial"",""time""
""fullscreenenter"",""1"",""2416""
","
","","","","","","null","<div style=""font-size:60px;"">+</div>","null","","fixation","","","","","","","","","","",""
"aa-learning-trial","109","480871","0.0-9.0-2.0-1.18","3861","2","16","Female","approach_avoid_spark_v1","""event"",""trial"",""time""
""focus"",""0"",""0""
""fullscreenenter"",""1"",""2416""
""blur"",""8"",""31194""
""focus"",""8"",""33724""
","""event"",""trial"",""time""
""blur"",""8"",""31194""
","""event"",""trial"",""time""
""focus"",""0"",""0""
""focus"",""8"",""33724""
","""event"",""trial"",""time""
""fullscreenenter"",""1"",""2416""
","
","","","","","","599","images/boat7.png","","","learning","-8","0","0","0","boat","vehicles","2","0","","bad","[-6]"
"html-keyboard-response","110","481381","0.0-9.0-2.0-0.19","3861","2","16","Female","approach_avoid_spark_v1","""event"",""trial"",""time""
""focus"",""0"",""0""
""fullscreenenter"",""1"",""2416""
""blur"",""8"",""31194""
""focus"",""8"",""33724""
","""event"",""trial"",""time""
""blur"",""8"",""31194""
","""event"",""trial"",""time""
""focus"",""0"",""0""
""focus"",""8"",""33724""
","""event"",""trial"",""time""
""fullscreenenter"",""1"",""2416""
","
","","","","","","null","<div style=""font-size:60px;"">+</div>","null","","fixation","","","","","","","","","","",""
"aa-learning-trial","111","484392","0.0-9.0-2.0-1.19","3861","2","16","Female","approach_avoid_spark_v1","""event"",""trial"",""time""
""focus"",""0"",""0""
""fullscreenenter"",""1"",""2416""
""blur"",""8"",""31194""
""focus"",""8"",""33724""
","""event"",""trial"",""time""
""blur"",""8"",""31194""
","""event"",""trial"",""time""
""focus"",""0"",""0""
""focus"",""8"",""33724""
","""event"",""trial"",""time""
""fullscreenenter"",""1"",""2416""
","
","","","","","","1193","images/plane8.png","","","learning","2","0","0","0","plane","vehicles","2","0","","good","[5]"
"html-keyboard-response","112","484893","0.0-9.0-2.0-0.20","3861","2","16","Female","approach_avoid_spark_v1","""event"",""trial"",""time""
""focus"",""0"",""0""
""fullscreenenter"",""1"",""2416""
""blur"",""8"",""31194""
""focus"",""8"",""33724""
","""event"",""trial"",""time""
""blur"",""8"",""31194""
","""event"",""trial"",""time""
""focus"",""0"",""0""
""focus"",""8"",""33724""
","""event"",""trial"",""time""
""fullscreenenter"",""1"",""2416""
","
","","","","","","null","<div style=""font-size:60px;"">+</div>","null","","fixation","","","","","","","","","","",""
"aa-learning-trial","113","487905","0.0-9.0-2.0-1.20","3861","2","16","Female","approach_avoid_spark_v1","""event"",""trial"",""time""
""focus"",""0"",""0""
""fullscreenenter"",""1"",""2416""
""blur"",""8"",""31194""
""focus"",""8"",""33724""
","""event"",""trial"",""time""
""blur"",""8"",""31194""
","""event"",""trial"",""time""
""focus"",""0"",""0""
""focus"",""8"",""33724""
","""event"",""trial"",""time""
""fullscreenenter"",""1"",""2416""
","
","","","","","","1391","images/plane5.png","","","learning","5","0","0","0","plane","vehicles","2","0","","good","[5]"
"html-keyboard-response","114","488406","0.0-9.0-2.0-0.21","3861","2","16","Female","approach_avoid_spark_v1","""event"",""trial"",""time""
""focus"",""0"",""0""
""fullscreenenter"",""1"",""2416""
""blur"",""8"",""31194""
""focus"",""8"",""33724""
","""event"",""trial"",""time""
""blur"",""8"",""31194""
","""event"",""trial"",""time""
""focus"",""0"",""0""
""focus"",""8"",""33724""
","""event"",""trial"",""time""
""fullscreenenter"",""1"",""2416""
","
","","","","","","null","<div style=""font-size:60px;"">+</div>","null","","fixation","","","","","","","","","","",""
"aa-learning-trial","115","491421","0.0-9.0-2.0-1.21","3861","2","16","Female","approach_avoid_spark_v1","""event"",""trial"",""time""
""focus"",""0"",""0""
""fullscreenenter"",""1"",""2416""
""blur"",""8"",""31194""
""focus"",""8"",""33724""
","""event"",""trial"",""time""
""blur"",""8"",""31194""
","""event"",""trial"",""time""
""focus"",""0"",""0""
""focus"",""8"",""33724""
","""event"",""trial"",""time""
""fullscreenenter"",""1"",""2416""
","
","","","","","","757","images/train6.png","","","learning","9","9","1","1","train","vehicles","2","0","","neutral","0"
"html-keyboard-response","116","491922","0.0-9.0-2.0-0.22","3861","2","16","Female","approach_avoid_spark_v1","""event"",""trial"",""time""
""focus"",""0"",""0""
""fullscreenenter"",""1"",""2416""
""blur"",""8"",""31194""
""focus"",""8"",""33724""
","""event"",""trial"",""time""
""blur"",""8"",""31194""
","""event"",""trial"",""time""
""focus"",""0"",""0""
""focus"",""8"",""33724""
","""event"",""trial"",""time""
""fullscreenenter"",""1"",""2416""
","
","","","","","","null","<div style=""font-size:60px;"">+</div>","null","","fixation","","","","","","","","","","",""
"aa-learning-trial","117","494924","0.0-9.0-2.0-1.22","3861","2","16","Female","approach_avoid_spark_v1","""event"",""trial"",""time""
""focus"",""0"",""0""
""fullscreenenter"",""1"",""2416""
""blur"",""8"",""31194""
""focus"",""8"",""33724""
","""event"",""trial"",""time""
""blur"",""8"",""31194""
","""event"",""trial"",""time""
""focus"",""0"",""0""
""focus"",""8"",""33724""
","""event"",""trial"",""time""
""fullscreenenter"",""1"",""2416""
","
","","","","","","1552","images/plane1.png","","","learning","-6","-6","1","1","plane","vehicles","2","0","","good","[5]"
"html-keyboard-response","118","495434","0.0-9.0-2.0-0.23","3861","2","16","Female","approach_avoid_spark_v1","""event"",""trial"",""time""
""focus"",""0"",""0""
""fullscreenenter"",""1"",""2416""
""blur"",""8"",""31194""
""focus"",""8"",""33724""
","""event"",""trial"",""time""
""blur"",""8"",""31194""
","""event"",""trial"",""time""
""focus"",""0"",""0""
""focus"",""8"",""33724""
","""event"",""trial"",""time""
""fullscreenenter"",""1"",""2416""
","
","","","","","","null","<div style=""font-size:60px;"">+</div>","null","","fixation","","","","","","","","","","",""
"aa-learning-trial","119","498444","0.0-9.0-2.0-1.23","3861","2","16","Female","approach_avoid_spark_v1","""event"",""trial"",""time""
""focus"",""0"",""0""
""fullscreenenter"",""1"",""2416""
""blur"",""8"",""31194""
""focus"",""8"",""33724""
","""event"",""trial"",""time""
""blur"",""8"",""31194""
","""event"",""trial"",""time""
""focus"",""0"",""0""
""focus"",""8"",""33724""
","""event"",""trial"",""time""
""fullscreenenter"",""1"",""2416""
","
","","","","","","1554","images/train4.png","","","learning","-9","-9","1","1","train","vehicles","2","0","","neutral","0"
"html-keyboard-response","120","498958","0.0-9.0-2.0-0.24","3861","2","16","Female","approach_avoid_spark_v1","""event"",""trial"",""time""
""focus"",""0"",""0""
""fullscreenenter"",""1"",""2416""
""blur"",""8"",""31194""
""focus"",""8"",""33724""
","""event"",""trial"",""time""
""blur"",""8"",""31194""
","""event"",""trial"",""time""
""focus"",""0"",""0""
""focus"",""8"",""33724""
","""event"",""trial"",""time""
""fullscreenenter"",""1"",""2416""
","
","","","","","","null","<div style=""font-size:60px;"">+</div>","null","","fixation","","","","","","","","","","",""
"aa-learning-trial","121","501966","0.0-9.0-2.0-1.24","3861","2","16","Female","approach_avoid_spark_v1","""event"",""trial"",""time""
""focus"",""0"",""0""
""fullscreenenter"",""1"",""2416""
""blur"",""8"",""31194""
""focus"",""8"",""33724""
","""event"",""trial"",""time""
""blur"",""8"",""31194""
","""event"",""trial"",""time""
""focus"",""0"",""0""
""focus"",""8"",""33724""
","""event"",""trial"",""time""
""fullscreenenter"",""1"",""2416""
","
","","","","","","893","images/plane8.png","","","learning","2","2","1","1","plane","vehicles","2","0","","good","[5]"
"html-keyboard-response","122","502472","0.0-9.0-2.0-0.25","3861","2","16","Female","approach_avoid_spark_v1","""event"",""trial"",""time""
""focus"",""0"",""0""
""fullscreenenter"",""1"",""2416""
""blur"",""8"",""31194""
""focus"",""8"",""33724""
","""event"",""trial"",""time""
""blur"",""8"",""31194""
","""event"",""trial"",""time""
""focus"",""0"",""0""
""focus"",""8"",""33724""
","""event"",""trial"",""time""
""fullscreenenter"",""1"",""2416""
","
","","","","","","null","<div style=""font-size:60px;"">+</div>","null","","fixation","","","","","","","","","","",""
"aa-learning-trial","123","505475","0.0-9.0-2.0-1.25","3861","2","16","Female","approach_avoid_spark_v1","""event"",""trial"",""time""
""focus"",""0"",""0""
""fullscreenenter"",""1"",""2416""
""blur"",""8"",""31194""
""focus"",""8"",""33724""
","""event"",""trial"",""time""
""blur"",""8"",""31194""
","""event"",""trial"",""time""
""focus"",""0"",""0""
""focus"",""8"",""33724""
","""event"",""trial"",""time""
""fullscreenenter"",""1"",""2416""
","
","","","","","","1128","images/train7.png","","","learning","-4","-4","1","1","train","vehicles","2","0","","neutral","0"
"html-keyboard-response","124","505990","0.0-9.0-2.0-0.26","3861","2","16","Female","approach_avoid_spark_v1","""event"",""trial"",""time""
""focus"",""0"",""0""
""fullscreenenter"",""1"",""2416""
""blur"",""8"",""31194""
""focus"",""8"",""33724""
","""event"",""trial"",""time""
""blur"",""8"",""31194""
","""event"",""trial"",""time""
""focus"",""0"",""0""
""focus"",""8"",""33724""
","""event"",""trial"",""time""
""fullscreenenter"",""1"",""2416""
","
","","","","","","null","<div style=""font-size:60px;"">+</div>","null","","fixation","","","","","","","","","","",""
"aa-learning-trial","125","508997","0.0-9.0-2.0-1.26","3861","2","16","Female","approach_avoid_spark_v1","""event"",""trial"",""time""
""focus"",""0"",""0""
""fullscreenenter"",""1"",""2416""
""blur"",""8"",""31194""
""focus"",""8"",""33724""
","""event"",""trial"",""time""
""blur"",""8"",""31194""
","""event"",""trial"",""time""
""focus"",""0"",""0""
""focus"",""8"",""33724""
","""event"",""trial"",""time""
""fullscreenenter"",""1"",""2416""
","
","","","","","","785","images/plane7.png","","","learning","6","6","1","1","plane","vehicles","2","0","","good","[5]"
"html-keyboard-response","126","509505","0.0-9.0-2.0-0.27","3861","2","16","Female","approach_avoid_spark_v1","""event"",""trial"",""time""
""focus"",""0"",""0""
""fullscreenenter"",""1"",""2416""
""blur"",""8"",""31194""
""focus"",""8"",""33724""
","""event"",""trial"",""time""
""blur"",""8"",""31194""
","""event"",""trial"",""time""
""focus"",""0"",""0""
""focus"",""8"",""33724""
","""event"",""trial"",""time""
""fullscreenenter"",""1"",""2416""
","
","","","","","","null","<div style=""font-size:60px;"">+</div>","null","","fixation","","","","","","","","","","",""
"aa-learning-trial","127","512516","0.0-9.0-2.0-1.27","3861","2","16","Female","approach_avoid_spark_v1","""event"",""trial"",""time""
""focus"",""0"",""0""
""fullscreenenter"",""1"",""2416""
""blur"",""8"",""31194""
""focus"",""8"",""33724""
","""event"",""trial"",""time""
""blur"",""8"",""31194""
","""event"",""trial"",""time""
""focus"",""0"",""0""
""focus"",""8"",""33724""
","""event"",""trial"",""time""
""fullscreenenter"",""1"",""2416""
","
","","","","","","965","images/boat2.png","","","learning","3","3","1","1","boat","vehicles","2","0","","bad","[-6]"
"html-keyboard-response","128","513028","0.0-9.0-2.0-0.28","3861","2","16","Female","approach_avoid_spark_v1","""event"",""trial"",""time""
""focus"",""0"",""0""
""fullscreenenter"",""1"",""2416""
""blur"",""8"",""31194""
""focus"",""8"",""33724""
","""event"",""trial"",""time""
""blur"",""8"",""31194""
","""event"",""trial"",""time""
""focus"",""0"",""0""
""focus"",""8"",""33724""
","""event"",""trial"",""time""
""fullscreenenter"",""1"",""2416""
","
","","","","","","null","<div style=""font-size:60px;"">+</div>","null","","fixation","","","","","","","","","","",""
"aa-learning-trial","129","516034","0.0-9.0-2.0-1.28","3861","2","16","Female","approach_avoid_spark_v1","""event"",""trial"",""time""
""focus"",""0"",""0""
""fullscreenenter"",""1"",""2416""
""blur"",""8"",""31194""
""focus"",""8"",""33724""
","""event"",""trial"",""time""
""blur"",""8"",""31194""
","""event"",""trial"",""time""
""focus"",""0"",""0""
""focus"",""8"",""33724""
","""event"",""trial"",""time""
""fullscreenenter"",""1"",""2416""
","
","","","","","","732","images/plane7.png","","","learning","6","6","1","1","plane","vehicles","2","0","","good","[5]"
"html-keyboard-response","130","516540","0.0-9.0-2.0-0.29","3861","2","16","Female","approach_avoid_spark_v1","""event"",""trial"",""time""
""focus"",""0"",""0""
""fullscreenenter"",""1"",""2416""
""blur"",""8"",""31194""
""focus"",""8"",""33724""
","""event"",""trial"",""time""
""blur"",""8"",""31194""
","""event"",""trial"",""time""
""focus"",""0"",""0""
""focus"",""8"",""33724""
","""event"",""trial"",""time""
""fullscreenenter"",""1"",""2416""
","
","","","","","","null","<div style=""font-size:60px;"">+</div>","null","","fixation","","","","","","","","","","",""
"aa-learning-trial","131","519545","0.0-9.0-2.0-1.29","3861","2","16","Female","approach_avoid_spark_v1","""event"",""trial"",""time""
""focus"",""0"",""0""
""fullscreenenter"",""1"",""2416""
""blur"",""8"",""31194""
""focus"",""8"",""33724""
","""event"",""trial"",""time""
""blur"",""8"",""31194""
","""event"",""trial"",""time""
""focus"",""0"",""0""
""focus"",""8"",""33724""
","""event"",""trial"",""time""
""fullscreenenter"",""1"",""2416""
","
","","","","","","1031","images/train4.png","","","learning","-9","-9","1","1","train","vehicles","2","0","","neutral","0"
"html-keyboard-response","132","520049","0.0-9.0-2.0-0.30","3861","2","16","Female","approach_avoid_spark_v1","""event"",""trial"",""time""
""focus"",""0"",""0""
""fullscreenenter"",""1"",""2416""
""blur"",""8"",""31194""
""focus"",""8"",""33724""
","""event"",""trial"",""time""
""blur"",""8"",""31194""
","""event"",""trial"",""time""
""focus"",""0"",""0""
""focus"",""8"",""33724""
","""event"",""trial"",""time""
""fullscreenenter"",""1"",""2416""
","
","","","","","","null","<div style=""font-size:60px;"">+</div>","null","","fixation","","","","","","","","","","",""
"aa-learning-trial","133","523051","0.0-9.0-2.0-1.30","3861","2","16","Female","approach_avoid_spark_v1","""event"",""trial"",""time""
""focus"",""0"",""0""
""fullscreenenter"",""1"",""2416""
""blur"",""8"",""31194""
""focus"",""8"",""33724""
","""event"",""trial"",""time""
""blur"",""8"",""31194""
","""event"",""trial"",""time""
""focus"",""0"",""0""
""focus"",""8"",""33724""
","""event"",""trial"",""time""
""fullscreenenter"",""1"",""2416""
","
","","","","","","1249","images/plane8.png","","","learning","2","2","1","1","plane","vehicles","2","0","","good","[5]"
"html-keyboard-response","134","523553","0.0-9.0-2.0-0.31","3861","2","16","Female","approach_avoid_spark_v1","""event"",""trial"",""time""
""focus"",""0"",""0""
""fullscreenenter"",""1"",""2416""
""blur"",""8"",""31194""
""focus"",""8"",""33724""
","""event"",""trial"",""time""
""blur"",""8"",""31194""
","""event"",""trial"",""time""
""focus"",""0"",""0""
""focus"",""8"",""33724""
","""event"",""trial"",""time""
""fullscreenenter"",""1"",""2416""
","
","","","","","","null","<div style=""font-size:60px;"">+</div>","null","","fixation","","","","","","","","","","",""
"aa-learning-trial","135","526565","0.0-9.0-2.0-1.31","3861","2","16","Female","approach_avoid_spark_v1","""event"",""trial"",""time""
""focus"",""0"",""0""
""fullscreenenter"",""1"",""2416""
""blur"",""8"",""31194""
""focus"",""8"",""33724""
","""event"",""trial"",""time""
""blur"",""8"",""31194""
","""event"",""trial"",""time""
""focus"",""0"",""0""
""focus"",""8"",""33724""
","""event"",""trial"",""time""
""fullscreenenter"",""1"",""2416""
","
","","","","","","1384","images/plane6.png","","","learning","-3","0","0","0","plane","vehicles","2","0","","good","[5]"
"html-keyboard-response","136","527068","0.0-9.0-2.0-0.32","3861","2","16","Female","approach_avoid_spark_v1","""event"",""trial"",""time""
""focus"",""0"",""0""
""fullscreenenter"",""1"",""2416""
""blur"",""8"",""31194""
""focus"",""8"",""33724""
","""event"",""trial"",""time""
""blur"",""8"",""31194""
","""event"",""trial"",""time""
""focus"",""0"",""0""
""focus"",""8"",""33724""
","""event"",""trial"",""time""
""fullscreenenter"",""1"",""2416""
","
","","","","","","null","<div style=""font-size:60px;"">+</div>","null","","fixation","","","","","","","","","","",""
"aa-learning-trial","137","530073","0.0-9.0-2.0-1.32","3861","2","16","Female","approach_avoid_spark_v1","""event"",""trial"",""time""
""focus"",""0"",""0""
""fullscreenenter"",""1"",""2416""
""blur"",""8"",""31194""
""focus"",""8"",""33724""
","""event"",""trial"",""time""
""blur"",""8"",""31194""
","""event"",""trial"",""time""
""focus"",""0"",""0""
""focus"",""8"",""33724""
","""event"",""trial"",""time""
""fullscreenenter"",""1"",""2416""
","
","","","","","","827","images/plane8.png","","","learning","2","2","1","1","plane","vehicles","2","0","","good","[5]"
"html-keyboard-response","138","530586","0.0-9.0-2.0-0.33","3861","2","16","Female","approach_avoid_spark_v1","""event"",""trial"",""time""
""focus"",""0"",""0""
""fullscreenenter"",""1"",""2416""
""blur"",""8"",""31194""
""focus"",""8"",""33724""
","""event"",""trial"",""time""
""blur"",""8"",""31194""
","""event"",""trial"",""time""
""focus"",""0"",""0""
""focus"",""8"",""33724""
","""event"",""trial"",""time""
""fullscreenenter"",""1"",""2416""
","
","","","","","","null","<div style=""font-size:60px;"">+</div>","null","","fixation","","","","","","","","","","",""
"aa-learning-trial","139","533588","0.0-9.0-2.0-1.33","3861","2","16","Female","approach_avoid_spark_v1","""event"",""trial"",""time""
""focus"",""0"",""0""
""fullscreenenter"",""1"",""2416""
""blur"",""8"",""31194""
""focus"",""8"",""33724""
","""event"",""trial"",""time""
""blur"",""8"",""31194""
","""event"",""trial"",""time""
""focus"",""0"",""0""
""focus"",""8"",""33724""
","""event"",""trial"",""time""
""fullscreenenter"",""1"",""2416""
","
","","","","","","2081","images/boat3.png","","","learning","-5","-5","1","1","boat","vehicles","2","0","","bad","[-6]"
"html-keyboard-response","140","534094","0.0-9.0-2.0-0.34","3861","2","16","Female","approach_avoid_spark_v1","""event"",""trial"",""time""
""focus"",""0"",""0""
""fullscreenenter"",""1"",""2416""
""blur"",""8"",""31194""
""focus"",""8"",""33724""
","""event"",""trial"",""time""
""blur"",""8"",""31194""
","""event"",""trial"",""time""
""focus"",""0"",""0""
""focus"",""8"",""33724""
","""event"",""trial"",""time""
""fullscreenenter"",""1"",""2416""
","
","","","","","","null","<div style=""font-size:60px;"">+</div>","null","","fixation","","","","","","","","","","",""
"aa-learning-trial","141","537104","0.0-9.0-2.0-1.34","3861","2","16","Female","approach_avoid_spark_v1","""event"",""trial"",""time""
""focus"",""0"",""0""
""fullscreenenter"",""1"",""2416""
""blur"",""8"",""31194""
""focus"",""8"",""33724""
","""event"",""trial"",""time""
""blur"",""8"",""31194""
","""event"",""trial"",""time""
""focus"",""0"",""0""
""focus"",""8"",""33724""
","""event"",""trial"",""time""
""fullscreenenter"",""1"",""2416""
","
","","","","","","1553","images/boat2.png","","","learning","3","0","0","0","boat","vehicles","2","0","","bad","[-6]"
"html-keyboard-response","142","537605","0.0-9.0-2.0-0.35","3861","2","16","Female","approach_avoid_spark_v1","""event"",""trial"",""time""
""focus"",""0"",""0""
""fullscreenenter"",""1"",""2416""
""blur"",""8"",""31194""
""focus"",""8"",""33724""
","""event"",""trial"",""time""
""blur"",""8"",""31194""
","""event"",""trial"",""time""
""focus"",""0"",""0""
""focus"",""8"",""33724""
","""event"",""trial"",""time""
""fullscreenenter"",""1"",""2416""
","
","","","","","","null","<div style=""font-size:60px;"">+</div>","null","","fixation","","","","","","","","","","",""
"aa-learning-trial","143","540619","0.0-9.0-2.0-1.35","3861","2","16","Female","approach_avoid_spark_v1","""event"",""trial"",""time""
""focus"",""0"",""0""
""fullscreenenter"",""1"",""2416""
""blur"",""8"",""31194""
""focus"",""8"",""33724""
","""event"",""trial"",""time""
""blur"",""8"",""31194""
","""event"",""trial"",""time""
""focus"",""0"",""0""
""focus"",""8"",""33724""
","""event"",""trial"",""time""
""fullscreenenter"",""1"",""2416""
","
","","","","","","857","images/train3.png","","","learning","4","4","1","1","train","vehicles","2","0","","neutral","0"
"html-keyboard-response","144","541125","0.0-9.0-2.0-0.36","3861","2","16","Female","approach_avoid_spark_v1","""event"",""trial"",""time""
""focus"",""0"",""0""
""fullscreenenter"",""1"",""2416""
""blur"",""8"",""31194""
""focus"",""8"",""33724""
","""event"",""trial"",""time""
""blur"",""8"",""31194""
","""event"",""trial"",""time""
""focus"",""0"",""0""
""focus"",""8"",""33724""
","""event"",""trial"",""time""
""fullscreenenter"",""1"",""2416""
","
","","","","","","null","<div style=""font-size:60px;"">+</div>","null","","fixation","","","","","","","","","","",""
"aa-learning-trial","145","544131","0.0-9.0-2.0-1.36","3861","2","16","Female","approach_avoid_spark_v1","""event"",""trial"",""time""
""focus"",""0"",""0""
""fullscreenenter"",""1"",""2416""
""blur"",""8"",""31194""
""focus"",""8"",""33724""
","""event"",""trial"",""time""
""blur"",""8"",""31194""
","""event"",""trial"",""time""
""focus"",""0"",""0""
""focus"",""8"",""33724""
","""event"",""trial"",""time""
""fullscreenenter"",""1"",""2416""
","
","","","","","","821","images/train6.png","","","learning","9","9","1","1","train","vehicles","2","0","","neutral","0"
"html-keyboard-response","146","544635","0.0-9.0-2.0-0.37","3861","2","16","Female","approach_avoid_spark_v1","""event"",""trial"",""time""
""focus"",""0"",""0""
""fullscreenenter"",""1"",""2416""
""blur"",""8"",""31194""
""focus"",""8"",""33724""
","""event"",""trial"",""time""
""blur"",""8"",""31194""
","""event"",""trial"",""time""
""focus"",""0"",""0""
""focus"",""8"",""33724""
","""event"",""trial"",""time""
""fullscreenenter"",""1"",""2416""
","
","","","","","","null","<div style=""font-size:60px;"">+</div>","null","","fixation","","","","","","","","","","",""
"aa-learning-trial","147","547643","0.0-9.0-2.0-1.37","3861","2","16","Female","approach_avoid_spark_v1","""event"",""trial"",""time""
""focus"",""0"",""0""
""fullscreenenter"",""1"",""2416""
""blur"",""8"",""31194""
""focus"",""8"",""33724""
","""event"",""trial"",""time""
""blur"",""8"",""31194""
","""event"",""trial"",""time""
""focus"",""0"",""0""
""focus"",""8"",""33724""
","""event"",""trial"",""time""
""fullscreenenter"",""1"",""2416""
","
","","","","","","520","images/train6.png","","","learning","9","9","1","1","train","vehicles","2","0","","neutral","0"
"html-keyboard-response","148","548148","0.0-9.0-2.0-0.38","3861","2","16","Female","approach_avoid_spark_v1","""event"",""trial"",""time""
""focus"",""0"",""0""
""fullscreenenter"",""1"",""2416""
""blur"",""8"",""31194""
""focus"",""8"",""33724""
","""event"",""trial"",""time""
""blur"",""8"",""31194""
","""event"",""trial"",""time""
""focus"",""0"",""0""
""focus"",""8"",""33724""
","""event"",""trial"",""time""
""fullscreenenter"",""1"",""2416""
","
","","","","","","null","<div style=""font-size:60px;"">+</div>","null","","fixation","","","","","","","","","","",""
"aa-learning-trial","149","551158","0.0-9.0-2.0-1.38","3861","2","16","Female","approach_avoid_spark_v1","""event"",""trial"",""time""
""focus"",""0"",""0""
""fullscreenenter"",""1"",""2416""
""blur"",""8"",""31194""
""focus"",""8"",""33724""
","""event"",""trial"",""time""
""blur"",""8"",""31194""
","""event"",""trial"",""time""
""focus"",""0"",""0""
""focus"",""8"",""33724""
","""event"",""trial"",""time""
""fullscreenenter"",""1"",""2416""
","
","","","","","","2361","images/boat2.png","","","learning","3","3","1","1","boat","vehicles","2","0","","bad","[-6]"
"html-keyboard-response","150","551660","0.0-9.0-2.0-0.39","3861","2","16","Female","approach_avoid_spark_v1","""event"",""trial"",""time""
""focus"",""0"",""0""
""fullscreenenter"",""1"",""2416""
""blur"",""8"",""31194""
""focus"",""8"",""33724""
","""event"",""trial"",""time""
""blur"",""8"",""31194""
","""event"",""trial"",""time""
""focus"",""0"",""0""
""focus"",""8"",""33724""
","""event"",""trial"",""time""
""fullscreenenter"",""1"",""2416""
","
","","","","","","null","<div style=""font-size:60px;"">+</div>","null","","fixation","","","","","","","","","","",""
"aa-learning-trial","151","554672","0.0-9.0-2.0-1.39","3861","2","16","Female","approach_avoid_spark_v1","""event"",""trial"",""time""
""focus"",""0"",""0""
""fullscreenenter"",""1"",""2416""
""blur"",""8"",""31194""
""focus"",""8"",""33724""
","""event"",""trial"",""time""
""blur"",""8"",""31194""
","""event"",""trial"",""time""
""focus"",""0"",""0""
""focus"",""8"",""33724""
","""event"",""trial"",""time""
""fullscreenenter"",""1"",""2416""
","
","","","","","","1998","images/boat7.png","","","learning","-8","0","0","0","boat","vehicles","2","0","","bad","[-6]"
"html-keyboard-response","152","555184","0.0-9.0-2.0-0.40","3861","2","16","Female","approach_avoid_spark_v1","""event"",""trial"",""time""
""focus"",""0"",""0""
""fullscreenenter"",""1"",""2416""
""blur"",""8"",""31194""
""focus"",""8"",""33724""
","""event"",""trial"",""time""
""blur"",""8"",""31194""
","""event"",""trial"",""time""
""focus"",""0"",""0""
""focus"",""8"",""33724""
","""event"",""trial"",""time""
""fullscreenenter"",""1"",""2416""
","
","","","","","","null","<div style=""font-size:60px;"">+</div>","null","","fixation","","","","","","","","","","",""
"aa-learning-trial","153","558195","0.0-9.0-2.0-1.40","3861","2","16","Female","approach_avoid_spark_v1","""event"",""trial"",""time""
""focus"",""0"",""0""
""fullscreenenter"",""1"",""2416""
""blur"",""8"",""31194""
""focus"",""8"",""33724""
","""event"",""trial"",""time""
""blur"",""8"",""31194""
","""event"",""trial"",""time""
""focus"",""0"",""0""
""focus"",""8"",""33724""
","""event"",""trial"",""time""
""fullscreenenter"",""1"",""2416""
","
","","","","","","1000","images/train4.png","","","learning","-9","0","0","0","train","vehicles","2","0","","neutral","0"
"html-keyboard-response","154","558707","0.0-9.0-2.0-0.41","3861","2","16","Female","approach_avoid_spark_v1","""event"",""trial"",""time""
""focus"",""0"",""0""
""fullscreenenter"",""1"",""2416""
""blur"",""8"",""31194""
""focus"",""8"",""33724""
","""event"",""trial"",""time""
""blur"",""8"",""31194""
","""event"",""trial"",""time""
""focus"",""0"",""0""
""focus"",""8"",""33724""
","""event"",""trial"",""time""
""fullscreenenter"",""1"",""2416""
","
","","","","","","null","<div style=""font-size:60px;"">+</div>","null","","fixation","","","","","","","","","","",""
"aa-learning-trial","155","561718","0.0-9.0-2.0-1.41","3861","2","16","Female","approach_avoid_spark_v1","""event"",""trial"",""time""
""focus"",""0"",""0""
""fullscreenenter"",""1"",""2416""
""blur"",""8"",""31194""
""focus"",""8"",""33724""
","""event"",""trial"",""time""
""blur"",""8"",""31194""
","""event"",""trial"",""time""
""focus"",""0"",""0""
""focus"",""8"",""33724""
","""event"",""trial"",""time""
""fullscreenenter"",""1"",""2416""
","
","","","","","","1354","images/train7.png","","","learning","-4","-4","1","1","train","vehicles","2","0","","neutral","0"
"html-keyboard-response","156","562230","0.0-9.0-2.0-0.42","3861","2","16","Female","approach_avoid_spark_v1","""event"",""trial"",""time""
""focus"",""0"",""0""
""fullscreenenter"",""1"",""2416""
""blur"",""8"",""31194""
""focus"",""8"",""33724""
","""event"",""trial"",""time""
""blur"",""8"",""31194""
","""event"",""trial"",""time""
""focus"",""0"",""0""
""focus"",""8"",""33724""
","""event"",""trial"",""time""
""fullscreenenter"",""1"",""2416""
","
","","","","","","null","<div style=""font-size:60px;"">+</div>","null","","fixation","","","","","","","","","","",""
"aa-learning-trial","157","565233","0.0-9.0-2.0-1.42","3861","2","16","Female","approach_avoid_spark_v1","""event"",""trial"",""time""
""focus"",""0"",""0""
""fullscreenenter"",""1"",""2416""
""blur"",""8"",""31194""
""focus"",""8"",""33724""
","""event"",""trial"",""time""
""blur"",""8"",""31194""
","""event"",""trial"",""time""
""focus"",""0"",""0""
""focus"",""8"",""33724""
","""event"",""trial"",""time""
""fullscreenenter"",""1"",""2416""
","
","","","","","","1434","images/boat7.png","","","learning","-8","-8","1","1","boat","vehicles","2","0","","bad","[-6]"
"html-keyboard-response","158","565735","0.0-9.0-2.0-0.43","3861","2","16","Female","approach_avoid_spark_v1","""event"",""trial"",""time""
""focus"",""0"",""0""
""fullscreenenter"",""1"",""2416""
""blur"",""8"",""31194""
""focus"",""8"",""33724""
","""event"",""trial"",""time""
""blur"",""8"",""31194""
","""event"",""trial"",""time""
""focus"",""0"",""0""
""focus"",""8"",""33724""
","""event"",""trial"",""time""
""fullscreenenter"",""1"",""2416""
","
","","","","","","null","<div style=""font-size:60px;"">+</div>","null","","fixation","","","","","","","","","","",""
"aa-learning-trial","159","568742","0.0-9.0-2.0-1.43","3861","2","16","Female","approach_avoid_spark_v1","""event"",""trial"",""time""
""focus"",""0"",""0""
""fullscreenenter"",""1"",""2416""
""blur"",""8"",""31194""
""focus"",""8"",""33724""
","""event"",""trial"",""time""
""blur"",""8"",""31194""
","""event"",""trial"",""time""
""focus"",""0"",""0""
""focus"",""8"",""33724""
","""event"",""trial"",""time""
""fullscreenenter"",""1"",""2416""
","
","","","","","","655","images/train4.png","","","learning","-9","-9","1","1","train","vehicles","2","0","","neutral","0"
"html-keyboard-response","160","569254","0.0-9.0-2.0-0.44","3861","2","16","Female","approach_avoid_spark_v1","""event"",""trial"",""time""
""focus"",""0"",""0""
""fullscreenenter"",""1"",""2416""
""blur"",""8"",""31194""
""focus"",""8"",""33724""
","""event"",""trial"",""time""
""blur"",""8"",""31194""
","""event"",""trial"",""time""
""focus"",""0"",""0""
""focus"",""8"",""33724""
