"trial_type","trial_index","time_elapsed","internal_node_id","subject_id","task_condition","age","gender","task_version","interactions","blur_events","focus_events","fullscreenenter_events","fullscreenexit_events","success","timeout","failed_images","failed_audio","failed_video","rt","stimulus","response","button_pressed","task_part","approach_reward","points","key_press","option_selected","stim_cat","task_block","block_condition","block_number","correct","cat_type","mean_cat_reward"
"pavlovia","0","4","0.0-0.0","6256","2","19","Female","approach_avoid_spark_v1","""event"",""trial"",""time""
""fullscreenenter"",""1"",""2591""
","
","
","""event"",""trial"",""time""
""fullscreenenter"",""1"",""2591""
","
","","","","","","","","","","","","","","","","","","","","",""
"fullscreen","1","3593","0.0-1.0","6256","2","19","Female","approach_avoid_spark_v1","""event"",""trial"",""time""
""fullscreenenter"",""1"",""2591""
","
","
","""event"",""trial"",""time""
""fullscreenenter"",""1"",""2591""
","
","true","","","","","","","","","","","","","","","","","","","",""
"preload","2","20194","0.0-2.0","6256","2","19","Female","approach_avoid_spark_v1","""event"",""trial"",""time""
""fullscreenenter"",""1"",""2591""
","
","
","""event"",""trial"",""time""
""fullscreenenter"",""1"",""2591""
","
","true","false","[]","[]","[]","","","","","","","","","","","","","","","",""
"audio-keyboard-response","3","23630","0.0-3.0","6256","2","19","Female","approach_avoid_spark_v1","""event"",""trial"",""time""
""fullscreenenter"",""1"",""2591""
","
","
","""event"",""trial"",""time""
""fullscreenenter"",""1"",""2591""
","
","","","","","","3431.9999999999986","audio/beep_loop.wav"," ","","","","","","","","","","","","",""
"audio-button-response","4","25827","0.0-4.0","6256","2","19","Female","approach_avoid_spark_v1","""event"",""trial"",""time""
""fullscreenenter"",""1"",""2591""
","
","
","""event"",""trial"",""time""
""fullscreenenter"",""1"",""2591""
","
","","","","","","2195","audio/shark.wav","4","","","","","","","","","","","","",""
"audio-button-response","5","28506","0.0-5.0","6256","2","19","Female","approach_avoid_spark_v1","""event"",""trial"",""time""
""fullscreenenter"",""1"",""2591""
","
","
","""event"",""trial"",""time""
""fullscreenenter"",""1"",""2591""
","
","","","","","","1675","audio/turtle.wav","1","","","","","","","","","","","","",""
"preload","6","34387","0.0-6.0","6256","2","19","Female","approach_avoid_spark_v1","""event"",""trial"",""time""
""fullscreenenter"",""1"",""2591""
","
","
","""event"",""trial"",""time""
""fullscreenenter"",""1"",""2591""
","
","true","false","[]","[]","[]","","","","","","","","","","","","","","","",""
"html-keyboard-response","7","36003","0.0-7.0","6256","2","19","Female","approach_avoid_spark_v1","""event"",""trial"",""time""
""fullscreenenter"",""1"",""2591""
","
","
","""event"",""trial"",""time""
""fullscreenenter"",""1"",""2591""
","
","","","","","","1615.5","Welcome to the experiment. Press any key to begin and to advance the instructions."," ","","","","","","","","","","","","",""
"learning-instructions","8","44794","0.0-8.0-0.0-0.0","6256","2","19","Female","approach_avoid_spark_v1","""event"",""trial"",""time""
""fullscreenenter"",""1"",""2591""
","
","
","""event"",""trial"",""time""
""fullscreenenter"",""1"",""2591""
","
","","","","","","1833.9000000000233","<p> Welcome! Today you are going to play 6 different rounds of a decision-making game. </p><p> Use the mouse to click next to continue. </p>","","0","instructions","","","","","","","","","","",""
"learning-instructions","9","49831","0.0-8.0-0.0-0.1","6256","2","19","Female","approach_avoid_spark_v1","""event"",""trial"",""time""
""fullscreenenter"",""1"",""2591""
","
","
","""event"",""trial"",""time""
""fullscreenenter"",""1"",""2591""
","
","","","","","","2306","<p> You will start with a practice round to learn the rules. </p>","","0","instructions","","","","","","","","","","",""
"learning-instructions","10","53832","0.0-8.0-0.0-0.2","6256","2","19","Female","approach_avoid_spark_v1","""event"",""trial"",""time""
""fullscreenenter"",""1"",""2591""
","
","
","""event"",""trial"",""time""
""fullscreenenter"",""1"",""2591""
","
","","","","","","555.0999999999767","<p> Your goal in this round is to give out sports equipment to kids. </p></div>","","0","instructions","","","","","","","","","","",""
"learning-instructions","11","61813","0.0-8.0-0.0-0.3","6256","2","19","Female","approach_avoid_spark_v1","""event"",""trial"",""time""
""fullscreenenter"",""1"",""2591""
","
","
","""event"",""trial"",""time""
""fullscreenenter"",""1"",""2591""
","
","","","","","","437.70000000001164","<p> The kids only like some of the equipment.  </p><p> On each turn, you will see a piece of sports equipment.   </p><p> You need to decide whether to give it to the kids or not.  </p>","","0","instructions","","","","","","","","","","",""
"learning-instructions","12","67571","0.0-8.0-0.0-0.4","6256","2","19","Female","approach_avoid_spark_v1","""event"",""trial"",""time""
""fullscreenenter"",""1"",""2591""
","
","
","""event"",""trial"",""time""
""fullscreenenter"",""1"",""2591""
","
","","","","","","1008.5999999999767","<p> You can give them the equipment by pressing 1 and choose not to give it to them by pressing 0. </p><br><div class=""choice-instructions-grid""> <div class=""choice-option""><img src=""images/approach.png"" class=""choice-option-img"" stage=""instructions"" position=""0"" ><div class=""choice-option-text""> Press ""1."" </div></div><div class=""choice-option""><img src=""images/avoid.png"" class=""choice-option-img"" stage=""instructions"" position=""1"" ><div class=""choice-option-text""> Press ""0."" </div></div>","","0","instructions","","","","","","","","","","",""
"learning-instructions","13","84863","0.0-8.0-0.0-0.5","6256","2","19","Female","approach_avoid_spark_v1","""event"",""trial"",""time""
""fullscreenenter"",""1"",""2591""
","
","
","""event"",""trial"",""time""
""fullscreenenter"",""1"",""2591""
","
","","","","","","9907","<p> If you give them a piece of equipment they like, they will be happy! </p><p> But if you give them a piece of equipment they do not like, they will be sad. </p>","","0","instructions","","","","","","","","","","",""
"learning-instructions","14","96024","0.0-8.0-0.0-0.6","6256","2","19","Female","approach_avoid_spark_v1","""event"",""trial"",""time""
""fullscreenenter"",""1"",""2591""
","
","
","""event"",""trial"",""time""
""fullscreenenter"",""1"",""2591""
","
","","","","","","654","<p> You will earn points based on how you make kids feel. </p><p> If you make them happy, you will WIN anywhere from 1 - 9 points, </p><p> but if you make them sad, you will LOSE anywhere from 1 - 9 points. </p>","","0","instructions","","","","","","","","","","",""
"learning-instructions","15","106119","0.0-8.0-0.0-0.7","6256","2","19","Female","approach_avoid_spark_v1","""event"",""trial"",""time""
""fullscreenenter"",""1"",""2591""
","
","
","""event"",""trial"",""time""
""fullscreenenter"",""1"",""2591""
","
","","","","","","539.0999999999767","<p> You will see how many points you won or lost in the center of the screen. </p><p> Here is what you would see if you won 6 points: </p><p style=""color:green;font-size:50px;font-weight:bolder"">6</p><p style=""color:green"">The text is GREEN because you WON points.</p>","","0","instructions","","","","","","","","","","",""
"learning-instructions","16","112461","0.0-8.0-0.0-0.8","6256","2","19","Female","approach_avoid_spark_v1","""event"",""trial"",""time""
""fullscreenenter"",""1"",""2591""
","
","
","""event"",""trial"",""time""
""fullscreenenter"",""1"",""2591""
","
","","","","","","837.7999999999884","<p> And here is what you would see if you lost 4 points: </p><p style=""color:red;font-size:50px;font-weight:bolder"">-4</p><p style=""color:red"">The text is RED because you LOST points. </p>","","0","instructions","","","","","","","","","","",""
"learning-instructions","17","129197","0.0-8.0-0.0-0.9","6256","2","19","Female","approach_avoid_spark_v1","""event"",""trial"",""time""
""fullscreenenter"",""1"",""2591""
","
","
","""event"",""trial"",""time""
""fullscreenenter"",""1"",""2591""
","
","","","","","","2022.5999999999767","<p> Some of the equipment will make the kids VERY happy or sad. </p><p> These pieces of equipment will make you win or lose LOTS of points. </p><p> Other pieces of equipment will only make the kids a little happy or sad. </p><p> These pieces of equipment will make you win or lose small amounts of points. </p>","","0","instructions","","","","","","","","","","",""
"learning-instructions","18","140327","0.0-8.0-0.0-0.10","6256","2","19","Female","approach_avoid_spark_v1","""event"",""trial"",""time""
""fullscreenenter"",""1"",""2591""
","
","
","""event"",""trial"",""time""
""fullscreenenter"",""1"",""2591""
","
","","","","","","504.39999999990687","<p> If you choose not to give them the equipment, you will not win or lose any points. </p><p>  However, in the center of the screen, you will see the number of points you WOULD HAVE won or lost if you had given them the equipment. </p>","","0","instructions","","","","","","","","","","",""
"learning-instructions","19","162490","0.0-8.0-0.0-0.11","6256","2","19","Female","approach_avoid_spark_v1","""event"",""trial"",""time""
""fullscreenenter"",""1"",""2591""
","
","
","""event"",""trial"",""time""
""fullscreenenter"",""1"",""2591""
","
","","","","","","638.1999999999534","<p> Here is what you might see if you did not give the equipment to the kids but it would have made them happy: </p><p style=""color:grey; font-size:50px; display: inline-block; border-spacing: 15px; border-width:3px; border-style:solid; border-color:red"">  &nbsp; 7 &nbsp; </p><p> Remember, in this case, you would not win or lose ANY points because you did not give them the equipment.  </p><p style=""color:grey"">The text is GREY because you earned ZERO points. </p><p style=""color:red"">However, choosing to give the kids the equipment would have made you win points. The box around the text is RED because you chose the worse option. </p>","","0","instructions","","","","","","","","","","",""
"learning-instructions","20","184761","0.0-8.0-0.0-0.12","6256","2","19","Female","approach_avoid_spark_v1","""event"",""trial"",""time""
""fullscreenenter"",""1"",""2591""
","
","
","""event"",""trial"",""time""
""fullscreenenter"",""1"",""2591""
","
","","","","","","1195.2999999999302","<p> Here is what you might see if you did not give the equipment to the kids but it would have made them sad: </p><p style=""color:grey;font-size:50px; display: inline-block; border-spacing: 15px; border-width:3px; border-style:solid; border-color:green"">  &nbsp; -8 &nbsp; </p><p> Remember, in this case, you would not win or lose ANY points because you did not give them the equipment.  </p><p style=""color:grey"">The text is GREY because you earned ZERO points. </p><p  style=""color:green""> Choosing to give the kids the equipment would have made you lose points. The box around the text is GREEN because you chose the better option.</p>","","0","instructions","","","","","","","","","","",""
"learning-instructions","21","194434","0.0-8.0-0.0-0.13","6256","2","19","Female","approach_avoid_spark_v1","""event"",""trial"",""time""
""fullscreenenter"",""1"",""2591""
","
","
","""event"",""trial"",""time""
""fullscreenenter"",""1"",""2591""
","
","","","","","","609.7999999999302","<p> You will have 3 seconds to make each choice. Try to respond before time runs out! </p><p> You will lose 5 points each time you do not make a response. </p>","","0","instructions","","","","","","","","","","",""
"learning-instructions","22","200322","0.0-8.0-0.0-0.14","6256","2","19","Female","approach_avoid_spark_v1","""event"",""trial"",""time""
""fullscreenenter"",""1"",""2591""
","
","
","""event"",""trial"",""time""
""fullscreenenter"",""1"",""2591""
","
","","","","","","470.5999999999767","<p> This is just a practice round, but in the real game, your bonus payment will depend on your total number of points.","","0","instructions","","","","","","","","","","",""
"learning-instructions","23","206848","0.0-8.0-0.0-0.15","6256","2","19","Female","approach_avoid_spark_v1","""event"",""trial"",""time""
""fullscreenenter"",""1"",""2591""
","
","
","""event"",""trial"",""time""
""fullscreenenter"",""1"",""2591""
","
","","","","","","761.6999999999534","<p> Remember, you can give them the equipment by pressing 1 and choose not to give it to them by pressing 0. </p><br><div class=""choice-instructions-grid""> <div class=""choice-option""><img src=""images/approach.png"" class=""choice-option-img"" stage=""instructions"" position=""0"" ><div class=""choice-option-text""> Press ""1."" </div></div><div class=""choice-option""><img src=""images/avoid.png"" class=""choice-option-img"" stage=""instructions"" position=""1"" ><div class=""choice-option-text""> Press ""0."" </div></div>","","0","instructions","","","","","","","","","","",""
"html-button-response","24","208151","0.0-8.0-1.0","6256","2","19","Female","approach_avoid_spark_v1","""event"",""trial"",""time""
""fullscreenenter"",""1"",""2591""
","
","
","""event"",""trial"",""time""
""fullscreenenter"",""1"",""2591""
","
","","","","","","1200.2000000000698","<p> Ready to practice? </p>","0","","","","","","","","","","","","",""
"html-keyboard-response","25","208758","0.0-8.0-2.0-0.0","6256","2","19","Female","approach_avoid_spark_v1","""event"",""trial"",""time""
""fullscreenenter"",""1"",""2591""
","
","
","""event"",""trial"",""time""
""fullscreenenter"",""1"",""2591""
","
","","","","","","null","<div style=""font-size:60px;"">+</div>","null","","fixation","","","","","","","","","","",""
"aa-learning-trial","26","211766","0.0-8.0-2.0-1.0","6256","2","19","Female","approach_avoid_spark_v1","""event"",""trial"",""time""
""fullscreenenter"",""1"",""2591""
","
","
","""event"",""trial"",""time""
""fullscreenenter"",""1"",""2591""
","
","","","","","","991.4000000000233","images/racket4.png","","","learning","-1","-1","1","1","practice","practice","practice","-1","","",""
"html-keyboard-response","27","212269","0.0-8.0-2.0-0.1","6256","2","19","Female","approach_avoid_spark_v1","""event"",""trial"",""time""
""fullscreenenter"",""1"",""2591""
","
","
","""event"",""trial"",""time""
""fullscreenenter"",""1"",""2591""
","
","","","","","","null","<div style=""font-size:60px;"">+</div>","null","","fixation","","","","","","","","","","",""
"aa-learning-trial","28","215280","0.0-8.0-2.0-1.1","6256","2","19","Female","approach_avoid_spark_v1","""event"",""trial"",""time""
""fullscreenenter"",""1"",""2591""
","
","
","""event"",""trial"",""time""
""fullscreenenter"",""1"",""2591""
","
","","","","","","474.5","images/ball1.png","","","learning","3","3","1","1","practice","practice","practice","-1","","",""
"html-keyboard-response","29","215789","0.0-8.0-2.0-0.2","6256","2","19","Female","approach_avoid_spark_v1","""event"",""trial"",""time""
""fullscreenenter"",""1"",""2591""
","
","
","""event"",""trial"",""time""
""fullscreenenter"",""1"",""2591""
","
","","","","","","null","<div style=""font-size:60px;"">+</div>","null","","fixation","","","","","","","","","","",""
"aa-learning-trial","30","218797","0.0-8.0-2.0-1.2","6256","2","19","Female","approach_avoid_spark_v1","""event"",""trial"",""time""
""fullscreenenter"",""1"",""2591""
","
","
","""event"",""trial"",""time""
""fullscreenenter"",""1"",""2591""
","
","","","","","","506.4000000000233","images/ball3.png","","","learning","6","6","1","1","practice","practice","practice","-1","","",""
"html-keyboard-response","31","219301","0.0-8.0-2.0-0.3","6256","2","19","Female","approach_avoid_spark_v1","""event"",""trial"",""time""
""fullscreenenter"",""1"",""2591""
","
","
","""event"",""trial"",""time""
""fullscreenenter"",""1"",""2591""
","
","","","","","","null","<div style=""font-size:60px;"">+</div>","null","","fixation","","","","","","","","","","",""
"aa-learning-trial","32","222309","0.0-8.0-2.0-1.3","6256","2","19","Female","approach_avoid_spark_v1","""event"",""trial"",""time""
""fullscreenenter"",""1"",""2591""
","
","
","""event"",""trial"",""time""
""fullscreenenter"",""1"",""2591""
","
","","","","","","443.39999999990687","images/racket4.png","","","learning","2","0","0","0","practice","practice","practice","-1","","",""
"html-keyboard-response","33","222813","0.0-8.0-2.0-0.4","6256","2","19","Female","approach_avoid_spark_v1","""event"",""trial"",""time""
""fullscreenenter"",""1"",""2591""
","
","
","""event"",""trial"",""time""
""fullscreenenter"",""1"",""2591""
","
","","","","","","null","<div style=""font-size:60px;"">+</div>","null","","fixation","","","","","","","","","","",""
"aa-learning-trial","34","225821","0.0-8.0-2.0-1.4","6256","2","19","Female","approach_avoid_spark_v1","""event"",""trial"",""time""
""fullscreenenter"",""1"",""2591""
","
","
","""event"",""trial"",""time""
""fullscreenenter"",""1"",""2591""
","
","","","","","","883","images/racket4.png","","","learning","8","0","0","0","practice","practice","practice","-1","","",""
"html-keyboard-response","35","226325","0.0-8.0-2.0-0.5","6256","2","19","Female","approach_avoid_spark_v1","""event"",""trial"",""time""
""fullscreenenter"",""1"",""2591""
","
","
","""event"",""trial"",""time""
""fullscreenenter"",""1"",""2591""
","
","","","","","","null","<div style=""font-size:60px;"">+</div>","null","","fixation","","","","","","","","","","",""
"aa-learning-trial","36","229333","0.0-8.0-2.0-1.5","6256","2","19","Female","approach_avoid_spark_v1","""event"",""trial"",""time""
""fullscreenenter"",""1"",""2591""
","
","
","""event"",""trial"",""time""
""fullscreenenter"",""1"",""2591""
","
","","","","","","578.7000000000698","images/racket1.png","","","learning","-5","0","0","0","practice","practice","practice","-1","","",""
"html-keyboard-response","37","229840","0.0-8.0-2.0-0.6","6256","2","19","Female","approach_avoid_spark_v1","""event"",""trial"",""time""
""fullscreenenter"",""1"",""2591""
","
","
","""event"",""trial"",""time""
""fullscreenenter"",""1"",""2591""
","
","","","","","","null","<div style=""font-size:60px;"">+</div>","null","","fixation","","","","","","","","","","",""
"aa-learning-trial","38","232845","0.0-8.0-2.0-1.6","6256","2","19","Female","approach_avoid_spark_v1","""event"",""trial"",""time""
""fullscreenenter"",""1"",""2591""
","
","
","""event"",""trial"",""time""
""fullscreenenter"",""1"",""2591""
","
","","","","","","1050.3000000000466","images/racket3.png","","","learning","-6","-6","1","1","practice","practice","practice","-1","","",""
"html-keyboard-response","39","233352","0.0-8.0-2.0-0.7","6256","2","19","Female","approach_avoid_spark_v1","""event"",""trial"",""time""
""fullscreenenter"",""1"",""2591""
","
","
","""event"",""trial"",""time""
""fullscreenenter"",""1"",""2591""
","
","","","","","","null","<div style=""font-size:60px;"">+</div>","null","","fixation","","","","","","","","","","",""
"aa-learning-trial","40","236358","0.0-8.0-2.0-1.7","6256","2","19","Female","approach_avoid_spark_v1","""event"",""trial"",""time""
""fullscreenenter"",""1"",""2591""
","
","
","""event"",""trial"",""time""
""fullscreenenter"",""1"",""2591""
","
","","","","","","675.6999999999534","images/racket1.png","","","learning","3","0","0","0","practice","practice","practice","-1","","",""
"html-keyboard-response","41","236862","0.0-8.0-2.0-0.8","6256","2","19","Female","approach_avoid_spark_v1","""event"",""trial"",""time""
""fullscreenenter"",""1"",""2591""
","
","
","""event"",""trial"",""time""
""fullscreenenter"",""1"",""2591""
","
","","","","","","null","<div style=""font-size:60px;"">+</div>","null","","fixation","","","","","","","","","","",""
"aa-learning-trial","42","239870","0.0-8.0-2.0-1.8","6256","2","19","Female","approach_avoid_spark_v1","""event"",""trial"",""time""
""fullscreenenter"",""1"",""2591""
","
","
","""event"",""trial"",""time""
""fullscreenenter"",""1"",""2591""
","
","","","","","","445.9000000000233","images/ball1.png","","","learning","1","1","1","1","practice","practice","practice","-1","","",""
"html-keyboard-response","43","240374","0.0-8.0-2.0-0.9","6256","2","19","Female","approach_avoid_spark_v1","""event"",""trial"",""time""
""fullscreenenter"",""1"",""2591""
","
","
","""event"",""trial"",""time""
""fullscreenenter"",""1"",""2591""
","
","","","","","","null","<div style=""font-size:60px;"">+</div>","null","","fixation","","","","","","","","","","",""
"aa-learning-trial","44","243382","0.0-8.0-2.0-1.9","6256","2","19","Female","approach_avoid_spark_v1","""event"",""trial"",""time""
""fullscreenenter"",""1"",""2591""
","
","
","""event"",""trial"",""time""
""fullscreenenter"",""1"",""2591""
","
","","","","","","668.5999999999767","images/racket2.png","","","learning","8","0","0","0","practice","practice","practice","-1","","",""
"html-keyboard-response","45","243886","0.0-8.0-2.0-0.10","6256","2","19","Female","approach_avoid_spark_v1","""event"",""trial"",""time""
""fullscreenenter"",""1"",""2591""
","
","
","""event"",""trial"",""time""
""fullscreenenter"",""1"",""2591""
","
","","","","","","null","<div style=""font-size:60px;"">+</div>","null","","fixation","","","","","","","","","","",""
"aa-learning-trial","46","246894","0.0-8.0-2.0-1.10","6256","2","19","Female","approach_avoid_spark_v1","""event"",""trial"",""time""
""fullscreenenter"",""1"",""2591""
","
","
","""event"",""trial"",""time""
""fullscreenenter"",""1"",""2591""
","
","","","","","","756.7999999999302","images/racket2.png","","","learning","3","0","0","0","practice","practice","practice","-1","","",""
"html-keyboard-response","47","247398","0.0-8.0-2.0-0.11","6256","2","19","Female","approach_avoid_spark_v1","""event"",""trial"",""time""
""fullscreenenter"",""1"",""2591""
","
","
","""event"",""trial"",""time""
""fullscreenenter"",""1"",""2591""
","
","","","","","","null","<div style=""font-size:60px;"">+</div>","null","","fixation","","","","","","","","","","",""
"aa-learning-trial","48","250406","0.0-8.0-2.0-1.11","6256","2","19","Female","approach_avoid_spark_v1","""event"",""trial"",""time""
""fullscreenenter"",""1"",""2591""
","
","
","""event"",""trial"",""time""
""fullscreenenter"",""1"",""2591""
","
","","","","","","725.5","images/ball2.png","","","learning","-6","-6","1","1","practice","practice","practice","-1","","",""
"html-button-response","49","252970","0.0-8.0-3.0","6256","2","19","Female","approach_avoid_spark_v1","""event"",""trial"",""time""
""fullscreenenter"",""1"",""2591""
","
","
","""event"",""trial"",""time""
""fullscreenenter"",""1"",""2591""
","
","","","","","","2561.3000000000466","<p> You earned -3 points in the practice round! </p>","0","","break","","","","","","","","","","",""
"learning-instructions","50","259768","0.0-8.0-4.0-0.0","6256","2","19","Female","approach_avoid_spark_v1","""event"",""trial"",""time""
""fullscreenenter"",""1"",""2591""
","
","
","""event"",""trial"",""time""
""fullscreenenter"",""1"",""2591""
","
","","","","","","801.3000000000466","<p> It's almost time to start the real game. </p><p> Before you start, we're going to ask you a few questions about how the game works. </p>","","0","instructions","","","","","","","","","","",""
"preload","51","261993","0.0-8.0-5.0","6256","2","19","Female","approach_avoid_spark_v1","""event"",""trial"",""time""
""fullscreenenter"",""1"",""2591""
","
","
","""event"",""trial"",""time""
""fullscreenenter"",""1"",""2591""
","
","true","false","[]","[]","[]","","","","","","","","","","","","","","","",""
"comp-q","52","268022","0.0-8.0-6.0-0.0","6256","2","19","Female","approach_avoid_spark_v1","""event"",""trial"",""time""
""fullscreenenter"",""1"",""2591""
","
","
","""event"",""trial"",""time""
""fullscreenenter"",""1"",""2591""
","
","","","","","","1033.3000000000466","<p> <b> True or False? </b> </p><p> If you see a number in GREY, that means you earned that many points. </p>","","1","comp_question","","","","","","","","","true","",""
"comp-q","53","277791","0.0-8.0-6.0-1.0","6256","2","19","Female","approach_avoid_spark_v1","""event"",""trial"",""time""
""fullscreenenter"",""1"",""2591""
","
","
","""event"",""trial"",""time""
""fullscreenenter"",""1"",""2591""
","
","","","","","","1411.2999999999302","<p><b> That's right! </b> If you see a grey number, it means you earned ZERO points. <br> The grey numbers show the points you WOULD HAVE earned if you had made the other choice. </p>","","0","comp_answer","","","","","","","","","","",""
"comp-q","54","283051","0.0-8.0-7.0-0.0","6256","2","19","Female","approach_avoid_spark_v1","""event"",""trial"",""time""
""fullscreenenter"",""1"",""2591""
","
","
","""event"",""trial"",""time""
""fullscreenenter"",""1"",""2591""
","
","","","","","","569.4000000000233","<p> <b> True or False? </b> </p><p> You will have as much time as you want to make each choice. </p>","","1","comp_question","","","","","","","","","true","",""
"comp-q","55","288418","0.0-8.0-7.0-1.0","6256","2","19","Female","approach_avoid_spark_v1","""event"",""trial"",""time""
""fullscreenenter"",""1"",""2591""
","
","
","""event"",""trial"",""time""
""fullscreenenter"",""1"",""2591""
","
","","","","","","1328.6000000000931","<p> <b> That's right! </b> You will only have 3 seconds to make each choice. </p>","","0","comp_answer","","","","","","","","","","",""
"comp-q","56","293565","0.0-8.0-8.0-0.0","6256","2","19","Female","approach_avoid_spark_v1","""event"",""trial"",""time""
""fullscreenenter"",""1"",""2591""
","
","
","""event"",""trial"",""time""
""fullscreenenter"",""1"",""2591""
","
","","","","","","494.69999999995343","<p> <b> True or False? </b> </p><p> You should use the '1' and '0' keys to make your choices. </p>","","0","comp_question","","","","","","","","","true","",""
"comp-q","57","299825","0.0-8.0-8.0-1.0","6256","2","19","Female","approach_avoid_spark_v1","""event"",""trial"",""time""
""fullscreenenter"",""1"",""2591""
","
","
","""event"",""trial"",""time""
""fullscreenenter"",""1"",""2591""
","
","","","","","","1647.4000000000233","<p> <b> That's right! </b> You should use the '1' and '0' keys to make each choice. </p>","","0","comp_answer","","","","","","","","","","",""
"learning-instructions","58","307125","0.0-8.0-9.0-0.0","6256","2","19","Female","approach_avoid_spark_v1","""event"",""trial"",""time""
""fullscreenenter"",""1"",""2591""
","
","
","""event"",""trial"",""time""
""fullscreenenter"",""1"",""2591""
","
","","","","","","1033.3000000000466","<p> It's now time to start the real game. </p>Do your best, because the points you earn in the next rounds will influence your bonus payment. </p>","","0","instructions","","","","","","","","","","",""
"preload","59","307243","0.0-9.0-0.0","6256","2","19","Female","approach_avoid_spark_v1","""event"",""trial"",""time""
""fullscreenenter"",""1"",""2591""
","
","
","""event"",""trial"",""time""
""fullscreenenter"",""1"",""2591""
","
","true","false","[]","[]","[]","","","","","","","","","","","","","","","",""
"learning-instructions","60","313154","0.0-9.0-1.0-0.0","6256","2","19","Female","approach_avoid_spark_v1","""event"",""trial"",""time""
""fullscreenenter"",""1"",""2591""
","
","
","""event"",""trial"",""time""
""fullscreenenter"",""1"",""2591""
","
","","","","","","1574.5","<p> Your goal in this round is to take care of lots of farm animals. </p></div>","","0","instructions","","","","","","","","","","",""
"learning-instructions","61","327568","0.0-9.0-1.0-0.1","6256","2","19","Female","approach_avoid_spark_v1","""event"",""trial"",""time""
""fullscreenenter"",""1"",""2591""
","
","
","""event"",""trial"",""time""
""fullscreenenter"",""1"",""2591""
","
","","","","","","4487.599999999977","<p> Some farm animals are hungry, while other farm animals are already full.  </p><p> On each turn, you will see a farm animal.   </p><p> You need to decide whether to feed it or not.  </p>","","0","instructions","","","","","","","","","","",""
"learning-instructions","62","333898","0.0-9.0-1.0-0.2","6256","2","19","Female","approach_avoid_spark_v1","""event"",""trial"",""time""
""fullscreenenter"",""1"",""2591""
","
","
","""event"",""trial"",""time""
""fullscreenenter"",""1"",""2591""
","
","","","","","","369.0999999999767","<p> You can feed the farm animal by pressing 1 and leave the farm animal alone by pressing 0. </p><br><div class=""choice-instructions-grid""> <div class=""choice-option""><img src=""images/approach.png"" class=""choice-option-img"" stage=""instructions"" position=""0"" ><div class=""choice-option-text""> Press ""1."" </div></div><div class=""choice-option""><img src=""images/avoid.png"" class=""choice-option-img"" stage=""instructions"" position=""1"" ><div class=""choice-option-text""> Press ""0."" </div></div>","","0","instructions","","","","","","","","","","",""
"learning-instructions","63","343866","0.0-9.0-1.0-0.3","6256","2","19","Female","approach_avoid_spark_v1","""event"",""trial"",""time""
""fullscreenenter"",""1"",""2591""
","
","
","""event"",""trial"",""time""
""fullscreenenter"",""1"",""2591""
","
","","","","","","454.70000000006985","<p> If you feed a hungry farm animal, you will make it feel satisfied! </p><p> But if you feed the farm animal and it was already full, you will make it feel sick. </p>","","0","instructions","","","","","","","","","","",""
"learning-instructions","64","357911","0.0-9.0-1.0-0.4","6256","2","19","Female","approach_avoid_spark_v1","""event"",""trial"",""time""
""fullscreenenter"",""1"",""2591""
","
","
","""event"",""trial"",""time""
""fullscreenenter"",""1"",""2591""
","
","","","","","","1646.5999999999767","<p> You will earn points based on how you made the farm animal feel. </p><p> If you made it satisfied, you will WIN anywhere from 1 - 9 points, </p><p> but if you made it sick, you will LOSE anywhere from 1 - 9 points. </p>","","0","instructions","","","","","","","","","","",""
"learning-instructions","65","366268","0.0-9.0-1.0-0.5","6256","2","19","Female","approach_avoid_spark_v1","""event"",""trial"",""time""
""fullscreenenter"",""1"",""2591""
","
","
","""event"",""trial"",""time""
""fullscreenenter"",""1"",""2591""
","
","","","","","","838.2000000000698","<p> You will see how many points you won or lost in the center of the screen. </p><p> Here is what you would see if you won 5 points: </p><p style=""color:green;font-size:50px;font-weight:bolder"">5</p>","","0","instructions","","","","","","","","","","",""
"learning-instructions","66","370505","0.0-9.0-1.0-0.6","6256","2","19","Female","approach_avoid_spark_v1","""event"",""trial"",""time""
""fullscreenenter"",""1"",""2591""
","
","
","""event"",""trial"",""time""
""fullscreenenter"",""1"",""2591""
","
","","","","","","869.7999999999302","<p> And here is what you would see if you lost 3 points: </p><p style=""color:red;font-size:50px;font-weight:bolder"">-3</p>","","0","instructions","","","","","","","","","","",""
"learning-instructions","67","386373","0.0-9.0-1.0-0.7","6256","2","19","Female","approach_avoid_spark_v1","""event"",""trial"",""time""
""fullscreenenter"",""1"",""2591""
","
","
","""event"",""trial"",""time""
""fullscreenenter"",""1"",""2591""
","
","","","","","","378","<p> Some farm animals will become very satisfied or very sick. </p><p> These farm animals will make you win or lose LOTS of points. </p><p> Other farm animals have less strong feelings. </p><p> These farm animals will make you win or lose small amounts of points. </p>","","0","instructions","","","","","","","","","","",""
"learning-instructions","68","398820","0.0-9.0-1.0-0.8","6256","2","19","Female","approach_avoid_spark_v1","""event"",""trial"",""time""
""fullscreenenter"",""1"",""2591""
","
","
","""event"",""trial"",""time""
""fullscreenenter"",""1"",""2591""
","
","","","","","","371.5999999999767","<p> If you choose to leave the farm animal alone, you will not win or lose any points. </p><p>  However, in the center of the screen, you will see the number of points you WOULD HAVE won or lost if you had fed the farm animal. </p>","","0","instructions","","","","","","","","","","",""
"learning-instructions","69","410702","0.0-9.0-1.0-0.9","6256","2","19","Female","approach_avoid_spark_v1","""event"",""trial"",""time""
""fullscreenenter"",""1"",""2591""
","
","
","""event"",""trial"",""time""
""fullscreenenter"",""1"",""2591""
","
","","","","","","454.19999999995343","<p> Here is what you might see if you did not feed the farm animal but the animal was hungry: </p><p style=""color:grey; font-size:50px; display: inline-block; border-spacing: 15px; border-width:3px; border-style:solid; border-color:red"">  &nbsp; 6 &nbsp; </p><p> Remember, in this case, you would not win or lose ANY points because you did not feed the farm animal.  </p>","","0","instructions","","","","","","","","","","",""
"learning-instructions","70","419517","0.0-9.0-1.0-0.10","6256","2","19","Female","approach_avoid_spark_v1","""event"",""trial"",""time""
""fullscreenenter"",""1"",""2591""
","
","
","""event"",""trial"",""time""
""fullscreenenter"",""1"",""2591""
","
","","","","","","991.3000000000466","<p> Try to make the best choice for each farm animal because </p><p> at the end of the game, you will earn bonus money based on how many points you earned. </p>","","0","instructions","","","","","","","","","","",""
"learning-instructions","71","428152","0.0-9.0-1.0-0.11","6256","2","19","Female","approach_avoid_spark_v1","""event"",""trial"",""time""
""fullscreenenter"",""1"",""2591""
","
","
","""event"",""trial"",""time""
""fullscreenenter"",""1"",""2591""
","
","","","","","","451","<p> You will have 3 seconds to make each choice. Try to respond before time runs out! </p><p> You will lose 5 points each time you do not make a response. </p>","","0","instructions","","","","","","","","","","",""
"html-keyboard-response","72","428760","0.0-9.0-2.0-0.0","6256","2","19","Female","approach_avoid_spark_v1","""event"",""trial"",""time""
""fullscreenenter"",""1"",""2591""
","
","
","""event"",""trial"",""time""
""fullscreenenter"",""1"",""2591""
","
","","","","","","null","<div style=""font-size:60px;"">+</div>","null","","fixation","","","","","","","","","","",""
"aa-learning-trial","73","431765","0.0-9.0-2.0-1.0","6256","2","19","Female","approach_avoid_spark_v1","""event"",""trial"",""time""
""fullscreenenter"",""1"",""2591""
","
","
","""event"",""trial"",""time""
""fullscreenenter"",""1"",""2591""
","
","","","","","","1137","images/sheep1.png","","","learning","2","2","1","1","sheep","animals","2","0","","neutral","0"
"html-keyboard-response","74","432269","0.0-9.0-2.0-0.1","6256","2","19","Female","approach_avoid_spark_v1","""event"",""trial"",""time""
""fullscreenenter"",""1"",""2591""
","
","
","""event"",""trial"",""time""
""fullscreenenter"",""1"",""2591""
","
","","","","","","null","<div style=""font-size:60px;"">+</div>","null","","fixation","","","","","","","","","","",""
"aa-learning-trial","75","435277","0.0-9.0-2.0-1.1","6256","2","19","Female","approach_avoid_spark_v1","""event"",""trial"",""time""
""fullscreenenter"",""1"",""2591""
","
","
","""event"",""trial"",""time""
""fullscreenenter"",""1"",""2591""
","
","","","","","","307.70000000006985","images/goat5.png","","","learning","-9","-9","1","1","goat","animals","2","0","","bad","[-5]"
"html-keyboard-response","76","435781","0.0-9.0-2.0-0.2","6256","2","19","Female","approach_avoid_spark_v1","""event"",""trial"",""time""
""fullscreenenter"",""1"",""2591""
","
","
","""event"",""trial"",""time""
""fullscreenenter"",""1"",""2591""
","
","","","","","","null","<div style=""font-size:60px;"">+</div>","null","","fixation","","","","","","","","","","",""
"aa-learning-trial","77","438789","0.0-9.0-2.0-1.2","6256","2","19","Female","approach_avoid_spark_v1","""event"",""trial"",""time""
""fullscreenenter"",""1"",""2591""
","
","
","""event"",""trial"",""time""
""fullscreenenter"",""1"",""2591""
","
","","","","","","464.19999999995343","images/sheep5.png","","","learning","5","5","1","1","sheep","animals","2","0","","neutral","0"
"html-keyboard-response","78","439295","0.0-9.0-2.0-0.3","6256","2","19","Female","approach_avoid_spark_v1","""event"",""trial"",""time""
""fullscreenenter"",""1"",""2591""
","
","
","""event"",""trial"",""time""
""fullscreenenter"",""1"",""2591""
","
","","","","","","null","<div style=""font-size:60px;"">+</div>","null","","fixation","","","","","","","","","","",""
"aa-learning-trial","79","442301","0.0-9.0-2.0-1.3","6256","2","19","Female","approach_avoid_spark_v1","""event"",""trial"",""time""
""fullscreenenter"",""1"",""2591""
","
","
","""event"",""trial"",""time""
""fullscreenenter"",""1"",""2591""
","
","","","","","","463.69999999995343","images/cow6.png","","","learning","9","0","0","0","cow","animals","2","0","","good","[4]"
"html-keyboard-response","80","442807","0.0-9.0-2.0-0.4","6256","2","19","Female","approach_avoid_spark_v1","""event"",""trial"",""time""
""fullscreenenter"",""1"",""2591""
","
","
","""event"",""trial"",""time""
""fullscreenenter"",""1"",""2591""
","
","","","","","","null","<div style=""font-size:60px;"">+</div>","null","","fixation","","","","","","","","","","",""
"aa-learning-trial","81","445814","0.0-9.0-2.0-1.4","6256","2","19","Female","approach_avoid_spark_v1","""event"",""trial"",""time""
""fullscreenenter"",""1"",""2591""
","
","
","""event"",""trial"",""time""
""fullscreenenter"",""1"",""2591""
","
","","","","","","555.5","images/cow3.png","","","learning","-4","0","0","0","cow","animals","2","0","","good","[4]"
"html-keyboard-response","82","446319","0.0-9.0-2.0-0.5","6256","2","19","Female","approach_avoid_spark_v1","""event"",""trial"",""time""
""fullscreenenter"",""1"",""2591""
","
","
","""event"",""trial"",""time""
""fullscreenenter"",""1"",""2591""
","
","","","","","","null","<div style=""font-size:60px;"">+</div>","null","","fixation","","","","","","","","","","",""
"aa-learning-trial","83","449327","0.0-9.0-2.0-1.5","6256","2","19","Female","approach_avoid_spark_v1","""event"",""trial"",""time""
""fullscreenenter"",""1"",""2591""
","
","
","""event"",""trial"",""time""
""fullscreenenter"",""1"",""2591""
","
","","","","","","283.9000000000233","images/cow3.png","","","learning","-4","-4","1","1","cow","animals","2","0","","good","[4]"
"html-keyboard-response","84","449831","0.0-9.0-2.0-0.6","6256","2","19","Female","approach_avoid_spark_v1","""event"",""trial"",""time""
""fullscreenenter"",""1"",""2591""
","
","
","""event"",""trial"",""time""
""fullscreenenter"",""1"",""2591""
","
","","","","","","null","<div style=""font-size:60px;"">+</div>","null","","fixation","","","","","","","","","","",""
"aa-learning-trial","85","452839","0.0-9.0-2.0-1.6","6256","2","19","Female","approach_avoid_spark_v1","""event"",""trial"",""time""
""fullscreenenter"",""1"",""2591""
","
","
","""event"",""trial"",""time""
""fullscreenenter"",""1"",""2591""
","
","","","","","","602.5999999999767","images/goat1.png","","","learning","-1","0","0","0","goat","animals","2","0","","bad","[-5]"
"html-keyboard-response","86","453345","0.0-9.0-2.0-0.7","6256","2","19","Female","approach_avoid_spark_v1","""event"",""trial"",""time""
""fullscreenenter"",""1"",""2591""
","
","
","""event"",""trial"",""time""
""fullscreenenter"",""1"",""2591""
","
","","","","","","null","<div style=""font-size:60px;"">+</div>","null","","fixation","","","","","","","","","","",""
"aa-learning-trial","87","456349","0.0-9.0-2.0-1.7","6256","2","19","Female","approach_avoid_spark_v1","""event"",""trial"",""time""
""fullscreenenter"",""1"",""2591""
","
","
","""event"",""trial"",""time""
""fullscreenenter"",""1"",""2591""
","
","","","","","","372","images/cow2.png","","","learning","3","3","1","1","cow","animals","2","0","","good","[4]"
"html-keyboard-response","88","456855","0.0-9.0-2.0-0.8","6256","2","19","Female","approach_avoid_spark_v1","""event"",""trial"",""time""
""fullscreenenter"",""1"",""2591""
","
","
","""event"",""trial"",""time""
""fullscreenenter"",""1"",""2591""
","
","","","","","","null","<div style=""font-size:60px;"">+</div>","null","","fixation","","","","","","","","","","",""
"aa-learning-trial","89","459862","0.0-9.0-2.0-1.8","6256","2","19","Female","approach_avoid_spark_v1","""event"",""trial"",""time""
""fullscreenenter"",""1"",""2591""
","
","
","""event"",""trial"",""time""
""fullscreenenter"",""1"",""2591""
","
","","","","","","471.5","images/goat5.png","","","learning","-9","-9","1","1","goat","animals","2","0","","bad","[-5]"
"html-keyboard-response","90","460366","0.0-9.0-2.0-0.9","6256","2","19","Female","approach_avoid_spark_v1","""event"",""trial"",""time""
""fullscreenenter"",""1"",""2591""
","
","
","""event"",""trial"",""time""
""fullscreenenter"",""1"",""2591""
","
","","","","","","null","<div style=""font-size:60px;"">+</div>","null","","fixation","","","","","","","","","","",""
"aa-learning-trial","91","463374","0.0-9.0-2.0-1.9","6256","2","19","Female","approach_avoid_spark_v1","""event"",""trial"",""time""
""fullscreenenter"",""1"",""2591""
","
","
","""event"",""trial"",""time""
""fullscreenenter"",""1"",""2591""
","
","","","","","","1004.4000000000233","images/cow6.png","","","learning","9","0","0","0","cow","animals","2","0","","good","[4]"
"html-keyboard-response","92","463877","0.0-9.0-2.0-0.10","6256","2","19","Female","approach_avoid_spark_v1","""event"",""trial"",""time""
""fullscreenenter"",""1"",""2591""
","
","
","""event"",""trial"",""time""
""fullscreenenter"",""1"",""2591""
","
","","","","","","null","<div style=""font-size:60px;"">+</div>","null","","fixation","","","","","","","","","","",""
"aa-learning-trial","93","466886","0.0-9.0-2.0-1.10","6256","2","19","Female","approach_avoid_spark_v1","""event"",""trial"",""time""
""fullscreenenter"",""1"",""2591""
","
","
","""event"",""trial"",""time""
""fullscreenenter"",""1"",""2591""
","
","","","","","","913.0999999999767","images/sheep5.png","","","learning","5","5","1","1","sheep","animals","2","0","","neutral","0"
"html-keyboard-response","94","467390","0.0-9.0-2.0-0.11","6256","2","19","Female","approach_avoid_spark_v1","""event"",""trial"",""time""
""fullscreenenter"",""1"",""2591""
","
","
","""event"",""trial"",""time""
""fullscreenenter"",""1"",""2591""
","
","","","","","","null","<div style=""font-size:60px;"">+</div>","null","","fixation","","","","","","","","","","",""
"aa-learning-trial","95","470398","0.0-9.0-2.0-1.11","6256","2","19","Female","approach_avoid_spark_v1","""event"",""trial"",""time""
""fullscreenenter"",""1"",""2591""
","
","
","""event"",""trial"",""time""
""fullscreenenter"",""1"",""2591""
","
","","","","","","608","images/goat1.png","","","learning","-1","0","0","0","goat","animals","2","0","","bad","[-5]"
"html-keyboard-response","96","470902","0.0-9.0-2.0-0.12","6256","2","19","Female","approach_avoid_spark_v1","""event"",""trial"",""time""
""fullscreenenter"",""1"",""2591""
","
","
","""event"",""trial"",""time""
""fullscreenenter"",""1"",""2591""
","
","","","","","","null","<div style=""font-size:60px;"">+</div>","null","","fixation","","","","","","","","","","",""
"aa-learning-trial","97","473910","0.0-9.0-2.0-1.12","6256","2","19","Female","approach_avoid_spark_v1","""event"",""trial"",""time""
""fullscreenenter"",""1"",""2591""
","
","
","""event"",""trial"",""time""
""fullscreenenter"",""1"",""2591""
","
","","","","","","692.1000000000931","images/sheep8.png","","","learning","-6","-6","1","1","sheep","animals","2","0","","neutral","0"
"html-keyboard-response","98","474414","0.0-9.0-2.0-0.13","6256","2","19","Female","approach_avoid_spark_v1","""event"",""trial"",""time""
""fullscreenenter"",""1"",""2591""
","
","
","""event"",""trial"",""time""
""fullscreenenter"",""1"",""2591""
","
","","","","","","null","<div style=""font-size:60px;"">+</div>","null","","fixation","","","","","","","","","","",""
"aa-learning-trial","99","477422","0.0-9.0-2.0-1.13","6256","2","19","Female","approach_avoid_spark_v1","""event"",""trial"",""time""
""fullscreenenter"",""1"",""2591""
","
","
","""event"",""trial"",""time""
""fullscreenenter"",""1"",""2591""
","
","","","","","","1028.7000000000698","images/goat7.png","","","learning","6","6","1","1","goat","animals","2","0","","bad","[-5]"
"html-keyboard-response","100","477926","0.0-9.0-2.0-0.14","6256","2","19","Female","approach_avoid_spark_v1","""event"",""trial"",""time""
""fullscreenenter"",""1"",""2591""
","
","
","""event"",""trial"",""time""
""fullscreenenter"",""1"",""2591""
","
","","","","","","null","<div style=""font-size:60px;"">+</div>","null","","fixation","","","","","","","","","","",""
"aa-learning-trial","101","480934","0.0-9.0-2.0-1.14","6256","2","19","Female","approach_avoid_spark_v1","""event"",""trial"",""time""
""fullscreenenter"",""1"",""2591""
","
","
","""event"",""trial"",""time""
""fullscreenenter"",""1"",""2591""
","
","","","","","","703.9000000000233","images/sheep8.png","","","learning","-6","0","0","0","sheep","animals","2","0","","neutral","0"
"html-keyboard-response","102","481438","0.0-9.0-2.0-0.15","6256","2","19","Female","approach_avoid_spark_v1","""event"",""trial"",""time""
""fullscreenenter"",""1"",""2591""
","
","
","""event"",""trial"",""time""
""fullscreenenter"",""1"",""2591""
","
","","","","","","null","<div style=""font-size:60px;"">+</div>","null","","fixation","","","","","","","","","","",""
"aa-learning-trial","103","484446","0.0-9.0-2.0-1.15","6256","2","19","Female","approach_avoid_spark_v1","""event"",""trial"",""time""
""fullscreenenter"",""1"",""2591""
","
","
","""event"",""trial"",""time""
""fullscreenenter"",""1"",""2591""
","
","","","","","","552.0999999999767","images/cow3.png","","","learning","-4","-4","1","1","cow","animals","2","0","","good","[4]"
"html-keyboard-response","104","484950","0.0-9.0-2.0-0.16","6256","2","19","Female","approach_avoid_spark_v1","""event"",""trial"",""time""
""fullscreenenter"",""1"",""2591""
","
","
","""event"",""trial"",""time""
""fullscreenenter"",""1"",""2591""
","
","","","","","","null","<div style=""font-size:60px;"">+</div>","null","","fixation","","","","","","","","","","",""
"aa-learning-trial","105","487958","0.0-9.0-2.0-1.16","6256","2","19","Female","approach_avoid_spark_v1","""event"",""trial"",""time""
""fullscreenenter"",""1"",""2591""
","
","
","""event"",""trial"",""time""
""fullscreenenter"",""1"",""2591""
","
","","","","","","730.8000000000466","images/cow3.png","","","learning","-4","0","0","0","cow","animals","2","0","","good","[4]"
"html-keyboard-response","106","488462","0.0-9.0-2.0-0.17","6256","2","19","Female","approach_avoid_spark_v1","""event"",""trial"",""time""
""fullscreenenter"",""1"",""2591""
","
","
","""event"",""trial"",""time""
""fullscreenenter"",""1"",""2591""
","
","","","","","","null","<div style=""font-size:60px;"">+</div>","null","","fixation","","","","","","","","","","",""
"aa-learning-trial","107","491470","0.0-9.0-2.0-1.17","6256","2","19","Female","approach_avoid_spark_v1","""event"",""trial"",""time""
""fullscreenenter"",""1"",""2591""
","
","
","""event"",""trial"",""time""
""fullscreenenter"",""1"",""2591""
","
","","","","","","582.8000000000466","images/cow3.png","","","learning","-4","0","0","0","cow","animals","2","0","","good","[4]"
"html-keyboard-response","108","491974","0.0-9.0-2.0-0.18","6256","2","19","Female","approach_avoid_spark_v1","""event"",""trial"",""time""
""fullscreenenter"",""1"",""2591""
","
","
","""event"",""trial"",""time""
""fullscreenenter"",""1"",""2591""
","
","","","","","","null","<div style=""font-size:60px;"">+</div>","null","","fixation","","","","","","","","","","",""
"aa-learning-trial","109","494982","0.0-9.0-2.0-1.18","6256","2","19","Female","approach_avoid_spark_v1","""event"",""trial"",""time""
""fullscreenenter"",""1"",""2591""
","
","
","""event"",""trial"",""time""
""fullscreenenter"",""1"",""2591""
","
","","","","","","935.5","images/goat5.png","","","learning","-9","0","0","0","goat","animals","2","0","","bad","[-5]"
"html-keyboard-response","110","495486","0.0-9.0-2.0-0.19","6256","2","19","Female","approach_avoid_spark_v1","""event"",""trial"",""time""
""fullscreenenter"",""1"",""2591""
","
","
","""event"",""trial"",""time""
""fullscreenenter"",""1"",""2591""
","
","","","","","","null","<div style=""font-size:60px;"">+</div>","null","","fixation","","","","","","","","","","",""
"aa-learning-trial","111","498494","0.0-9.0-2.0-1.19","6256","2","19","Female","approach_avoid_spark_v1","""event"",""trial"",""time""
""fullscreenenter"",""1"",""2591""
","
","
","""event"",""trial"",""time""
""fullscreenenter"",""1"",""2591""
","
","","","","","","529.3000000000466","images/cow6.png","","","learning","9","9","1","1","cow","animals","2","0","","good","[4]"
"html-keyboard-response","112","498998","0.0-9.0-2.0-0.20","6256","2","19","Female","approach_avoid_spark_v1","""event"",""trial"",""time""
""fullscreenenter"",""1"",""2591""
","
","
","""event"",""trial"",""time""
""fullscreenenter"",""1"",""2591""
","
","","","","","","null","<div style=""font-size:60px;"">+</div>","null","","fixation","","","","","","","","","","",""
"aa-learning-trial","113","502006","0.0-9.0-2.0-1.20","6256","2","19","Female","approach_avoid_spark_v1","""event"",""trial"",""time""
""fullscreenenter"",""1"",""2591""
","
","
","""event"",""trial"",""time""
""fullscreenenter"",""1"",""2591""
","
","","","","","","675.0999999999767","images/goat5.png","","","learning","-9","-9","1","1","goat","animals","2","0","","bad","[-5]"
"html-keyboard-response","114","502510","0.0-9.0-2.0-0.21","6256","2","19","Female","approach_avoid_spark_v1","""event"",""trial"",""time""
""fullscreenenter"",""1"",""2591""
","
","
","""event"",""trial"",""time""
""fullscreenenter"",""1"",""2591""
","
","","","","","","null","<div style=""font-size:60px;"">+</div>","null","","fixation","","","","","","","","","","",""
"aa-learning-trial","115","505518","0.0-9.0-2.0-1.21","6256","2","19","Female","approach_avoid_spark_v1","""event"",""trial"",""time""
""fullscreenenter"",""1"",""2591""
","
","
","""event"",""trial"",""time""
""fullscreenenter"",""1"",""2591""
","
","","","","","","1216","images/goat7.png","","","learning","6","6","1","1","goat","animals","2","0","","bad","[-5]"
"html-keyboard-response","116","506022","0.0-9.0-2.0-0.22","6256","2","19","Female","approach_avoid_spark_v1","""event"",""trial"",""time""
""fullscreenenter"",""1"",""2591""
","
","
","""event"",""trial"",""time""
""fullscreenenter"",""1"",""2591""
","
","","","","","","null","<div style=""font-size:60px;"">+</div>","null","","fixation","","","","","","","","","","",""
"aa-learning-trial","117","509030","0.0-9.0-2.0-1.22","6256","2","19","Female","approach_avoid_spark_v1","""event"",""trial"",""time""
""fullscreenenter"",""1"",""2591""
","
","
","""event"",""trial"",""time""
""fullscreenenter"",""1"",""2591""
","
","","","","","","459.80000000004657","images/cow2.png","","","learning","3","3","1","1","cow","animals","2","0","","good","[4]"
"html-keyboard-response","118","509536","0.0-9.0-2.0-0.23","6256","2","19","Female","approach_avoid_spark_v1","""event"",""trial"",""time""
""fullscreenenter"",""1"",""2591""
","
","
","""event"",""trial"",""time""
""fullscreenenter"",""1"",""2591""
","
","","","","","","null","<div style=""font-size:60px;"">+</div>","null","","fixation","","","","","","","","","","",""
"aa-learning-trial","119","512542","0.0-9.0-2.0-1.23","6256","2","19","Female","approach_avoid_spark_v1","""event"",""trial"",""time""
""fullscreenenter"",""1"",""2591""
","
","
","""event"",""trial"",""time""
""fullscreenenter"",""1"",""2591""
","
","","","","","","379.19999999995343","images/goat5.png","","","learning","-9","0","0","0","goat","animals","2","0","","bad","[-5]"
"html-keyboard-response","120","513046","0.0-9.0-2.0-0.24","6256","2","19","Female","approach_avoid_spark_v1","""event"",""trial"",""time""
""fullscreenenter"",""1"",""2591""
","
","
","""event"",""trial"",""time""
""fullscreenenter"",""1"",""2591""
","
","","","","","","null","<div style=""font-size:60px;"">+</div>","null","","fixation","","","","","","","","","","",""
"aa-learning-trial","121","516054","0.0-9.0-2.0-1.24","6256","2","19","Female","approach_avoid_spark_v1","""event"",""trial"",""time""
""fullscreenenter"",""1"",""2591""
","
","
","""event"",""trial"",""time""
""fullscreenenter"",""1"",""2591""
","
","","","","","","607.2000000000698","images/sheep7.png","","","learning","7","7","1","1","sheep","animals","2","0","","neutral","0"
"html-keyboard-response","122","516558","0.0-9.0-2.0-0.25","6256","2","19","Female","approach_avoid_spark_v1","""event"",""trial"",""time""
""fullscreenenter"",""1"",""2591""
","
","
","""event"",""trial"",""time""
""fullscreenenter"",""1"",""2591""
","
","","","","","","null","<div style=""font-size:60px;"">+</div>","null","","fixation","","","","","","","","","","",""
"aa-learning-trial","123","519566","0.0-9.0-2.0-1.25","6256","2","19","Female","approach_avoid_spark_v1","""event"",""trial"",""time""
""fullscreenenter"",""1"",""2591""
","
","
","""event"",""trial"",""time""
""fullscreenenter"",""1"",""2591""
","
","","","","","","400.5999999999767","images/cow6.png","","","learning","9","9","1","1","cow","animals","2","0","","good","[4]"
"html-keyboard-response","124","520069","0.0-9.0-2.0-0.26","6256","2","19","Female","approach_avoid_spark_v1","""event"",""trial"",""time""
""fullscreenenter"",""1"",""2591""
","
","
","""event"",""trial"",""time""
""fullscreenenter"",""1"",""2591""
","
","","","","","","null","<div style=""font-size:60px;"">+</div>","null","","fixation","","","","","","","","","","",""
"aa-learning-trial","125","523078","0.0-9.0-2.0-1.26","6256","2","19","Female","approach_avoid_spark_v1","""event"",""trial"",""time""
""fullscreenenter"",""1"",""2591""
","
","
","""event"",""trial"",""time""
""fullscreenenter"",""1"",""2591""
","
","","","","","","402.5","images/goat1.png","","","learning","-1","-1","1","1","goat","animals","2","0","","bad","[-5]"
"html-keyboard-response","126","523582","0.0-9.0-2.0-0.27","6256","2","19","Female","approach_avoid_spark_v1","""event"",""trial"",""time""
""fullscreenenter"",""1"",""2591""
","
","
","""event"",""trial"",""time""
""fullscreenenter"",""1"",""2591""
","
","","","","","","null","<div style=""font-size:60px;"">+</div>","null","","fixation","","","","","","","","","","",""
"aa-learning-trial","127","526590","0.0-9.0-2.0-1.27","6256","2","19","Female","approach_avoid_spark_v1","""event"",""trial"",""time""
""fullscreenenter"",""1"",""2591""
","
","
","""event"",""trial"",""time""
""fullscreenenter"",""1"",""2591""
","
","","","","","","354.4000000000233","images/cow2.png","","","learning","3","3","1","1","cow","animals","2","0","","good","[4]"
"html-keyboard-response","128","527094","0.0-9.0-2.0-0.28","6256","2","19","Female","approach_avoid_spark_v1","""event"",""trial"",""time""
""fullscreenenter"",""1"",""2591""
","
","
","""event"",""trial"",""time""
""fullscreenenter"",""1"",""2591""
","
","","","","","","null","<div style=""font-size:60px;"">+</div>","null","","fixation","","","","","","","","","","",""
"aa-learning-trial","129","530102","0.0-9.0-2.0-1.28","6256","2","19","Female","approach_avoid_spark_v1","""event"",""trial"",""time""
""fullscreenenter"",""1"",""2591""
","
","
","""event"",""trial"",""time""
""fullscreenenter"",""1"",""2591""
","
","","","","","","532.4000000000233","images/goat1.png","","","learning","-1","-1","1","1","goat","animals","2","0","","bad","[-5]"
"html-keyboard-response","130","530606","0.0-9.0-2.0-0.29","6256","2","19","Female","approach_avoid_spark_v1","""event"",""trial"",""time""
""fullscreenenter"",""1"",""2591""
","
","
","""event"",""trial"",""time""
""fullscreenenter"",""1"",""2591""
","
","","","","","","null","<div style=""font-size:60px;"">+</div>","null","","fixation","","","","","","","","","","",""
"aa-learning-trial","131","533614","0.0-9.0-2.0-1.29","6256","2","19","Female","approach_avoid_spark_v1","""event"",""trial"",""time""
""fullscreenenter"",""1"",""2591""
","
","
","""event"",""trial"",""time""
""fullscreenenter"",""1"",""2591""
","
","","","","","","635.1999999999534","images/sheep5.png","","","learning","5","5","1","1","sheep","animals","2","0","","neutral","0"
"html-keyboard-response","132","534118","0.0-9.0-2.0-0.30","6256","2","19","Female","approach_avoid_spark_v1","""event"",""trial"",""time""
""fullscreenenter"",""1"",""2591""
","
","
","""event"",""trial"",""time""
""fullscreenenter"",""1"",""2591""
","
","","","","","","null","<div style=""font-size:60px;"">+</div>","null","","fixation","","","","","","","","","","",""
"aa-learning-trial","133","537126","0.0-9.0-2.0-1.30","6256","2","19","Female","approach_avoid_spark_v1","""event"",""trial"",""time""
""fullscreenenter"",""1"",""2591""
","
","
","""event"",""trial"",""time""
""fullscreenenter"",""1"",""2591""
","
","","","","","","664.5999999999767","images/sheep3.png","","","learning","-5","-5","1","1","sheep","animals","2","0","","neutral","0"
"html-keyboard-response","134","537630","0.0-9.0-2.0-0.31","6256","2","19","Female","approach_avoid_spark_v1","""event"",""trial"",""time""
""fullscreenenter"",""1"",""2591""
","
","
","""event"",""trial"",""time""
""fullscreenenter"",""1"",""2591""
","
","","","","","","null","<div style=""font-size:60px;"">+</div>","null","","fixation","","","","","","","","","","",""
"aa-learning-trial","135","540641","0.0-9.0-2.0-1.31","6256","2","19","Female","approach_avoid_spark_v1","""event"",""trial"",""time""
""fullscreenenter"",""1"",""2591""
","
","
","""event"",""trial"",""time""
""fullscreenenter"",""1"",""2591""
","
","","","","","","736.0999999999767","images/goat1.png","","","learning","-1","-1","1","1","goat","animals","2","0","","bad","[-5]"
"html-keyboard-response","136","541150","0.0-9.0-2.0-0.32","6256","2","19","Female","approach_avoid_spark_v1","""event"",""trial"",""time""
""fullscreenenter"",""1"",""2591""
","
","
","""event"",""trial"",""time""
""fullscreenenter"",""1"",""2591""
","
","","","","","","null","<div style=""font-size:60px;"">+</div>","null","","fixation","","","","","","","","","","",""
"aa-learning-trial","137","544158","0.0-9.0-2.0-1.32","6256","2","19","Female","approach_avoid_spark_v1","""event"",""trial"",""time""
""fullscreenenter"",""1"",""2591""
","
","
","""event"",""trial"",""time""
""fullscreenenter"",""1"",""2591""
","
","","","","","","698.1999999999534","images/sheep8.png","","","learning","-6","-6","1","1","sheep","animals","2","0","","neutral","0"
"html-keyboard-response","138","544662","0.0-9.0-2.0-0.33","6256","2","19","Female","approach_avoid_spark_v1","""event"",""trial"",""time""
""fullscreenenter"",""1"",""2591""
","
","
","""event"",""trial"",""time""
""fullscreenenter"",""1"",""2591""
","
","","","","","","null","<div style=""font-size:60px;"">+</div>","null","","fixation","","","","","","","","","","",""
"aa-learning-trial","139","547670","0.0-9.0-2.0-1.33","6256","2","19","Female","approach_avoid_spark_v1","""event"",""trial"",""time""
""fullscreenenter"",""1"",""2591""
","
","
","""event"",""trial"",""time""
""fullscreenenter"",""1"",""2591""
","
","","","","","","849.5999999999767","images/cow7.png","","","learning","-2","-2","1","1","cow","animals","2","0","","good","[4]"
"html-keyboard-response","140","548174","0.0-9.0-2.0-0.34","6256","2","19","Female","approach_avoid_spark_v1","""event"",""trial"",""time""
""fullscreenenter"",""1"",""2591""
","
","
","""event"",""trial"",""time""
""fullscreenenter"",""1"",""2591""
","
","","","","","","null","<div style=""font-size:60px;"">+</div>","null","","fixation","","","","","","","","","","",""
"aa-learning-trial","141","551182","0.0-9.0-2.0-1.34","6256","2","19","Female","approach_avoid_spark_v1","""event"",""trial"",""time""
""fullscreenenter"",""1"",""2591""
","
","
","""event"",""trial"",""time""
""fullscreenenter"",""1"",""2591""
","
","","","","","","791.1999999999534","images/sheep8.png","","","learning","-6","0","0","0","sheep","animals","2","0","","neutral","0"
"html-keyboard-response","142","551686","0.0-9.0-2.0-0.35","6256","2","19","Female","approach_avoid_spark_v1","""event"",""trial"",""time""
""fullscreenenter"",""1"",""2591""
","
","
","""event"",""trial"",""time""
""fullscreenenter"",""1"",""2591""
","
","","","","","","null","<div style=""font-size:60px;"">+</div>","null","","fixation","","","","","","","","","","",""
"aa-learning-trial","143","554694","0.0-9.0-2.0-1.35","6256","2","19","Female","approach_avoid_spark_v1","""event"",""trial"",""time""
""fullscreenenter"",""1"",""2591""
","
","
","""event"",""trial"",""time""
""fullscreenenter"",""1"",""2591""
","
","","","","","","687.9000000000233","images/sheep8.png","","","learning","-6","-6","1","1","sheep","animals","2","0","","neutral","0"
"html-keyboard-response","144","555198","0.0-9.0-2.0-0.36","6256","2","19","Female","approach_avoid_spark_v1","""event"",""trial"",""time""
""fullscreenenter"",""1"",""2591""
","
","
","""event"",""trial"",""time""
""fullscreenenter"",""1"",""2591""
","
","","","","","","null","<div style=""font-size:60px;"">+</div>","null","","fixation","","","","","","","","","","",""
"aa-learning-trial","145","558206","0.0-9.0-2.0-1.36","6256","2","19","Female","approach_avoid_spark_v1","""event"",""trial"",""time""
""fullscreenenter"",""1"",""2591""
","
","
","""event"",""trial"",""time""
""fullscreenenter"",""1"",""2591""
","
","","","","","","959.0999999999767","images/goat5.png","","","learning","-9","0","0","0","goat","animals","2","0","","bad","[-5]"
"html-keyboard-response","146","558710","0.0-9.0-2.0-0.37","6256","2","19","Female","approach_avoid_spark_v1","""event"",""trial"",""time""
""fullscreenenter"",""1"",""2591""
","
","
","""event"",""trial"",""time""
""fullscreenenter"",""1"",""2591""
","
","","","","","","null","<div style=""font-size:60px;"">+</div>","null","","fixation","","","","","","","","","","",""
"aa-learning-trial","147","561717","0.0-9.0-2.0-1.37","6256","2","19","Female","approach_avoid_spark_v1","""event"",""trial"",""time""
""fullscreenenter"",""1"",""2591""
","
","
","""event"",""trial"",""time""
""fullscreenenter"",""1"",""2591""
","
","","","","","","621.8000000000466","images/sheep5.png","","","learning","5","5","1","1","sheep","animals","2","0","","neutral","0"
"html-keyboard-response","148","562221","0.0-9.0-2.0-0.38","6256","2","19","Female","approach_avoid_spark_v1","""event"",""trial"",""time""
""fullscreenenter"",""1"",""2591""
","
","
","""event"",""trial"",""time""
""fullscreenenter"",""1"",""2591""
","
","","","","","","null","<div style=""font-size:60px;"">+</div>","null","","fixation","","","","","","","","","","",""
"aa-learning-trial","149","565230","0.0-9.0-2.0-1.38","6256","2","19","Female","approach_avoid_spark_v1","""event"",""trial"",""time""
""fullscreenenter"",""1"",""2591""
","
","
","""event"",""trial"",""time""
""fullscreenenter"",""1"",""2591""
","
","","","","","","597.9000000000233","images/cow6.png","","","learning","9","0","0","0","cow","animals","2","0","","good","[4]"
"html-keyboard-response","150","565734","0.0-9.0-2.0-0.39","6256","2","19","Female","approach_avoid_spark_v1","""event"",""trial"",""time""
""fullscreenenter"",""1"",""2591""
","
","
","""event"",""trial"",""time""
""fullscreenenter"",""1"",""2591""
","
","","","","","","null","<div style=""font-size:60px;"">+</div>","null","","fixation","","","","","","","","","","",""
"aa-learning-trial","151","568742","0.0-9.0-2.0-1.39","6256","2","19","Female","approach_avoid_spark_v1","""event"",""trial"",""time""
""fullscreenenter"",""1"",""2591""
","
","
","""event"",""trial"",""time""
""fullscreenenter"",""1"",""2591""
","
","","","","","","453.20000000006985","images/sheep1.png","","","learning","2","2","1","1","sheep","animals","2","0","","neutral","0"
"html-keyboard-response","152","569246","0.0-9.0-2.0-0.40","6256","2","19","Female","approach_avoid_spark_v1","""event"",""trial"",""time""
""fullscreenenter"",""1"",""2591""
","
","
","""event"",""trial"",""time""
""fullscreenenter"",""1"",""2591""
","
","","","","","","null","<div style=""font-size:60px;"">+</div>","null","","fixation","","","","","","","","","","",""
"aa-learning-trial","153","572254","0.0-9.0-2.0-1.40","6256","2","19","Female","approach_avoid_spark_v1","""event"",""trial"",""time""
""fullscreenenter"",""1"",""2591""
","
","
","""event"",""trial"",""time""
""fullscreenenter"",""1"",""2591""
","
","","","","","","414.9000000000233","images/sheep8.png","","","learning","-6","-6","1","1","sheep","animals","2","0","","neutral","0"
"html-keyboard-response","154","572758","0.0-9.0-2.0-0.41","6256","2","19","Female","approach_avoid_spark_v1","""event"",""trial"",""time""
""fullscreenenter"",""1"",""2591""
","
","
","""event"",""trial"",""time""
""fullscreenenter"",""1"",""2591""
","
","","","","","","null","<div style=""font-size:60px;"">+</div>","null","","fixation","","","","","","","","","","",""
"aa-learning-trial","155","575766","0.0-9.0-2.0-1.41","6256","2","19","Female","approach_avoid_spark_v1","""event"",""trial"",""time""
""fullscreenenter"",""1"",""2591""
","
","
","""event"",""trial"",""time""
""fullscreenenter"",""1"",""2591""
","
","","","","","","458.70000000006985","images/goat7.png","","","learning","6","6","1","1","goat","animals","2","0","","bad","[-5]"
"html-keyboard-response","156","576270","0.0-9.0-2.0-0.42","6256","2","19","Female","approach_avoid_spark_v1","""event"",""trial"",""time""
""fullscreenenter"",""1"",""2591""
","
","
","""event"",""trial"",""time""
""fullscreenenter"",""1"",""2591""
","
","","","","","","null","<div style=""font-size:60px;"">+</div>","null","","fixation","","","","","","","","","","",""
"aa-learning-trial","157","579278","0.0-9.0-2.0-1.42","6256","2","19","Female","approach_avoid_spark_v1","""event"",""trial"",""time""
""fullscreenenter"",""1"",""2591""
","
","
","""event"",""trial"",""time""
""fullscreenenter"",""1"",""2591""
","
","","","","","","528.3999999999069","images/cow1.png","","","learning","-7","-7","1","1","cow","animals","2","0","","good","[4]"
"html-keyboard-response","158","579786","0.0-9.0-2.0-0.43","6256","2","19","Female","approach_avoid_spark_v1","""event"",""trial"",""time""
""fullscreenenter"",""1"",""2591""
","
","
","""event"",""trial"",""time""
""fullscreenenter"",""1"",""2591""
","
","","","","","","null","<div style=""font-size:60px;"">+</div>","null","","fixation","","","","","","","","","","",""
"aa-learning-trial","159","582798","0.0-9.0-2.0-1.43","6256","2","19","Female","approach_avoid_spark_v1","""event"",""trial"",""time""
""fullscreenenter"",""1"",""2591""
","
","
","""event"",""trial"",""time""
""fullscreenenter"",""1"",""2591""
","
","","","","","","788.8000000000466","images/sheep1.png","","","learning","2","0","0","0","sheep","animals","2","0","","neutral","0"
"html-keyboard-response","160","583302","0.0-9.0-2.0-0.44","6256","2","19","Female","approach_avoid_spark_v1","""event"",""trial"",""time""
""fullscreenenter"",""1"",""2591""
","
","
","""event"",""trial"",""time""
""fullscreenenter"",""1"",""2591""
","
","","","","","","null","<div style=""font-size:60px;"">+</div>","null","","fixation","","","","","","","","","","",""
"aa-learning-trial","161","586310","0.0-9.0-2.0-1.44","6256","2","19","Female","approach_avoid_spark_v1","""event"",""trial"",""time""
""fullscreenenter"",""1"",""2591""
","
","
","""event"",""trial"",""time""
""fullscreenenter"",""1"",""2591""
","
","","","","","","467.69999999995343","images/sheep5.png","","","learning","5","5","1","1","sheep","animals","2","0","","neutral","0"
"html-keyboard-response","162","586814","0.0-9.0-2.0-0.45","6256","2","19","Female","approach_avoid_spark_v1","""event"",""trial"",""time""
""fullscreenenter"",""1"",""2591""
","
","
","""event"",""trial"",""time""
""fullscreenenter"",""1"",""2591""
","
","","","","","","null","<div style=""font-size:60px;"">+</div>","null","","fixation","","","","","","","","","","",""
"aa-learning-trial","163","589822","0.0-9.0-2.0-1.45","6256","2","19","Female","approach_avoid_spark_v1","""event"",""trial"",""time""
""fullscreenenter"",""1"",""2591""
","
","
","""event"",""trial"",""time""
""fullscreenenter"",""1"",""2591""
","
","","","","","","586.9000000000233","images/cow3.png","","","learning","-4","-4","1","1","cow","animals","2","0","","good","[4]"
"html-keyboard-response","164","590326","0.0-9.0-2.0-0.46","6256","2","19","Female","approach_avoid_spark_v1","""event"",""trial"",""time""
""fullscreenenter"",""1"",""2591""
","
","
","""event"",""trial"",""time""
""fullscreenenter"",""1"",""2591""
","
","","","","","","null","<div style=""font-size:60px;"">+</div>","null","","fixation","","","","","","","","","","",""
"aa-learning-trial","165","593334","0.0-9.0-2.0-1.46","6256","2","19","Female","approach_avoid_spark_v1","""event"",""trial"",""time""
""fullscreenenter"",""1"",""2591""
","
","
","""event"",""trial"",""time""
""fullscreenenter"",""1"",""2591""
","
","","","","","","619","images/goat2.png","","","learning","4","4","1","1","goat","animals","2","0","","bad","[-5]"
"html-keyboard-response","166","593838","0.0-9.0-2.0-0.47","6256","2","19","Female","approach_avoid_spark_v1","""event"",""trial"",""time""
""fullscreenenter"",""1"",""2591""
","
","
","""event"",""trial"",""time""
""fullscreenenter"",""1"",""2591""
","
","","","","","","null","<div style=""font-size:60px;"">+</div>","null","","fixation","","","","","","","","","","",""
"aa-learning-trial","167","596846","0.0-9.0-2.0-1.47","6256","2","19","Female","approach_avoid_spark_v1","""event"",""trial"",""time""
""fullscreenenter"",""1"",""2591""
","
","
","""event"",""trial"",""time""
""fullscreenenter"",""1"",""2591""
","
","","","","","","441","images/goat8.png","","","learning","-3","-3","1","1","goat","animals","2","0","","bad","[-5]"
"html-keyboard-response","168","597350","0.0-9.0-2.0-0.48","6256","2","19","Female","approach_avoid_spark_v1","""event"",""trial"",""time""
""fullscreenenter"",""1"",""2591""
","
","
","""event"",""trial"",""time""
""fullscreenenter"",""1"",""2591""
","
","","","","","","null","<div style=""font-size:60px;"">+</div>","null","","fixation","","","","","","","","","","",""
"aa-learning-trial","169","600358","0.0-9.0-2.0-1.48","6256","2","19","Female","approach_avoid_spark_v1","""event"",""trial"",""time""
""fullscreenenter"",""1"",""2591""
","
","
","""event"",""trial"",""time""
""fullscreenenter"",""1"",""2591""
","
","","","","","","549.4000000000233","images/sheep5.png","","","learning","5","5","1","1","sheep","animals","2","0","","neutral","0"
"html-keyboard-response","170","600862","0.0-9.0-2.0-0.49","6256","2","19","Female","approach_avoid_spark_v1","""event"",""trial"",""time""
""fullscreenenter"",""1"",""2591""
","
","
","""event"",""trial"",""time""
""fullscreenenter"",""1"",""2591""
","
","","","","","","null","<div style=""font-size:60px;"">+</div>","null","","fixation","","","","","","","","","","",""
"aa-learning-trial","171","603870","0.0-9.0-2.0-1.49","6256","2","19","Female","approach_avoid_spark_v1","""event"",""trial"",""time""
""fullscreenenter"",""1"",""2591""
","
","
","""event"",""trial"",""time""
""fullscreenenter"",""1"",""2591""
","
","","","","","","578.5999999999767","images/cow6.png","","","learning","9","9","1","1","cow","animals","2","0","","good","[4]"
"html-keyboard-response","172","604374","0.0-9.0-2.0-0.50","6256","2","19","Female","approach_avoid_spark_v1","""event"",""trial"",""time""
""fullscreenenter"",""1"",""2591""
","
","
","""event"",""trial"",""time""
""fullscreenenter"",""1"",""2591""
","
","","","","","","null","<div style=""font-size:60px;"">+</div>","null","","fixation","","","","","","","","","","",""
"aa-learning-trial","173","607382","0.0-9.0-2.0-1.50","6256","2","19","Female","approach_avoid_spark_v1","""event"",""trial"",""time""
""fullscreenenter"",""1"",""2591""
","
","
","""event"",""trial"",""time""
""fullscreenenter"",""1"",""2591""
","
","","","","","","509.69999999995343","images/goat1.png","","","learning","-1","-1","1","1","goat","animals","2","0","","bad","[-5]"
"html-button-response","174","611902","0.0-9.0-3.0","6256","2","19","Female","approach_avoid_spark_v1","""event"",""trial"",""time""
""fullscreenenter"",""1"",""2591""
","
","
","""event"",""trial"",""time""
""fullscreenenter"",""1"",""2591""
","
","","","","","","4518.800000000047","<p> You have completed the round! <p> In this round, you earned 15 points! </p>","0","","break","","","","","","","","","","",""
"html-button-response","175","613508","0.0-10.0","6256","2","19","Female","approach_avoid_spark_v1","""event"",""trial"",""time""
""fullscreenenter"",""1"",""2591""
","
","
","""event"",""trial"",""time""
""fullscreenenter"",""1"",""2591""
","
","","","","","","1603.6999999999534","<p> Now it's time to play another round. </p>","0","","transition_screen","","","","","","","","","","",""
"preload","176","613637","0.0-11.0-0.0","6256","2","19","Female","approach_avoid_spark_v1","""event"",""trial"",""time""
""fullscreenenter"",""1"",""2591""
","
","
","""event"",""trial"",""time""
""fullscreenenter"",""1"",""2591""
","
","true","false","[]","[]","[]","","","","","","","","","","","","","","","",""
"learning-instructions","177","620366","0.0-11.0-1.0-0.0","6256","2","19","Female","approach_avoid_spark_v1","""event"",""trial"",""time""
""fullscreenenter"",""1"",""2591""
","
","
","""event"",""trial"",""time""
""fullscreenenter"",""1"",""2591""
","
","","","","","","1453.8000000000466","<p> Your goal in this round is to take your friend for rides in different vehicles. </p></div>","","0","instructions","","","","","","","","","","",""
"learning-instructions","178","630796","0.0-11.0-1.0-0.1","6256","2","19","Female","approach_avoid_spark_v1","""event"",""trial"",""time""
""fullscreenenter"",""1"",""2591""
","
","
","""event"",""trial"",""time""
""fullscreenenter"",""1"",""2591""
","
","","","","","","478","<p> Your friend enjoys riding in some vehicles but not in others.  </p><p> On each turn, you will see a vehicle.   </p><p> You need to decide whether to take your friend for a ride or not.  </p>","","0","instructions","","","","","","","","","","",""
"learning-instructions","179","637694","0.0-11.0-1.0-0.2","6256","2","19","Female","approach_avoid_spark_v1","""event"",""trial"",""time""
""fullscreenenter"",""1"",""2591""
","
","
","""event"",""trial"",""time""
""fullscreenenter"",""1"",""2591""
","
","","","","","","416.4000000000233","<p> You can take your friend for a ride in the vehicle by pressing 1 and skip the ride by pressing 0. </p><br><div class=""choice-instructions-grid""> <div class=""choice-option""><img src=""images/approach.png"" class=""choice-option-img"" stage=""instructions"" position=""0"" ><div class=""choice-option-text""> Press ""1."" </div></div><div class=""choice-option""><img src=""images/avoid.png"" class=""choice-option-img"" stage=""instructions"" position=""1"" ><div class=""choice-option-text""> Press ""0."" </div></div>","","0","instructions","","","","","","","","","","",""
"learning-instructions","180","647048","0.0-11.0-1.0-0.3","6256","2","19","Female","approach_avoid_spark_v1","""event"",""trial"",""time""
""fullscreenenter"",""1"",""2591""
","
","
","""event"",""trial"",""time""
""fullscreenenter"",""1"",""2591""
","
","","","","","","616","<p> If you take them for a ride in a vehicle they like, they will be thrilled! </p><p> But if you take them for a ride in a vehicle they do not like, they will be upset. </p>","","0","instructions","","","","","","","","","","",""
"learning-instructions","181","659062","0.0-11.0-1.0-0.4","6256","2","19","Female","approach_avoid_spark_v1","""event"",""trial"",""time""
""fullscreenenter"",""1"",""2591""
","
","
","""event"",""trial"",""time""
""fullscreenenter"",""1"",""2591""
","
","","","","","","302.70000000006985","<p> You will earn points based on how you made your friend feel. </p><p> If you made him thrilled, you will WIN anywhere from 1 - 9 points, </p><p> but if you made him upset, you will LOSE anywhere from 1 - 9 points. </p>","","0","instructions","","","","","","","","","","",""
"learning-instructions","182","666116","0.0-11.0-1.0-0.5","6256","2","19","Female","approach_avoid_spark_v1","""event"",""trial"",""time""
""fullscreenenter"",""1"",""2591""
","
","
","""event"",""trial"",""time""
""fullscreenenter"",""1"",""2591""
","
","","","","","","398.5","<p> You will see how many points you won or lost in the center of the screen. </p><p> Here is what you would see if you won 5 points: </p><p style=""color:green;font-size:50px;font-weight:bolder"">5</p>","","0","instructions","","","","","","","","","","",""
"learning-instructions","183","669411","0.0-11.0-1.0-0.6","6256","2","19","Female","approach_avoid_spark_v1","""event"",""trial"",""time""
""fullscreenenter"",""1"",""2591""
","
","
","""event"",""trial"",""time""
""fullscreenenter"",""1"",""2591""
","
","","","","","","453.80000000004657","<p> And here is what you would see if you lost 3 points: </p><p style=""color:red;font-size:50px;font-weight:bolder"">-3</p>","","0","instructions","","","","","","","","","","",""
"learning-instructions","184","685175","0.0-11.0-1.0-0.7","6256","2","19","Female","approach_avoid_spark_v1","""event"",""trial"",""time""
""fullscreenenter"",""1"",""2591""
","
","
","""event"",""trial"",""time""
""fullscreenenter"",""1"",""2591""
","
","","","","","","429.30000000004657","<p> Some vehicles will make your friend REALLY thrilled or upset. </p><p> These vehicles will make you win or lose LOTS of points. </p><p> Other vehicles will only make him feel a little thrilled or upset. </p><p> These vehicles will make you win or lose small amounts of points. </p>","","0","instructions","","","","","","","","","","",""
"learning-instructions","185","697483","0.0-11.0-1.0-0.8","6256","2","19","Female","approach_avoid_spark_v1","""event"",""trial"",""time""
""fullscreenenter"",""1"",""2591""
","
","
","""event"",""trial"",""time""
""fullscreenenter"",""1"",""2591""
","
","","","","","","528.6999999999534","<p> If you choose to skip the ride, you will not win or lose any points. </p><p>  However, in the center of the screen, you will see the number of points you WOULD HAVE won or lost if you had taken your friend for a ride. </p>","","0","instructions","","","","","","","","","","",""
"learning-instructions","186","714968","0.0-11.0-1.0-0.9","6256","2","19","Female","approach_avoid_spark_v1","""event"",""trial"",""time""
""fullscreenenter"",""1"",""2591""
","
","
","""event"",""trial"",""time""
""fullscreenenter"",""1"",""2591""
","
","","","","","","1232.5","<p> Here is what you might see if you did not take your friend for a ride but he would have enjoyed it: </p><p style=""color:grey; font-size:50px; display: inline-block; border-spacing: 15px; border-width:3px; border-style:solid; border-color:red"">  &nbsp; 6 &nbsp; </p><p> Remember, in this case, you would not win or lose ANY points because you skipped the ride.  </p>","","0","instructions","","","","","","","","","","",""
"learning-instructions","187","723227","0.0-11.0-1.0-0.10","6256","2","19","Female","approach_avoid_spark_v1","""event"",""trial"",""time""
""fullscreenenter"",""1"",""2591""
","
","
","""event"",""trial"",""time""
""fullscreenenter"",""1"",""2591""
","
","","","","","","798.4000000001397","<p> Try to make the best choice for each vehicle because </p><p> at the end of the game, you will earn bonus money based on how many points you earned. </p>","","0","instructions","","","","","","","","","","",""
"learning-instructions","188","731835","0.0-11.0-1.0-0.11","6256","2","19","Female","approach_avoid_spark_v1","""event"",""trial"",""time""
""fullscreenenter"",""1"",""2591""
","
","
","""event"",""trial"",""time""
""fullscreenenter"",""1"",""2591""
","
","","","","","","414.5","<p> You will have 3 seconds to make each choice. Try to respond before time runs out! </p><p> You will lose 5 points each time you do not make a response. </p>","","0","instructions","","","","","","","","","","",""
"html-keyboard-response","189","732446","0.0-11.0-2.0-0.0","6256","2","19","Female","approach_avoid_spark_v1","""event"",""trial"",""time""
""fullscreenenter"",""1"",""2591""
","
","
","""event"",""trial"",""time""
""fullscreenenter"",""1"",""2591""
","
","","","","","","null","<div style=""font-size:60px;"">+</div>","null","","fixation","","","","","","","","","","",""
"aa-learning-trial","190","735458","0.0-11.0-2.0-1.0","6256","2","19","Female","approach_avoid_spark_v1","""event"",""trial"",""time""
""fullscreenenter"",""1"",""2591""
","
","
","""event"",""trial"",""time""
""fullscreenenter"",""1"",""2591""
","
","","","","","","810.1000000000931","images/boat8.png","","","learning","9","9","1","1","boat","vehicles","1","1","","good","[6]"
"html-keyboard-response","191","735967","0.0-11.0-2.0-0.1","6256","2","19","Female","approach_avoid_spark_v1","""event"",""trial"",""time""
""fullscreenenter"",""1"",""2591""
","
","
","""event"",""trial"",""time""
""fullscreenenter"",""1"",""2591""
","
","","","","","","null","<div style=""font-size:60px;"">+</div>","null","","fixation","","","","","","","","","","",""
"aa-learning-trial","192","738975","0.0-11.0-2.0-1.1","6256","2","19","Female","approach_avoid_spark_v1","""event"",""trial"",""time""
""fullscreenenter"",""1"",""2591""
","
","
","""event"",""trial"",""time""
""fullscreenenter"",""1"",""2591""
","
","","","","","","389.29999999981374","images/train3.png","","","learning","-3","-3","1","1","train","vehicles","1","1","","bad","[-4]"
"html-keyboard-response","193","739479","0.0-11.0-2.0-0.2","6256","2","19","Female","approach_avoid_spark_v1","""event"",""trial"",""time""
""fullscreenenter"",""1"",""2591""
","
","
","""event"",""trial"",""time""
""fullscreenenter"",""1"",""2591""
","
","","","","","","null","<div style=""font-size:60px;"">+</div>","null","","fixation","","","","","","","","","","",""
"aa-learning-trial","194","742485","0.0-11.0-2.0-1.2","6256","2","19","Female","approach_avoid_spark_v1","""event"",""trial"",""time""
""fullscreenenter"",""1"",""2591""
","
","
","""event"",""trial"",""time""
""fullscreenenter"",""1"",""2591""
","
","","","","","","636","images/truck2.png","","","learning","-1","0","0","0","truck","vehicles","1","1","","neutral","0"
"html-keyboard-response","195","742990","0.0-11.0-2.0-0.3","6256","2","19","Female","approach_avoid_spark_v1","""event"",""trial"",""time""
""fullscreenenter"",""1"",""2591""
","
","
","""event"",""trial"",""time""
""fullscreenenter"",""1"",""2591""
","
","","","","","","null","<div style=""font-size:60px;"">+</div>","null","","fixation","","","","","","","","","","",""
"aa-learning-trial","196","746001","0.0-11.0-2.0-1.3","6256","2","19","Female","approach_avoid_spark_v1","""event"",""trial"",""time""
""fullscreenenter"",""1"",""2591""
","
","
","""event"",""trial"",""time""
""fullscreenenter"",""1"",""2591""
","
","","","","","","538.6999999999534","images/boat3.png","","","learning","7","7","1","1","boat","vehicles","1","1","","good","[6]"
"html-keyboard-response","197","746511","0.0-11.0-2.0-0.4","6256","2","19","Female","approach_avoid_spark_v1","""event"",""trial"",""time""
""fullscreenenter"",""1"",""2591""
","
","
","""event"",""trial"",""time""
""fullscreenenter"",""1"",""2591""
","
","","","","","","null","<div style=""font-size:60px;"">+</div>","null","","fixation","","","","","","","","","","",""
"aa-learning-trial","198","749519","0.0-11.0-2.0-1.4","6256","2","19","Female","approach_avoid_spark_v1","""event"",""trial"",""time""
""fullscreenenter"",""1"",""2591""
","
","
","""event"",""trial"",""time""
""fullscreenenter"",""1"",""2591""
","
","","","","","","622.4000000001397","images/train1.png","","","learning","-3","0","0","0","train","vehicles","1","1","","bad","[-4]"
"html-keyboard-response","199","750022","0.0-11.0-2.0-0.5","6256","2","19","Female","approach_avoid_spark_v1","""event"",""trial"",""time""
""fullscreenenter"",""1"",""2591""
","
","
","""event"",""trial"",""time""
""fullscreenenter"",""1"",""2591""
","
","","","","","","null","<div style=""font-size:60px;"">+</div>","null","","fixation","","","","","","","","","","",""
"aa-learning-trial","200","753031","0.0-11.0-2.0-1.5","6256","2","19","Female","approach_avoid_spark_v1","""event"",""trial"",""time""
""fullscreenenter"",""1"",""2591""
","
","
","""event"",""trial"",""time""
""fullscreenenter"",""1"",""2591""
","
","","","","","","369.30000000004657","images/train4.png","","","learning","-6","-6","1","1","train","vehicles","1","1","","bad","[-4]"
"html-keyboard-response","201","753535","0.0-11.0-2.0-0.6","6256","2","19","Female","approach_avoid_spark_v1","""event"",""trial"",""time""
""fullscreenenter"",""1"",""2591""
","
","
","""event"",""trial"",""time""
""fullscreenenter"",""1"",""2591""
","
","","","","","","null","<div style=""font-size:60px;"">+</div>","null","","fixation","","","","","","","","","","",""
"aa-learning-trial","202","756543","0.0-11.0-2.0-1.6","6256","2","19","Female","approach_avoid_spark_v1","""event"",""trial"",""time""
""fullscreenenter"",""1"",""2591""
","
","
","""event"",""trial"",""time""
""fullscreenenter"",""1"",""2591""
","
","","","","","","768.6999999999534","images/train4.png","","","learning","-3","0","0","0","train","vehicles","1","1","","bad","[-4]"
"html-keyboard-response","203","757049","0.0-11.0-2.0-0.7","6256","2","19","Female","approach_avoid_spark_v1","""event"",""trial"",""time""
""fullscreenenter"",""1"",""2591""
","
","
","""event"",""trial"",""time""
""fullscreenenter"",""1"",""2591""
","
","","","","","","null","<div style=""font-size:60px;"">+</div>","null","","fixation","","","","","","","","","","",""
"aa-learning-trial","204","760055","0.0-11.0-2.0-1.7","6256","2","19","Female","approach_avoid_spark_v1","""event"",""trial"",""time""
""fullscreenenter"",""1"",""2591""
","
","
","""event"",""trial"",""time""
""fullscreenenter"",""1"",""2591""
","
","","","","","","875.7000000001863","images/train1.png","","","learning","-4","0","0","0","train","vehicles","1","1","","bad","[-4]"
"html-keyboard-response","205","760559","0.0-11.0-2.0-0.8","6256","2","19","Female","approach_avoid_spark_v1","""event"",""trial"",""time""
""fullscreenenter"",""1"",""2591""
","
","
","""event"",""trial"",""time""
""fullscreenenter"",""1"",""2591""
","
","","","","","","null","<div style=""font-size:60px;"">+</div>","null","","fixation","","","","","","","","","","",""
"aa-learning-trial","206","763568","0.0-11.0-2.0-1.8","6256","2","19","Female","approach_avoid_spark_v1","""event"",""trial"",""time""
""fullscreenenter"",""1"",""2591""
","
","
","""event"",""trial"",""time""
""fullscreenenter"",""1"",""2591""
","
","","","","","","599.3000000000466","images/boat3.png","","","learning","4","4","1","1","boat","vehicles","1","1","","good","[6]"
"html-keyboard-response","207","764071","0.0-11.0-2.0-0.9","6256","2","19","Female","approach_avoid_spark_v1","""event"",""trial"",""time""
""fullscreenenter"",""1"",""2591""
","
","
","""event"",""trial"",""time""
""fullscreenenter"",""1"",""2591""
","
","","","","","","null","<div style=""font-size:60px;"">+</div>","null","","fixation","","","","","","","","","","",""
"aa-learning-trial","208","767080","0.0-11.0-2.0-1.9","6256","2","19","Female","approach_avoid_spark_v1","""event"",""trial"",""time""
""fullscreenenter"",""1"",""2591""
","
","
","""event"",""trial"",""time""
""fullscreenenter"",""1"",""2591""
","
","","","","","","756.5","images/truck2.png","","","learning","[1]","1","1","1","truck","vehicles","1","1","","neutral","0"
"html-keyboard-response","209","767583","0.0-11.0-2.0-0.10","6256","2","19","Female","approach_avoid_spark_v1","""event"",""trial"",""time""
""fullscreenenter"",""1"",""2591""
","
","
","""event"",""trial"",""time""
""fullscreenenter"",""1"",""2591""
","
","","","","","","null","<div style=""font-size:60px;"">+</div>","null","","fixation","","","","","","","","","","",""
"aa-learning-trial","210","770591","0.0-11.0-2.0-1.10","6256","2","19","Female","approach_avoid_spark_v1","""event"",""trial"",""time""
""fullscreenenter"",""1"",""2591""
","
","
","""event"",""trial"",""time""
""fullscreenenter"",""1"",""2591""
","
","","","","","","544.8999999999069","images/boat2.png","","","learning","7","7","1","1","boat","vehicles","1","1","","good","[6]"
"html-keyboard-response","211","771095","0.0-11.0-2.0-0.11","6256","2","19","Female","approach_avoid_spark_v1","""event"",""trial"",""time""
""fullscreenenter"",""1"",""2591""
","
","
","""event"",""trial"",""time""
""fullscreenenter"",""1"",""2591""
","
","","","","","","null","<div style=""font-size:60px;"">+</div>","null","","fixation","","","","","","","","","","",""
"aa-learning-trial","212","774103","0.0-11.0-2.0-1.11","6256","2","19","Female","approach_avoid_spark_v1","""event"",""trial"",""time""
""fullscreenenter"",""1"",""2591""
","
","
","""event"",""trial"",""time""
""fullscreenenter"",""1"",""2591""
","
","","","","","","796.8999999999069","images/truck4.png","","","learning","-2","0","0","0","truck","vehicles","1","1","","neutral","0"
"html-keyboard-response","213","774607","0.0-11.0-2.0-0.12","6256","2","19","Female","approach_avoid_spark_v1","""event"",""trial"",""time""
""fullscreenenter"",""1"",""2591""
","
","
","""event"",""trial"",""time""
""fullscreenenter"",""1"",""2591""
","
","","","","","","null","<div style=""font-size:60px;"">+</div>","null","","fixation","","","","","","","","","","",""
"aa-learning-trial","214","777615","0.0-11.0-2.0-1.12","6256","2","19","Female","approach_avoid_spark_v1","""event"",""trial"",""time""
""fullscreenenter"",""1"",""2591""
","
","
","""event"",""trial"",""time""
""fullscreenenter"",""1"",""2591""
","
","","","","","","502.69999999995343","images/truck8.png","","","learning","[-1]","-1","1","1","truck","vehicles","1","1","","neutral","0"
"html-keyboard-response","215","778119","0.0-11.0-2.0-0.13","6256","2","19","Female","approach_avoid_spark_v1","""event"",""trial"",""time""
""fullscreenenter"",""1"",""2591""
","
","
","""event"",""trial"",""time""
""fullscreenenter"",""1"",""2591""
","
","","","","","","null","<div style=""font-size:60px;"">+</div>","null","","fixation","","","","","","","","","","",""
"aa-learning-trial","216","781127","0.0-11.0-2.0-1.13","6256","2","19","Female","approach_avoid_spark_v1","""event"",""trial"",""time""
""fullscreenenter"",""1"",""2591""
","
","
","""event"",""trial"",""time""
""fullscreenenter"",""1"",""2591""
","
","","","","","","530.8000000000466","images/boat8.png","","","learning","7","7","1","1","boat","vehicles","1","1","","good","[6]"
"html-keyboard-response","217","781631","0.0-11.0-2.0-0.14","6256","2","19","Female","approach_avoid_spark_v1","""event"",""trial"",""time""
""fullscreenenter"",""1"",""2591""
","
","
","""event"",""trial"",""time""
""fullscreenenter"",""1"",""2591""
","
","","","","","","null","<div style=""font-size:60px;"">+</div>","null","","fixation","","","","","","","","","","",""
"aa-learning-trial","218","784639","0.0-11.0-2.0-1.14","6256","2","19","Female","approach_avoid_spark_v1","""event"",""trial"",""time""
""fullscreenenter"",""1"",""2591""
","
","
","""event"",""trial"",""time""
""fullscreenenter"",""1"",""2591""
","
","","","","","","1099.3000000000466","images/truck8.png","","","learning","-3","0","0","0","truck","vehicles","1","1","","neutral","0"
"html-keyboard-response","219","785143","0.0-11.0-2.0-0.15","6256","2","19","Female","approach_avoid_spark_v1","""event"",""trial"",""time""
""fullscreenenter"",""1"",""2591""
","
","
","""event"",""trial"",""time""
""fullscreenenter"",""1"",""2591""
","
","","","","","","null","<div style=""font-size:60px;"">+</div>","null","","fixation","","","","","","","","","","",""
"aa-learning-trial","220","788151","0.0-11.0-2.0-1.15","6256","2","19","Female","approach_avoid_spark_v1","""event"",""trial"",""time""
""fullscreenenter"",""1"",""2591""
","
","
","""event"",""trial"",""time""
""fullscreenenter"",""1"",""2591""
","
","","","","","","1053.6999999999534","images/truck2.png","","","learning","1","0","0","0","truck","vehicles","1","1","","neutral","0"
"html-keyboard-response","221","788655","0.0-11.0-2.0-0.16","6256","2","19","Female","approach_avoid_spark_v1","""event"",""trial"",""time""
""fullscreenenter"",""1"",""2591""
","
","
","""event"",""trial"",""time""
""fullscreenenter"",""1"",""2591""
","
","","","","","","null","<div style=""font-size:60px;"">+</div>","null","","fixation","","","","","","","","","","",""
"aa-learning-trial","222","791664","0.0-11.0-2.0-1.16","6256","2","19","Female","approach_avoid_spark_v1","""event"",""trial"",""time""
""fullscreenenter"",""1"",""2591""
","
","
","""event"",""trial"",""time""
""fullscreenenter"",""1"",""2591""
","
","","","","","","829.8999999999069","images/train4.png","","","learning","-3","-3","1","1","train","vehicles","1","1","","bad","[-4]"
"html-keyboard-response","223","792167","0.0-11.0-2.0-0.17","6256","2","19","Female","approach_avoid_spark_v1","""event"",""trial"",""time""
""fullscreenenter"",""1"",""2591""
","
","
","""event"",""trial"",""time""
""fullscreenenter"",""1"",""2591""
","
","","","","","","null","<div style=""font-size:60px;"">+</div>","null","","fixation","","","","","","","","","","",""
"aa-learning-trial","224","795176","0.0-11.0-2.0-1.17","6256","2","19","Female","approach_avoid_spark_v1","""event"",""trial"",""time""
""fullscreenenter"",""1"",""2591""
","
","
","""event"",""trial"",""time""
""fullscreenenter"",""1"",""2591""
","
","","","","","","593.6999999999534","images/boat8.png","","","learning","7","7","1","1","boat","vehicles","1","1","","good","[6]"
"html-keyboard-response","225","795679","0.0-11.0-2.0-0.18","6256","2","19","Female","approach_avoid_spark_v1","""event"",""trial"",""time""
""fullscreenenter"",""1"",""2591""
","
","
","""event"",""trial"",""time""
""fullscreenenter"",""1"",""2591""
","
","","","","","","null","<div style=""font-size:60px;"">+</div>","null","","fixation","","","","","","","","","","",""
"aa-learning-trial","226","798688","0.0-11.0-2.0-1.18","6256","2","19","Female","approach_avoid_spark_v1","""event"",""trial"",""time""
""fullscreenenter"",""1"",""2591""
","
","
","""event"",""trial"",""time""
""fullscreenenter"",""1"",""2591""
","
","","","","","","663.1999999999534","images/boat6.png","","","learning","6","6","1","1","boat","vehicles","1","1","","good","[6]"
"html-keyboard-response","227","799191","0.0-11.0-2.0-0.19","6256","2","19","Female","approach_avoid_spark_v1","""event"",""trial"",""time""
""fullscreenenter"",""1"",""2591""
","
","
","""event"",""trial"",""time""
""fullscreenenter"",""1"",""2591""
","
","","","","","","null","<div style=""font-size:60px;"">+</div>","null","","fixation","","","","","","","","","","",""
"aa-learning-trial","228","802199","0.0-11.0-2.0-1.19","6256","2","19","Female","approach_avoid_spark_v1","""event"",""trial"",""time""
""fullscreenenter"",""1"",""2591""
","
","
","""event"",""trial"",""time""
""fullscreenenter"",""1"",""2591""
","
","","","","","","477.19999999995343","images/boat3.png","","","learning","3","3","1","1","boat","vehicles","1","1","","good","[6]"
"html-keyboard-response","229","802703","0.0-11.0-2.0-0.20","6256","2","19","Female","approach_avoid_spark_v1","""event"",""trial"",""time""
""fullscreenenter"",""1"",""2591""
","
","
","""event"",""trial"",""time""
""fullscreenenter"",""1"",""2591""
","
","","","","","","null","<div style=""font-size:60px;"">+</div>","null","","fixation","","","","","","","","","","",""
"aa-learning-trial","230","805712","0.0-11.0-2.0-1.20","6256","2","19","Female","approach_avoid_spark_v1","""event"",""trial"",""time""
""fullscreenenter"",""1"",""2591""
","
","
","""event"",""trial"",""time""
""fullscreenenter"",""1"",""2591""
","
","","","","","","755.8000000000466","images/truck1.png","","","learning","1","0","0","0","truck","vehicles","1","1","","neutral","0"
"html-keyboard-response","231","806215","0.0-11.0-2.0-0.21","6256","2","19","Female","approach_avoid_spark_v1","""event"",""trial"",""time""
""fullscreenenter"",""1"",""2591""
","
","
","""event"",""trial"",""time""
""fullscreenenter"",""1"",""2591""
","
","","","","","","null","<div style=""font-size:60px;"">+</div>","null","","fixation","","","","","","","","","","",""
"aa-learning-trial","232","809223","0.0-11.0-2.0-1.21","6256","2","19","Female","approach_avoid_spark_v1","""event"",""trial"",""time""
""fullscreenenter"",""1"",""2591""
","
","
","""event"",""trial"",""time""
""fullscreenenter"",""1"",""2591""
","
","","","","","","420.0999999998603","images/train1.png","","","learning","-4","-4","1","1","train","vehicles","1","1","","bad","[-4]"
"html-keyboard-response","233","809727","0.0-11.0-2.0-0.22","6256","2","19","Female","approach_avoid_spark_v1","""event"",""trial"",""time""
""fullscreenenter"",""1"",""2591""
","
","
","""event"",""trial"",""time""
""fullscreenenter"",""1"",""2591""
","
","","","","","","null","<div style=""font-size:60px;"">+</div>","null","","fixation","","","","","","","","","","",""
"aa-learning-trial","234","812735","0.0-11.0-2.0-1.22","6256","2","19","Female","approach_avoid_spark_v1","""event"",""trial"",""time""
""fullscreenenter"",""1"",""2591""
","
","
","""event"",""trial"",""time""
""fullscreenenter"",""1"",""2591""
","
","","","","","","554","images/boat3.png","","","learning","6","6","1","1","boat","vehicles","1","1","","good","[6]"
"html-keyboard-response","235","813239","0.0-11.0-2.0-0.23","6256","2","19","Female","approach_avoid_spark_v1","""event"",""trial"",""time""
""fullscreenenter"",""1"",""2591""
","
","
","""event"",""trial"",""time""
""fullscreenenter"",""1"",""2591""
","
","","","","","","null","<div style=""font-size:60px;"">+</div>","null","","fixation","","","","","","","","","","",""
"aa-learning-trial","236","816247","0.0-11.0-2.0-1.23","6256","2","19","Female","approach_avoid_spark_v1","""event"",""trial"",""time""
""fullscreenenter"",""1"",""2591""
","
","
","""event"",""trial"",""time""
