"trial_type","trial_index","time_elapsed","internal_node_id","subject_id","task_condition","age","gender","task_version","interactions","blur_events","focus_events","fullscreenenter_events","fullscreenexit_events","success","timeout","failed_images","failed_audio","failed_video","rt","stimulus","response","button_pressed","task_part","approach_reward","points","key_press","option_selected","stim_cat","task_block","block_condition","block_number","correct","cat_type","mean_cat_reward"
"pavlovia","0","5","0.0-0.0","3835","1","13","Female","approach_avoid_spark_v1","""event"",""trial"",""time""
""fullscreenenter"",""1"",""5525""
","
","
","""event"",""trial"",""time""
""fullscreenenter"",""1"",""5525""
","
","","","","","","","","","","","","","","","","","","","","",""
"fullscreen","1","6490","0.0-1.0","3835","1","13","Female","approach_avoid_spark_v1","""event"",""trial"",""time""
""fullscreenenter"",""1"",""5525""
","
","
","""event"",""trial"",""time""
""fullscreenenter"",""1"",""5525""
","
","true","","","","","","","","","","","","","","","","","","","",""
"preload","2","21908","0.0-2.0","3835","1","13","Female","approach_avoid_spark_v1","""event"",""trial"",""time""
""fullscreenenter"",""1"",""5525""
","
","
","""event"",""trial"",""time""
""fullscreenenter"",""1"",""5525""
","
","true","false","[]","[]","[]","","","","","","","","","","","","","","","",""
"audio-keyboard-response","3","32973","0.0-3.0","3835","1","13","Female","approach_avoid_spark_v1","""event"",""trial"",""time""
""fullscreenenter"",""1"",""5525""
","
","
","""event"",""trial"",""time""
""fullscreenenter"",""1"",""5525""
","
","","","","","","0","audio/beep_loop.wav"," ","","","","","","","","","","","","",""
"audio-button-response","4","35167","0.0-4.0","3835","1","13","Female","approach_avoid_spark_v1","""event"",""trial"",""time""
""fullscreenenter"",""1"",""5525""
","
","
","""event"",""trial"",""time""
""fullscreenenter"",""1"",""5525""
","
","","","","","","2155","audio/shark.wav","4","","","","","","","","","","","","",""
"audio-button-response","5","37745","0.0-5.0","3835","1","13","Female","approach_avoid_spark_v1","""event"",""trial"",""time""
""fullscreenenter"",""1"",""5525""
","
","
","""event"",""trial"",""time""
""fullscreenenter"",""1"",""5525""
","
","","","","","","1573","audio/turtle.wav","1","","","","","","","","","","","","",""
"preload","6","40321","0.0-6.0","3835","1","13","Female","approach_avoid_spark_v1","""event"",""trial"",""time""
""fullscreenenter"",""1"",""5525""
","
","
","""event"",""trial"",""time""
""fullscreenenter"",""1"",""5525""
","
","true","false","[]","[]","[]","","","","","","","","","","","","","","","",""
"html-keyboard-response","7","82939","0.0-7.0","3835","1","13","Female","approach_avoid_spark_v1","""event"",""trial"",""time""
""fullscreenenter"",""1"",""5525""
","
","
","""event"",""trial"",""time""
""fullscreenenter"",""1"",""5525""
","
","","","","","","42618","Welcome to the experiment. Press any key to begin and to advance the instructions."," ","","","","","","","","","","","","",""
"learning-instructions","8","92215","0.0-8.0-0.0-0.0","3835","1","13","Female","approach_avoid_spark_v1","""event"",""trial"",""time""
""fullscreenenter"",""1"",""5525""
","
","
","""event"",""trial"",""time""
""fullscreenenter"",""1"",""5525""
","
","","","","","","2316","<p> Welcome! Today you are going to play 6 different rounds of a decision-making game. </p><p> Use the mouse to click next to continue. </p>","","0","instructions","","","","","","","","","","",""
"learning-instructions","9","95821","0.0-8.0-0.0-0.1","3835","1","13","Female","approach_avoid_spark_v1","""event"",""trial"",""time""
""fullscreenenter"",""1"",""5525""
","
","
","""event"",""trial"",""time""
""fullscreenenter"",""1"",""5525""
","
","","","","","","877","<p> You will start with a practice round to learn the rules. </p>","","0","instructions","","","","","","","","","","",""
"learning-instructions","10","100054","0.0-8.0-0.0-0.2","3835","1","13","Female","approach_avoid_spark_v1","""event"",""trial"",""time""
""fullscreenenter"",""1"",""5525""
","
","
","""event"",""trial"",""time""
""fullscreenenter"",""1"",""5525""
","
","","","","","","787.9999999999854","<p> Your goal in this round is to give out sports equipment to kids. </p></div>","","0","instructions","","","","","","","","","","",""
"learning-instructions","11","108088","0.0-8.0-0.0-0.3","3835","1","13","Female","approach_avoid_spark_v1","""event"",""trial"",""time""
""fullscreenenter"",""1"",""5525""
","
","
","""event"",""trial"",""time""
""fullscreenenter"",""1"",""5525""
","
","","","","","","491","<p> The kids only like some of the equipment.  </p><p> On each turn, you will see a piece of sports equipment.   </p><p> You need to decide whether to give it to the kids or not.  </p>","","0","instructions","","","","","","","","","","",""
"learning-instructions","12","113361","0.0-8.0-0.0-0.4","3835","1","13","Female","approach_avoid_spark_v1","""event"",""trial"",""time""
""fullscreenenter"",""1"",""5525""
","
","
","""event"",""trial"",""time""
""fullscreenenter"",""1"",""5525""
","
","","","","","","523","<p> You can give them the equipment by pressing 1 and choose not to give it to them by pressing 0. </p><br><div class=""choice-instructions-grid""> <div class=""choice-option""><img src=""images/approach.png"" class=""choice-option-img"" stage=""instructions"" position=""0"" ><div class=""choice-option-text""> Press ""1."" </div></div><div class=""choice-option""><img src=""images/avoid.png"" class=""choice-option-img"" stage=""instructions"" position=""1"" ><div class=""choice-option-text""> Press ""0."" </div></div>","","0","instructions","","","","","","","","","","",""
"learning-instructions","13","121033","0.0-8.0-0.0-0.5","3835","1","13","Female","approach_avoid_spark_v1","""event"",""trial"",""time""
""fullscreenenter"",""1"",""5525""
","
","
","""event"",""trial"",""time""
""fullscreenenter"",""1"",""5525""
","
","","","","","","290","<p> If you give them a piece of equipment they like, they will be happy! </p><p> But if you give them a piece of equipment they do not like, they will be sad. </p>","","0","instructions","","","","","","","","","","",""
"learning-instructions","14","132238","0.0-8.0-0.0-0.6","3835","1","13","Female","approach_avoid_spark_v1","""event"",""trial"",""time""
""fullscreenenter"",""1"",""5525""
","
","
","""event"",""trial"",""time""
""fullscreenenter"",""1"",""5525""
","
","","","","","","700","<p> You will earn points based on how you make kids feel. </p><p> If you make them happy, you will WIN anywhere from 1 - 9 points, </p><p> but if you make them sad, you will LOSE anywhere from 1 - 9 points. </p>","","0","instructions","","","","","","","","","","",""
"learning-instructions","15","142116","0.0-8.0-0.0-0.7","3835","1","13","Female","approach_avoid_spark_v1","""event"",""trial"",""time""
""fullscreenenter"",""1"",""5525""
","
","
","""event"",""trial"",""time""
""fullscreenenter"",""1"",""5525""
","
","","","","","","322","<p> You will see how many points you won or lost in the center of the screen. </p><p> Here is what you would see if you won 6 points: </p><p style=""color:green;font-size:50px;font-weight:bolder"">6</p><p style=""color:green"">The text is GREEN because you WON points.</p>","","0","instructions","","","","","","","","","","",""
"learning-instructions","16","147916","0.0-8.0-0.0-0.8","3835","1","13","Female","approach_avoid_spark_v1","""event"",""trial"",""time""
""fullscreenenter"",""1"",""5525""
","
","
","""event"",""trial"",""time""
""fullscreenenter"",""1"",""5525""
","
","","","","","","294.9999999999709","<p> And here is what you would see if you lost 4 points: </p><p style=""color:red;font-size:50px;font-weight:bolder"">-4</p><p style=""color:red"">The text is RED because you LOST points. </p>","","0","instructions","","","","","","","","","","",""
"learning-instructions","17","162814","0.0-8.0-0.0-0.9","3835","1","13","Female","approach_avoid_spark_v1","""event"",""trial"",""time""
""fullscreenenter"",""1"",""5525""
","
","
","""event"",""trial"",""time""
""fullscreenenter"",""1"",""5525""
","
","","","","","","189","<p> Some of the equipment will make the kids VERY happy or sad. </p><p> These pieces of equipment will make you win or lose LOTS of points. </p><p> Other pieces of equipment will only make the kids a little happy or sad. </p><p> These pieces of equipment will make you win or lose small amounts of points. </p>","","0","instructions","","","","","","","","","","",""
"learning-instructions","18","173918","0.0-8.0-0.0-0.10","3835","1","13","Female","approach_avoid_spark_v1","""event"",""trial"",""time""
""fullscreenenter"",""1"",""5525""
","
","
","""event"",""trial"",""time""
""fullscreenenter"",""1"",""5525""
","
","","","","","","482","<p> If you choose not to give them the equipment, you will not win or lose any points. </p><p>  However, in the center of the screen, you will see the number of points you WOULD HAVE won or lost if you had given them the equipment. </p>","","0","instructions","","","","","","","","","","",""
"learning-instructions","19","195942","0.0-8.0-0.0-0.11","3835","1","13","Female","approach_avoid_spark_v1","""event"",""trial"",""time""
""fullscreenenter"",""1"",""5525""
","
","
","""event"",""trial"",""time""
""fullscreenenter"",""1"",""5525""
","
","","","","","","502","<p> Here is what you might see if you did not give the equipment to the kids but it would have made them happy: </p><p style=""color:grey; font-size:50px; display: inline-block; border-spacing: 15px; border-width:3px; border-style:solid; border-color:red"">  &nbsp; 7 &nbsp; </p><p> Remember, in this case, you would not win or lose ANY points because you did not give them the equipment.  </p><p style=""color:grey"">The text is GREY because you earned ZERO points. </p><p style=""color:red"">However, choosing to give the kids the equipment would have made you win points. The box around the text is RED because you chose the worse option. </p>","","0","instructions","","","","","","","","","","",""
"learning-instructions","20","217647","0.0-8.0-0.0-0.12","3835","1","13","Female","approach_avoid_spark_v1","""event"",""trial"",""time""
""fullscreenenter"",""1"",""5525""
","
","
","""event"",""trial"",""time""
""fullscreenenter"",""1"",""5525""
","
","","","","","","633","<p> Here is what you might see if you did not give the equipment to the kids but it would have made them sad: </p><p style=""color:grey;font-size:50px; display: inline-block; border-spacing: 15px; border-width:3px; border-style:solid; border-color:green"">  &nbsp; -8 &nbsp; </p><p> Remember, in this case, you would not win or lose ANY points because you did not give them the equipment.  </p><p style=""color:grey"">The text is GREY because you earned ZERO points. </p><p  style=""color:green""> Choosing to give the kids the equipment would have made you lose points. The box around the text is GREEN because you chose the better option.</p>","","0","instructions","","","","","","","","","","",""
"learning-instructions","21","226692","0.0-8.0-0.0-0.13","3835","1","13","Female","approach_avoid_spark_v1","""event"",""trial"",""time""
""fullscreenenter"",""1"",""5525""
","
","
","""event"",""trial"",""time""
""fullscreenenter"",""1"",""5525""
","
","","","","","","261","<p> You will have 3 seconds to make each choice. Try to respond before time runs out! </p><p> You will lose 5 points each time you do not make a response. </p>","","0","instructions","","","","","","","","","","",""
"learning-instructions","22","233908","0.0-8.0-0.0-0.14","3835","1","13","Female","approach_avoid_spark_v1","""event"",""trial"",""time""
""fullscreenenter"",""1"",""5525""
","
","
","""event"",""trial"",""time""
""fullscreenenter"",""1"",""5525""
","
","","","","","","1806","<p> This is just a practice round, but in the real game, your bonus payment will depend on your total number of points.","","0","instructions","","","","","","","","","","",""
"learning-instructions","23","240475","0.0-8.0-0.0-0.15","3835","1","13","Female","approach_avoid_spark_v1","""event"",""trial"",""time""
""fullscreenenter"",""1"",""5525""
","
","
","""event"",""trial"",""time""
""fullscreenenter"",""1"",""5525""
","
","","","","","","807","<p> Remember, you can give them the equipment by pressing 1 and choose not to give it to them by pressing 0. </p><br><div class=""choice-instructions-grid""> <div class=""choice-option""><img src=""images/approach.png"" class=""choice-option-img"" stage=""instructions"" position=""0"" ><div class=""choice-option-text""> Press ""1."" </div></div><div class=""choice-option""><img src=""images/avoid.png"" class=""choice-option-img"" stage=""instructions"" position=""1"" ><div class=""choice-option-text""> Press ""0."" </div></div>","","0","instructions","","","","","","","","","","",""
"html-button-response","24","244211","0.0-8.0-1.0","3835","1","13","Female","approach_avoid_spark_v1","""event"",""trial"",""time""
""fullscreenenter"",""1"",""5525""
","
","
","""event"",""trial"",""time""
""fullscreenenter"",""1"",""5525""
","
","","","","","","3632","<p> Ready to practice? </p>","0","","","","","","","","","","","","",""
"html-keyboard-response","25","244815","0.0-8.0-2.0-0.0","3835","1","13","Female","approach_avoid_spark_v1","""event"",""trial"",""time""
""fullscreenenter"",""1"",""5525""
","
","
","""event"",""trial"",""time""
""fullscreenenter"",""1"",""5525""
","
","","","","","","null","<div style=""font-size:60px;"">+</div>","null","","fixation","","","","","","","","","","",""
"aa-learning-trial","26","247820","0.0-8.0-2.0-1.0","3835","1","13","Female","approach_avoid_spark_v1","""event"",""trial"",""time""
""fullscreenenter"",""1"",""5525""
","
","
","""event"",""trial"",""time""
""fullscreenenter"",""1"",""5525""
","
","","","","","","1631","images/ball2.png","","","learning","5","5","1","1","practice","practice","practice","-1","","",""
"html-keyboard-response","27","248322","0.0-8.0-2.0-0.1","3835","1","13","Female","approach_avoid_spark_v1","""event"",""trial"",""time""
""fullscreenenter"",""1"",""5525""
","
","
","""event"",""trial"",""time""
""fullscreenenter"",""1"",""5525""
","
","","","","","","null","<div style=""font-size:60px;"">+</div>","null","","fixation","","","","","","","","","","",""
"aa-learning-trial","28","251327","0.0-8.0-2.0-1.1","3835","1","13","Female","approach_avoid_spark_v1","""event"",""trial"",""time""
""fullscreenenter"",""1"",""5525""
","
","
","""event"",""trial"",""time""
""fullscreenenter"",""1"",""5525""
","
","","","","","","2186.000000000029","images/ball1.png","","","learning","2","2","1","1","practice","practice","practice","-1","","",""
"html-keyboard-response","29","251830","0.0-8.0-2.0-0.2","3835","1","13","Female","approach_avoid_spark_v1","""event"",""trial"",""time""
""fullscreenenter"",""1"",""5525""
","
","
","""event"",""trial"",""time""
""fullscreenenter"",""1"",""5525""
","
","","","","","","null","<div style=""font-size:60px;"">+</div>","null","","fixation","","","","","","","","","","",""
"aa-learning-trial","30","254833","0.0-8.0-2.0-1.2","3835","1","13","Female","approach_avoid_spark_v1","""event"",""trial"",""time""
""fullscreenenter"",""1"",""5525""
","
","
","""event"",""trial"",""time""
""fullscreenenter"",""1"",""5525""
","
","","","","","","988","images/racket2.png","","","learning","-7","-7","1","1","practice","practice","practice","-1","","",""
"html-keyboard-response","31","255336","0.0-8.0-2.0-0.3","3835","1","13","Female","approach_avoid_spark_v1","""event"",""trial"",""time""
""fullscreenenter"",""1"",""5525""
","
","
","""event"",""trial"",""time""
""fullscreenenter"",""1"",""5525""
","
","","","","","","null","<div style=""font-size:60px;"">+</div>","null","","fixation","","","","","","","","","","",""
"aa-learning-trial","32","258339","0.0-8.0-2.0-1.3","3835","1","13","Female","approach_avoid_spark_v1","""event"",""trial"",""time""
""fullscreenenter"",""1"",""5525""
","
","
","""event"",""trial"",""time""
""fullscreenenter"",""1"",""5525""
","
","","","","","","738.9999999999709","images/racket2.png","","","learning","-3","0","0","0","practice","practice","practice","-1","","",""
"html-keyboard-response","33","258843","0.0-8.0-2.0-0.4","3835","1","13","Female","approach_avoid_spark_v1","""event"",""trial"",""time""
""fullscreenenter"",""1"",""5525""
","
","
","""event"",""trial"",""time""
""fullscreenenter"",""1"",""5525""
","
","","","","","","null","<div style=""font-size:60px;"">+</div>","null","","fixation","","","","","","","","","","",""
"aa-learning-trial","34","261846","0.0-8.0-2.0-1.4","3835","1","13","Female","approach_avoid_spark_v1","""event"",""trial"",""time""
""fullscreenenter"",""1"",""5525""
","
","
","""event"",""trial"",""time""
""fullscreenenter"",""1"",""5525""
","
","","","","","","745","images/ball2.png","","","learning","-6","-6","1","1","practice","practice","practice","-1","","",""
"html-keyboard-response","35","262348","0.0-8.0-2.0-0.5","3835","1","13","Female","approach_avoid_spark_v1","""event"",""trial"",""time""
""fullscreenenter"",""1"",""5525""
","
","
","""event"",""trial"",""time""
""fullscreenenter"",""1"",""5525""
","
","","","","","","null","<div style=""font-size:60px;"">+</div>","null","","fixation","","","","","","","","","","",""
"aa-learning-trial","36","265352","0.0-8.0-2.0-1.5","3835","1","13","Female","approach_avoid_spark_v1","""event"",""trial"",""time""
""fullscreenenter"",""1"",""5525""
","
","
","""event"",""trial"",""time""
""fullscreenenter"",""1"",""5525""
","
","","","","","","1059","images/ball3.png","","","learning","-7","0","0","0","practice","practice","practice","-1","","",""
"html-keyboard-response","37","265854","0.0-8.0-2.0-0.6","3835","1","13","Female","approach_avoid_spark_v1","""event"",""trial"",""time""
""fullscreenenter"",""1"",""5525""
","
","
","""event"",""trial"",""time""
""fullscreenenter"",""1"",""5525""
","
","","","","","","null","<div style=""font-size:60px;"">+</div>","null","","fixation","","","","","","","","","","",""
"aa-learning-trial","38","268861","0.0-8.0-2.0-1.6","3835","1","13","Female","approach_avoid_spark_v1","""event"",""trial"",""time""
""fullscreenenter"",""1"",""5525""
","
","
","""event"",""trial"",""time""
""fullscreenenter"",""1"",""5525""
","
","","","","","","887","images/ball1.png","","","learning","-9","0","0","0","practice","practice","practice","-1","","",""
"html-keyboard-response","39","269365","0.0-8.0-2.0-0.7","3835","1","13","Female","approach_avoid_spark_v1","""event"",""trial"",""time""
""fullscreenenter"",""1"",""5525""
","
","
","""event"",""trial"",""time""
""fullscreenenter"",""1"",""5525""
","
","","","","","","null","<div style=""font-size:60px;"">+</div>","null","","fixation","","","","","","","","","","",""
"aa-learning-trial","40","272369","0.0-8.0-2.0-1.7","3835","1","13","Female","approach_avoid_spark_v1","""event"",""trial"",""time""
""fullscreenenter"",""1"",""5525""
","
","
","""event"",""trial"",""time""
""fullscreenenter"",""1"",""5525""
","
","","","","","","2301.000000000058","images/racket1.png","","","learning","-9","-9","1","1","practice","practice","practice","-1","","",""
"html-keyboard-response","41","272872","0.0-8.0-2.0-0.8","3835","1","13","Female","approach_avoid_spark_v1","""event"",""trial"",""time""
""fullscreenenter"",""1"",""5525""
","
","
","""event"",""trial"",""time""
""fullscreenenter"",""1"",""5525""
","
","","","","","","null","<div style=""font-size:60px;"">+</div>","null","","fixation","","","","","","","","","","",""
"aa-learning-trial","42","275875","0.0-8.0-2.0-1.8","3835","1","13","Female","approach_avoid_spark_v1","""event"",""trial"",""time""
""fullscreenenter"",""1"",""5525""
","
","
","""event"",""trial"",""time""
""fullscreenenter"",""1"",""5525""
","
","","","","","","2287","images/racket4.png","","","learning","2","2","1","1","practice","practice","practice","-1","","",""
"html-keyboard-response","43","276378","0.0-8.0-2.0-0.9","3835","1","13","Female","approach_avoid_spark_v1","""event"",""trial"",""time""
""fullscreenenter"",""1"",""5525""
","
","
","""event"",""trial"",""time""
""fullscreenenter"",""1"",""5525""
","
","","","","","","null","<div style=""font-size:60px;"">+</div>","null","","fixation","","","","","","","","","","",""
"aa-learning-trial","44","279381","0.0-8.0-2.0-1.9","3835","1","13","Female","approach_avoid_spark_v1","""event"",""trial"",""time""
""fullscreenenter"",""1"",""5525""
","
","
","""event"",""trial"",""time""
""fullscreenenter"",""1"",""5525""
","
","","","","","","1005","images/racket1.png","","","learning","6","6","1","1","practice","practice","practice","-1","","",""
"html-keyboard-response","45","279882","0.0-8.0-2.0-0.10","3835","1","13","Female","approach_avoid_spark_v1","""event"",""trial"",""time""
""fullscreenenter"",""1"",""5525""
","
","
","""event"",""trial"",""time""
""fullscreenenter"",""1"",""5525""
","
","","","","","","null","<div style=""font-size:60px;"">+</div>","null","","fixation","","","","","","","","","","",""
"aa-learning-trial","46","282885","0.0-8.0-2.0-1.10","3835","1","13","Female","approach_avoid_spark_v1","""event"",""trial"",""time""
""fullscreenenter"",""1"",""5525""
","
","
","""event"",""trial"",""time""
""fullscreenenter"",""1"",""5525""
","
","","","","","","775","images/ball2.png","","","learning","6","6","1","1","practice","practice","practice","-1","","",""
"html-keyboard-response","47","283388","0.0-8.0-2.0-0.11","3835","1","13","Female","approach_avoid_spark_v1","""event"",""trial"",""time""
""fullscreenenter"",""1"",""5525""
","
","
","""event"",""trial"",""time""
""fullscreenenter"",""1"",""5525""
","
","","","","","","null","<div style=""font-size:60px;"">+</div>","null","","fixation","","","","","","","","","","",""
"aa-learning-trial","48","286391","0.0-8.0-2.0-1.11","3835","1","13","Female","approach_avoid_spark_v1","""event"",""trial"",""time""
""fullscreenenter"",""1"",""5525""
","
","
","""event"",""trial"",""time""
""fullscreenenter"",""1"",""5525""
","
","","","","","","826","images/racket3.png","","","learning","4","4","1","1","practice","practice","practice","-1","","",""
"html-button-response","49","289330","0.0-8.0-3.0","3835","1","13","Female","approach_avoid_spark_v1","""event"",""trial"",""time""
""fullscreenenter"",""1"",""5525""
","
","
","""event"",""trial"",""time""
""fullscreenenter"",""1"",""5525""
","
","","","","","","2935.999999999942","<p> You earned 3 points in the practice round! </p>","0","","break","","","","","","","","","","",""
"learning-instructions","50","296827","0.0-8.0-4.0-0.0","3835","1","13","Female","approach_avoid_spark_v1","""event"",""trial"",""time""
""fullscreenenter"",""1"",""5525""
","
","
","""event"",""trial"",""time""
""fullscreenenter"",""1"",""5525""
","
","","","","","","1538","<p> It's almost time to start the real game. </p><p> Before you start, we're going to ask you a few questions about how the game works. </p>","","0","instructions","","","","","","","","","","",""
"preload","51","297864","0.0-8.0-5.0","3835","1","13","Female","approach_avoid_spark_v1","""event"",""trial"",""time""
""fullscreenenter"",""1"",""5525""
","
","
","""event"",""trial"",""time""
""fullscreenenter"",""1"",""5525""
","
","true","false","[]","[]","[]","","","","","","","","","","","","","","","",""
"comp-q","52","304370","0.0-8.0-6.0-0.0","3835","1","13","Female","approach_avoid_spark_v1","""event"",""trial"",""time""
""fullscreenenter"",""1"",""5525""
","
","
","""event"",""trial"",""time""
""fullscreenenter"",""1"",""5525""
","
","","","","","","1509.0000000000582","<p> <b> True or False? </b> </p><p> If you see a number in GREY, that means you earned that many points. </p>","","1","comp_question","","","","","","","","","true","",""
"comp-q","53","313775","0.0-8.0-6.0-1.0","3835","1","13","Female","approach_avoid_spark_v1","""event"",""trial"",""time""
""fullscreenenter"",""1"",""5525""
","
","
","""event"",""trial"",""time""
""fullscreenenter"",""1"",""5525""
","
","","","","","","1045","<p><b> That's right! </b> If you see a grey number, it means you earned ZERO points. <br> The grey numbers show the points you WOULD HAVE earned if you had made the other choice. </p>","","0","comp_answer","","","","","","","","","","",""
"comp-q","54","319117","0.0-8.0-7.0-0.0","3835","1","13","Female","approach_avoid_spark_v1","""event"",""trial"",""time""
""fullscreenenter"",""1"",""5525""
","
","
","""event"",""trial"",""time""
""fullscreenenter"",""1"",""5525""
","
","","","","","","651.9999999999418","<p> <b> True or False? </b> </p><p> You will have as much time as you want to make each choice. </p>","","1","comp_question","","","","","","","","","true","",""
"comp-q","55","324737","0.0-8.0-7.0-1.0","3835","1","13","Female","approach_avoid_spark_v1","""event"",""trial"",""time""
""fullscreenenter"",""1"",""5525""
","
","
","""event"",""trial"",""time""
""fullscreenenter"",""1"",""5525""
","
","","","","","","1581","<p> <b> That's right! </b> You will only have 3 seconds to make each choice. </p>","","0","comp_answer","","","","","","","","","","",""
"comp-q","56","329920","0.0-8.0-8.0-0.0","3835","1","13","Female","approach_avoid_spark_v1","""event"",""trial"",""time""
""fullscreenenter"",""1"",""5525""
","
","
","""event"",""trial"",""time""
""fullscreenenter"",""1"",""5525""
","
","","","","","","525.9999999999418","<p> <b> True or False? </b> </p><p> You should use the '1' and '0' keys to make your choices. </p>","","0","comp_question","","","","","","","","","true","",""
"comp-q","57","335608","0.0-8.0-8.0-1.0","3835","1","13","Female","approach_avoid_spark_v1","""event"",""trial"",""time""
""fullscreenenter"",""1"",""5525""
","
","
","""event"",""trial"",""time""
""fullscreenenter"",""1"",""5525""
","
","","","","","","1080","<p> <b> That's right! </b> You should use the '1' and '0' keys to make each choice. </p>","","0","comp_answer","","","","","","","","","","",""
"learning-instructions","58","344428","0.0-8.0-9.0-0.0","3835","1","13","Female","approach_avoid_spark_v1","""event"",""trial"",""time""
""fullscreenenter"",""1"",""5525""
","
","
","""event"",""trial"",""time""
""fullscreenenter"",""1"",""5525""
","
","","","","","","2552","<p> It's now time to start the real game. </p>Do your best, because the points you earn in the next rounds will influence your bonus payment. </p>","","0","instructions","","","","","","","","","","",""
"preload","59","344541","0.0-9.0-0.0","3835","1","13","Female","approach_avoid_spark_v1","""event"",""trial"",""time""
""fullscreenenter"",""1"",""5525""
","
","
","""event"",""trial"",""time""
""fullscreenenter"",""1"",""5525""
","
","true","false","[]","[]","[]","","","","","","","","","","","","","","","",""
"learning-instructions","60","351384","0.0-9.0-1.0-0.0","3835","1","13","Female","approach_avoid_spark_v1","""event"",""trial"",""time""
""fullscreenenter"",""1"",""5525""
","
","
","""event"",""trial"",""time""
""fullscreenenter"",""1"",""5525""
","
","","","","","","1930.9999999999418","<p> Your goal in this round is to take your friend for rides in different vehicles. </p></div>","","0","instructions","","","","","","","","","","",""
"learning-instructions","61","362854","0.0-9.0-1.0-0.1","3835","1","13","Female","approach_avoid_spark_v1","""event"",""trial"",""time""
""fullscreenenter"",""1"",""5525""
","
","
","""event"",""trial"",""time""
""fullscreenenter"",""1"",""5525""
","
","","","","","","1725","<p> Your friend enjoys riding in some vehicles but not in others.  </p><p> On each turn, you will see a vehicle.   </p><p> You need to decide whether to take your friend for a ride or not.  </p>","","0","instructions","","","","","","","","","","",""
"learning-instructions","62","369974","0.0-9.0-1.0-0.2","3835","1","13","Female","approach_avoid_spark_v1","""event"",""trial"",""time""
""fullscreenenter"",""1"",""5525""
","
","
","""event"",""trial"",""time""
""fullscreenenter"",""1"",""5525""
","
","","","","","","759","<p> You can take your friend for a ride in the vehicle by pressing 1 and skip the ride by pressing 0. </p><br><div class=""choice-instructions-grid""> <div class=""choice-option""><img src=""images/approach.png"" class=""choice-option-img"" stage=""instructions"" position=""0"" ><div class=""choice-option-text""> Press ""1."" </div></div><div class=""choice-option""><img src=""images/avoid.png"" class=""choice-option-img"" stage=""instructions"" position=""1"" ><div class=""choice-option-text""> Press ""0."" </div></div>","","0","instructions","","","","","","","","","","",""
"learning-instructions","63","379126","0.0-9.0-1.0-0.3","3835","1","13","Female","approach_avoid_spark_v1","""event"",""trial"",""time""
""fullscreenenter"",""1"",""5525""
","
","
","""event"",""trial"",""time""
""fullscreenenter"",""1"",""5525""
","
","","","","","","556","<p> If you take them for a ride in a vehicle they like, they will be thrilled! </p><p> But if you take them for a ride in a vehicle they do not like, they will be upset. </p>","","0","instructions","","","","","","","","","","",""
"learning-instructions","64","391130","0.0-9.0-1.0-0.4","3835","1","13","Female","approach_avoid_spark_v1","""event"",""trial"",""time""
""fullscreenenter"",""1"",""5525""
","
","
","""event"",""trial"",""time""
""fullscreenenter"",""1"",""5525""
","
","","","","","","459","<p> You will earn points based on how you made your friend feel. </p><p> If you made him thrilled, you will WIN anywhere from 1 - 9 points, </p><p> but if you made him upset, you will LOSE anywhere from 1 - 9 points. </p>","","0","instructions","","","","","","","","","","",""
"learning-instructions","65","399948","0.0-9.0-1.0-0.5","3835","1","13","Female","approach_avoid_spark_v1","""event"",""trial"",""time""
""fullscreenenter"",""1"",""5525""
","
","
","""event"",""trial"",""time""
""fullscreenenter"",""1"",""5525""
","
","","","","","","1560","<p> You will see how many points you won or lost in the center of the screen. </p><p> Here is what you would see if you won 5 points: </p><p style=""color:green;font-size:50px;font-weight:bolder"">5</p>","","0","instructions","","","","","","","","","","",""
"learning-instructions","66","405823","0.0-9.0-1.0-0.6","3835","1","13","Female","approach_avoid_spark_v1","""event"",""trial"",""time""
""fullscreenenter"",""1"",""5525""
","
","
","""event"",""trial"",""time""
""fullscreenenter"",""1"",""5525""
","
","","","","","","2053","<p> And here is what you would see if you lost 3 points: </p><p style=""color:red;font-size:50px;font-weight:bolder"">-3</p>","","0","instructions","","","","","","","","","","",""
"learning-instructions","67","424217","0.0-9.0-1.0-0.7","3835","1","13","Female","approach_avoid_spark_v1","""event"",""trial"",""time""
""fullscreenenter"",""1"",""5525""
","
","
","""event"",""trial"",""time""
""fullscreenenter"",""1"",""5525""
","
","","","","","","1164","<p> Some vehicles will make your friend REALLY thrilled or upset. </p><p> These vehicles will make you win or lose LOTS of points. </p><p> Other vehicles will only make him feel a little thrilled or upset. </p><p> These vehicles will make you win or lose small amounts of points. </p>","","0","instructions","","","","","","","","","","",""
"learning-instructions","68","443929","0.0-9.0-1.0-0.8","3835","1","13","Female","approach_avoid_spark_v1","""event"",""trial"",""time""
""fullscreenenter"",""1"",""5525""
","
","
","""event"",""trial"",""time""
""fullscreenenter"",""1"",""5525""
","
","","","","","","7057","<p> If you choose to skip the ride, you will not win or lose any points. </p><p>  However, in the center of the screen, you will see the number of points you WOULD HAVE won or lost if you had taken your friend for a ride. </p>","","0","instructions","","","","","","","","","","",""
"learning-instructions","69","551594","0.0-9.0-1.0-0.9","3835","1","13","Female","approach_avoid_spark_v1","""event"",""trial"",""time""
""fullscreenenter"",""1"",""5525""
","
","
","""event"",""trial"",""time""
""fullscreenenter"",""1"",""5525""
","
","","","","","","96316","<p> Here is what you might see if you did not take your friend for a ride but he would have enjoyed it: </p><p style=""color:grey; font-size:50px; display: inline-block; border-spacing: 15px; border-width:3px; border-style:solid; border-color:red"">  &nbsp; 6 &nbsp; </p><p> Remember, in this case, you would not win or lose ANY points because you skipped the ride.  </p>","","0","instructions","","","","","","","","","","",""
"learning-instructions","70","562811","0.0-9.0-1.0-0.10","3835","1","13","Female","approach_avoid_spark_v1","""event"",""trial"",""time""
""fullscreenenter"",""1"",""5525""
","
","
","""event"",""trial"",""time""
""fullscreenenter"",""1"",""5525""
","
","","","","","","3520","<p> Try to make the best choice for each vehicle because </p><p> at the end of the game, you will earn bonus money based on how many points you earned. </p>","","0","instructions","","","","","","","","","","",""
"learning-instructions","71","593058","0.0-9.0-1.0-0.11","3835","1","13","Female","approach_avoid_spark_v1","""event"",""trial"",""time""
""fullscreenenter"",""1"",""5525""
","
","
","""event"",""trial"",""time""
""fullscreenenter"",""1"",""5525""
","
","","","","","","22062","<p> You will have 3 seconds to make each choice. Try to respond before time runs out! </p><p> You will lose 5 points each time you do not make a response. </p>","","0","instructions","","","","","","","","","","",""
"html-keyboard-response","72","593663","0.0-9.0-2.0-0.0","3835","1","13","Female","approach_avoid_spark_v1","""event"",""trial"",""time""
""fullscreenenter"",""1"",""5525""
","
","
","""event"",""trial"",""time""
""fullscreenenter"",""1"",""5525""
","
","","","","","","null","<div style=""font-size:60px;"">+</div>","null","","fixation","","","","","","","","","","",""
"aa-learning-trial","73","596667","0.0-9.0-2.0-1.0","3835","1","13","Female","approach_avoid_spark_v1","""event"",""trial"",""time""
""fullscreenenter"",""1"",""5525""
","
","
","""event"",""trial"",""time""
""fullscreenenter"",""1"",""5525""
","
","","","","","","null","images/boat2.png","","","learning","7","-5","","null","boat","vehicles","1","0","","good","[6]"
"html-keyboard-response","74","597170","0.0-9.0-2.0-0.1","3835","1","13","Female","approach_avoid_spark_v1","""event"",""trial"",""time""
""fullscreenenter"",""1"",""5525""
","
","
","""event"",""trial"",""time""
""fullscreenenter"",""1"",""5525""
","
","","","","","","null","<div style=""font-size:60px;"">+</div>","null","","fixation","","","","","","","","","","",""
"aa-learning-trial","75","600173","0.0-9.0-2.0-1.1","3835","1","13","Female","approach_avoid_spark_v1","""event"",""trial"",""time""
""fullscreenenter"",""1"",""5525""
","
","
","""event"",""trial"",""time""
""fullscreenenter"",""1"",""5525""
","
","","","","","","2070.9999999998836","images/train1.png","","","learning","2","2","1","1","train","vehicles","1","0","","bad","[-3]"
"html-keyboard-response","76","600675","0.0-9.0-2.0-0.2","3835","1","13","Female","approach_avoid_spark_v1","""event"",""trial"",""time""
""fullscreenenter"",""1"",""5525""
","
","
","""event"",""trial"",""time""
""fullscreenenter"",""1"",""5525""
","
","","","","","","null","<div style=""font-size:60px;"">+</div>","null","","fixation","","","","","","","","","","",""
"aa-learning-trial","77","603679","0.0-9.0-2.0-1.2","3835","1","13","Female","approach_avoid_spark_v1","""event"",""trial"",""time""
""fullscreenenter"",""1"",""5525""
","
","
","""event"",""trial"",""time""
""fullscreenenter"",""1"",""5525""
","
","","","","","","1593.9999999998836","images/plane1.png","","","learning","-1","-1","1","1","plane","vehicles","1","0","","neutral","0"
"html-keyboard-response","78","604182","0.0-9.0-2.0-0.3","3835","1","13","Female","approach_avoid_spark_v1","""event"",""trial"",""time""
""fullscreenenter"",""1"",""5525""
","
","
","""event"",""trial"",""time""
""fullscreenenter"",""1"",""5525""
","
","","","","","","null","<div style=""font-size:60px;"">+</div>","null","","fixation","","","","","","","","","","",""
"aa-learning-trial","79","607186","0.0-9.0-2.0-1.3","3835","1","13","Female","approach_avoid_spark_v1","""event"",""trial"",""time""
""fullscreenenter"",""1"",""5525""
","
","
","""event"",""trial"",""time""
""fullscreenenter"",""1"",""5525""
","
","","","","","","648","images/boat4.png","","","learning","6","6","1","1","boat","vehicles","1","0","","good","[6]"
"html-keyboard-response","80","607689","0.0-9.0-2.0-0.4","3835","1","13","Female","approach_avoid_spark_v1","""event"",""trial"",""time""
""fullscreenenter"",""1"",""5525""
","
","
","""event"",""trial"",""time""
""fullscreenenter"",""1"",""5525""
","
","","","","","","null","<div style=""font-size:60px;"">+</div>","null","","fixation","","","","","","","","","","",""
"aa-learning-trial","81","610692","0.0-9.0-2.0-1.4","3835","1","13","Female","approach_avoid_spark_v1","""event"",""trial"",""time""
""fullscreenenter"",""1"",""5525""
","
","
","""event"",""trial"",""time""
""fullscreenenter"",""1"",""5525""
","
","","","","","","743","images/plane4.png","","","learning","2","2","1","1","plane","vehicles","1","0","","neutral","0"
"html-keyboard-response","82","611195","0.0-9.0-2.0-0.5","3835","1","13","Female","approach_avoid_spark_v1","""event"",""trial"",""time""
""fullscreenenter"",""1"",""5525""
","
","
","""event"",""trial"",""time""
""fullscreenenter"",""1"",""5525""
","
","","","","","","null","<div style=""font-size:60px;"">+</div>","null","","fixation","","","","","","","","","","",""
"aa-learning-trial","83","614200","0.0-9.0-2.0-1.5","3835","1","13","Female","approach_avoid_spark_v1","""event"",""trial"",""time""
""fullscreenenter"",""1"",""5525""
","
","
","""event"",""trial"",""time""
""fullscreenenter"",""1"",""5525""
","
","","","","","","772.0000000001164","images/train5.png","","","learning","-4","0","0","0","train","vehicles","1","0","","bad","[-3]"
"html-keyboard-response","84","614704","0.0-9.0-2.0-0.6","3835","1","13","Female","approach_avoid_spark_v1","""event"",""trial"",""time""
""fullscreenenter"",""1"",""5525""
","
","
","""event"",""trial"",""time""
""fullscreenenter"",""1"",""5525""
","
","","","","","","null","<div style=""font-size:60px;"">+</div>","null","","fixation","","","","","","","","","","",""
"aa-learning-trial","85","617708","0.0-9.0-2.0-1.6","3835","1","13","Female","approach_avoid_spark_v1","""event"",""trial"",""time""
""fullscreenenter"",""1"",""5525""
","
","
","""event"",""trial"",""time""
""fullscreenenter"",""1"",""5525""
","
","","","","","","732","images/boat4.png","","","learning","6","6","1","1","boat","vehicles","1","0","","good","[6]"
"html-keyboard-response","86","618211","0.0-9.0-2.0-0.7","3835","1","13","Female","approach_avoid_spark_v1","""event"",""trial"",""time""
""fullscreenenter"",""1"",""5525""
","
","
","""event"",""trial"",""time""
""fullscreenenter"",""1"",""5525""
","
","","","","","","null","<div style=""font-size:60px;"">+</div>","null","","fixation","","","","","","","","","","",""
"aa-learning-trial","87","621215","0.0-9.0-2.0-1.7","3835","1","13","Female","approach_avoid_spark_v1","""event"",""trial"",""time""
""fullscreenenter"",""1"",""5525""
","
","
","""event"",""trial"",""time""
""fullscreenenter"",""1"",""5525""
","
","","","","","","960","images/train8.png","","","learning","2","2","1","1","train","vehicles","1","0","","bad","[-3]"
"html-keyboard-response","88","621717","0.0-9.0-2.0-0.8","3835","1","13","Female","approach_avoid_spark_v1","""event"",""trial"",""time""
""fullscreenenter"",""1"",""5525""
","
","
","""event"",""trial"",""time""
""fullscreenenter"",""1"",""5525""
","
","","","","","","null","<div style=""font-size:60px;"">+</div>","null","","fixation","","","","","","","","","","",""
"aa-learning-trial","89","624720","0.0-9.0-2.0-1.8","3835","1","13","Female","approach_avoid_spark_v1","""event"",""trial"",""time""
""fullscreenenter"",""1"",""5525""
","
","
","""event"",""trial"",""time""
""fullscreenenter"",""1"",""5525""
","
","","","","","","1382.9999999998836","images/boat3.png","","","learning","7","7","1","1","boat","vehicles","1","0","","good","[6]"
"html-keyboard-response","90","625223","0.0-9.0-2.0-0.9","3835","1","13","Female","approach_avoid_spark_v1","""event"",""trial"",""time""
""fullscreenenter"",""1"",""5525""
","
","
","""event"",""trial"",""time""
""fullscreenenter"",""1"",""5525""
","
","","","","","","null","<div style=""font-size:60px;"">+</div>","null","","fixation","","","","","","","","","","",""
"aa-learning-trial","91","628227","0.0-9.0-2.0-1.9","3835","1","13","Female","approach_avoid_spark_v1","""event"",""trial"",""time""
""fullscreenenter"",""1"",""5525""
","
","
","""event"",""trial"",""time""
""fullscreenenter"",""1"",""5525""
","
","","","","","","493","images/boat3.png","","","learning","4","4","1","1","boat","vehicles","1","0","","good","[6]"
"html-keyboard-response","92","628729","0.0-9.0-2.0-0.10","3835","1","13","Female","approach_avoid_spark_v1","""event"",""trial"",""time""
""fullscreenenter"",""1"",""5525""
","
","
","""event"",""trial"",""time""
""fullscreenenter"",""1"",""5525""
","
","","","","","","null","<div style=""font-size:60px;"">+</div>","null","","fixation","","","","","","","","","","",""
"aa-learning-trial","93","631733","0.0-9.0-2.0-1.10","3835","1","13","Female","approach_avoid_spark_v1","""event"",""trial"",""time""
""fullscreenenter"",""1"",""5525""
","
","
","""event"",""trial"",""time""
""fullscreenenter"",""1"",""5525""
","
","","","","","","409","images/plane3.png","","","learning","3","3","1","1","plane","vehicles","1","0","","neutral","0"
"html-keyboard-response","94","632236","0.0-9.0-2.0-0.11","3835","1","13","Female","approach_avoid_spark_v1","""event"",""trial"",""time""
""fullscreenenter"",""1"",""5525""
","
","
","""event"",""trial"",""time""
""fullscreenenter"",""1"",""5525""
","
","","","","","","null","<div style=""font-size:60px;"">+</div>","null","","fixation","","","","","","","","","","",""
"aa-learning-trial","95","635239","0.0-9.0-2.0-1.11","3835","1","13","Female","approach_avoid_spark_v1","""event"",""trial"",""time""
""fullscreenenter"",""1"",""5525""
","
","
","""event"",""trial"",""time""
""fullscreenenter"",""1"",""5525""
","
","","","","","","478","images/train8.png","","","learning","-4","-4","1","1","train","vehicles","1","0","","bad","[-3]"
"html-keyboard-response","96","635741","0.0-9.0-2.0-0.12","3835","1","13","Female","approach_avoid_spark_v1","""event"",""trial"",""time""
""fullscreenenter"",""1"",""5525""
","
","
","""event"",""trial"",""time""
""fullscreenenter"",""1"",""5525""
","
","","","","","","null","<div style=""font-size:60px;"">+</div>","null","","fixation","","","","","","","","","","",""
"aa-learning-trial","97","638745","0.0-9.0-2.0-1.12","3835","1","13","Female","approach_avoid_spark_v1","""event"",""trial"",""time""
""fullscreenenter"",""1"",""5525""
","
","
","""event"",""trial"",""time""
""fullscreenenter"",""1"",""5525""
","
","","","","","","548.9999999998836","images/train1.png","","","learning","-1","-1","1","1","train","vehicles","1","0","","bad","[-3]"
"html-keyboard-response","98","639247","0.0-9.0-2.0-0.13","3835","1","13","Female","approach_avoid_spark_v1","""event"",""trial"",""time""
""fullscreenenter"",""1"",""5525""
","
","
","""event"",""trial"",""time""
""fullscreenenter"",""1"",""5525""
","
","","","","","","null","<div style=""font-size:60px;"">+</div>","null","","fixation","","","","","","","","","","",""
"aa-learning-trial","99","642251","0.0-9.0-2.0-1.13","3835","1","13","Female","approach_avoid_spark_v1","""event"",""trial"",""time""
""fullscreenenter"",""1"",""5525""
","
","
","""event"",""trial"",""time""
""fullscreenenter"",""1"",""5525""
","
","","","","","","815","images/plane1.png","","","learning","[-1]","-1","1","1","plane","vehicles","1","0","","neutral","0"
"html-keyboard-response","100","642753","0.0-9.0-2.0-0.14","3835","1","13","Female","approach_avoid_spark_v1","""event"",""trial"",""time""
""fullscreenenter"",""1"",""5525""
","
","
","""event"",""trial"",""time""
""fullscreenenter"",""1"",""5525""
","
","","","","","","null","<div style=""font-size:60px;"">+</div>","null","","fixation","","","","","","","","","","",""
"aa-learning-trial","101","645756","0.0-9.0-2.0-1.14","3835","1","13","Female","approach_avoid_spark_v1","""event"",""trial"",""time""
""fullscreenenter"",""1"",""5525""
","
","
","""event"",""trial"",""time""
""fullscreenenter"",""1"",""5525""
","
","","","","","","892.0000000001164","images/plane4.png","","","learning","-1","0","0","0","plane","vehicles","1","0","","neutral","0"
"html-keyboard-response","102","646259","0.0-9.0-2.0-0.15","3835","1","13","Female","approach_avoid_spark_v1","""event"",""trial"",""time""
""fullscreenenter"",""1"",""5525""
","
","
","""event"",""trial"",""time""
""fullscreenenter"",""1"",""5525""
","
","","","","","","null","<div style=""font-size:60px;"">+</div>","null","","fixation","","","","","","","","","","",""
"aa-learning-trial","103","649263","0.0-9.0-2.0-1.15","3835","1","13","Female","approach_avoid_spark_v1","""event"",""trial"",""time""
""fullscreenenter"",""1"",""5525""
","
","
","""event"",""trial"",""time""
""fullscreenenter"",""1"",""5525""
","
","","","","","","1355","images/plane8.png","","","learning","1","0","0","0","plane","vehicles","1","0","","neutral","0"
"html-keyboard-response","104","649765","0.0-9.0-2.0-0.16","3835","1","13","Female","approach_avoid_spark_v1","""event"",""trial"",""time""
""fullscreenenter"",""1"",""5525""
","
","
","""event"",""trial"",""time""
""fullscreenenter"",""1"",""5525""
","
","","","","","","null","<div style=""font-size:60px;"">+</div>","null","","fixation","","","","","","","","","","",""
"aa-learning-trial","105","652769","0.0-9.0-2.0-1.16","3835","1","13","Female","approach_avoid_spark_v1","""event"",""trial"",""time""
""fullscreenenter"",""1"",""5525""
","
","
","""event"",""trial"",""time""
""fullscreenenter"",""1"",""5525""
","
","","","","","","678","images/boat3.png","","","learning","6","6","1","1","boat","vehicles","1","0","","good","[6]"
"html-keyboard-response","106","653272","0.0-9.0-2.0-0.17","3835","1","13","Female","approach_avoid_spark_v1","""event"",""trial"",""time""
""fullscreenenter"",""1"",""5525""
","
","
","""event"",""trial"",""time""
""fullscreenenter"",""1"",""5525""
","
","","","","","","null","<div style=""font-size:60px;"">+</div>","null","","fixation","","","","","","","","","","",""
"aa-learning-trial","107","656277","0.0-9.0-2.0-1.17","3835","1","13","Female","approach_avoid_spark_v1","""event"",""trial"",""time""
""fullscreenenter"",""1"",""5525""
","
","
","""event"",""trial"",""time""
""fullscreenenter"",""1"",""5525""
","
","","","","","","622","images/boat3.png","","","learning","4","4","1","1","boat","vehicles","1","0","","good","[6]"
"html-keyboard-response","108","656780","0.0-9.0-2.0-0.18","3835","1","13","Female","approach_avoid_spark_v1","""event"",""trial"",""time""
""fullscreenenter"",""1"",""5525""
","
","
","""event"",""trial"",""time""
""fullscreenenter"",""1"",""5525""
","
","","","","","","null","<div style=""font-size:60px;"">+</div>","null","","fixation","","","","","","","","","","",""
"aa-learning-trial","109","659783","0.0-9.0-2.0-1.18","3835","1","13","Female","approach_avoid_spark_v1","""event"",""trial"",""time""
""fullscreenenter"",""1"",""5525""
","
","
","""event"",""trial"",""time""
""fullscreenenter"",""1"",""5525""
","
","","","","","","1044","images/plane4.png","","","learning","-1","-1","1","1","plane","vehicles","1","0","","neutral","0"
"html-keyboard-response","110","660286","0.0-9.0-2.0-0.19","3835","1","13","Female","approach_avoid_spark_v1","""event"",""trial"",""time""
""fullscreenenter"",""1"",""5525""
","
","
","""event"",""trial"",""time""
""fullscreenenter"",""1"",""5525""
","
","","","","","","null","<div style=""font-size:60px;"">+</div>","null","","fixation","","","","","","","","","","",""
"aa-learning-trial","111","663290","0.0-9.0-2.0-1.19","3835","1","13","Female","approach_avoid_spark_v1","""event"",""trial"",""time""
""fullscreenenter"",""1"",""5525""
","
","
","""event"",""trial"",""time""
""fullscreenenter"",""1"",""5525""
","
","","","","","","591","images/plane4.png","","","learning","3","0","0","0","plane","vehicles","1","0","","neutral","0"
"html-keyboard-response","112","663792","0.0-9.0-2.0-0.20","3835","1","13","Female","approach_avoid_spark_v1","""event"",""trial"",""time""
""fullscreenenter"",""1"",""5525""
","
","
","""event"",""trial"",""time""
""fullscreenenter"",""1"",""5525""
","
","","","","","","null","<div style=""font-size:60px;"">+</div>","null","","fixation","","","","","","","","","","",""
"aa-learning-trial","113","666796","0.0-9.0-2.0-1.20","3835","1","13","Female","approach_avoid_spark_v1","""event"",""trial"",""time""
""fullscreenenter"",""1"",""5525""
","
","
","""event"",""trial"",""time""
""fullscreenenter"",""1"",""5525""
","
","","","","","","752","images/boat4.png","","","learning","9","9","1","1","boat","vehicles","1","0","","good","[6]"
"html-keyboard-response","114","667299","0.0-9.0-2.0-0.21","3835","1","13","Female","approach_avoid_spark_v1","""event"",""trial"",""time""
""fullscreenenter"",""1"",""5525""
","
","
","""event"",""trial"",""time""
""fullscreenenter"",""1"",""5525""
","
","","","","","","null","<div style=""font-size:60px;"">+</div>","null","","fixation","","","","","","","","","","",""
"aa-learning-trial","115","670303","0.0-9.0-2.0-1.21","3835","1","13","Female","approach_avoid_spark_v1","""event"",""trial"",""time""
""fullscreenenter"",""1"",""5525""
","
","
","""event"",""trial"",""time""
""fullscreenenter"",""1"",""5525""
","
","","","","","","629","images/train8.png","","","learning","-5","-5","1","1","train","vehicles","1","0","","bad","[-3]"
"html-keyboard-response","116","670805","0.0-9.0-2.0-0.22","3835","1","13","Female","approach_avoid_spark_v1","""event"",""trial"",""time""
""fullscreenenter"",""1"",""5525""
","
","
","""event"",""trial"",""time""
""fullscreenenter"",""1"",""5525""
","
","","","","","","null","<div style=""font-size:60px;"">+</div>","null","","fixation","","","","","","","","","","",""
"aa-learning-trial","117","673808","0.0-9.0-2.0-1.22","3835","1","13","Female","approach_avoid_spark_v1","""event"",""trial"",""time""
""fullscreenenter"",""1"",""5525""
","
","
","""event"",""trial"",""time""
""fullscreenenter"",""1"",""5525""
","
","","","","","","693","images/boat4.png","","","learning","9","0","0","0","boat","vehicles","1","0","","good","[6]"
"html-keyboard-response","118","674311","0.0-9.0-2.0-0.23","3835","1","13","Female","approach_avoid_spark_v1","""event"",""trial"",""time""
""fullscreenenter"",""1"",""5525""
","
","
","""event"",""trial"",""time""
""fullscreenenter"",""1"",""5525""
","
","","","","","","null","<div style=""font-size:60px;"">+</div>","null","","fixation","","","","","","","","","","",""
"aa-learning-trial","119","677314","0.0-9.0-2.0-1.23","3835","1","13","Female","approach_avoid_spark_v1","""event"",""trial"",""time""
""fullscreenenter"",""1"",""5525""
","
","
","""event"",""trial"",""time""
""fullscreenenter"",""1"",""5525""
","
","","","","","","1322","images/train8.png","","","learning","-7","0","0","0","train","vehicles","1","0","","bad","[-3]"
"html-keyboard-response","120","677816","0.0-9.0-2.0-0.24","3835","1","13","Female","approach_avoid_spark_v1","""event"",""trial"",""time""
""fullscreenenter"",""1"",""5525""
","
","
","""event"",""trial"",""time""
""fullscreenenter"",""1"",""5525""
","
","","","","","","null","<div style=""font-size:60px;"">+</div>","null","","fixation","","","","","","","","","","",""
"aa-learning-trial","121","680819","0.0-9.0-2.0-1.24","3835","1","13","Female","approach_avoid_spark_v1","""event"",""trial"",""time""
""fullscreenenter"",""1"",""5525""
","
","
","""event"",""trial"",""time""
""fullscreenenter"",""1"",""5525""
","
","","","","","","1234","images/train1.png","","","learning","-4","-4","1","1","train","vehicles","1","0","","bad","[-3]"
"html-keyboard-response","122","681322","0.0-9.0-2.0-0.25","3835","1","13","Female","approach_avoid_spark_v1","""event"",""trial"",""time""
""fullscreenenter"",""1"",""5525""
","
","
","""event"",""trial"",""time""
""fullscreenenter"",""1"",""5525""
","
","","","","","","null","<div style=""font-size:60px;"">+</div>","null","","fixation","","","","","","","","","","",""
"aa-learning-trial","123","684325","0.0-9.0-2.0-1.25","3835","1","13","Female","approach_avoid_spark_v1","""event"",""trial"",""time""
""fullscreenenter"",""1"",""5525""
","
","
","""event"",""trial"",""time""
""fullscreenenter"",""1"",""5525""
","
","","","","","","976","images/train7.png","","","learning","-4","0","0","0","train","vehicles","1","0","","bad","[-3]"
"html-keyboard-response","124","684828","0.0-9.0-2.0-0.26","3835","1","13","Female","approach_avoid_spark_v1","""event"",""trial"",""time""
""fullscreenenter"",""1"",""5525""
","
","
","""event"",""trial"",""time""
""fullscreenenter"",""1"",""5525""
","
","","","","","","null","<div style=""font-size:60px;"">+</div>","null","","fixation","","","","","","","","","","",""
"aa-learning-trial","125","687832","0.0-9.0-2.0-1.26","3835","1","13","Female","approach_avoid_spark_v1","""event"",""trial"",""time""
""fullscreenenter"",""1"",""5525""
","
","
","""event"",""trial"",""time""
""fullscreenenter"",""1"",""5525""
","
","","","","","","818","images/boat3.png","","","learning","7","7","1","1","boat","vehicles","1","0","","good","[6]"
"html-keyboard-response","126","688336","0.0-9.0-2.0-0.27","3835","1","13","Female","approach_avoid_spark_v1","""event"",""trial"",""time""
""fullscreenenter"",""1"",""5525""
","
","
","""event"",""trial"",""time""
""fullscreenenter"",""1"",""5525""
","
","","","","","","null","<div style=""font-size:60px;"">+</div>","null","","fixation","","","","","","","","","","",""
"aa-learning-trial","127","691342","0.0-9.0-2.0-1.27","3835","1","13","Female","approach_avoid_spark_v1","""event"",""trial"",""time""
""fullscreenenter"",""1"",""5525""
","
","
","""event"",""trial"",""time""
""fullscreenenter"",""1"",""5525""
","
","","","","","","1600","images/boat7.png","","","learning","5","5","1","1","boat","vehicles","1","0","","good","[6]"
"html-keyboard-response","128","691845","0.0-9.0-2.0-0.28","3835","1","13","Female","approach_avoid_spark_v1","""event"",""trial"",""time""
""fullscreenenter"",""1"",""5525""
","
","
","""event"",""trial"",""time""
""fullscreenenter"",""1"",""5525""
","
","","","","","","null","<div style=""font-size:60px;"">+</div>","null","","fixation","","","","","","","","","","",""
"aa-learning-trial","129","694848","0.0-9.0-2.0-1.28","3835","1","13","Female","approach_avoid_spark_v1","""event"",""trial"",""time""
""fullscreenenter"",""1"",""5525""
","
","
","""event"",""trial"",""time""
""fullscreenenter"",""1"",""5525""
","
","","","","","","1037.9999999998836","images/plane4.png","","","learning","1","1","1","1","plane","vehicles","1","0","","neutral","0"
"html-keyboard-response","130","695351","0.0-9.0-2.0-0.29","3835","1","13","Female","approach_avoid_spark_v1","""event"",""trial"",""time""
""fullscreenenter"",""1"",""5525""
","
","
","""event"",""trial"",""time""
""fullscreenenter"",""1"",""5525""
","
","","","","","","null","<div style=""font-size:60px;"">+</div>","null","","fixation","","","","","","","","","","",""
"aa-learning-trial","131","698355","0.0-9.0-2.0-1.29","3835","1","13","Female","approach_avoid_spark_v1","""event"",""trial"",""time""
""fullscreenenter"",""1"",""5525""
","
","
","""event"",""trial"",""time""
""fullscreenenter"",""1"",""5525""
","
","","","","","","1122","images/train1.png","","","learning","-3","0","0","0","train","vehicles","1","0","","bad","[-3]"
"html-keyboard-response","132","698857","0.0-9.0-2.0-0.30","3835","1","13","Female","approach_avoid_spark_v1","""event"",""trial"",""time""
""fullscreenenter"",""1"",""5525""
","
","
","""event"",""trial"",""time""
""fullscreenenter"",""1"",""5525""
","
","","","","","","null","<div style=""font-size:60px;"">+</div>","null","","fixation","","","","","","","","","","",""
"aa-learning-trial","133","701860","0.0-9.0-2.0-1.30","3835","1","13","Female","approach_avoid_spark_v1","""event"",""trial"",""time""
""fullscreenenter"",""1"",""5525""
","
","
","""event"",""trial"",""time""
""fullscreenenter"",""1"",""5525""
","
","","","","","","699","images/plane1.png","","","learning","-1","0","0","0","plane","vehicles","1","0","","neutral","0"
"html-keyboard-response","134","702363","0.0-9.0-2.0-0.31","3835","1","13","Female","approach_avoid_spark_v1","""event"",""trial"",""time""
""fullscreenenter"",""1"",""5525""
","
","
","""event"",""trial"",""time""
""fullscreenenter"",""1"",""5525""
","
","","","","","","null","<div style=""font-size:60px;"">+</div>","null","","fixation","","","","","","","","","","",""
"aa-learning-trial","135","705366","0.0-9.0-2.0-1.31","3835","1","13","Female","approach_avoid_spark_v1","""event"",""trial"",""time""
""fullscreenenter"",""1"",""5525""
","
","
","""event"",""trial"",""time""
""fullscreenenter"",""1"",""5525""
","
","","","","","","776.9999999998836","images/train1.png","","","learning","-2","0","0","0","train","vehicles","1","0","","bad","[-3]"
"html-keyboard-response","136","705869","0.0-9.0-2.0-0.32","3835","1","13","Female","approach_avoid_spark_v1","""event"",""trial"",""time""
""fullscreenenter"",""1"",""5525""
","
","
","""event"",""trial"",""time""
""fullscreenenter"",""1"",""5525""
","
","","","","","","null","<div style=""font-size:60px;"">+</div>","null","","fixation","","","","","","","","","","",""
"aa-learning-trial","137","708871","0.0-9.0-2.0-1.32","3835","1","13","Female","approach_avoid_spark_v1","""event"",""trial"",""time""
""fullscreenenter"",""1"",""5525""
","
","
","""event"",""trial"",""time""
""fullscreenenter"",""1"",""5525""
","
","","","","","","1063.9999999998836","images/train4.png","","","learning","-2","0","0","0","train","vehicles","1","0","","bad","[-3]"
"html-keyboard-response","138","709373","0.0-9.0-2.0-0.33","3835","1","13","Female","approach_avoid_spark_v1","""event"",""trial"",""time""
""fullscreenenter"",""1"",""5525""
","
","
","""event"",""trial"",""time""
""fullscreenenter"",""1"",""5525""
","
","","","","","","null","<div style=""font-size:60px;"">+</div>","null","","fixation","","","","","","","","","","",""
"aa-learning-trial","139","712377","0.0-9.0-2.0-1.33","3835","1","13","Female","approach_avoid_spark_v1","""event"",""trial"",""time""
""fullscreenenter"",""1"",""5525""
","
","
","""event"",""trial"",""time""
""fullscreenenter"",""1"",""5525""
","
","","","","","","899.9999999998836","images/plane5.png","","","learning","-2","0","0","0","plane","vehicles","1","0","","neutral","0"
"html-keyboard-response","140","712879","0.0-9.0-2.0-0.34","3835","1","13","Female","approach_avoid_spark_v1","""event"",""trial"",""time""
""fullscreenenter"",""1"",""5525""
","
","
","""event"",""trial"",""time""
""fullscreenenter"",""1"",""5525""
","
","","","","","","null","<div style=""font-size:60px;"">+</div>","null","","fixation","","","","","","","","","","",""
"aa-learning-trial","141","715883","0.0-9.0-2.0-1.34","3835","1","13","Female","approach_avoid_spark_v1","""event"",""trial"",""time""
""fullscreenenter"",""1"",""5525""
","
","
","""event"",""trial"",""time""
""fullscreenenter"",""1"",""5525""
","
","","","","","","1067","images/plane1.png","","","learning","[-1]","0","0","0","plane","vehicles","1","0","","neutral","0"
"html-keyboard-response","142","716386","0.0-9.0-2.0-0.35","3835","1","13","Female","approach_avoid_spark_v1","""event"",""trial"",""time""
""fullscreenenter"",""1"",""5525""
","
","
","""event"",""trial"",""time""
""fullscreenenter"",""1"",""5525""
","
","","","","","","null","<div style=""font-size:60px;"">+</div>","null","","fixation","","","","","","","","","","",""
"aa-learning-trial","143","719390","0.0-9.0-2.0-1.35","3835","1","13","Female","approach_avoid_spark_v1","""event"",""trial"",""time""
""fullscreenenter"",""1"",""5525""
","
","
","""event"",""trial"",""time""
""fullscreenenter"",""1"",""5525""
","
","","","","","","994","images/boat6.png","","","learning","5","5","1","1","boat","vehicles","1","0","","good","[6]"
"html-keyboard-response","144","719892","0.0-9.0-2.0-0.36","3835","1","13","Female","approach_avoid_spark_v1","""event"",""trial"",""time""
""fullscreenenter"",""1"",""5525""
","
","
","""event"",""trial"",""time""
""fullscreenenter"",""1"",""5525""
","
","","","","","","null","<div style=""font-size:60px;"">+</div>","null","","fixation","","","","","","","","","","",""
"aa-learning-trial","145","722896","0.0-9.0-2.0-1.36","3835","1","13","Female","approach_avoid_spark_v1","""event"",""trial"",""time""
""fullscreenenter"",""1"",""5525""
","
","
","""event"",""trial"",""time""
""fullscreenenter"",""1"",""5525""
","
","","","","","","469.9999999998836","images/boat2.png","","","learning","5","5","1","1","boat","vehicles","1","0","","good","[6]"
"html-keyboard-response","146","723398","0.0-9.0-2.0-0.37","3835","1","13","Female","approach_avoid_spark_v1","""event"",""trial"",""time""
""fullscreenenter"",""1"",""5525""
","
","
","""event"",""trial"",""time""
""fullscreenenter"",""1"",""5525""
","
","","","","","","null","<div style=""font-size:60px;"">+</div>","null","","fixation","","","","","","","","","","",""
"aa-learning-trial","147","726402","0.0-9.0-2.0-1.37","3835","1","13","Female","approach_avoid_spark_v1","""event"",""trial"",""time""
""fullscreenenter"",""1"",""5525""
","
","
","""event"",""trial"",""time""
""fullscreenenter"",""1"",""5525""
","
","","","","","","754","images/train5.png","","","learning","-3","0","0","0","train","vehicles","1","0","","bad","[-3]"
"html-keyboard-response","148","726904","0.0-9.0-2.0-0.38","3835","1","13","Female","approach_avoid_spark_v1","""event"",""trial"",""time""
""fullscreenenter"",""1"",""5525""
","
","
","""event"",""trial"",""time""
""fullscreenenter"",""1"",""5525""
","
","","","","","","null","<div style=""font-size:60px;"">+</div>","null","","fixation","","","","","","","","","","",""
"aa-learning-trial","149","729906","0.0-9.0-2.0-1.38","3835","1","13","Female","approach_avoid_spark_v1","""event"",""trial"",""time""
""fullscreenenter"",""1"",""5525""
","
","
","""event"",""trial"",""time""
""fullscreenenter"",""1"",""5525""
","
","","","","","","431","images/train8.png","","","learning","-2","-2","1","1","train","vehicles","1","0","","bad","[-3]"
"html-keyboard-response","150","730408","0.0-9.0-2.0-0.39","3835","1","13","Female","approach_avoid_spark_v1","""event"",""trial"",""time""
""fullscreenenter"",""1"",""5525""
","
","
","""event"",""trial"",""time""
""fullscreenenter"",""1"",""5525""
","
","","","","","","null","<div style=""font-size:60px;"">+</div>","null","","fixation","","","","","","","","","","",""
"aa-learning-trial","151","733411","0.0-9.0-2.0-1.39","3835","1","13","Female","approach_avoid_spark_v1","""event"",""trial"",""time""
""fullscreenenter"",""1"",""5525""
","
","
","""event"",""trial"",""time""
""fullscreenenter"",""1"",""5525""
","
","","","","","","344","images/boat2.png","","","learning","5","0","0","0","boat","vehicles","1","0","","good","[6]"
"html-keyboard-response","152","733913","0.0-9.0-2.0-0.40","3835","1","13","Female","approach_avoid_spark_v1","""event"",""trial"",""time""
""fullscreenenter"",""1"",""5525""
","
","
","""event"",""trial"",""time""
""fullscreenenter"",""1"",""5525""
","
","","","","","","null","<div style=""font-size:60px;"">+</div>","null","","fixation","","","","","","","","","","",""
"aa-learning-trial","153","736916","0.0-9.0-2.0-1.40","3835","1","13","Female","approach_avoid_spark_v1","""event"",""trial"",""time""
""fullscreenenter"",""1"",""5525""
","
","
","""event"",""trial"",""time""
""fullscreenenter"",""1"",""5525""
","
","","","","","","578","images/boat4.png","","","learning","8","8","1","1","boat","vehicles","1","0","","good","[6]"
"html-keyboard-response","154","737418","0.0-9.0-2.0-0.41","3835","1","13","Female","approach_avoid_spark_v1","""event"",""trial"",""time""
""fullscreenenter"",""1"",""5525""
","
","
","""event"",""trial"",""time""
""fullscreenenter"",""1"",""5525""
","
","","","","","","null","<div style=""font-size:60px;"">+</div>","null","","fixation","","","","","","","","","","",""
"aa-learning-trial","155","740421","0.0-9.0-2.0-1.41","3835","1","13","Female","approach_avoid_spark_v1","""event"",""trial"",""time""
""fullscreenenter"",""1"",""5525""
","
","
","""event"",""trial"",""time""
""fullscreenenter"",""1"",""5525""
","
","","","","","","665","images/train1.png","","","learning","-1","-1","1","1","train","vehicles","1","0","","bad","[-3]"
"html-keyboard-response","156","740923","0.0-9.0-2.0-0.42","3835","1","13","Female","approach_avoid_spark_v1","""event"",""trial"",""time""
""fullscreenenter"",""1"",""5525""
","
","
","""event"",""trial"",""time""
""fullscreenenter"",""1"",""5525""
","
","","","","","","null","<div style=""font-size:60px;"">+</div>","null","","fixation","","","","","","","","","","",""
"aa-learning-trial","157","743926","0.0-9.0-2.0-1.42","3835","1","13","Female","approach_avoid_spark_v1","""event"",""trial"",""time""
""fullscreenenter"",""1"",""5525""
","
","
","""event"",""trial"",""time""
""fullscreenenter"",""1"",""5525""
","
","","","","","","753","images/plane4.png","","","learning","1","0","0","0","plane","vehicles","1","0","","neutral","0"
"html-keyboard-response","158","744428","0.0-9.0-2.0-0.43","3835","1","13","Female","approach_avoid_spark_v1","""event"",""trial"",""time""
""fullscreenenter"",""1"",""5525""
","
","
","""event"",""trial"",""time""
""fullscreenenter"",""1"",""5525""
","
","","","","","","null","<div style=""font-size:60px;"">+</div>","null","","fixation","","","","","","","","","","",""
"aa-learning-trial","159","747432","0.0-9.0-2.0-1.43","3835","1","13","Female","approach_avoid_spark_v1","""event"",""trial"",""time""
""fullscreenenter"",""1"",""5525""
","
","
","""event"",""trial"",""time""
""fullscreenenter"",""1"",""5525""
","
","","","","","","506.0000000001164","images/boat3.png","","","learning","6","6","1","1","boat","vehicles","1","0","","good","[6]"
"html-keyboard-response","160","747934","0.0-9.0-2.0-0.44","3835","1","13","Female","approach_avoid_spark_v1","""event"",""trial"",""time""
""fullscreenenter"",""1"",""5525""
","
","
","""event"",""trial"",""time""
""fullscreenenter"",""1"",""5525""
","
","","","","","","null","<div style=""font-size:60px;"">+</div>","null","","fixation","","","","","","","","","","",""
"aa-learning-trial","161","750938","0.0-9.0-2.0-1.44","3835","1","13","Female","approach_avoid_spark_v1","""event"",""trial"",""time""
""fullscreenenter"",""1"",""5525""
","
","
","""event"",""trial"",""time""
""fullscreenenter"",""1"",""5525""
","
","","","","","","798","images/train8.png","","","learning","-2","0","0","0","train","vehicles","1","0","","bad","[-3]"
"html-keyboard-response","162","751442","0.0-9.0-2.0-0.45","3835","1","13","Female","approach_avoid_spark_v1","""event"",""trial"",""time""
""fullscreenenter"",""1"",""5525""
","
","
","""event"",""trial"",""time""
""fullscreenenter"",""1"",""5525""
","
","","","","","","null","<div style=""font-size:60px;"">+</div>","null","","fixation","","","","","","","","","","",""
"aa-learning-trial","163","754446","0.0-9.0-2.0-1.45","3835","1","13","Female","approach_avoid_spark_v1","""event"",""trial"",""time""
""fullscreenenter"",""1"",""5525""
","
","
","""event"",""trial"",""time""
""fullscreenenter"",""1"",""5525""
","
","","","","","","471","images/plane1.png","","","learning","-1","-1","1","1","plane","vehicles","1","0","","neutral","0"
"html-keyboard-response","164","754948","0.0-9.0-2.0-0.46","3835","1","13","Female","approach_avoid_spark_v1","""event"",""trial"",""time""
""fullscreenenter"",""1"",""5525""
","
","
","""event"",""trial"",""time""
""fullscreenenter"",""1"",""5525""
","
","","","","","","null","<div style=""font-size:60px;"">+</div>","null","","fixation","","","","","","","","","","",""
"aa-learning-trial","165","757953","0.0-9.0-2.0-1.46","3835","1","13","Female","approach_avoid_spark_v1","""event"",""trial"",""time""
""fullscreenenter"",""1"",""5525""
","
","
","""event"",""trial"",""time""
""fullscreenenter"",""1"",""5525""
","
","","","","","","854","images/boat4.png","","","learning","5","5","1","1","boat","vehicles","1","0","","good","[6]"
"html-keyboard-response","166","758456","0.0-9.0-2.0-0.47","3835","1","13","Female","approach_avoid_spark_v1","""event"",""trial"",""time""
""fullscreenenter"",""1"",""5525""
","
","
","""event"",""trial"",""time""
""fullscreenenter"",""1"",""5525""
","
","","","","","","null","<div style=""font-size:60px;"">+</div>","null","","fixation","","","","","","","","","","",""
"aa-learning-trial","167","761459","0.0-9.0-2.0-1.47","3835","1","13","Female","approach_avoid_spark_v1","""event"",""trial"",""time""
""fullscreenenter"",""1"",""5525""
","
","
","""event"",""trial"",""time""
""fullscreenenter"",""1"",""5525""
","
","","","","","","null","images/plane3.png","","","learning","1","-5","","null","plane","vehicles","1","0","","neutral","0"
"html-keyboard-response","168","761961","0.0-9.0-2.0-0.48","3835","1","13","Female","approach_avoid_spark_v1","""event"",""trial"",""time""
""fullscreenenter"",""1"",""5525""
","
","
","""event"",""trial"",""time""
""fullscreenenter"",""1"",""5525""
","
","","","","","","null","<div style=""font-size:60px;"">+</div>","null","","fixation","","","","","","","","","","",""
"aa-learning-trial","169","764964","0.0-9.0-2.0-1.48","3835","1","13","Female","approach_avoid_spark_v1","""event"",""trial"",""time""
""fullscreenenter"",""1"",""5525""
","
","
","""event"",""trial"",""time""
""fullscreenenter"",""1"",""5525""
","
","","","","","","null","images/plane1.png","","","learning","1","-5","","null","plane","vehicles","1","0","","neutral","0"
"html-keyboard-response","170","765467","0.0-9.0-2.0-0.49","3835","1","13","Female","approach_avoid_spark_v1","""event"",""trial"",""time""
""fullscreenenter"",""1"",""5525""
","
","
","""event"",""trial"",""time""
""fullscreenenter"",""1"",""5525""
","
","","","","","","null","<div style=""font-size:60px;"">+</div>","null","","fixation","","","","","","","","","","",""
"aa-learning-trial","171","768470","0.0-9.0-2.0-1.49","3835","1","13","Female","approach_avoid_spark_v1","""event"",""trial"",""time""
""fullscreenenter"",""1"",""5525""
","
","
","""event"",""trial"",""time""
""fullscreenenter"",""1"",""5525""
","
","","","","","","2821","images/train5.png","","","learning","-2","-2","1","1","train","vehicles","1","0","","bad","[-3]"
"html-keyboard-response","172","768973","0.0-9.0-2.0-0.50","3835","1","13","Female","approach_avoid_spark_v1","""event"",""trial"",""time""
""fullscreenenter"",""1"",""5525""
","
","
","""event"",""trial"",""time""
""fullscreenenter"",""1"",""5525""
","
","","","","","","null","<div style=""font-size:60px;"">+</div>","null","","fixation","","","","","","","","","","",""
"aa-learning-trial","173","771976","0.0-9.0-2.0-1.50","3835","1","13","Female","approach_avoid_spark_v1","""event"",""trial"",""time""
""fullscreenenter"",""1"",""5525""
","
","
","""event"",""trial"",""time""
""fullscreenenter"",""1"",""5525""
","
","","","","","","146.99999999988358","images/plane3.png","","","learning","1","1","1","1","plane","vehicles","1","0","","neutral","0"
"html-button-response","174","787600","0.0-9.0-3.0","3835","1","13","Female","approach_avoid_spark_v1","""event"",""trial"",""time""
""fullscreenenter"",""1"",""5525""
","
","
","""event"",""trial"",""time""
""fullscreenenter"",""1"",""5525""
","
","","","","","","15621.000000000116","<p> You have completed the round! <p> In this round, you earned 56 points! </p>","0","","break","","","","","","","","","","",""
"html-button-response","175","789574","0.0-10.0","3835","1","13","Female","approach_avoid_spark_v1","""event"",""trial"",""time""
""fullscreenenter"",""1"",""5525""
","
","
","""event"",""trial"",""time""
""fullscreenenter"",""1"",""5525""
","
","","","","","","1972","<p> Now it's time to play another round. </p>","0","","transition_screen","","","","","","","","","","",""
"preload","176","789686","0.0-11.0-0.0","3835","1","13","Female","approach_avoid_spark_v1","""event"",""trial"",""time""
""fullscreenenter"",""1"",""5525""
","
","
","""event"",""trial"",""time""
""fullscreenenter"",""1"",""5525""
","
","true","false","[]","[]","[]","","","","","","","","","","","","","","","",""
"learning-instructions","177","796245","0.0-11.0-1.0-0.0","3835","1","13","Female","approach_avoid_spark_v1","""event"",""trial"",""time""
""fullscreenenter"",""1"",""5525""
","
","
","""event"",""trial"",""time""
""fullscreenenter"",""1"",""5525""
","
","","","","","","2617","<p> Your goal in this round is to take care of lots of animals. </p></div>","","0","instructions","","","","","","","","","","",""
"learning-instructions","178","807870","0.0-11.0-1.0-0.1","3835","1","13","Female","approach_avoid_spark_v1","""event"",""trial"",""time""
""fullscreenenter"",""1"",""5525""
","
","
","""event"",""trial"",""time""
""fullscreenenter"",""1"",""5525""
","
","","","","","","2480","<p> Some animals want to be pet, while other animals want to be left alone.  </p><p> On each turn, you will see an animal.   </p><p> You need to decide whether to pet it or not.  </p>","","0","instructions","","","","","","","","","","",""
"learning-instructions","179","814095","0.0-11.0-1.0-0.2","3835","1","13","Female","approach_avoid_spark_v1","""event"",""trial"",""time""
""fullscreenenter"",""1"",""5525""
","
","
","""event"",""trial"",""time""
""fullscreenenter"",""1"",""5525""
","
","","","","","","1327.9999999998836","<p> You can pet the animal by pressing 1 and leave the animal alone by pressing 0. </p><br><div class=""choice-instructions-grid""> <div class=""choice-option""><img src=""images/approach.png"" class=""choice-option-img"" stage=""instructions"" position=""0"" ><div class=""choice-option-text""> Press ""1."" </div></div><div class=""choice-option""><img src=""images/avoid.png"" class=""choice-option-img"" stage=""instructions"" position=""1"" ><div class=""choice-option-text""> Press ""0."" </div></div>","","0","instructions","","","","","","","","","","",""
"learning-instructions","180","826104","0.0-11.0-1.0-0.3","3835","1","13","Female","approach_avoid_spark_v1","""event"",""trial"",""time""
""fullscreenenter"",""1"",""5525""
","
","
","""event"",""trial"",""time""
""fullscreenenter"",""1"",""5525""
","
","","","","","","3569","<p> If you pet an animal that wants to be pet, you will make it feel happy! </p><p> But if you pet an animal that wants to be left alone, you will make it feel angry. </p>","","0","instructions","","","","","","","","","","",""
"learning-instructions","181","848071","0.0-11.0-1.0-0.4","3835","1","13","Female","approach_avoid_spark_v1","""event"",""trial"",""time""
""fullscreenenter"",""1"",""5525""
","
","
","""event"",""trial"",""time""
""fullscreenenter"",""1"",""5525""
","
","","","","","","10064","<p> You will earn points based on how you made the animal feel. </p><p> If you made it feel happy, you will WIN anywhere from 1 - 9 points, </p><p> but if you made it feel angry, you will LOSE anywhere from 1 - 9 points. </p>","","0","instructions","","","","","","","","","","",""
"learning-instructions","182","855786","0.0-11.0-1.0-0.5","3835","1","13","Female","approach_avoid_spark_v1","""event"",""trial"",""time""
""fullscreenenter"",""1"",""5525""
","
","
","""event"",""trial"",""time""
""fullscreenenter"",""1"",""5525""
","
","","","","","","1064","<p> You will see how many points you won or lost in the center of the screen. </p><p> Here is what you would see if you won 5 points: </p><p style=""color:green;font-size:50px;font-weight:bolder"">5</p>","","0","instructions","","","","","","","","","","",""
"learning-instructions","183","860114","0.0-11.0-1.0-0.6","3835","1","13","Female","approach_avoid_spark_v1","""event"",""trial"",""time""
""fullscreenenter"",""1"",""5525""
","
","
","""event"",""trial"",""time""
""fullscreenenter"",""1"",""5525""
","
","","","","","","1496","<p> And here is what you would see if you lost 3 points: </p><p style=""color:red;font-size:50px;font-weight:bolder"">-3</p>","","0","instructions","","","","","","","","","","",""
"learning-instructions","184","873944","0.0-11.0-1.0-0.7","3835","1","13","Female","approach_avoid_spark_v1","""event"",""trial"",""time""
""fullscreenenter"",""1"",""5525""
","
","
","""event"",""trial"",""time""
""fullscreenenter"",""1"",""5525""
","
","","","","","","544.0000000001164","<p> Some animals will become very happy or very angry. </p><p> These animals will make you win or lose LOTS of points. </p><p> Other animals have less strong feelings. </p><p> These animals will make you win or lose small amounts of points. </p>","","0","instructions","","","","","","","","","","",""
"learning-instructions","185","885666","0.0-11.0-1.0-0.8","3835","1","13","Female","approach_avoid_spark_v1","""event"",""trial"",""time""
""fullscreenenter"",""1"",""5525""
","
","
","""event"",""trial"",""time""
""fullscreenenter"",""1"",""5525""
","
","","","","","","907","<p> If you choose to leave the animal alone, you will not win or lose any points. </p><p>  However, in the center of the screen, you will see the number of points you WOULD HAVE won or lost if you had pet the animal. </p>","","0","instructions","","","","","","","","","","",""
"learning-instructions","186","898087","0.0-11.0-1.0-0.9","3835","1","13","Female","approach_avoid_spark_v1","""event"",""trial"",""time""
""fullscreenenter"",""1"",""5525""
","
","
","""event"",""trial"",""time""
""fullscreenenter"",""1"",""5525""
","
","","","","","","1007.0000000001164","<p> Here is what you might see if you did not pet the animal but the animal wanted to be pet: </p><p style=""color:grey; font-size:50px; display: inline-block; border-spacing: 15px; border-width:3px; border-style:solid; border-color:red"">  &nbsp; 6 &nbsp; </p><p> Remember, in this case, you would not win or lose ANY points because you did not pet the animal.  </p>","","0","instructions","","","","","","","","","","",""
"learning-instructions","187","905542","0.0-11.0-1.0-0.10","3835","1","13","Female","approach_avoid_spark_v1","""event"",""trial"",""time""
""fullscreenenter"",""1"",""5525""
","
","
","""event"",""trial"",""time""
""fullscreenenter"",""1"",""5525""
","
","","","","","","674","<p> Try to make the best choice for each animal because </p><p> at the end of the game, you will earn bonus money based on how many points you earned. </p>","","0","instructions","","","","","","","","","","",""
"learning-instructions","188","914533","0.0-11.0-1.0-0.11","3835","1","13","Female","approach_avoid_spark_v1","""event"",""trial"",""time""
""fullscreenenter"",""1"",""5525""
","
","
","""event"",""trial"",""time""
""fullscreenenter"",""1"",""5525""
","
","","","","","","805","<p> You will have 3 seconds to make each choice. Try to respond before time runs out! </p><p> You will lose 5 points each time you do not make a response. </p>","","0","instructions","","","","","","","","","","",""
"html-keyboard-response","189","915136","0.0-11.0-2.0-0.0","3835","1","13","Female","approach_avoid_spark_v1","""event"",""trial"",""time""
""fullscreenenter"",""1"",""5525""
","
","
","""event"",""trial"",""time""
""fullscreenenter"",""1"",""5525""
","
","","","","","","null","<div style=""font-size:60px;"">+</div>","null","","fixation","","","","","","","","","","",""
"aa-learning-trial","190","918139","0.0-11.0-2.0-1.0","3835","1","13","Female","approach_avoid_spark_v1","""event"",""trial"",""time""
""fullscreenenter"",""1"",""5525""
","
","
","""event"",""trial"",""time""
""fullscreenenter"",""1"",""5525""
","
","","","","","","977","images/dog5.png","","","learning","5","5","1","1","dog","pets","2","1","","good","[4]"
"html-keyboard-response","191","918642","0.0-11.0-2.0-0.1","3835","1","13","Female","approach_avoid_spark_v1","""event"",""trial"",""time""
""fullscreenenter"",""1"",""5525""
","
","
","""event"",""trial"",""time""
""fullscreenenter"",""1"",""5525""
","
","","","","","","null","<div style=""font-size:60px;"">+</div>","null","","fixation","","","","","","","","","","",""
"aa-learning-trial","192","921644","0.0-11.0-2.0-1.1","3835","1","13","Female","approach_avoid_spark_v1","""event"",""trial"",""time""
""fullscreenenter"",""1"",""5525""
","
","
","""event"",""trial"",""time""
""fullscreenenter"",""1"",""5525""
","
","","","","","","1211.9999999998836","images/rodent2.png","","","learning","-3","-3","1","1","rodent","pets","2","1","","bad","[-6]"
"html-keyboard-response","193","922146","0.0-11.0-2.0-0.2","3835","1","13","Female","approach_avoid_spark_v1","""event"",""trial"",""time""
""fullscreenenter"",""1"",""5525""
","
","
","""event"",""trial"",""time""
""fullscreenenter"",""1"",""5525""
","
","","","","","","null","<div style=""font-size:60px;"">+</div>","null","","fixation","","","","","","","","","","",""
"aa-learning-trial","194","925149","0.0-11.0-2.0-1.2","3835","1","13","Female","approach_avoid_spark_v1","""event"",""trial"",""time""
""fullscreenenter"",""1"",""5525""
","
","
","""event"",""trial"",""time""
""fullscreenenter"",""1"",""5525""
","
","","","","","","604","images/cat6.png","","","learning","7","7","1","1","cat","pets","2","1","","neutral","0"
"html-keyboard-response","195","925651","0.0-11.0-2.0-0.3","3835","1","13","Female","approach_avoid_spark_v1","""event"",""trial"",""time""
""fullscreenenter"",""1"",""5525""
","
","
","""event"",""trial"",""time""
""fullscreenenter"",""1"",""5525""
","
","","","","","","null","<div style=""font-size:60px;"">+</div>","null","","fixation","","","","","","","","","","",""
"aa-learning-trial","196","928655","0.0-11.0-2.0-1.3","3835","1","13","Female","approach_avoid_spark_v1","""event"",""trial"",""time""
""fullscreenenter"",""1"",""5525""
","
","
","""event"",""trial"",""time""
""fullscreenenter"",""1"",""5525""
","
","","","","","","502","images/cat6.png","","","learning","7","7","1","1","cat","pets","2","1","","neutral","0"
"html-keyboard-response","197","929157","0.0-11.0-2.0-0.4","3835","1","13","Female","approach_avoid_spark_v1","""event"",""trial"",""time""
""fullscreenenter"",""1"",""5525""
","
","
","""event"",""trial"",""time""
""fullscreenenter"",""1"",""5525""
","
","","","","","","null","<div style=""font-size:60px;"">+</div>","null","","fixation","","","","","","","","","","",""
"aa-learning-trial","198","932161","0.0-11.0-2.0-1.4","3835","1","13","Female","approach_avoid_spark_v1","""event"",""trial"",""time""
""fullscreenenter"",""1"",""5525""
","
","
","""event"",""trial"",""time""
""fullscreenenter"",""1"",""5525""
","
","","","","","","665","images/dog3.png","","","learning","-7","-7","1","1","dog","pets","2","1","","good","[4]"
"html-keyboard-response","199","932663","0.0-11.0-2.0-0.5","3835","1","13","Female","approach_avoid_spark_v1","""event"",""trial"",""time""
""fullscreenenter"",""1"",""5525""
","
","
","""event"",""trial"",""time""
""fullscreenenter"",""1"",""5525""
","
","","","","","","null","<div style=""font-size:60px;"">+</div>","null","","fixation","","","","","","","","","","",""
"aa-learning-trial","200","935667","0.0-11.0-2.0-1.5","3835","1","13","Female","approach_avoid_spark_v1","""event"",""trial"",""time""
""fullscreenenter"",""1"",""5525""
","
","
","""event"",""trial"",""time""
""fullscreenenter"",""1"",""5525""
","
","","","","","","655","images/rodent1.png","","","learning","-8","-8","1","1","rodent","pets","2","1","","bad","[-6]"
"html-keyboard-response","201","936169","0.0-11.0-2.0-0.6","3835","1","13","Female","approach_avoid_spark_v1","""event"",""trial"",""time""
""fullscreenenter"",""1"",""5525""
","
","
","""event"",""trial"",""time""
""fullscreenenter"",""1"",""5525""
","
","","","","","","null","<div style=""font-size:60px;"">+</div>","null","","fixation","","","","","","","","","","",""
"aa-learning-trial","202","939172","0.0-11.0-2.0-1.6","3835","1","13","Female","approach_avoid_spark_v1","""event"",""trial"",""time""
""fullscreenenter"",""1"",""5525""
","
","
","""event"",""trial"",""time""
""fullscreenenter"",""1"",""5525""
","
","","","","","","1082.0000000001164","images/cat8.png","","","learning","1","1","1","1","cat","pets","2","1","","neutral","0"
"html-keyboard-response","203","939674","0.0-11.0-2.0-0.7","3835","1","13","Female","approach_avoid_spark_v1","""event"",""trial"",""time""
""fullscreenenter"",""1"",""5525""
","
","
","""event"",""trial"",""time""
""fullscreenenter"",""1"",""5525""
","
","","","","","","null","<div style=""font-size:60px;"">+</div>","null","","fixation","","","","","","","","","","",""
"aa-learning-trial","204","942677","0.0-11.0-2.0-1.7","3835","1","13","Female","approach_avoid_spark_v1","""event"",""trial"",""time""
""fullscreenenter"",""1"",""5525""
","
","
","""event"",""trial"",""time""
""fullscreenenter"",""1"",""5525""
","
","","","","","","752.9999999998836","images/rodent6.png","","","learning","8","0","0","0","rodent","pets","2","1","","bad","[-6]"
"html-keyboard-response","205","943179","0.0-11.0-2.0-0.8","3835","1","13","Female","approach_avoid_spark_v1","""event"",""trial"",""time""
""fullscreenenter"",""1"",""5525""
","
","
","""event"",""trial"",""time""
""fullscreenenter"",""1"",""5525""
","
","","","","","","null","<div style=""font-size:60px;"">+</div>","null","","fixation","","","","","","","","","","",""
"aa-learning-trial","206","946181","0.0-11.0-2.0-1.8","3835","1","13","Female","approach_avoid_spark_v1","""event"",""trial"",""time""
""fullscreenenter"",""1"",""5525""
","
","
","""event"",""trial"",""time""
""fullscreenenter"",""1"",""5525""
","
","","","","","","558","images/cat8.png","","","learning","1","1","1","1","cat","pets","2","1","","neutral","0"
"html-keyboard-response","207","946684","0.0-11.0-2.0-0.9","3835","1","13","Female","approach_avoid_spark_v1","""event"",""trial"",""time""
""fullscreenenter"",""1"",""5525""
","
","
","""event"",""trial"",""time""
""fullscreenenter"",""1"",""5525""
","
","","","","","","null","<div style=""font-size:60px;"">+</div>","null","","fixation","","","","","","","","","","",""
"aa-learning-trial","208","949687","0.0-11.0-2.0-1.9","3835","1","13","Female","approach_avoid_spark_v1","""event"",""trial"",""time""
""fullscreenenter"",""1"",""5525""
","
","
","""event"",""trial"",""time""
""fullscreenenter"",""1"",""5525""
","
","","","","","","358","images/dog5.png","","","learning","5","5","1","1","dog","pets","2","1","","good","[4]"
"html-keyboard-response","209","950189","0.0-11.0-2.0-0.10","3835","1","13","Female","approach_avoid_spark_v1","""event"",""trial"",""time""
""fullscreenenter"",""1"",""5525""
","
","
","""event"",""trial"",""time""
""fullscreenenter"",""1"",""5525""
","
","","","","","","null","<div style=""font-size:60px;"">+</div>","null","","fixation","","","","","","","","","","",""
"aa-learning-trial","210","953192","0.0-11.0-2.0-1.10","3835","1","13","Female","approach_avoid_spark_v1","""event"",""trial"",""time""
""fullscreenenter"",""1"",""5525""
","
","
","""event"",""trial"",""time""
""fullscreenenter"",""1"",""5525""
","
","","","","","","901.9999999998836","images/rodent1.png","","","learning","-8","0","0","0","rodent","pets","2","1","","bad","[-6]"
"html-keyboard-response","211","953694","0.0-11.0-2.0-0.11","3835","1","13","Female","approach_avoid_spark_v1","""event"",""trial"",""time""
""fullscreenenter"",""1"",""5525""
","
","
","""event"",""trial"",""time""
""fullscreenenter"",""1"",""5525""
","
","","","","","","null","<div style=""font-size:60px;"">+</div>","null","","fixation","","","","","","","","","","",""
"aa-learning-trial","212","956698","0.0-11.0-2.0-1.11","3835","1","13","Female","approach_avoid_spark_v1","""event"",""trial"",""time""
""fullscreenenter"",""1"",""5525""
","
","
","""event"",""trial"",""time""
""fullscreenenter"",""1"",""5525""
","
","","","","","","1223","images/rodent6.png","","","learning","8","8","1","1","rodent","pets","2","1","","bad","[-6]"
"html-keyboard-response","213","957200","0.0-11.0-2.0-0.12","3835","1","13","Female","approach_avoid_spark_v1","""event"",""trial"",""time""
""fullscreenenter"",""1"",""5525""
","
","
","""event"",""trial"",""time""
""fullscreenenter"",""1"",""5525""
","
","","","","","","null","<div style=""font-size:60px;"">+</div>","null","","fixation","","","","","","","","","","",""
"aa-learning-trial","214","960204","0.0-11.0-2.0-1.12","3835","1","13","Female","approach_avoid_spark_v1","""event"",""trial"",""time""
""fullscreenenter"",""1"",""5525""
","
","
","""event"",""trial"",""time""
""fullscreenenter"",""1"",""5525""
","
","","","","","","1002.0000000001164","images/cat4.png","","","learning","3","3","1","1","cat","pets","2","1","","neutral","0"
"html-keyboard-response","215","960707","0.0-11.0-2.0-0.13","3835","1","13","Female","approach_avoid_spark_v1","""event"",""trial"",""time""
""fullscreenenter"",""1"",""5525""
","
","
","""event"",""trial"",""time""
""fullscreenenter"",""1"",""5525""
","
","","","","","","null","<div style=""font-size:60px;"">+</div>","null","","fixation","","","","","","","","","","",""
"aa-learning-trial","216","963710","0.0-11.0-2.0-1.13","3835","1","13","Female","approach_avoid_spark_v1","""event"",""trial"",""time""
""fullscreenenter"",""1"",""5525""
","
","
","""event"",""trial"",""time""
""fullscreenenter"",""1"",""5525""
","
","","","","","","430","images/dog1.png","","","learning","6","6","1","1","dog","pets","2","1","","good","[4]"
"html-keyboard-response","217","964213","0.0-11.0-2.0-0.14","3835","1","13","Female","approach_avoid_spark_v1","""event"",""trial"",""time""
""fullscreenenter"",""1"",""5525""
","
","
","""event"",""trial"",""time""
""fullscreenenter"",""1"",""5525""
","
","","","","","","null","<div style=""font-size:60px;"">+</div>","null","","fixation","","","","","","","","","","",""
"aa-learning-trial","218","967216","0.0-11.0-2.0-1.14","3835","1","13","Female","approach_avoid_spark_v1","""event"",""trial"",""time""
""fullscreenenter"",""1"",""5525""
","
","
","""event"",""trial"",""time""
""fullscreenenter"",""1"",""5525""
","
","","","","","","486.9999999998836","images/dog1.png","","","learning","6","6","1","1","dog","pets","2","1","","good","[4]"
"html-keyboard-response","219","967719","0.0-11.0-2.0-0.15","3835","1","13","Female","approach_avoid_spark_v1","""event"",""trial"",""time""
""fullscreenenter"",""1"",""5525""
","
","
","""event"",""trial"",""time""
""fullscreenenter"",""1"",""5525""
","
","","","","","","null","<div style=""font-size:60px;"">+</div>","null","","fixation","","","","","","","","","","",""
"aa-learning-trial","220","970722","0.0-11.0-2.0-1.15","3835","1","13","Female","approach_avoid_spark_v1","""event"",""trial"",""time""
""fullscreenenter"",""1"",""5525""
","
","
","""event"",""trial"",""time""
""fullscreenenter"",""1"",""5525""
","
","","","","","","584","images/rodent7.png","","","learning","4","4","1","1","rodent","pets","2","1","","bad","[-6]"
"html-keyboard-response","221","971225","0.0-11.0-2.0-0.16","3835","1","13","Female","approach_avoid_spark_v1","""event"",""trial"",""time""
""fullscreenenter"",""1"",""5525""
","
","
","""event"",""trial"",""time""
""fullscreenenter"",""1"",""5525""
","
","","","","","","null","<div style=""font-size:60px;"">+</div>","null","","fixation","","","","","","","","","","",""
"aa-learning-trial","222","974228","0.0-11.0-2.0-1.16","3835","1","13","Female","approach_avoid_spark_v1","""event"",""trial"",""time""
""fullscreenenter"",""1"",""5525""
","
","
","""event"",""trial"",""time""
""fullscreenenter"",""1"",""5525""
","
","","","","","","645","images/cat6.png","","","learning","7","7","1","1","cat","pets","2","1","","neutral","0"
"html-keyboard-response","223","974731","0.0-11.0-2.0-0.17","3835","1","13","Female","approach_avoid_spark_v1","""event"",""trial"",""time""
""fullscreenenter"",""1"",""5525""
","
","
","""event"",""trial"",""time""
""fullscreenenter"",""1"",""5525""
","
","","","","","","null","<div style=""font-size:60px;"">+</div>","null","","fixation","","","","","","","","","","",""
"aa-learning-trial","224","977735","0.0-11.0-2.0-1.17","3835","1","13","Female","approach_avoid_spark_v1","""event"",""trial"",""time""
""fullscreenenter"",""1"",""5525""
","
","
","""event"",""trial"",""time""
""fullscreenenter"",""1"",""5525""
","
","","","","","","459","images/dog5.png","","","learning","5","5","1","1","dog","pets","2","1","","good","[4]"
"html-keyboard-response","225","978240","0.0-11.0-2.0-0.18","3835","1","13","Female","approach_avoid_spark_v1","""event"",""trial"",""time""
""fullscreenenter"",""1"",""5525""
","
","
","""event"",""trial"",""time""
""fullscreenenter"",""1"",""5525""
","
","","","","","","null","<div style=""font-size:60px;"">+</div>","null","","fixation","","","","","","","","","","",""
"aa-learning-trial","226","981244","0.0-11.0-2.0-1.18","3835","1","13","Female","approach_avoid_spark_v1","""event"",""trial"",""time""
""fullscreenenter"",""1"",""5525""
","
","
","""event"",""trial"",""time""
""fullscreenenter"",""1"",""5525""
","
","","","","","","731.9999999998836","images/rodent2.png","","","learning","-3","0","0","0","rodent","pets","2","1","","bad","[-6]"
"html-keyboard-response","227","981748","0.0-11.0-2.0-0.19","3835","1","13","Female","approach_avoid_spark_v1","""event"",""trial"",""time""
""fullscreenenter"",""1"",""5525""
","
","
","""event"",""trial"",""time""
""fullscreenenter"",""1"",""5525""
","
","","","","","","null","<div style=""font-size:60px;"">+</div>","null","","fixation","","","","","","","","","","",""
"aa-learning-trial","228","984751","0.0-11.0-2.0-1.19","3835","1","13","Female","approach_avoid_spark_v1","""event"",""trial"",""time""
""fullscreenenter"",""1"",""5525""
","
","
","""event"",""trial"",""time""
""fullscreenenter"",""1"",""5525""
","
","","","","","","507","images/rodent6.png","","","learning","8","8","1","1","rodent","pets","2","1","","bad","[-6]"
"html-keyboard-response","229","985254","0.0-11.0-2.0-0.20","3835","1","13","Female","approach_avoid_spark_v1","""event"",""trial"",""time""
""fullscreenenter"",""1"",""5525""
","
","
","""event"",""trial"",""time""
""fullscreenenter"",""1"",""5525""
","
","","","","","","null","<div style=""font-size:60px;"">+</div>","null","","fixation","","","","","","","","","","",""
"aa-learning-trial","230","988257","0.0-11.0-2.0-1.20","3835","1","13","Female","approach_avoid_spark_v1","""event"",""trial"",""time""
""fullscreenenter"",""1"",""5525""
","
","
","""event"",""trial"",""time""
""fullscreenenter"",""1"",""5525""
","
","","","","","","553","images/cat8.png","","","learning","1","1","1","1","cat","pets","2","1","","neutral","0"
"html-keyboard-response","231","988760","0.0-11.0-2.0-0.21","3835","1","13","Female","approach_avoid_spark_v1","""event"",""trial"",""time""
""fullscreenenter"",""1"",""5525""
","
","
","""event"",""trial"",""time""
""fullscreenenter"",""1"",""5525""
","
","","","","","","null","<div style=""font-size:60px;"">+</div>","null","","fixation","","","","","","","","","","",""
"aa-learning-trial","232","991763","0.0-11.0-2.0-1.21","3835","1","13","Female","approach_avoid_spark_v1","""event"",""trial"",""time""
""fullscreenenter"",""1"",""5525""
","
","
","""event"",""trial"",""time""
""fullscreenenter"",""1"",""5525""
","
","","","","","","1094.9999999998836","images/rodent1.png","","","learning","-8","-8","1","1","rodent","pets","2","1","","bad","[-6]"
"html-keyboard-response","233","992266","0.0-11.0-2.0-0.22","3835","1","13","Female","approach_avoid_spark_v1","""event"",""trial"",""time""
""fullscreenenter"",""1"",""5525""
","
","
","""event"",""trial"",""time""
""fullscreenenter"",""1"",""5525""
","
","","","","","","null","<div style=""font-size:60px;"">+</div>","null","","fixation","","","","","","","","","","",""
"aa-learning-trial","234","995270","0.0-11.0-2.0-1.22","3835","1","13","Female","approach_avoid_spark_v1","""event"",""trial"",""time""
""fullscreenenter"",""1"",""5525""
","
","
","""event"",""trial"",""time""
""fullscreenenter"",""1"",""5525""
","
","","","","","","1212","images/rodent8.png","","","learning","-2","0","0","0","rodent","pets","2","1","","bad","[-6]"
"html-keyboard-response","235","995772","0.0-11.0-2.0-0.23","3835","1","13","Female","approach_avoid_spark_v1","""event"",""trial"",""time""
""fullscreenenter"",""1"",""5525""
","
","
","""event"",""trial"",""time""
""fullscreenenter"",""1"",""5525""
","
","","","","","","null","<div style=""font-size:60px;"">+</div>","null","","fixation","","","","","","","","","","",""
"aa-learning-trial","236","998776","0.0-11.0-2.0-1.23","3835","1","13","Female","approach_avoid_spark_v1","""event"",""trial"",""time""
""fullscreenenter"",""1"",""5525""
","
","
","""event"",""trial"",""time""
""fullscreenenter"",""1"",""5525""
","
","","","","","","637","images/dog1.png","","","learning","6","6","1","1","dog","pets","2","1","","good","[4]"
"html-keyboard-response","237","999278","0.0-11.0-2.0-0.24","3835","1","13","Female","approach_avoid_spark_v1","""event"",""trial"",""time""
""fullscreenenter"",""1"",""5525""
","
","
","""event"",""trial"",""time""
""fullscreenenter"",""1"",""5525""
","
","","","","","","null","<div style=""font-size:60px;"">+</div>","null","","fixation","","","","","","","","","","",""
"aa-learning-trial","238","1002282","0.0-11.0-2.0-1.24","3835","1","13","Female","approach_avoid_spark_v1","""event"",""trial"",""time""
""fullscreenenter"",""1"",""5525""
","
","
","""event"",""trial"",""time""
""fullscreenenter"",""1"",""5525""
","
","","","","","","742","images/cat6.png","","","learning","7","7","1","1","cat","pets","2","1","","neutral","0"
"html-keyboard-response","239","1002784","0.0-11.0-2.0-0.25","3835","1","13","Female","approach_avoid_spark_v1","""event"",""trial"",""time""
""fullscreenenter"",""1"",""5525""
","
","
","""event"",""trial"",""time""
""fullscreenenter"",""1"",""5525""