"trial_type","trial_index","time_elapsed","internal_node_id","subject_id","task_condition","age","gender","task_version","interactions","blur_events","focus_events","fullscreenenter_events","fullscreenexit_events","success","timeout","failed_images","failed_audio","failed_video","rt","stimulus","response","button_pressed","task_part","approach_reward","points","key_press","option_selected","stim_cat","task_block","block_condition","block_number","correct","cat_type","mean_cat_reward"
"pavlovia","0","5","0.0-0.0","5811","2","15","Male","approach_avoid_spark_v1","""event"",""trial"",""time""
""fullscreenenter"",""1"",""4721""
","
","
","""event"",""trial"",""time""
""fullscreenenter"",""1"",""4721""
","
","","","","","","","","","","","","","","","","","","","","",""
"fullscreen","1","5665","0.0-1.0","5811","2","15","Male","approach_avoid_spark_v1","""event"",""trial"",""time""
""fullscreenenter"",""1"",""4721""
","
","
","""event"",""trial"",""time""
""fullscreenenter"",""1"",""4721""
","
","true","","","","","","","","","","","","","","","","","","","",""
"preload","2","11187","0.0-2.0","5811","2","15","Male","approach_avoid_spark_v1","""event"",""trial"",""time""
""fullscreenenter"",""1"",""4721""
","
","
","""event"",""trial"",""time""
""fullscreenenter"",""1"",""4721""
","
","true","false","[]","[]","[]","","","","","","","","","","","","","","","",""
"audio-keyboard-response","3","16318","0.0-3.0","5811","2","15","Male","approach_avoid_spark_v1","""event"",""trial"",""time""
""fullscreenenter"",""1"",""4721""
","
","
","""event"",""trial"",""time""
""fullscreenenter"",""1"",""4721""
","
","","","","","","5130.666666666666","audio/beep_loop.wav"," ","","","","","","","","","","","","",""
"audio-button-response","4","18414","0.0-4.0","5811","2","15","Male","approach_avoid_spark_v1","""event"",""trial"",""time""
""fullscreenenter"",""1"",""4721""
","
","
","""event"",""trial"",""time""
""fullscreenenter"",""1"",""4721""
","
","","","","","","2091","audio/shark.wav","4","","","","","","","","","","","","",""
"audio-button-response","5","20562","0.0-5.0","5811","2","15","Male","approach_avoid_spark_v1","""event"",""trial"",""time""
""fullscreenenter"",""1"",""4721""
","
","
","""event"",""trial"",""time""
""fullscreenenter"",""1"",""4721""
","
","","","","","","1131","audio/turtle.wav","1","","","","","","","","","","","","",""
"preload","6","24107","0.0-6.0","5811","2","15","Male","approach_avoid_spark_v1","""event"",""trial"",""time""
""fullscreenenter"",""1"",""4721""
","
","
","""event"",""trial"",""time""
""fullscreenenter"",""1"",""4721""
","
","true","false","[]","[]","[]","","","","","","","","","","","","","","","",""
"html-keyboard-response","7","27061","0.0-7.0","5811","2","15","Male","approach_avoid_spark_v1","""event"",""trial"",""time""
""fullscreenenter"",""1"",""4721""
","
","
","""event"",""trial"",""time""
""fullscreenenter"",""1"",""4721""
","
","","","","","","2952.9000000001397","Welcome to the experiment. Press any key to begin and to advance the instructions."," ","","","","","","","","","","","","",""
"learning-instructions","8","35157","0.0-8.0-0.0-0.0","5811","2","15","Male","approach_avoid_spark_v1","""event"",""trial"",""time""
""fullscreenenter"",""1"",""4721""
","
","
","""event"",""trial"",""time""
""fullscreenenter"",""1"",""4721""
","
","","","","","","1135.0999999998603","<p> Welcome! Today you are going to play 6 different rounds of a decision-making game. </p><p> Use the mouse to click next to continue. </p>","","0","instructions","","","","","","","","","","",""
"learning-instructions","9","39158","0.0-8.0-0.0-0.1","5811","2","15","Male","approach_avoid_spark_v1","""event"",""trial"",""time""
""fullscreenenter"",""1"",""4721""
","
","
","""event"",""trial"",""time""
""fullscreenenter"",""1"",""4721""
","
","","","","","","1247.8000000000466","<p> You will start with a practice round to learn the rules. </p>","","0","instructions","","","","","","","","","","",""
"learning-instructions","10","43462","0.0-8.0-0.0-0.2","5811","2","15","Male","approach_avoid_spark_v1","""event"",""trial"",""time""
""fullscreenenter"",""1"",""4721""
","
","
","""event"",""trial"",""time""
""fullscreenenter"",""1"",""4721""
","
","","","","","","861.7000000001863","<p> Your goal in this round is to give out sports equipment to kids. </p></div>","","0","instructions","","","","","","","","","","",""
"learning-instructions","11","57714","0.0-8.0-0.0-0.3","5811","2","15","Male","approach_avoid_spark_v1","""event"",""trial"",""time""
""fullscreenenter"",""1"",""4721""
","
","
","""event"",""trial"",""time""
""fullscreenenter"",""1"",""4721""
","
","","","","","","6693.5","<p> The kids only like some of the equipment.  </p><p> On each turn, you will see a piece of sports equipment.   </p><p> You need to decide whether to give it to the kids or not.  </p>","","0","instructions","","","","","","","","","","",""
"learning-instructions","12","63611","0.0-8.0-0.0-0.4","5811","2","15","Male","approach_avoid_spark_v1","""event"",""trial"",""time""
""fullscreenenter"",""1"",""4721""
","
","
","""event"",""trial"",""time""
""fullscreenenter"",""1"",""4721""
","
","","","","","","1119.3999999999069","<p> You can give them the equipment by pressing 1 and choose not to give it to them by pressing 0. </p><br><div class=""choice-instructions-grid""> <div class=""choice-option""><img src=""images/approach.png"" class=""choice-option-img"" stage=""instructions"" position=""0"" ><div class=""choice-option-text""> Press ""1."" </div></div><div class=""choice-option""><img src=""images/avoid.png"" class=""choice-option-img"" stage=""instructions"" position=""1"" ><div class=""choice-option-text""> Press ""0."" </div></div>","","0","instructions","","","","","","","","","","",""
"learning-instructions","13","74349","0.0-8.0-0.0-0.5","5811","2","15","Male","approach_avoid_spark_v1","""event"",""trial"",""time""
""fullscreenenter"",""1"",""4721""
","
","
","""event"",""trial"",""time""
""fullscreenenter"",""1"",""4721""
","
","","","","","","3337.5999999998603","<p> If you give them a piece of equipment they like, they will be happy! </p><p> But if you give them a piece of equipment they do not like, they will be sad. </p>","","0","instructions","","","","","","","","","","",""
"learning-instructions","14","86476","0.0-8.0-0.0-0.6","5811","2","15","Male","approach_avoid_spark_v1","""event"",""trial"",""time""
""fullscreenenter"",""1"",""4721""
","
","
","""event"",""trial"",""time""
""fullscreenenter"",""1"",""4721""
","
","","","","","","1595","<p> You will earn points based on how you make kids feel. </p><p> If you make them happy, you will WIN anywhere from 1 - 9 points, </p><p> but if you make them sad, you will LOSE anywhere from 1 - 9 points. </p>","","0","instructions","","","","","","","","","","",""
"learning-instructions","15","96585","0.0-8.0-0.0-0.7","5811","2","15","Male","approach_avoid_spark_v1","""event"",""trial"",""time""
""fullscreenenter"",""1"",""4721""
","
","
","""event"",""trial"",""time""
""fullscreenenter"",""1"",""4721""
","
","","","","","","554","<p> You will see how many points you won or lost in the center of the screen. </p><p> Here is what you would see if you won 6 points: </p><p style=""color:green;font-size:50px;font-weight:bolder"">6</p><p style=""color:green"">The text is GREEN because you WON points.</p>","","0","instructions","","","","","","","","","","",""
"learning-instructions","16","104433","0.0-8.0-0.0-0.8","5811","2","15","Male","approach_avoid_spark_v1","""event"",""trial"",""time""
""fullscreenenter"",""1"",""4721""
","
","
","""event"",""trial"",""time""
""fullscreenenter"",""1"",""4721""
","
","","","","","","2351.4000000001397","<p> And here is what you would see if you lost 4 points: </p><p style=""color:red;font-size:50px;font-weight:bolder"">-4</p><p style=""color:red"">The text is RED because you LOST points. </p>","","0","instructions","","","","","","","","","","",""
"learning-instructions","17","120042","0.0-8.0-0.0-0.9","5811","2","15","Male","approach_avoid_spark_v1","""event"",""trial"",""time""
""fullscreenenter"",""1"",""4721""
","
","
","""event"",""trial"",""time""
""fullscreenenter"",""1"",""4721""
","
","","","","","","881.1999999999534","<p> Some of the equipment will make the kids VERY happy or sad. </p><p> These pieces of equipment will make you win or lose LOTS of points. </p><p> Other pieces of equipment will only make the kids a little happy or sad. </p><p> These pieces of equipment will make you win or lose small amounts of points. </p>","","0","instructions","","","","","","","","","","",""
"learning-instructions","18","131525","0.0-8.0-0.0-0.10","5811","2","15","Male","approach_avoid_spark_v1","""event"",""trial"",""time""
""fullscreenenter"",""1"",""4721""
","
","
","""event"",""trial"",""time""
""fullscreenenter"",""1"",""4721""
","
","","","","","","854.7999999998137","<p> If you choose not to give them the equipment, you will not win or lose any points. </p><p>  However, in the center of the screen, you will see the number of points you WOULD HAVE won or lost if you had given them the equipment. </p>","","0","instructions","","","","","","","","","","",""
"learning-instructions","19","153860","0.0-8.0-0.0-0.11","5811","2","15","Male","approach_avoid_spark_v1","""event"",""trial"",""time""
""fullscreenenter"",""1"",""4721""
","
","
","""event"",""trial"",""time""
""fullscreenenter"",""1"",""4721""
","
","","","","","","779.1999999999534","<p> Here is what you might see if you did not give the equipment to the kids but it would have made them happy: </p><p style=""color:grey; font-size:50px; display: inline-block; border-spacing: 15px; border-width:3px; border-style:solid; border-color:red"">  &nbsp; 7 &nbsp; </p><p> Remember, in this case, you would not win or lose ANY points because you did not give them the equipment.  </p><p style=""color:grey"">The text is GREY because you earned ZERO points. </p><p style=""color:red"">However, choosing to give the kids the equipment would have made you win points. The box around the text is RED because you chose the worse option. </p>","","0","instructions","","","","","","","","","","",""
"learning-instructions","20","176520","0.0-8.0-0.0-0.12","5811","2","15","Male","approach_avoid_spark_v1","""event"",""trial"",""time""
""fullscreenenter"",""1"",""4721""
","
","
","""event"",""trial"",""time""
""fullscreenenter"",""1"",""4721""
","
","","","","","","1579.3999999999069","<p> Here is what you might see if you did not give the equipment to the kids but it would have made them sad: </p><p style=""color:grey;font-size:50px; display: inline-block; border-spacing: 15px; border-width:3px; border-style:solid; border-color:green"">  &nbsp; -8 &nbsp; </p><p> Remember, in this case, you would not win or lose ANY points because you did not give them the equipment.  </p><p style=""color:grey"">The text is GREY because you earned ZERO points. </p><p  style=""color:green""> Choosing to give the kids the equipment would have made you lose points. The box around the text is GREEN because you chose the better option.</p>","","0","instructions","","","","","","","","","","",""
"learning-instructions","21","186257","0.0-8.0-0.0-0.13","5811","2","15","Male","approach_avoid_spark_v1","""event"",""trial"",""time""
""fullscreenenter"",""1"",""4721""
","
","
","""event"",""trial"",""time""
""fullscreenenter"",""1"",""4721""
","
","","","","","","886.5","<p> You will have 3 seconds to make each choice. Try to respond before time runs out! </p><p> You will lose 5 points each time you do not make a response. </p>","","0","instructions","","","","","","","","","","",""
"learning-instructions","22","192083","0.0-8.0-0.0-0.14","5811","2","15","Male","approach_avoid_spark_v1","""event"",""trial"",""time""
""fullscreenenter"",""1"",""4721""
","
","
","""event"",""trial"",""time""
""fullscreenenter"",""1"",""4721""
","
","","","","","","401.4000000001397","<p> This is just a practice round, but in the real game, your bonus payment will depend on your total number of points.","","0","instructions","","","","","","","","","","",""
"learning-instructions","23","198169","0.0-8.0-0.0-0.15","5811","2","15","Male","approach_avoid_spark_v1","""event"",""trial"",""time""
""fullscreenenter"",""1"",""4721""
","
","
","""event"",""trial"",""time""
""fullscreenenter"",""1"",""4721""
","
","","","","","","317.9000000001397","<p> Remember, you can give them the equipment by pressing 1 and choose not to give it to them by pressing 0. </p><br><div class=""choice-instructions-grid""> <div class=""choice-option""><img src=""images/approach.png"" class=""choice-option-img"" stage=""instructions"" position=""0"" ><div class=""choice-option-text""> Press ""1."" </div></div><div class=""choice-option""><img src=""images/avoid.png"" class=""choice-option-img"" stage=""instructions"" position=""1"" ><div class=""choice-option-text""> Press ""0."" </div></div>","","0","instructions","","","","","","","","","","",""
"html-button-response","24","199567","0.0-8.0-1.0","5811","2","15","Male","approach_avoid_spark_v1","""event"",""trial"",""time""
""fullscreenenter"",""1"",""4721""
","
","
","""event"",""trial"",""time""
""fullscreenenter"",""1"",""4721""
","
","","","","","","1276.1000000000931","<p> Ready to practice? </p>","0","","","","","","","","","","","","",""
"html-keyboard-response","25","200173","0.0-8.0-2.0-0.0","5811","2","15","Male","approach_avoid_spark_v1","""event"",""trial"",""time""
""fullscreenenter"",""1"",""4721""
","
","
","""event"",""trial"",""time""
""fullscreenenter"",""1"",""4721""
","
","","","","","","null","<div style=""font-size:60px;"">+</div>","null","","fixation","","","","","","","","","","",""
"aa-learning-trial","26","203189","0.0-8.0-2.0-1.0","5811","2","15","Male","approach_avoid_spark_v1","""event"",""trial"",""time""
""fullscreenenter"",""1"",""4721""
","
","
","""event"",""trial"",""time""
""fullscreenenter"",""1"",""4721""
","
","","","","","","null","images/ball3.png","","","learning","-2","-5","","null","practice","practice","practice","-1","","",""
"html-keyboard-response","27","203699","0.0-8.0-2.0-0.1","5811","2","15","Male","approach_avoid_spark_v1","""event"",""trial"",""time""
""fullscreenenter"",""1"",""4721""
","
","
","""event"",""trial"",""time""
""fullscreenenter"",""1"",""4721""
","
","","","","","","null","<div style=""font-size:60px;"">+</div>","null","","fixation","","","","","","","","","","",""
"aa-learning-trial","28","206715","0.0-8.0-2.0-1.1","5811","2","15","Male","approach_avoid_spark_v1","""event"",""trial"",""time""
""fullscreenenter"",""1"",""4721""
","
","
","""event"",""trial"",""time""
""fullscreenenter"",""1"",""4721""
","
","","","","","","1345.8999999999069","images/ball4.png","","","learning","-7","0","0","0","practice","practice","practice","-1","","",""
"html-keyboard-response","29","207229","0.0-8.0-2.0-0.2","5811","2","15","Male","approach_avoid_spark_v1","""event"",""trial"",""time""
""fullscreenenter"",""1"",""4721""
","
","
","""event"",""trial"",""time""
""fullscreenenter"",""1"",""4721""
","
","","","","","","null","<div style=""font-size:60px;"">+</div>","null","","fixation","","","","","","","","","","",""
"aa-learning-trial","30","210237","0.0-8.0-2.0-1.2","5811","2","15","Male","approach_avoid_spark_v1","""event"",""trial"",""time""
""fullscreenenter"",""1"",""4721""
","
","
","""event"",""trial"",""time""
""fullscreenenter"",""1"",""4721""
","
","","","","","","645.7999999998137","images/ball2.png","","","learning","6","0","0","0","practice","practice","practice","-1","","",""
"html-keyboard-response","31","210752","0.0-8.0-2.0-0.3","5811","2","15","Male","approach_avoid_spark_v1","""event"",""trial"",""time""
""fullscreenenter"",""1"",""4721""
","
","
","""event"",""trial"",""time""
""fullscreenenter"",""1"",""4721""
","
","","","","","","null","<div style=""font-size:60px;"">+</div>","null","","fixation","","","","","","","","","","",""
"aa-learning-trial","32","213769","0.0-8.0-2.0-1.3","5811","2","15","Male","approach_avoid_spark_v1","""event"",""trial"",""time""
""fullscreenenter"",""1"",""4721""
","
","
","""event"",""trial"",""time""
""fullscreenenter"",""1"",""4721""
","
","","","","","","741.1999999999534","images/ball2.png","","","learning","-6","-6","1","1","practice","practice","practice","-1","","",""
"html-keyboard-response","33","214279","0.0-8.0-2.0-0.4","5811","2","15","Male","approach_avoid_spark_v1","""event"",""trial"",""time""
""fullscreenenter"",""1"",""4721""
","
","
","""event"",""trial"",""time""
""fullscreenenter"",""1"",""4721""
","
","","","","","","null","<div style=""font-size:60px;"">+</div>","null","","fixation","","","","","","","","","","",""
"aa-learning-trial","34","217299","0.0-8.0-2.0-1.4","5811","2","15","Male","approach_avoid_spark_v1","""event"",""trial"",""time""
""fullscreenenter"",""1"",""4721""
","
","
","""event"",""trial"",""time""
""fullscreenenter"",""1"",""4721""
","
","","","","","","592.0999999998603","images/ball3.png","","","learning","-4","-4","1","1","practice","practice","practice","-1","","",""
"html-keyboard-response","35","217819","0.0-8.0-2.0-0.5","5811","2","15","Male","approach_avoid_spark_v1","""event"",""trial"",""time""
""fullscreenenter"",""1"",""4721""
","
","
","""event"",""trial"",""time""
""fullscreenenter"",""1"",""4721""
","
","","","","","","null","<div style=""font-size:60px;"">+</div>","null","","fixation","","","","","","","","","","",""
"aa-learning-trial","36","220839","0.0-8.0-2.0-1.5","5811","2","15","Male","approach_avoid_spark_v1","""event"",""trial"",""time""
""fullscreenenter"",""1"",""4721""
","
","
","""event"",""trial"",""time""
""fullscreenenter"",""1"",""4721""
","
","","","","","","373.19999999995343","images/ball1.png","","","learning","-4","0","0","0","practice","practice","practice","-1","","",""
"html-keyboard-response","37","221348","0.0-8.0-2.0-0.6","5811","2","15","Male","approach_avoid_spark_v1","""event"",""trial"",""time""
""fullscreenenter"",""1"",""4721""
","
","
","""event"",""trial"",""time""
""fullscreenenter"",""1"",""4721""
","
","","","","","","null","<div style=""font-size:60px;"">+</div>","null","","fixation","","","","","","","","","","",""
"aa-learning-trial","38","224353","0.0-8.0-2.0-1.6","5811","2","15","Male","approach_avoid_spark_v1","""event"",""trial"",""time""
""fullscreenenter"",""1"",""4721""
","
","
","""event"",""trial"",""time""
""fullscreenenter"",""1"",""4721""
","
","","","","","","500.0999999998603","images/racket4.png","","","learning","-3","0","0","0","practice","practice","practice","-1","","",""
"html-keyboard-response","39","224868","0.0-8.0-2.0-0.7","5811","2","15","Male","approach_avoid_spark_v1","""event"",""trial"",""time""
""fullscreenenter"",""1"",""4721""
","
","
","""event"",""trial"",""time""
""fullscreenenter"",""1"",""4721""
","
","","","","","","null","<div style=""font-size:60px;"">+</div>","null","","fixation","","","","","","","","","","",""
"aa-learning-trial","40","227881","0.0-8.0-2.0-1.7","5811","2","15","Male","approach_avoid_spark_v1","""event"",""trial"",""time""
""fullscreenenter"",""1"",""4721""
","
","
","""event"",""trial"",""time""
""fullscreenenter"",""1"",""4721""
","
","","","","","","852.5","images/ball4.png","","","learning","-9","-9","1","1","practice","practice","practice","-1","","",""
"html-keyboard-response","41","228385","0.0-8.0-2.0-0.8","5811","2","15","Male","approach_avoid_spark_v1","""event"",""trial"",""time""
""fullscreenenter"",""1"",""4721""
","
","
","""event"",""trial"",""time""
""fullscreenenter"",""1"",""4721""
","
","","","","","","null","<div style=""font-size:60px;"">+</div>","null","","fixation","","","","","","","","","","",""
"aa-learning-trial","42","231394","0.0-8.0-2.0-1.8","5811","2","15","Male","approach_avoid_spark_v1","""event"",""trial"",""time""
""fullscreenenter"",""1"",""4721""
","
","
","""event"",""trial"",""time""
""fullscreenenter"",""1"",""4721""
","
","","","","","","809.5","images/racket1.png","","","learning","-5","0","0","0","practice","practice","practice","-1","","",""
"html-keyboard-response","43","231904","0.0-8.0-2.0-0.9","5811","2","15","Male","approach_avoid_spark_v1","""event"",""trial"",""time""
""fullscreenenter"",""1"",""4721""
","
","
","""event"",""trial"",""time""
""fullscreenenter"",""1"",""4721""
","
","","","","","","null","<div style=""font-size:60px;"">+</div>","null","","fixation","","","","","","","","","","",""
"aa-learning-trial","44","234913","0.0-8.0-2.0-1.9","5811","2","15","Male","approach_avoid_spark_v1","""event"",""trial"",""time""
""fullscreenenter"",""1"",""4721""
","
","
","""event"",""trial"",""time""
""fullscreenenter"",""1"",""4721""
","
","","","","","","438.5","images/racket1.png","","","learning","6","0","0","0","practice","practice","practice","-1","","",""
"html-keyboard-response","45","235417","0.0-8.0-2.0-0.10","5811","2","15","Male","approach_avoid_spark_v1","""event"",""trial"",""time""
""fullscreenenter"",""1"",""4721""
","
","
","""event"",""trial"",""time""
""fullscreenenter"",""1"",""4721""
","
","","","","","","null","<div style=""font-size:60px;"">+</div>","null","","fixation","","","","","","","","","","",""
"aa-learning-trial","46","238424","0.0-8.0-2.0-1.10","5811","2","15","Male","approach_avoid_spark_v1","""event"",""trial"",""time""
""fullscreenenter"",""1"",""4721""
","
","
","""event"",""trial"",""time""
""fullscreenenter"",""1"",""4721""
","
","","","","","","812.3000000000466","images/racket2.png","","","learning","-9","0","0","0","practice","practice","practice","-1","","",""
"html-keyboard-response","47","238929","0.0-8.0-2.0-0.11","5811","2","15","Male","approach_avoid_spark_v1","""event"",""trial"",""time""
""fullscreenenter"",""1"",""4721""
","
","
","""event"",""trial"",""time""
""fullscreenenter"",""1"",""4721""
","
","","","","","","null","<div style=""font-size:60px;"">+</div>","null","","fixation","","","","","","","","","","",""
"aa-learning-trial","48","241937","0.0-8.0-2.0-1.11","5811","2","15","Male","approach_avoid_spark_v1","""event"",""trial"",""time""
""fullscreenenter"",""1"",""4721""
","
","
","""event"",""trial"",""time""
""fullscreenenter"",""1"",""4721""
","
","","","","","","734.4000000001397","images/racket2.png","","","learning","4","4","1","1","practice","practice","practice","-1","","",""
"html-button-response","49","244000","0.0-8.0-3.0","5811","2","15","Male","approach_avoid_spark_v1","""event"",""trial"",""time""
""fullscreenenter"",""1"",""4721""
","
","
","""event"",""trial"",""time""
""fullscreenenter"",""1"",""4721""
","
","","","","","","2062","<p> You earned -20 points in the practice round! </p>","0","","break","","","","","","","","","","",""
"learning-instructions","50","252270","0.0-8.0-4.0-0.0","5811","2","15","Male","approach_avoid_spark_v1","""event"",""trial"",""time""
""fullscreenenter"",""1"",""4721""
","
","
","""event"",""trial"",""time""
""fullscreenenter"",""1"",""4721""
","
","","","","","","1130.8000000000466","<p> It's almost time to start the real game. </p><p> Before you start, we're going to ask you a few questions about how the game works. </p>","","0","instructions","","","","","","","","","","",""
"preload","51","253408","0.0-8.0-5.0","5811","2","15","Male","approach_avoid_spark_v1","""event"",""trial"",""time""
""fullscreenenter"",""1"",""4721""
","
","
","""event"",""trial"",""time""
""fullscreenenter"",""1"",""4721""
","
","true","false","[]","[]","[]","","","","","","","","","","","","","","","",""
"comp-q","52","259239","0.0-8.0-6.0-0.0","5811","2","15","Male","approach_avoid_spark_v1","""event"",""trial"",""time""
""fullscreenenter"",""1"",""4721""
","
","
","""event"",""trial"",""time""
""fullscreenenter"",""1"",""4721""
","
","","","","","","829.1999999999534","<p> <b> True or False? </b> </p><p> If you see a number in GREY, that means you earned that many points. </p>","","1","comp_question","","","","","","","","","true","",""
"comp-q","53","268502","0.0-8.0-6.0-1.0","5811","2","15","Male","approach_avoid_spark_v1","""event"",""trial"",""time""
""fullscreenenter"",""1"",""4721""
","
","
","""event"",""trial"",""time""
""fullscreenenter"",""1"",""4721""
","
","","","","","","893","<p><b> That's right! </b> If you see a grey number, it means you earned ZERO points. <br> The grey numbers show the points you WOULD HAVE earned if you had made the other choice. </p>","","0","comp_answer","","","","","","","","","","",""
"comp-q","54","273584","0.0-8.0-7.0-0.0","5811","2","15","Male","approach_avoid_spark_v1","""event"",""trial"",""time""
""fullscreenenter"",""1"",""4721""
","
","
","""event"",""trial"",""time""
""fullscreenenter"",""1"",""4721""
","
","","","","","","375","<p> <b> True or False? </b> </p><p> You will have as much time as you want to make each choice. </p>","","1","comp_question","","","","","","","","","true","",""
"comp-q","55","278804","0.0-8.0-7.0-1.0","5811","2","15","Male","approach_avoid_spark_v1","""event"",""trial"",""time""
""fullscreenenter"",""1"",""4721""
","
","
","""event"",""trial"",""time""
""fullscreenenter"",""1"",""4721""
","
","","","","","","1165.3000000000466","<p> <b> That's right! </b> You will only have 3 seconds to make each choice. </p>","","0","comp_answer","","","","","","","","","","",""
"comp-q","56","283764","0.0-8.0-8.0-0.0","5811","2","15","Male","approach_avoid_spark_v1","""event"",""trial"",""time""
""fullscreenenter"",""1"",""4721""
","
","
","""event"",""trial"",""time""
""fullscreenenter"",""1"",""4721""
","
","","","","","","285","<p> <b> True or False? </b> </p><p> You should use the '1' and '0' keys to make your choices. </p>","","0","comp_question","","","","","","","","","true","",""
"comp-q","57","290004","0.0-8.0-8.0-1.0","5811","2","15","Male","approach_avoid_spark_v1","""event"",""trial"",""time""
""fullscreenenter"",""1"",""4721""
","
","
","""event"",""trial"",""time""
""fullscreenenter"",""1"",""4721""
","
","","","","","","1625.0999999998603","<p> <b> That's right! </b> You should use the '1' and '0' keys to make each choice. </p>","","0","comp_answer","","","","","","","","","","",""
"learning-instructions","58","297506","0.0-8.0-9.0-0.0","5811","2","15","Male","approach_avoid_spark_v1","""event"",""trial"",""time""
""fullscreenenter"",""1"",""4721""
","
","
","""event"",""trial"",""time""
""fullscreenenter"",""1"",""4721""
","
","","","","","","1206.8999999999069","<p> It's now time to start the real game. </p>Do your best, because the points you earn in the next rounds will influence your bonus payment. </p>","","0","instructions","","","","","","","","","","",""
"preload","59","297638","0.0-9.0-0.0","5811","2","15","Male","approach_avoid_spark_v1","""event"",""trial"",""time""
""fullscreenenter"",""1"",""4721""
","
","
","""event"",""trial"",""time""
""fullscreenenter"",""1"",""4721""
","
","true","false","[]","[]","[]","","","","","","","","","","","","","","","",""
"learning-instructions","60","302857","0.0-9.0-1.0-0.0","5811","2","15","Male","approach_avoid_spark_v1","""event"",""trial"",""time""
""fullscreenenter"",""1"",""4721""
","
","
","""event"",""trial"",""time""
""fullscreenenter"",""1"",""4721""
","
","","","","","","2128","<p> Your goal in this round is to eat tasty fruit. </p></div>","","0","instructions","","","","","","","","","","",""
"learning-instructions","61","314734","0.0-9.0-1.0-0.1","5811","2","15","Male","approach_avoid_spark_v1","""event"",""trial"",""time""
""fullscreenenter"",""1"",""4721""
","
","
","""event"",""trial"",""time""
""fullscreenenter"",""1"",""4721""
","
","","","","","","2335.100000000093","<p> Some of the fruits you will see are tasty. Others are rotten on the inside.  </p><p> On each turn, you will see a fruit.   </p><p> You need to decide whether to eat it or not.  </p>","","0","instructions","","","","","","","","","","",""
"learning-instructions","62","320846","0.0-9.0-1.0-0.2","5811","2","15","Male","approach_avoid_spark_v1","""event"",""trial"",""time""
""fullscreenenter"",""1"",""4721""
","
","
","""event"",""trial"",""time""
""fullscreenenter"",""1"",""4721""
","
","","","","","","1416.3999999999069","<p> You can eat the fruit by pressing 1 and choose not to eat it by pressing 0. </p><br><div class=""choice-instructions-grid""> <div class=""choice-option""><img src=""images/approach.png"" class=""choice-option-img"" stage=""instructions"" position=""0"" ><div class=""choice-option-text""> Press ""1."" </div></div><div class=""choice-option""><img src=""images/avoid.png"" class=""choice-option-img"" stage=""instructions"" position=""1"" ><div class=""choice-option-text""> Press ""0."" </div></div>","","0","instructions","","","","","","","","","","",""
"learning-instructions","63","329429","0.0-9.0-1.0-0.3","5811","2","15","Male","approach_avoid_spark_v1","""event"",""trial"",""time""
""fullscreenenter"",""1"",""4721""
","
","
","""event"",""trial"",""time""
""fullscreenenter"",""1"",""4721""
","
","","","","","","1409.5","<p> If you eat the fruit and it was tasty, you will win points! </p><p> But if you eat the fruit and it was rotten, you will lose points. </p>","","0","instructions","","","","","","","","","","",""
"learning-instructions","64","340678","0.0-9.0-1.0-0.4","5811","2","15","Male","approach_avoid_spark_v1","""event"",""trial"",""time""
""fullscreenenter"",""1"",""4721""
","
","
","""event"",""trial"",""time""
""fullscreenenter"",""1"",""4721""
","
","","","","","","218.80000000004657","<p> You will earn points based on how tasty or rotten the fruit was. </p><p> If it was tasty, you will WIN anywhere from 1 - 9 points, </p><p> but if it was rotten, you will LOSE anywhere from 1 - 9 points. </p>","","0","instructions","","","","","","","","","","",""
"learning-instructions","65","348386","0.0-9.0-1.0-0.5","5811","2","15","Male","approach_avoid_spark_v1","""event"",""trial"",""time""
""fullscreenenter"",""1"",""4721""
","
","
","""event"",""trial"",""time""
""fullscreenenter"",""1"",""4721""
","
","","","","","","366.19999999995343","<p> You will see how many points you won or lost in the center of the screen. </p><p> Here is what you would see if you earned 5 points: </p><p style=""color:green;font-size:50px;font-weight:bolder"">5</p>","","0","instructions","","","","","","","","","","",""
"learning-instructions","66","352014","0.0-9.0-1.0-0.6","5811","2","15","Male","approach_avoid_spark_v1","""event"",""trial"",""time""
""fullscreenenter"",""1"",""4721""
","
","
","""event"",""trial"",""time""
""fullscreenenter"",""1"",""4721""
","
","","","","","","324.10000000009313","<p> And here is what you would see if you lost 3 points: </p><p style=""color:red;font-size:50px;font-weight:bolder"">-3</p>","","0","instructions","","","","","","","","","","",""
"learning-instructions","67","366459","0.0-9.0-1.0-0.7","5811","2","15","Male","approach_avoid_spark_v1","""event"",""trial"",""time""
""fullscreenenter"",""1"",""4721""
","
","
","""event"",""trial"",""time""
""fullscreenenter"",""1"",""4721""
","
","","","","","","989.3000000000466","<p> Some fruit is very tasty or very rotten. </p><p> These fruits will make you win or lose LOTS of points. </p><p> Other fruits are only kind of tasty or kind of rotten. </p><p> These fruits will make you win or lose small amounts of points. </p>","","0","instructions","","","","","","","","","","",""
"learning-instructions","68","377929","0.0-9.0-1.0-0.8","5811","2","15","Male","approach_avoid_spark_v1","""event"",""trial"",""time""
""fullscreenenter"",""1"",""4721""
","
","
","""event"",""trial"",""time""
""fullscreenenter"",""1"",""4721""
","
","","","","","","1359.9000000001397","<p> If you choose to not eat the fruit, you will not win or lose any points. </p><p>  However, in the center of the screen, you will see the number of points you WOULD HAVE earned if you had eaten the fruit. </p>","","0","instructions","","","","","","","","","","",""
"learning-instructions","69","388479","0.0-9.0-1.0-0.9","5811","2","15","Male","approach_avoid_spark_v1","""event"",""trial"",""time""
""fullscreenenter"",""1"",""4721""
","
","
","""event"",""trial"",""time""
""fullscreenenter"",""1"",""4721""
","
","","","","","","980","<p> Here is what you might see if you did not eat the fruit but the fruit was tasty: </p><p style=""color:grey; font-size:50px; display: inline-block; border-spacing: 15px; border-width:3px; border-style:solid; border-color:red"">  &nbsp; 6 &nbsp; </p><p> Remember, in this case, you would not win or lose ANY points because you did not eat the fruit.  </p>","","0","instructions","","","","","","","","","","",""
"learning-instructions","70","396549","0.0-9.0-1.0-0.10","5811","2","15","Male","approach_avoid_spark_v1","""event"",""trial"",""time""
""fullscreenenter"",""1"",""4721""
","
","
","""event"",""trial"",""time""
""fullscreenenter"",""1"",""4721""
","
","","","","","","459.89999999990687","<p> Try to make the best choice for each fruit because </p><p> at the end of the game, you will earn bonus money based on how many points you earned. </p>","","0","instructions","","","","","","","","","","",""
"learning-instructions","71","406679","0.0-9.0-1.0-0.11","5811","2","15","Male","approach_avoid_spark_v1","""event"",""trial"",""time""
""fullscreenenter"",""1"",""4721""
","
","
","""event"",""trial"",""time""
""fullscreenenter"",""1"",""4721""
","
","","","","","","1929.6999999999534","<p> You will have 3 seconds to make each choice. Try to respond before time runs out! </p><p> You will lose 5 points each time you do not make a response. </p>","","0","instructions","","","","","","","","","","",""
"html-keyboard-response","72","407297","0.0-9.0-2.0-0.0","5811","2","15","Male","approach_avoid_spark_v1","""event"",""trial"",""time""
""fullscreenenter"",""1"",""4721""
","
","
","""event"",""trial"",""time""
""fullscreenenter"",""1"",""4721""
","
","","","","","","null","<div style=""font-size:60px;"">+</div>","null","","fixation","","","","","","","","","","",""
"aa-learning-trial","73","410317","0.0-9.0-2.0-1.0","5811","2","15","Male","approach_avoid_spark_v1","""event"",""trial"",""time""
""fullscreenenter"",""1"",""4721""
","
","
","""event"",""trial"",""time""
""fullscreenenter"",""1"",""4721""
","
","","","","","","473.19999999995343","images/banana1.png","","","learning","7","7","1","1","banana","fruit","2","0","","neutral","0"
"html-keyboard-response","74","410837","0.0-9.0-2.0-0.1","5811","2","15","Male","approach_avoid_spark_v1","""event"",""trial"",""time""
""fullscreenenter"",""1"",""4721""
","
","
","""event"",""trial"",""time""
""fullscreenenter"",""1"",""4721""
","
","","","","","","null","<div style=""font-size:60px;"">+</div>","null","","fixation","","","","","","","","","","",""
"aa-learning-trial","75","413858","0.0-9.0-2.0-1.1","5811","2","15","Male","approach_avoid_spark_v1","""event"",""trial"",""time""
""fullscreenenter"",""1"",""4721""
","
","
","""event"",""trial"",""time""
""fullscreenenter"",""1"",""4721""
","
","","","","","","732.6999999999534","images/apple5.png","","","learning","-8","0","0","0","apple","fruit","2","0","","bad","[-6]"
"html-keyboard-response","76","414367","0.0-9.0-2.0-0.2","5811","2","15","Male","approach_avoid_spark_v1","""event"",""trial"",""time""
""fullscreenenter"",""1"",""4721""
","
","
","""event"",""trial"",""time""
""fullscreenenter"",""1"",""4721""
","
","","","","","","null","<div style=""font-size:60px;"">+</div>","null","","fixation","","","","","","","","","","",""
"aa-learning-trial","77","417387","0.0-9.0-2.0-1.2","5811","2","15","Male","approach_avoid_spark_v1","""event"",""trial"",""time""
""fullscreenenter"",""1"",""4721""
","
","
","""event"",""trial"",""time""
""fullscreenenter"",""1"",""4721""
","
","","","","","","663.1999999999534","images/banana4.png","","","learning","-5","-5","1","1","banana","fruit","2","0","","neutral","0"
"html-keyboard-response","78","417907","0.0-9.0-2.0-0.3","5811","2","15","Male","approach_avoid_spark_v1","""event"",""trial"",""time""
""fullscreenenter"",""1"",""4721""
","
","
","""event"",""trial"",""time""
""fullscreenenter"",""1"",""4721""
","
","","","","","","null","<div style=""font-size:60px;"">+</div>","null","","fixation","","","","","","","","","","",""
"aa-learning-trial","79","420917","0.0-9.0-2.0-1.3","5811","2","15","Male","approach_avoid_spark_v1","""event"",""trial"",""time""
""fullscreenenter"",""1"",""4721""
","
","
","""event"",""trial"",""time""
""fullscreenenter"",""1"",""4721""
","
","","","","","","579.4000000001397","images/apple8.png","","","learning","6","6","1","1","apple","fruit","2","0","","bad","[-6]"
"html-keyboard-response","80","421437","0.0-9.0-2.0-0.4","5811","2","15","Male","approach_avoid_spark_v1","""event"",""trial"",""time""
""fullscreenenter"",""1"",""4721""
","
","
","""event"",""trial"",""time""
""fullscreenenter"",""1"",""4721""
","
","","","","","","null","<div style=""font-size:60px;"">+</div>","null","","fixation","","","","","","","","","","",""
"aa-learning-trial","81","424457","0.0-9.0-2.0-1.4","5811","2","15","Male","approach_avoid_spark_v1","""event"",""trial"",""time""
""fullscreenenter"",""1"",""4721""
","
","
","""event"",""trial"",""time""
""fullscreenenter"",""1"",""4721""
","
","","","","","","747.1000000000931","images/apple2.png","","","learning","5","0","0","0","apple","fruit","2","0","","bad","[-6]"
"html-keyboard-response","82","424967","0.0-9.0-2.0-0.5","5811","2","15","Male","approach_avoid_spark_v1","""event"",""trial"",""time""
""fullscreenenter"",""1"",""4721""
","
","
","""event"",""trial"",""time""
""fullscreenenter"",""1"",""4721""
","
","","","","","","null","<div style=""font-size:60px;"">+</div>","null","","fixation","","","","","","","","","","",""
"aa-learning-trial","83","427987","0.0-9.0-2.0-1.5","5811","2","15","Male","approach_avoid_spark_v1","""event"",""trial"",""time""
""fullscreenenter"",""1"",""4721""
","
","
","""event"",""trial"",""time""
""fullscreenenter"",""1"",""4721""
","
","","","","","","610.1000000000931","images/straw5.png","","","learning","-6","-6","1","1","straw","fruit","2","0","","good","[6]"
"html-keyboard-response","84","428507","0.0-9.0-2.0-0.6","5811","2","15","Male","approach_avoid_spark_v1","""event"",""trial"",""time""
""fullscreenenter"",""1"",""4721""
","
","
","""event"",""trial"",""time""
""fullscreenenter"",""1"",""4721""
","
","","","","","","null","<div style=""font-size:60px;"">+</div>","null","","fixation","","","","","","","","","","",""
"aa-learning-trial","85","431527","0.0-9.0-2.0-1.6","5811","2","15","Male","approach_avoid_spark_v1","""event"",""trial"",""time""
""fullscreenenter"",""1"",""4721""
","
","
","""event"",""trial"",""time""
""fullscreenenter"",""1"",""4721""
","
","","","","","","667.1999999999534","images/apple2.png","","","learning","5","0","0","0","apple","fruit","2","0","","bad","[-6]"
"html-keyboard-response","86","432047","0.0-9.0-2.0-0.7","5811","2","15","Male","approach_avoid_spark_v1","""event"",""trial"",""time""
""fullscreenenter"",""1"",""4721""
","
","
","""event"",""trial"",""time""
""fullscreenenter"",""1"",""4721""
","
","","","","","","null","<div style=""font-size:60px;"">+</div>","null","","fixation","","","","","","","","","","",""
"aa-learning-trial","87","435056","0.0-9.0-2.0-1.7","5811","2","15","Male","approach_avoid_spark_v1","""event"",""trial"",""time""
""fullscreenenter"",""1"",""4721""
","
","
","""event"",""trial"",""time""
""fullscreenenter"",""1"",""4721""
","
","","","","","","709.1999999999534","images/apple5.png","","","learning","-8","-8","1","1","apple","fruit","2","0","","bad","[-6]"
"html-keyboard-response","88","435560","0.0-9.0-2.0-0.8","5811","2","15","Male","approach_avoid_spark_v1","""event"",""trial"",""time""
""fullscreenenter"",""1"",""4721""
","
","
","""event"",""trial"",""time""
""fullscreenenter"",""1"",""4721""
","
","","","","","","null","<div style=""font-size:60px;"">+</div>","null","","fixation","","","","","","","","","","",""
"aa-learning-trial","89","438568","0.0-9.0-2.0-1.8","5811","2","15","Male","approach_avoid_spark_v1","""event"",""trial"",""time""
""fullscreenenter"",""1"",""4721""
","
","
","""event"",""trial"",""time""
""fullscreenenter"",""1"",""4721""
","
","","","","","","756","images/straw2.png","","","learning","-4","0","0","0","straw","fruit","2","0","","good","[6]"
"html-keyboard-response","90","439072","0.0-9.0-2.0-0.9","5811","2","15","Male","approach_avoid_spark_v1","""event"",""trial"",""time""
""fullscreenenter"",""1"",""4721""
","
","
","""event"",""trial"",""time""
""fullscreenenter"",""1"",""4721""
","
","","","","","","null","<div style=""font-size:60px;"">+</div>","null","","fixation","","","","","","","","","","",""
"aa-learning-trial","91","442081","0.0-9.0-2.0-1.9","5811","2","15","Male","approach_avoid_spark_v1","""event"",""trial"",""time""
""fullscreenenter"",""1"",""4721""
","
","
","""event"",""trial"",""time""
""fullscreenenter"",""1"",""4721""
","
","","","","","","1017.8999999999069","images/banana6.png","","","learning","3","0","0","0","banana","fruit","2","0","","neutral","0"
"html-keyboard-response","92","442584","0.0-9.0-2.0-0.10","5811","2","15","Male","approach_avoid_spark_v1","""event"",""trial"",""time""
""fullscreenenter"",""1"",""4721""
","
","
","""event"",""trial"",""time""
""fullscreenenter"",""1"",""4721""
","
","","","","","","null","<div style=""font-size:60px;"">+</div>","null","","fixation","","","","","","","","","","",""
"aa-learning-trial","93","445592","0.0-9.0-2.0-1.10","5811","2","15","Male","approach_avoid_spark_v1","""event"",""trial"",""time""
""fullscreenenter"",""1"",""4721""
","
","
","""event"",""trial"",""time""
""fullscreenenter"",""1"",""4721""
","
","","","","","","1263.1000000000931","images/straw5.png","","","learning","-6","0","0","0","straw","fruit","2","0","","good","[6]"
"html-keyboard-response","94","446096","0.0-9.0-2.0-0.11","5811","2","15","Male","approach_avoid_spark_v1","""event"",""trial"",""time""
""fullscreenenter"",""1"",""4721""
","
","
","""event"",""trial"",""time""
""fullscreenenter"",""1"",""4721""
","
","","","","","","null","<div style=""font-size:60px;"">+</div>","null","","fixation","","","","","","","","","","",""
"aa-learning-trial","95","449104","0.0-9.0-2.0-1.11","5811","2","15","Male","approach_avoid_spark_v1","""event"",""trial"",""time""
""fullscreenenter"",""1"",""4721""
","
","
","""event"",""trial"",""time""
""fullscreenenter"",""1"",""4721""
","
","","","","","","814.6999999999534","images/straw2.png","","","learning","-4","-4","1","1","straw","fruit","2","0","","good","[6]"
"html-keyboard-response","96","449608","0.0-9.0-2.0-0.12","5811","2","15","Male","approach_avoid_spark_v1","""event"",""trial"",""time""
""fullscreenenter"",""1"",""4721""
","
","
","""event"",""trial"",""time""
""fullscreenenter"",""1"",""4721""
","
","","","","","","null","<div style=""font-size:60px;"">+</div>","null","","fixation","","","","","","","","","","",""
"aa-learning-trial","97","452616","0.0-9.0-2.0-1.12","5811","2","15","Male","approach_avoid_spark_v1","""event"",""trial"",""time""
""fullscreenenter"",""1"",""4721""
","
","
","""event"",""trial"",""time""
""fullscreenenter"",""1"",""4721""
","
","","","","","","877.3000000000466","images/straw8.png","","","learning","-1","0","0","0","straw","fruit","2","0","","good","[6]"
"html-keyboard-response","98","453120","0.0-9.0-2.0-0.13","5811","2","15","Male","approach_avoid_spark_v1","""event"",""trial"",""time""
""fullscreenenter"",""1"",""4721""
","
","
","""event"",""trial"",""time""
""fullscreenenter"",""1"",""4721""
","
","","","","","","null","<div style=""font-size:60px;"">+</div>","null","","fixation","","","","","","","","","","",""
"aa-learning-trial","99","456128","0.0-9.0-2.0-1.13","5811","2","15","Male","approach_avoid_spark_v1","""event"",""trial"",""time""
""fullscreenenter"",""1"",""4721""
","
","
","""event"",""trial"",""time""
""fullscreenenter"",""1"",""4721""
","
","","","","","","863.9000000001397","images/banana1.png","","","learning","7","0","0","0","banana","fruit","2","0","","neutral","0"
"html-keyboard-response","100","456633","0.0-9.0-2.0-0.14","5811","2","15","Male","approach_avoid_spark_v1","""event"",""trial"",""time""
""fullscreenenter"",""1"",""4721""
","
","
","""event"",""trial"",""time""
""fullscreenenter"",""1"",""4721""
","
","","","","","","null","<div style=""font-size:60px;"">+</div>","null","","fixation","","","","","","","","","","",""
"aa-learning-trial","101","459641","0.0-9.0-2.0-1.14","5811","2","15","Male","approach_avoid_spark_v1","""event"",""trial"",""time""
""fullscreenenter"",""1"",""4721""
","
","
","""event"",""trial"",""time""
""fullscreenenter"",""1"",""4721""
","
","","","","","","878.1000000000931","images/banana4.png","","","learning","-5","-5","1","1","banana","fruit","2","0","","neutral","0"
"html-keyboard-response","102","460144","0.0-9.0-2.0-0.15","5811","2","15","Male","approach_avoid_spark_v1","""event"",""trial"",""time""
""fullscreenenter"",""1"",""4721""
","
","
","""event"",""trial"",""time""
""fullscreenenter"",""1"",""4721""
","
","","","","","","null","<div style=""font-size:60px;"">+</div>","null","","fixation","","","","","","","","","","",""
"aa-learning-trial","103","463153","0.0-9.0-2.0-1.15","5811","2","15","Male","approach_avoid_spark_v1","""event"",""trial"",""time""
""fullscreenenter"",""1"",""4721""
","
","
","""event"",""trial"",""time""
""fullscreenenter"",""1"",""4721""
","
","","","","","","848.0999999998603","images/apple5.png","","","learning","-8","0","0","0","apple","fruit","2","0","","bad","[-6]"
"html-keyboard-response","104","463656","0.0-9.0-2.0-0.16","5811","2","15","Male","approach_avoid_spark_v1","""event"",""trial"",""time""
""fullscreenenter"",""1"",""4721""
","
","
","""event"",""trial"",""time""
""fullscreenenter"",""1"",""4721""
","
","","","","","","null","<div style=""font-size:60px;"">+</div>","null","","fixation","","","","","","","","","","",""
"aa-learning-trial","105","466665","0.0-9.0-2.0-1.16","5811","2","15","Male","approach_avoid_spark_v1","""event"",""trial"",""time""
""fullscreenenter"",""1"",""4721""
","
","
","""event"",""trial"",""time""
""fullscreenenter"",""1"",""4721""
","
","","","","","","522.2999999998137","images/banana4.png","","","learning","-5","0","0","0","banana","fruit","2","0","","neutral","0"
"html-keyboard-response","106","467168","0.0-9.0-2.0-0.17","5811","2","15","Male","approach_avoid_spark_v1","""event"",""trial"",""time""
""fullscreenenter"",""1"",""4721""
","
","
","""event"",""trial"",""time""
""fullscreenenter"",""1"",""4721""
","
","","","","","","null","<div style=""font-size:60px;"">+</div>","null","","fixation","","","","","","","","","","",""
"aa-learning-trial","107","470176","0.0-9.0-2.0-1.17","5811","2","15","Male","approach_avoid_spark_v1","""event"",""trial"",""time""
""fullscreenenter"",""1"",""4721""
","
","
","""event"",""trial"",""time""
""fullscreenenter"",""1"",""4721""
","
","","","","","","834.0999999998603","images/apple6.png","","","learning","2","2","1","1","apple","fruit","2","0","","bad","[-6]"
"html-keyboard-response","108","470680","0.0-9.0-2.0-0.18","5811","2","15","Male","approach_avoid_spark_v1","""event"",""trial"",""time""
""fullscreenenter"",""1"",""4721""
","
","
","""event"",""trial"",""time""
""fullscreenenter"",""1"",""4721""
","
","","","","","","null","<div style=""font-size:60px;"">+</div>","null","","fixation","","","","","","","","","","",""
"aa-learning-trial","109","473689","0.0-9.0-2.0-1.18","5811","2","15","Male","approach_avoid_spark_v1","""event"",""trial"",""time""
""fullscreenenter"",""1"",""4721""
","
","
","""event"",""trial"",""time""
""fullscreenenter"",""1"",""4721""
","
","","","","","","605.5999999998603","images/straw5.png","","","learning","-6","0","0","0","straw","fruit","2","0","","good","[6]"
"html-keyboard-response","110","474192","0.0-9.0-2.0-0.19","5811","2","15","Male","approach_avoid_spark_v1","""event"",""trial"",""time""
""fullscreenenter"",""1"",""4721""
","
","
","""event"",""trial"",""time""
""fullscreenenter"",""1"",""4721""
","
","","","","","","null","<div style=""font-size:60px;"">+</div>","null","","fixation","","","","","","","","","","",""
"aa-learning-trial","111","477201","0.0-9.0-2.0-1.19","5811","2","15","Male","approach_avoid_spark_v1","""event"",""trial"",""time""
""fullscreenenter"",""1"",""4721""
","
","
","""event"",""trial"",""time""
""fullscreenenter"",""1"",""4721""
","
","","","","","","927.0999999998603","images/apple8.png","","","learning","6","6","1","1","apple","fruit","2","0","","bad","[-6]"
"html-keyboard-response","112","477705","0.0-9.0-2.0-0.20","5811","2","15","Male","approach_avoid_spark_v1","""event"",""trial"",""time""
""fullscreenenter"",""1"",""4721""
","
","
","""event"",""trial"",""time""
""fullscreenenter"",""1"",""4721""
","
","","","","","","null","<div style=""font-size:60px;"">+</div>","null","","fixation","","","","","","","","","","",""
"aa-learning-trial","113","480712","0.0-9.0-2.0-1.20","5811","2","15","Male","approach_avoid_spark_v1","""event"",""trial"",""time""
""fullscreenenter"",""1"",""4721""
","
","
","""event"",""trial"",""time""
""fullscreenenter"",""1"",""4721""
","
","","","","","","825.5","images/apple5.png","","","learning","-8","0","0","0","apple","fruit","2","0","","bad","[-6]"
"html-keyboard-response","114","481246","0.0-9.0-2.0-0.21","5811","2","15","Male","approach_avoid_spark_v1","""event"",""trial"",""time""
""fullscreenenter"",""1"",""4721""
","
","
","""event"",""trial"",""time""
""fullscreenenter"",""1"",""4721""
","
","","","","","","null","<div style=""font-size:60px;"">+</div>","null","","fixation","","","","","","","","","","",""
"aa-learning-trial","115","484257","0.0-9.0-2.0-1.21","5811","2","15","Male","approach_avoid_spark_v1","""event"",""trial"",""time""
""fullscreenenter"",""1"",""4721""
","
","
","""event"",""trial"",""time""
""fullscreenenter"",""1"",""4721""
","
","","","","","","901.9000000001397","images/straw5.png","","","learning","-6","0","0","0","straw","fruit","2","0","","good","[6]"
"html-keyboard-response","116","484765","0.0-9.0-2.0-0.22","5811","2","15","Male","approach_avoid_spark_v1","""event"",""trial"",""time""
""fullscreenenter"",""1"",""4721""
","
","
","""event"",""trial"",""time""
""fullscreenenter"",""1"",""4721""
","
","","","","","","null","<div style=""font-size:60px;"">+</div>","null","","fixation","","","","","","","","","","",""
"aa-learning-trial","117","487767","0.0-9.0-2.0-1.22","5811","2","15","Male","approach_avoid_spark_v1","""event"",""trial"",""time""
""fullscreenenter"",""1"",""4721""
","
","
","""event"",""trial"",""time""
""fullscreenenter"",""1"",""4721""
","
","","","","","","666.3999999999069","images/banana1.png","","","learning","7","0","0","0","banana","fruit","2","0","","neutral","0"
"html-keyboard-response","118","488272","0.0-9.0-2.0-0.23","5811","2","15","Male","approach_avoid_spark_v1","""event"",""trial"",""time""
""fullscreenenter"",""1"",""4721""
","
","
","""event"",""trial"",""time""
""fullscreenenter"",""1"",""4721""
","
","","","","","","null","<div style=""font-size:60px;"">+</div>","null","","fixation","","","","","","","","","","",""
"aa-learning-trial","119","491281","0.0-9.0-2.0-1.23","5811","2","15","Male","approach_avoid_spark_v1","""event"",""trial"",""time""
""fullscreenenter"",""1"",""4721""
","
","
","""event"",""trial"",""time""
""fullscreenenter"",""1"",""4721""
","
","","","","","","569.3999999999069","images/straw2.png","","","learning","-4","-4","1","1","straw","fruit","2","0","","good","[6]"
"html-keyboard-response","120","491785","0.0-9.0-2.0-0.24","5811","2","15","Male","approach_avoid_spark_v1","""event"",""trial"",""time""
""fullscreenenter"",""1"",""4721""
","
","
","""event"",""trial"",""time""
""fullscreenenter"",""1"",""4721""
","
","","","","","","null","<div style=""font-size:60px;"">+</div>","null","","fixation","","","","","","","","","","",""
"aa-learning-trial","121","494804","0.0-9.0-2.0-1.24","5811","2","15","Male","approach_avoid_spark_v1","""event"",""trial"",""time""
""fullscreenenter"",""1"",""4721""
","
","
","""event"",""trial"",""time""
""fullscreenenter"",""1"",""4721""
","
","","","","","","1047.1999999999534","images/apple7.png","","","learning","-3","0","0","0","apple","fruit","2","0","","bad","[-6]"
"html-keyboard-response","122","495312","0.0-9.0-2.0-0.25","5811","2","15","Male","approach_avoid_spark_v1","""event"",""trial"",""time""
""fullscreenenter"",""1"",""4721""
","
","
","""event"",""trial"",""time""
""fullscreenenter"",""1"",""4721""
","
","","","","","","null","<div style=""font-size:60px;"">+</div>","null","","fixation","","","","","","","","","","",""
"aa-learning-trial","123","498320","0.0-9.0-2.0-1.25","5811","2","15","Male","approach_avoid_spark_v1","""event"",""trial"",""time""
""fullscreenenter"",""1"",""4721""
","
","
","""event"",""trial"",""time""
""fullscreenenter"",""1"",""4721""
","
","","","","","","734","images/banana4.png","","","learning","-5","0","0","0","banana","fruit","2","0","","neutral","0"
"html-keyboard-response","124","498824","0.0-9.0-2.0-0.26","5811","2","15","Male","approach_avoid_spark_v1","""event"",""trial"",""time""
""fullscreenenter"",""1"",""4721""
","
","
","""event"",""trial"",""time""
""fullscreenenter"",""1"",""4721""
","
","","","","","","null","<div style=""font-size:60px;"">+</div>","null","","fixation","","","","","","","","","","",""
"aa-learning-trial","125","501832","0.0-9.0-2.0-1.26","5811","2","15","Male","approach_avoid_spark_v1","""event"",""trial"",""time""
""fullscreenenter"",""1"",""4721""
","
","
","""event"",""trial"",""time""
""fullscreenenter"",""1"",""4721""
","
","","","","","","539","images/banana6.png","","","learning","3","0","0","0","banana","fruit","2","0","","neutral","0"
"html-keyboard-response","126","502336","0.0-9.0-2.0-0.27","5811","2","15","Male","approach_avoid_spark_v1","""event"",""trial"",""time""
""fullscreenenter"",""1"",""4721""
","
","
","""event"",""trial"",""time""
""fullscreenenter"",""1"",""4721""
","
","","","","","","null","<div style=""font-size:60px;"">+</div>","null","","fixation","","","","","","","","","","",""
"aa-learning-trial","127","505344","0.0-9.0-2.0-1.27","5811","2","15","Male","approach_avoid_spark_v1","""event"",""trial"",""time""
""fullscreenenter"",""1"",""4721""
","
","
","""event"",""trial"",""time""
""fullscreenenter"",""1"",""4721""
","
","","","","","","919.9000000001397","images/banana7.png","","","learning","1","1","1","1","banana","fruit","2","0","","neutral","0"
"html-keyboard-response","128","505848","0.0-9.0-2.0-0.28","5811","2","15","Male","approach_avoid_spark_v1","""event"",""trial"",""time""
""fullscreenenter"",""1"",""4721""
","
","
","""event"",""trial"",""time""
""fullscreenenter"",""1"",""4721""
","
","","","","","","null","<div style=""font-size:60px;"">+</div>","null","","fixation","","","","","","","","","","",""
"aa-learning-trial","129","508857","0.0-9.0-2.0-1.28","5811","2","15","Male","approach_avoid_spark_v1","""event"",""trial"",""time""
""fullscreenenter"",""1"",""4721""
","
","
","""event"",""trial"",""time""
""fullscreenenter"",""1"",""4721""
","
","","","","","","724.6999999999534","images/banana6.png","","","learning","3","0","0","0","banana","fruit","2","0","","neutral","0"
"html-keyboard-response","130","509360","0.0-9.0-2.0-0.29","5811","2","15","Male","approach_avoid_spark_v1","""event"",""trial"",""time""
""fullscreenenter"",""1"",""4721""
","
","
","""event"",""trial"",""time""
""fullscreenenter"",""1"",""4721""
","
","","","","","","null","<div style=""font-size:60px;"">+</div>","null","","fixation","","","","","","","","","","",""
"aa-learning-trial","131","512369","0.0-9.0-2.0-1.29","5811","2","15","Male","approach_avoid_spark_v1","""event"",""trial"",""time""
""fullscreenenter"",""1"",""4721""
","
","
","""event"",""trial"",""time""
""fullscreenenter"",""1"",""4721""
","
","","","","","","541.8000000000466","images/banana4.png","","","learning","-5","-5","1","1","banana","fruit","2","0","","neutral","0"
"html-keyboard-response","132","512872","0.0-9.0-2.0-0.30","5811","2","15","Male","approach_avoid_spark_v1","""event"",""trial"",""time""
""fullscreenenter"",""1"",""4721""
","
","
","""event"",""trial"",""time""
""fullscreenenter"",""1"",""4721""
","
","","","","","","null","<div style=""font-size:60px;"">+</div>","null","","fixation","","","","","","","","","","",""
"aa-learning-trial","133","515881","0.0-9.0-2.0-1.30","5811","2","15","Male","approach_avoid_spark_v1","""event"",""trial"",""time""
""fullscreenenter"",""1"",""4721""
","
","
","""event"",""trial"",""time""
""fullscreenenter"",""1"",""4721""
","
","","","","","","809.3000000000466","images/straw8.png","","","learning","-1","0","0","0","straw","fruit","2","0","","good","[6]"
"html-keyboard-response","134","516384","0.0-9.0-2.0-0.31","5811","2","15","Male","approach_avoid_spark_v1","""event"",""trial"",""time""
""fullscreenenter"",""1"",""4721""
","
","
","""event"",""trial"",""time""
""fullscreenenter"",""1"",""4721""
","
","","","","","","null","<div style=""font-size:60px;"">+</div>","null","","fixation","","","","","","","","","","",""
"aa-learning-trial","135","519393","0.0-9.0-2.0-1.31","5811","2","15","Male","approach_avoid_spark_v1","""event"",""trial"",""time""
""fullscreenenter"",""1"",""4721""
","
","
","""event"",""trial"",""time""
""fullscreenenter"",""1"",""4721""
","
","","","","","","763.1000000000931","images/straw8.png","","","learning","-1","-1","1","1","straw","fruit","2","0","","good","[6]"
"html-keyboard-response","136","519896","0.0-9.0-2.0-0.32","5811","2","15","Male","approach_avoid_spark_v1","""event"",""trial"",""time""
""fullscreenenter"",""1"",""4721""
","
","
","""event"",""trial"",""time""
""fullscreenenter"",""1"",""4721""
","
","","","","","","null","<div style=""font-size:60px;"">+</div>","null","","fixation","","","","","","","","","","",""
"aa-learning-trial","137","522904","0.0-9.0-2.0-1.32","5811","2","15","Male","approach_avoid_spark_v1","""event"",""trial"",""time""
""fullscreenenter"",""1"",""4721""
","
","
","""event"",""trial"",""time""
""fullscreenenter"",""1"",""4721""
","
","","","","","","667.1999999999534","images/straw5.png","","","learning","-6","0","0","0","straw","fruit","2","0","","good","[6]"
"html-keyboard-response","138","523408","0.0-9.0-2.0-0.33","5811","2","15","Male","approach_avoid_spark_v1","""event"",""trial"",""time""
""fullscreenenter"",""1"",""4721""
","
","
","""event"",""trial"",""time""
""fullscreenenter"",""1"",""4721""
","
","","","","","","null","<div style=""font-size:60px;"">+</div>","null","","fixation","","","","","","","","","","",""
"aa-learning-trial","139","526416","0.0-9.0-2.0-1.33","5811","2","15","Male","approach_avoid_spark_v1","""event"",""trial"",""time""
""fullscreenenter"",""1"",""4721""
","
","
","""event"",""trial"",""time""
""fullscreenenter"",""1"",""4721""
","
","","","","","","648.3999999999069","images/apple2.png","","","learning","5","0","0","0","apple","fruit","2","0","","bad","[-6]"
"html-keyboard-response","140","526927","0.0-9.0-2.0-0.34","5811","2","15","Male","approach_avoid_spark_v1","""event"",""trial"",""time""
""fullscreenenter"",""1"",""4721""
","
","
","""event"",""trial"",""time""
""fullscreenenter"",""1"",""4721""
","
","","","","","","null","<div style=""font-size:60px;"">+</div>","null","","fixation","","","","","","","","","","",""
"aa-learning-trial","141","529936","0.0-9.0-2.0-1.34","5811","2","15","Male","approach_avoid_spark_v1","""event"",""trial"",""time""
""fullscreenenter"",""1"",""4721""
","
","
","""event"",""trial"",""time""
""fullscreenenter"",""1"",""4721""
","
","","","","","","700.9000000001397","images/apple5.png","","","learning","-8","0","0","0","apple","fruit","2","0","","bad","[-6]"
"html-keyboard-response","142","530440","0.0-9.0-2.0-0.35","5811","2","15","Male","approach_avoid_spark_v1","""event"",""trial"",""time""
""fullscreenenter"",""1"",""4721""
","
","
","""event"",""trial"",""time""
""fullscreenenter"",""1"",""4721""
","
","","","","","","null","<div style=""font-size:60px;"">+</div>","null","","fixation","","","","","","","","","","",""
"aa-learning-trial","143","533448","0.0-9.0-2.0-1.35","5811","2","15","Male","approach_avoid_spark_v1","""event"",""trial"",""time""
""fullscreenenter"",""1"",""4721""
","
","
","""event"",""trial"",""time""
""fullscreenenter"",""1"",""4721""
","
","","","","","","458.80000000004657","images/apple2.png","","","learning","5","0","0","0","apple","fruit","2","0","","bad","[-6]"
"html-keyboard-response","144","533952","0.0-9.0-2.0-0.36","5811","2","15","Male","approach_avoid_spark_v1","""event"",""trial"",""time""
""fullscreenenter"",""1"",""4721""
","
","
","""event"",""trial"",""time""
""fullscreenenter"",""1"",""4721""
","
","","","","","","null","<div style=""font-size:60px;"">+</div>","null","","fixation","","","","","","","","","","",""
"aa-learning-trial","145","536959","0.0-9.0-2.0-1.36","5811","2","15","Male","approach_avoid_spark_v1","""event"",""trial"",""time""
""fullscreenenter"",""1"",""4721""
","
","
","""event"",""trial"",""time""
""fullscreenenter"",""1"",""4721""
","
","","","","","","546.1999999999534","images/straw7.png","","","learning","8","0","0","0","straw","fruit","2","0","","good","[6]"
"html-keyboard-response","146","537464","0.0-9.0-2.0-0.37","5811","2","15","Male","approach_avoid_spark_v1","""event"",""trial"",""time""
""fullscreenenter"",""1"",""4721""
","
","
","""event"",""trial"",""time""
""fullscreenenter"",""1"",""4721""
","
","","","","","","null","<div style=""font-size:60px;"">+</div>","null","","fixation","","","","","","","","","","",""
"aa-learning-trial","147","540472","0.0-9.0-2.0-1.37","5811","2","15","Male","approach_avoid_spark_v1","""event"",""trial"",""time""
""fullscreenenter"",""1"",""4721""
","
","
","""event"",""trial"",""time""
""fullscreenenter"",""1"",""4721""
","
","","","","","","671.1999999999534","images/straw5.png","","","learning","-6","0","0","0","straw","fruit","2","0","","good","[6]"
"html-keyboard-response","148","540976","0.0-9.0-2.0-0.38","5811","2","15","Male","approach_avoid_spark_v1","""event"",""trial"",""time""
""fullscreenenter"",""1"",""4721""
","
","
","""event"",""trial"",""time""
""fullscreenenter"",""1"",""4721""
","
","","","","","","null","<div style=""font-size:60px;"">+</div>","null","","fixation","","","","","","","","","","",""
"aa-learning-trial","149","543984","0.0-9.0-2.0-1.38","5811","2","15","Male","approach_avoid_spark_v1","""event"",""trial"",""time""
""fullscreenenter"",""1"",""4721""
","
","
","""event"",""trial"",""time""
""fullscreenenter"",""1"",""4721""
","
","","","","","","648.5","images/apple2.png","","","learning","5","0","0","0","apple","fruit","2","0","","bad","[-6]"
"html-keyboard-response","150","544489","0.0-9.0-2.0-0.39","5811","2","15","Male","approach_avoid_spark_v1","""event"",""trial"",""time""
""fullscreenenter"",""1"",""4721""
","
","
","""event"",""trial"",""time""
""fullscreenenter"",""1"",""4721""
","
","","","","","","null","<div style=""font-size:60px;"">+</div>","null","","fixation","","","","","","","","","","",""
"aa-learning-trial","151","547497","0.0-9.0-2.0-1.39","5811","2","15","Male","approach_avoid_spark_v1","""event"",""trial"",""time""
""fullscreenenter"",""1"",""4721""
","
","
","""event"",""trial"",""time""
""fullscreenenter"",""1"",""4721""
","
","","","","","","878.9000000001397","images/straw4.png","","","learning","4","4","1","1","straw","fruit","2","0","","good","[6]"
"html-keyboard-response","152","548001","0.0-9.0-2.0-0.40","5811","2","15","Male","approach_avoid_spark_v1","""event"",""trial"",""time""
""fullscreenenter"",""1"",""4721""
","
","
","""event"",""trial"",""time""
""fullscreenenter"",""1"",""4721""
","
","","","","","","null","<div style=""font-size:60px;"">+</div>","null","","fixation","","","","","","","","","","",""
"aa-learning-trial","153","551009","0.0-9.0-2.0-1.40","5811","2","15","Male","approach_avoid_spark_v1","""event"",""trial"",""time""
""fullscreenenter"",""1"",""4721""
","
","
","""event"",""trial"",""time""
""fullscreenenter"",""1"",""4721""
","
","","","","","","770.4000000001397","images/banana4.png","","","learning","-5","0","0","0","banana","fruit","2","0","","neutral","0"
"html-keyboard-response","154","551512","0.0-9.0-2.0-0.41","5811","2","15","Male","approach_avoid_spark_v1","""event"",""trial"",""time""
""fullscreenenter"",""1"",""4721""
","
","
","""event"",""trial"",""time""
""fullscreenenter"",""1"",""4721""
","
","","","","","","null","<div style=""font-size:60px;"">+</div>","null","","fixation","","","","","","","","","","",""
"aa-learning-trial","155","554521","0.0-9.0-2.0-1.41","5811","2","15","Male","approach_avoid_spark_v1","""event"",""trial"",""time""
""fullscreenenter"",""1"",""4721""
","
","
","""event"",""trial"",""time""
""fullscreenenter"",""1"",""4721""
","
","","","","","","701.3000000000466","images/apple8.png","","","learning","6","6","1","1","apple","fruit","2","0","","bad","[-6]"
"html-keyboard-response","156","555025","0.0-9.0-2.0-0.42","5811","2","15","Male","approach_avoid_spark_v1","""event"",""trial"",""time""
""fullscreenenter"",""1"",""4721""
","
","
","""event"",""trial"",""time""
""fullscreenenter"",""1"",""4721""
","
","","","","","","null","<div style=""font-size:60px;"">+</div>","null","","fixation","","","","","","","","","","",""
"aa-learning-trial","157","558033","0.0-9.0-2.0-1.42","5811","2","15","Male","approach_avoid_spark_v1","""event"",""trial"",""time""
""fullscreenenter"",""1"",""4721""
","
","
","""event"",""trial"",""time""
""fullscreenenter"",""1"",""4721""
","
","","","","","","669.8000000000466","images/apple5.png","","","learning","-8","0","0","0","apple","fruit","2","0","","bad","[-6]"
"html-keyboard-response","158","558537","0.0-9.0-2.0-0.43","5811","2","15","Male","approach_avoid_spark_v1","""event"",""trial"",""time""
""fullscreenenter"",""1"",""4721""
","
","
","""event"",""trial"",""time""
""fullscreenenter"",""1"",""4721""
","
","","","","","","null","<div style=""font-size:60px;"">+</div>","null","","fixation","","","","","","","","","","",""
"aa-learning-trial","159","561544","0.0-9.0-2.0-1.43","5811","2","15","Male","approach_avoid_spark_v1","""event"",""trial"",""time""
""fullscreenenter"",""1"",""4721""
","
","
","""event"",""trial"",""time""
""fullscreenenter"",""1"",""4721""
","
","","","","","","796.5","images/banana1.png","","","learning","7","7","1","1","banana","fruit","2","0","","neutral","0"
"html-keyboard-response","160","562049","0.0-9.0-2.0-0.44","5811","2","15","Male","approach_avoid_spark_v1","""event"",""trial"",""time""
""fullscreenenter"",""1"",""4721""
","
","
","""event"",""trial"",""time""
""fullscreenenter"",""1"",""4721""
","
","","","","","","null","<div style=""font-size:60px;"">+</div>","null","","fixation","","","","","","","","","","",""
"aa-learning-trial","161","565056","0.0-9.0-2.0-1.44","5811","2","15","Male","approach_avoid_spark_v1","""event"",""trial"",""time""
""fullscreenenter"",""1"",""4721""
","
","
","""event"",""trial"",""time""
""fullscreenenter"",""1"",""4721""
","
","","","","","","596.4000000001397","images/straw2.png","","","learning","-4","0","0","0","straw","fruit","2","0","","good","[6]"
"html-keyboard-response","162","565561","0.0-9.0-2.0-0.45","5811","2","15","Male","approach_avoid_spark_v1","""event"",""trial"",""time""
""fullscreenenter"",""1"",""4721""
","
","
","""event"",""trial"",""time""
""fullscreenenter"",""1"",""4721""
","
","","","","","","null","<div style=""font-size:60px;"">+</div>","null","","fixation","","","","","","","","","","",""
"aa-learning-trial","163","568568","0.0-9.0-2.0-1.45","5811","2","15","Male","approach_avoid_spark_v1","""event"",""trial"",""time""
""fullscreenenter"",""1"",""4721""
","
","
","""event"",""trial"",""time""
""fullscreenenter"",""1"",""4721""
","
","","","","","","562.1000000000931","images/straw2.png","","","learning","-4","-4","1","1","straw","fruit","2","0","","good","[6]"
"html-keyboard-response","164","569073","0.0-9.0-2.0-0.46","5811","2","15","Male","approach_avoid_spark_v1","""event"",""trial"",""time""
""fullscreenenter"",""1"",""4721""
","
","
","""event"",""trial"",""time""
""fullscreenenter"",""1"",""4721""
","
","","","","","","null","<div style=""font-size:60px;"">+</div>","null","","fixation","","","","","","","","","","",""
"aa-learning-trial","165","572080","0.0-9.0-2.0-1.46","5811","2","15","Male","approach_avoid_spark_v1","""event"",""trial"",""time""
""fullscreenenter"",""1"",""4721""
","
","
","""event"",""trial"",""time""
""fullscreenenter"",""1"",""4721""
","
","","","","","","489.19999999995343","images/straw2.png","","","learning","-4","0","0","0","straw","fruit","2","0","","good","[6]"
"html-keyboard-response","166","572585","0.0-9.0-2.0-0.47","5811","2","15","Male","approach_avoid_spark_v1","""event"",""trial"",""time""
""fullscreenenter"",""1"",""4721""
","
","
","""event"",""trial"",""time""
""fullscreenenter"",""1"",""4721""
","
","","","","","","null","<div style=""font-size:60px;"">+</div>","null","","fixation","","","","","","","","","","",""
"aa-learning-trial","167","575594","0.0-9.0-2.0-1.47","5811","2","15","Male","approach_avoid_spark_v1","""event"",""trial"",""time""
""fullscreenenter"",""1"",""4721""
","
","
","""event"",""trial"",""time""
""fullscreenenter"",""1"",""4721""
","
","","","","","","470","images/banana1.png","","","learning","7","0","0","0","banana","fruit","2","0","","neutral","0"
"html-keyboard-response","168","576096","0.0-9.0-2.0-0.48","5811","2","15","Male","approach_avoid_spark_v1","""event"",""trial"",""time""
""fullscreenenter"",""1"",""4721""
","
","
","""event"",""trial"",""time""
""fullscreenenter"",""1"",""4721""
","
","","","","","","null","<div style=""font-size:60px;"">+</div>","null","","fixation","","","","","","","","","","",""
"aa-learning-trial","169","579105","0.0-9.0-2.0-1.48","5811","2","15","Male","approach_avoid_spark_v1","""event"",""trial"",""time""
""fullscreenenter"",""1"",""4721""
","
","
","""event"",""trial"",""time""
""fullscreenenter"",""1"",""4721""
","
","","","","","","519.1000000000931","images/apple2.png","","","learning","5","5","1","1","apple","fruit","2","0","","bad","[-6]"
"html-keyboard-response","170","579608","0.0-9.0-2.0-0.49","5811","2","15","Male","approach_avoid_spark_v1","""event"",""trial"",""time""
""fullscreenenter"",""1"",""4721""
","
","
","""event"",""trial"",""time""
""fullscreenenter"",""1"",""4721""
","
","","","","","","null","<div style=""font-size:60px;"">+</div>","null","","fixation","","","","","","","","","","",""
"aa-learning-trial","171","582617","0.0-9.0-2.0-1.49","5811","2","15","Male","approach_avoid_spark_v1","""event"",""trial"",""time""
""fullscreenenter"",""1"",""4721""
","
","
","""event"",""trial"",""time""
""fullscreenenter"",""1"",""4721""
","
","","","","","","622.3999999999069","images/banana3.png","","","learning","-7","0","0","0","banana","fruit","2","0","","neutral","0"
"html-keyboard-response","172","583134","0.0-9.0-2.0-0.50","5811","2","15","Male","approach_avoid_spark_v1","""event"",""trial"",""time""
""fullscreenenter"",""1"",""4721""
","
","
","""event"",""trial"",""time""
""fullscreenenter"",""1"",""4721""
","
","","","","","","null","<div style=""font-size:60px;"">+</div>","null","","fixation","","","","","","","","","","",""
"aa-learning-trial","173","586144","0.0-9.0-2.0-1.50","5811","2","15","Male","approach_avoid_spark_v1","""event"",""trial"",""time""
""fullscreenenter"",""1"",""4721""
","
","
","""event"",""trial"",""time""
""fullscreenenter"",""1"",""4721""
","
","","","","","","459.5999999998603","images/banana1.png","","","learning","7","7","1","1","banana","fruit","2","0","","neutral","0"
"html-button-response","174","588576","0.0-9.0-3.0","5811","2","15","Male","approach_avoid_spark_v1","""event"",""trial"",""time""
""fullscreenenter"",""1"",""4721""
","
","
","""event"",""trial"",""time""
""fullscreenenter"",""1"",""4721""
","
","","","","","","2430.8000000000466","<p> You have completed the round! <p> In this round, you earned 9 points! </p>","0","","break","","","","","","","","","","",""
"html-button-response","175","589596","0.0-10.0","5811","2","15","Male","approach_avoid_spark_v1","""event"",""trial"",""time""
""fullscreenenter"",""1"",""4721""
","
","
","""event"",""trial"",""time""
""fullscreenenter"",""1"",""4721""
","
","","","","","","1019.0999999998603","<p> Now it's time to play another round. </p>","0","","transition_screen","","","","","","","","","","",""
"preload","176","589724","0.0-11.0-0.0","5811","2","15","Male","approach_avoid_spark_v1","""event"",""trial"",""time""
""fullscreenenter"",""1"",""4721""
","
","
","""event"",""trial"",""time""
""fullscreenenter"",""1"",""4721""
","
","true","false","[]","[]","[]","","","","","","","","","","","","","","","",""
"learning-instructions","177","597515","0.0-11.0-1.0-0.0","5811","2","15","Male","approach_avoid_spark_v1","""event"",""trial"",""time""
""fullscreenenter"",""1"",""4721""
","
","
","""event"",""trial"",""time""
""fullscreenenter"",""1"",""4721""
","
","","","","","","2663.5","<p> Your goal in this round is to take care of lots of animals. </p></div>","","0","instructions","","","","","","","","","","",""
"learning-instructions","178","609792","0.0-11.0-1.0-0.1","5811","2","15","Male","approach_avoid_spark_v1","""event"",""trial"",""time""
""fullscreenenter"",""1"",""4721""
","
","
","""event"",""trial"",""time""
""fullscreenenter"",""1"",""4721""
","
","","","","","","3020.1999999999534","<p> Some animals want to be pet, while other animals want to be left alone.  </p><p> On each turn, you will see an animal.   </p><p> You need to decide whether to pet it or not.  </p>","","0","instructions","","","","","","","","","","",""
"learning-instructions","179","621043","0.0-11.0-1.0-0.2","5811","2","15","Male","approach_avoid_spark_v1","""event"",""trial"",""time""
""fullscreenenter"",""1"",""4721""
","
","
","""event"",""trial"",""time""
""fullscreenenter"",""1"",""4721""
","
","","","","","","6300.899999999907","<p> You can pet the animal by pressing 1 and leave the animal alone by pressing 0. </p><br><div class=""choice-instructions-grid""> <div class=""choice-option""><img src=""images/approach.png"" class=""choice-option-img"" stage=""instructions"" position=""0"" ><div class=""choice-option-text""> Press ""1."" </div></div><div class=""choice-option""><img src=""images/avoid.png"" class=""choice-option-img"" stage=""instructions"" position=""1"" ><div class=""choice-option-text""> Press ""0."" </div></div>","","0","instructions","","","","","","","","","","",""
"learning-instructions","180","631752","0.0-11.0-1.0-0.3","5811","2","15","Male","approach_avoid_spark_v1","""event"",""trial"",""time""
""fullscreenenter"",""1"",""4721""
","
","
","""event"",""trial"",""time""
""fullscreenenter"",""1"",""4721""
","
","","","","","","2140.399999999907","<p> If you pet an animal that wants to be pet, you will make it feel happy! </p><p> But if you pet an animal that wants to be left alone, you will make it feel angry. </p>","","0","instructions","","","","","","","","","","",""
"learning-instructions","181","647520","0.0-11.0-1.0-0.4","5811","2","15","Male","approach_avoid_spark_v1","""event"",""trial"",""time""
""fullscreenenter"",""1"",""4721""
","
","
","""event"",""trial"",""time""
""fullscreenenter"",""1"",""4721""
","
","","","","","","3738.100000000093","<p> You will earn points based on how you made the animal feel. </p><p> If you made it feel happy, you will WIN anywhere from 1 - 9 points, </p><p> but if you made it feel angry, you will LOSE anywhere from 1 - 9 points. </p>","","0","instructions","","","","","","","","","","",""
"learning-instructions","182","655227","0.0-11.0-1.0-0.5","5811","2","15","Male","approach_avoid_spark_v1","""event"",""trial"",""time""
""fullscreenenter"",""1"",""4721""
","
","
","""event"",""trial"",""time""
""fullscreenenter"",""1"",""4721""
","
","","","","","","1045.3999999999069","<p> You will see how many points you won or lost in the center of the screen. </p><p> Here is what you would see if you won 5 points: </p><p style=""color:green;font-size:50px;font-weight:bolder"">5</p>","","0","instructions","","","","","","","","","","",""
"learning-instructions","183","660010","0.0-11.0-1.0-0.6","5811","2","15","Male","approach_avoid_spark_v1","""event"",""trial"",""time""
""fullscreenenter"",""1"",""4721""
","
","
","""event"",""trial"",""time""
""fullscreenenter"",""1"",""4721""
","
","","","","","","1947.6999999999534","<p> And here is what you would see if you lost 3 points: </p><p style=""color:red;font-size:50px;font-weight:bolder"">-3</p>","","0","instructions","","","","","","","","","","",""
"learning-instructions","184","678203","0.0-11.0-1.0-0.7","5811","2","15","Male","approach_avoid_spark_v1","""event"",""trial"",""time""
""fullscreenenter"",""1"",""4721""
","
","
","""event"",""trial"",""time""
""fullscreenenter"",""1"",""4721""
","
","","","","","","4741.09999999986","<p> Some animals will become very happy or very angry. </p><p> These animals will make you win or lose LOTS of points. </p><p> Other animals have less strong feelings. </p><p> These animals will make you win or lose small amounts of points. </p>","","0","instructions","","","","","","","","","","",""
"learning-instructions","185","689504","0.0-11.0-1.0-0.8","5811","2","15","Male","approach_avoid_spark_v1","""event"",""trial"",""time""
""fullscreenenter"",""1"",""4721""
","
","
","""event"",""trial"",""time""
""fullscreenenter"",""1"",""4721""
","
","","","","","","301.69999999995343","<p> If you choose to leave the animal alone, you will not win or lose any points. </p><p>  However, in the center of the screen, you will see the number of points you WOULD HAVE won or lost if you had pet the animal. </p>","","0","instructions","","","","","","","","","","",""
"learning-instructions","186","701542","0.0-11.0-1.0-0.9","5811","2","15","Male","approach_avoid_spark_v1","""event"",""trial"",""time""
""fullscreenenter"",""1"",""4721""
","
","
","""event"",""trial"",""time""
""fullscreenenter"",""1"",""4721""
","
","","","","","","700.1999999999534","<p> Here is what you might see if you did not pet the animal but the animal wanted to be pet: </p><p style=""color:grey; font-size:50px; display: inline-block; border-spacing: 15px; border-width:3px; border-style:solid; border-color:red"">  &nbsp; 6 &nbsp; </p><p> Remember, in this case, you would not win or lose ANY points because you did not pet the animal.  </p>","","0","instructions","","","","","","","","","","",""
"learning-instructions","187","708594","0.0-11.0-1.0-0.10","5811","2","15","Male","approach_avoid_spark_v1","""event"",""trial"",""time""
""fullscreenenter"",""1"",""4721""
","
","
","""event"",""trial"",""time""
""fullscreenenter"",""1"",""4721""
","
","","","","","","182.5","<p> Try to make the best choice for each animal because </p><p> at the end of the game, you will earn bonus money based on how many points you earned. </p>","","0","instructions","","","","","","","","","","",""
"learning-instructions","188","717134","0.0-11.0-1.0-0.11","5811","2","15","Male","approach_avoid_spark_v1","""event"",""trial"",""time""
""fullscreenenter"",""1"",""4721""
","
","
","""event"",""trial"",""time""
""fullscreenenter"",""1"",""4721""
","
","","","","","","342.39999999990687","<p> You will have 3 seconds to make each choice. Try to respond before time runs out! </p><p> You will lose 5 points each time you do not make a response. </p>","","0","instructions","","","","","","","","","","",""
"html-keyboard-response","189","717749","0.0-11.0-2.0-0.0","5811","2","15","Male","approach_avoid_spark_v1","""event"",""trial"",""time""
""fullscreenenter"",""1"",""4721""
","
","
","""event"",""trial"",""time""
""fullscreenenter"",""1"",""4721""
","
","","","","","","null","<div style=""font-size:60px;"">+</div>","null","","fixation","","","","","","","","","","",""
"aa-learning-trial","190","720780","0.0-11.0-2.0-1.0","5811","2","15","Male","approach_avoid_spark_v1","""event"",""trial"",""time""
""fullscreenenter"",""1"",""4721""
","
","
","""event"",""trial"",""time""
""fullscreenenter"",""1"",""4721""
","
","","","","","","886.1999999999534","images/dog2.png","","","learning","-7","-7","1","1","dog","pets","1","1","","bad","[-4]"
"html-keyboard-response","191","721290","0.0-11.0-2.0-0.1","5811","2","15","Male","approach_avoid_spark_v1","""event"",""trial"",""time""
""fullscreenenter"",""1"",""4721""
","
","
","""event"",""trial"",""time""
""fullscreenenter"",""1"",""4721""
","
","","","","","","null","<div style=""font-size:60px;"">+</div>","null","","fixation","","","","","","","","","","",""
"aa-learning-trial","192","724309","0.0-11.0-2.0-1.1","5811","2","15","Male","approach_avoid_spark_v1","""event"",""trial"",""time""
""fullscreenenter"",""1"",""4721""
","
","
","""event"",""trial"",""time""
""fullscreenenter"",""1"",""4721""
","
","","","","","","608.4000000001397","images/dog1.png","","","learning","2","0","0","0","dog","pets","1","1","","bad","[-4]"
"html-keyboard-response","193","724819","0.0-11.0-2.0-0.2","5811","2","15","Male","approach_avoid_spark_v1","""event"",""trial"",""time""
""fullscreenenter"",""1"",""4721""
","
","
","""event"",""trial"",""time""
""fullscreenenter"",""1"",""4721""
","
","","","","","","null","<div style=""font-size:60px;"">+</div>","null","","fixation","","","","","","","","","","",""
"aa-learning-trial","194","727841","0.0-11.0-2.0-1.2","5811","2","15","Male","approach_avoid_spark_v1","""event"",""trial"",""time""
""fullscreenenter"",""1"",""4721""
","
","
","""event"",""trial"",""time""
""fullscreenenter"",""1"",""4721""
","
","","","","","","600","images/rodent6.png","","","learning","5","5","1","1","rodent","pets","1","1","","good","[4]"
"html-keyboard-response","195","728355","0.0-11.0-2.0-0.3","5811","2","15","Male","approach_avoid_spark_v1","""event"",""trial"",""time""
""fullscreenenter"",""1"",""4721""
","
","
","""event"",""trial"",""time""
""fullscreenenter"",""1"",""4721""
","
","","","","","","null","<div style=""font-size:60px;"">+</div>","null","","fixation","","","","","","","","","","",""
"aa-learning-trial","196","731371","0.0-11.0-2.0-1.3","5811","2","15","Male","approach_avoid_spark_v1","""event"",""trial"",""time""
""fullscreenenter"",""1"",""4721""
","
","
","""event"",""trial"",""time""
""fullscreenenter"",""1"",""4721""
","
","","","","","","682","images/rodent5.png","","","learning","4","0","0","0","rodent","pets","1","1","","good","[4]"
"html-keyboard-response","197","731892","0.0-11.0-2.0-0.4","5811","2","15","Male","approach_avoid_spark_v1","""event"",""trial"",""time""
""fullscreenenter"",""1"",""4721""
","
","
","""event"",""trial"",""time""
""fullscreenenter"",""1"",""4721""
","
","","","","","","null","<div style=""font-size:60px;"">+</div>","null","","fixation","","","","","","","","","","",""
"aa-learning-trial","198","734901","0.0-11.0-2.0-1.4","5811","2","15","Male","approach_avoid_spark_v1","""event"",""trial"",""time""
""fullscreenenter"",""1"",""4721""
","
","
","""event"",""trial"",""time""
""fullscreenenter"",""1"",""4721""
","
","","","","","","650.3999999999069","images/dog2.png","","","learning","-3","-3","1","1","dog","pets","1","1","","bad","[-4]"
"html-keyboard-response","199","735410","0.0-11.0-2.0-0.5","5811","2","15","Male","approach_avoid_spark_v1","""event"",""trial"",""time""
""fullscreenenter"",""1"",""4721""
","
","
","""event"",""trial"",""time""
""fullscreenenter"",""1"",""4721""
","
","","","","","","null","<div style=""font-size:60px;"">+</div>","null","","fixation","","","","","","","","","","",""
"aa-learning-trial","200","738423","0.0-11.0-2.0-1.5","5811","2","15","Male","approach_avoid_spark_v1","""event"",""trial"",""time""
""fullscreenenter"",""1"",""4721""
","
","
","""event"",""trial"",""time""
""fullscreenenter"",""1"",""4721""
","
","","","","","","634.3999999999069","images/rabbit1.png","","","learning","1","1","1","1","rabbit","pets","1","1","","neutral","0"
"html-keyboard-response","201","738929","0.0-11.0-2.0-0.6","5811","2","15","Male","approach_avoid_spark_v1","""event"",""trial"",""time""
""fullscreenenter"",""1"",""4721""
","
","
","""event"",""trial"",""time""
""fullscreenenter"",""1"",""4721""
","
","","","","","","null","<div style=""font-size:60px;"">+</div>","null","","fixation","","","","","","","","","","",""
"aa-learning-trial","202","741950","0.0-11.0-2.0-1.6","5811","2","15","Male","approach_avoid_spark_v1","""event"",""trial"",""time""
""fullscreenenter"",""1"",""4721""
","
","
","""event"",""trial"",""time""
""fullscreenenter"",""1"",""4721""
","
","","","","","","855.1000000000931","images/rabbit5.png","","","learning","-1","0","0","0","rabbit","pets","1","1","","neutral","0"
"html-keyboard-response","203","742470","0.0-11.0-2.0-0.7","5811","2","15","Male","approach_avoid_spark_v1","""event"",""trial"",""time""
""fullscreenenter"",""1"",""4721""
","
","
","""event"",""trial"",""time""
""fullscreenenter"",""1"",""4721""
","
","","","","","","null","<div style=""font-size:60px;"">+</div>","null","","fixation","","","","","","","","","","",""
"aa-learning-trial","204","745490","0.0-11.0-2.0-1.7","5811","2","15","Male","approach_avoid_spark_v1","""event"",""trial"",""time""
""fullscreenenter"",""1"",""4721""
","
","
","""event"",""trial"",""time""
""fullscreenenter"",""1"",""4721""
","
","","","","","","722.3999999999069","images/rodent7.png","","","learning","3","0","0","0","rodent","pets","1","1","","good","[4]"
"html-keyboard-response","205","746010","0.0-11.0-2.0-0.8","5811","2","15","Male","approach_avoid_spark_v1","""event"",""trial"",""time""
""fullscreenenter"",""1"",""4721""
","
","
","""event"",""trial"",""time""
""fullscreenenter"",""1"",""4721""
","
","","","","","","null","<div style=""font-size:60px;"">+</div>","null","","fixation","","","","","","","","","","",""
"aa-learning-trial","206","749016","0.0-11.0-2.0-1.8","5811","2","15","Male","approach_avoid_spark_v1","""event"",""trial"",""time""
""fullscreenenter"",""1"",""4721""
","
","
","""event"",""trial"",""time""
""fullscreenenter"",""1"",""4721""
","
","","","","","","571.8999999999069","images/rodent7.png","","","learning","1","1","1","1","rodent","pets","1","1","","good","[4]"
"html-keyboard-response","207","749520","0.0-11.0-2.0-0.9","5811","2","15","Male","approach_avoid_spark_v1","""event"",""trial"",""time""
""fullscreenenter"",""1"",""4721""
","
","
","""event"",""trial"",""time""
""fullscreenenter"",""1"",""4721""
","
","","","","","","null","<div style=""font-size:60px;"">+</div>","null","","fixation","","","","","","","","","","",""
"aa-learning-trial","208","752528","0.0-11.0-2.0-1.9","5811","2","15","Male","approach_avoid_spark_v1","""event"",""trial"",""time""
""fullscreenenter"",""1"",""4721""
","
","
","""event"",""trial"",""time""
""fullscreenenter"",""1"",""4721""
","
","","","","","","594","images/dog3.png","","","learning","-3","-3","1","1","dog","pets","1","1","","bad","[-4]"
"html-keyboard-response","209","753033","0.0-11.0-2.0-0.10","5811","2","15","Male","approach_avoid_spark_v1","""event"",""trial"",""time""
""fullscreenenter"",""1"",""4721""
","
","
","""event"",""trial"",""time""
""fullscreenenter"",""1"",""4721""
","
","","","","","","null","<div style=""font-size:60px;"">+</div>","null","","fixation","","","","","","","","","","",""
"aa-learning-trial","210","756041","0.0-11.0-2.0-1.10","5811","2","15","Male","approach_avoid_spark_v1","""event"",""trial"",""time""
""fullscreenenter"",""1"",""4721""
","
","
","""event"",""trial"",""time""
""fullscreenenter"",""1"",""4721""
","
","","","","","","457.5","images/rabbit5.png","","","learning","[1]","0","0","0","rabbit","pets","1","1","","neutral","0"
"html-keyboard-response","211","756544","0.0-11.0-2.0-0.11","5811","2","15","Male","approach_avoid_spark_v1","""event"",""trial"",""time""
""fullscreenenter"",""1"",""4721""
","
","
","""event"",""trial"",""time""
""fullscreenenter"",""1"",""4721""
","
","","","","","","null","<div style=""font-size:60px;"">+</div>","null","","fixation","","","","","","","","","","",""
"aa-learning-trial","212","759553","0.0-11.0-2.0-1.11","5811","2","15","Male","approach_avoid_spark_v1","""event"",""trial"",""time""
""fullscreenenter"",""1"",""4721""
","
","
","""event"",""trial"",""time""
""fullscreenenter"",""1"",""4721""
","
","","","","","","626.3999999999069","images/rodent5.png","","","learning","4","4","1","1","rodent","pets","1","1","","good","[4]"
"html-keyboard-response","213","760056","0.0-11.0-2.0-0.12","5811","2","15","Male","approach_avoid_spark_v1","""event"",""trial"",""time""
""fullscreenenter"",""1"",""4721""
","
","
","""event"",""trial"",""time""
""fullscreenenter"",""1"",""4721""
","
","","","","","","null","<div style=""font-size:60px;"">+</div>","null","","fixation","","","","","","","","","","",""
"aa-learning-trial","214","763064","0.0-11.0-2.0-1.12","5811","2","15","Male","approach_avoid_spark_v1","""event"",""trial"",""time""
""fullscreenenter"",""1"",""4721""
","
","
","""event"",""trial"",""time""
""fullscreenenter"",""1"",""4721""
","
","","","","","","375.60000000009313","images/rabbit3.png","","","learning","-2","-2","1","1","rabbit","pets","1","1","","neutral","0"
"html-keyboard-response","215","763568","0.0-11.0-2.0-0.13","5811","2","15","Male","approach_avoid_spark_v1","""event"",""trial"",""time""
""fullscreenenter"",""1"",""4721""
","
","
","""event"",""trial"",""time""
""fullscreenenter"",""1"",""4721""
","
","","","","","","null","<div style=""font-size:60px;"">+</div>","null","","fixation","","","","","","","","","","",""
"aa-learning-trial","216","766576","0.0-11.0-2.0-1.13","5811","2","15","Male","approach_avoid_spark_v1","""event"",""trial"",""time""
""fullscreenenter"",""1"",""4721""
","
","
","""event"",""trial"",""time""
""fullscreenenter"",""1"",""4721""
","
","","","","","","592.3999999999069","images/rabbit3.png","","","learning","2","2","1","1","rabbit","pets","1","1","","neutral","0"
"html-keyboard-response","217","767080","0.0-11.0-2.0-0.14","5811","2","15","Male","approach_avoid_spark_v1","""event"",""trial"",""time""
""fullscreenenter"",""1"",""4721""
","
","
","""event"",""trial"",""time""
""fullscreenenter"",""1"",""4721""
","
","","","","","","null","<div style=""font-size:60px;"">+</div>","null","","fixation","","","","","","","","","","",""
"aa-learning-trial","218","770088","0.0-11.0-2.0-1.14","5811","2","15","Male","approach_avoid_spark_v1","""event"",""trial"",""time""
""fullscreenenter"",""1"",""4721""
","
","
","""event"",""trial"",""time""
""fullscreenenter"",""1"",""4721""
","
","","","","","","802","images/dog3.png","","","learning","-4","-4","1","1","dog","pets","1","1","","bad","[-4]"
"html-keyboard-response","219","770592","0.0-11.0-2.0-0.15","5811","2","15","Male","approach_avoid_spark_v1","""event"",""trial"",""time""
""fullscreenenter"",""1"",""4721""
","
","
","""event"",""trial"",""time""
""fullscreenenter"",""1"",""4721""
","
","","","","","","null","<div style=""font-size:60px;"">+</div>","null","","fixation","","","","","","","","","","",""
"aa-learning-trial","220","773600","0.0-11.0-2.0-1.15","5811","2","15","Male","approach_avoid_spark_v1","""event"",""trial"",""time""
""fullscreenenter"",""1"",""4721""
","
","
","""event"",""trial"",""time""
""fullscreenenter"",""1"",""4721""
","
","","","","","","501.3000000002794","images/dog2.png","","","learning","-2","-2","1","1","dog","pets","1","1","","bad","[-4]"
"html-keyboard-response","221","774104","0.0-11.0-2.0-0.16","5811","2","15","Male","approach_avoid_spark_v1","""event"",""trial"",""time""
""fullscreenenter"",""1"",""4721""
","
","
","""event"",""trial"",""time""
""fullscreenenter"",""1"",""4721""
","
","","","","","","null","<div style=""font-size:60px;"">+</div>","null","","fixation","","","","","","","","","","",""
"aa-learning-trial","222","777112","0.0-11.0-2.0-1.16","5811","2","15","Male","approach_avoid_spark_v1","""event"",""trial"",""time""
""fullscreenenter"",""1"",""4721""
","
","
","""event"",""trial"",""time""
""fullscreenenter"",""1"",""4721""
","
","","","","","","329.39999999990687","images/dog3.png","","","learning","-5","0","0","0","dog","pets","1","1","","bad","[-4]"
"html-keyboard-response","223","777616","0.0-11.0-2.0-0.17","5811","2","15","Male","approach_avoid_spark_v1","""event"",""trial"",""time""
""fullscreenenter"",""1"",""4721""
","
","
","""event"",""trial"",""time""
""fullscreenenter"",""1"",""4721""
","
","","","","","","null","<div style=""font-size:60px;"">+</div>","null","","fixation","","","","","","","","","","",""
"aa-learning-trial","224","780625","0.0-11.0-2.0-1.17","5811","2","15","Male","approach_avoid_spark_v1","""event"",""trial"",""time""
""fullscreenenter"",""1"",""4721""
","
","
","""event"",""trial"",""time""
""fullscreenenter"",""1"",""4721""
","
","","","","","","594.7999999998137","images/rodent7.png","","","learning","1","1","1","1","rodent","pets","1","1","","good","[4]"
"html-keyboard-response","225","781129","0.0-11.0-2.0-0.18","5811","2","15","Male","approach_avoid_spark_v1","""event"",""trial"",""time""
""fullscreenenter"",""1"",""4721""
","
","
","""event"",""trial"",""time""
""fullscreenenter"",""1"",""4721""
","
","","","","","","null","<div style=""font-size:60px;"">+</div>","null","","fixation","","","","","","","","","","",""
"aa-learning-trial","226","784137","0.0-11.0-2.0-1.18","5811","2","15","Male","approach_avoid_spark_v1","""event"",""trial"",""time""
""fullscreenenter"",""1"",""4721""
","
","
","""event"",""trial"",""time""
""fullscreenenter"",""1"",""4721""
","
","","","","","","728.8999999999069","images/rabbit4.png","","","learning","-1","0","0","0","rabbit","pets","1","1","","neutral","0"
"html-keyboard-response","227","784640","0.0-11.0-2.0-0.19","5811","2","15","Male","approach_avoid_spark_v1","""event"",""trial"",""time""
""fullscreenenter"",""1"",""4721""
","
","
","""event"",""trial"",""time""
""fullscreenenter"",""1"",""4721""
","
","","","","","","null","<div style=""font-size:60px;"">+</div>","null","","fixation","","","","","","","","","","",""
"aa-learning-trial","228","787648","0.0-11.0-2.0-1.19","5811","2","15","Male","approach_avoid_spark_v1","""event"",""trial"",""time""
""fullscreenenter"",""1"",""4721""
","
","
","""event"",""trial"",""time""
""fullscreenenter"",""1"",""4721""
","
","","","","","","881.6999999997206","images/rodent7.png","","","learning","1","0","0","0","rodent","pets","1","1","","good","[4]"
"html-keyboard-response","229","788153","0.0-11.0-2.0-0.20","5811","2","15","Male","approach_avoid_spark_v1","""event"",""trial"",""time""
""fullscreenenter"",""1"",""4721""
","
","
","""event"",""trial"",""time""
""fullscreenenter"",""1"",""4721""
","
","","","","","","null","<div style=""font-size:60px;"">+</div>","null","","fixation","","","","","","","","","","",""
"aa-learning-trial","230","791160","0.0-11.0-2.0-1.20","5811","2","15","Male","approach_avoid_spark_v1","""event"",""trial"",""time""
""fullscreenenter"",""1"",""4721""
","
","
","""event"",""trial"",""time""
""fullscreenenter"",""1"",""4721""
","
","","","","","","660.7000000001863","images/rodent7.png","","","learning","3","3","1","1","rodent","pets","1","1","","good","[4]"
"html-keyboard-response","231","791665","0.0-11.0-2.0-0.21","5811","2","15","Male","approach_avoid_spark_v1","""event"",""trial"",""time""
""fullscreenenter"",""1"",""4721""
","
","
","""event"",""trial"",""time""
""fullscreenenter"",""1"",""4721""
","
","","","","","","null","<div style=""font-size:60px;"">+</div>","null","","fixation","","","","","","","","","","",""
"aa-learning-trial","232","794672","0.0-11.0-2.0-1.21","5811","2","15","Male","approach_avoid_spark_v1","""event"",""trial"",""time""
""fullscreenenter"",""1"",""4721""
","
","
","""event"",""trial"",""time""
""fullscreenenter"",""1"",""4721""
","
","","","","","","763.2999999998137","images/dog3.png","","","learning","-3","0","0","0","dog","pets","1","1","","bad","[-4]"
"html-keyboard-response","233","795176","0.0-11.0-2.0-0.22","5811","2","15","Male","approach_avoid_spark_v1","""event"",""trial"",""time""
""fullscreenenter"",""1"",""4721""
","
","
","""event"",""trial"",""time""
""fullscreenenter"",""1"",""4721""
","
","","","","","","null","<div style=""font-size:60px;"">+</div>","null","","fixation","","","","","","","","","","",""
"aa-learning-trial","234","798184","0.0-11.0-2.0-1.22","5811","2","15","Male","approach_avoid_spark_v1","""event"",""trial"",""time""
""fullscreenenter"",""1"",""4721""
","
","
","""event"",""trial"",""time""
""fullscreenenter"",""1"",""4721""
","
","","","","","","673.8999999999069","images/rodent5.png","","","learning","4","4","1","1","rodent","pets","1","1","","good","[4]"
"html-keyboard-response","235","798688","0.0-11.0-2.0-0.23","5811","2","15","Male","approach_avoid_spark_v1","""event"",""trial"",""time""
""fullscreenenter"",""1"",""4721""
","
","
","""event"",""trial"",""time""
""fullscreenenter"",""1"",""4721""
","
","","","","","","null","<div style=""font-size:60px;"">+</div>","null","","fixation","","","","","","","","","","",""
"aa-learning-trial","236","801697","0.0-11.0-2.0-1.23","5811","2","15","Male","approach_avoid_spark_v1","""event"",""trial"",""time""
""fullscreenenter"",""1"",""4721""
","
","
","""event"",""trial"",""time""
""fullscreenenter"",""1"",""4721""
","
","","","","","","942.6000000000931","images/dog2.png","","","learning","-4","0","0","0","dog","pets","1","1","","bad","[-4]"
"html-keyboard-response","237","802200","0.0-11.0-2.0-0.24","5811","2","15","Male","approach_avoid_spark_v1","""event"",""trial"",""time""
""fullscreenenter"",""1"",""4721""
","
","
","""event"",""trial"",""time""
""fullscreenenter"",""1"",""4721""
","
","","","","","","null","<div style=""font-size:60px;"">+</div>","null","","fixation","","","","","","","","","","",""
"aa-learning-trial","238","805208","0.0-11.0-2.0-1.24","5811","2","15","Male","approach_avoid_spark_v1","""event"",""trial"",""time""
""fullscreenenter"",""1"",""4721""
","
","
","""event"",""trial"",""time""
