"trial_type","trial_index","time_elapsed","internal_node_id","subject_id","task_condition","age","gender","task_version","interactions","blur_events","focus_events","fullscreenenter_events","fullscreenexit_events","success","timeout","failed_images","failed_audio","failed_video","rt","stimulus","response","button_pressed","task_part","approach_reward","points","key_press","option_selected","stim_cat","task_block","block_condition","block_number","correct","cat_type","mean_cat_reward"
"pavlovia","0","6","0.0-0.0","5885","2","9","Female","approach_avoid_spark_v1","""event"",""trial"",""time""
""fullscreenenter"",""1"",""12939""
","
","
","""event"",""trial"",""time""
""fullscreenenter"",""1"",""12939""
","
","","","","","","","","","","","","","","","","","","","","",""
"fullscreen","1","13924","0.0-1.0","5885","2","9","Female","approach_avoid_spark_v1","""event"",""trial"",""time""
""fullscreenenter"",""1"",""12939""
","
","
","""event"",""trial"",""time""
""fullscreenenter"",""1"",""12939""
","
","true","","","","","","","","","","","","","","","","","","","",""
"preload","2","38211","0.0-2.0","5885","2","9","Female","approach_avoid_spark_v1","""event"",""trial"",""time""
""fullscreenenter"",""1"",""12939""
","
","
","""event"",""trial"",""time""
""fullscreenenter"",""1"",""12939""
","
","true","false","[]","[]","[]","","","","","","","","","","","","","","","",""
"audio-keyboard-response","3","44443","0.0-3.0","5885","2","9","Female","approach_avoid_spark_v1","""event"",""trial"",""time""
""fullscreenenter"",""1"",""12939""
","
","
","""event"",""trial"",""time""
""fullscreenenter"",""1"",""12939""
","
","","","","","","6228.752834467119","audio/beep_loop.wav"," ","","","","","","","","","","","","",""
"audio-button-response","4","46810","0.0-4.0","5885","2","9","Female","approach_avoid_spark_v1","""event"",""trial"",""time""
""fullscreenenter"",""1"",""12939""
","
","
","""event"",""trial"",""time""
""fullscreenenter"",""1"",""12939""
","
","","","","","","2368","audio/shark.wav","4","","","","","","","","","","","","",""
"audio-button-response","5","49370","0.0-5.0","5885","2","9","Female","approach_avoid_spark_v1","""event"",""trial"",""time""
""fullscreenenter"",""1"",""12939""
","
","
","""event"",""trial"",""time""
""fullscreenenter"",""1"",""12939""
","
","","","","","","1556","audio/turtle.wav","1","","","","","","","","","","","","",""
"preload","6","57778","0.0-6.0","5885","2","9","Female","approach_avoid_spark_v1","""event"",""trial"",""time""
""fullscreenenter"",""1"",""12939""
","
","
","""event"",""trial"",""time""
""fullscreenenter"",""1"",""12939""
","
","true","false","[]","[]","[]","","","","","","","","","","","","","","","",""
"html-keyboard-response","7","66797","0.0-7.0","5885","2","9","Female","approach_avoid_spark_v1","""event"",""trial"",""time""
""fullscreenenter"",""1"",""12939""
","
","
","""event"",""trial"",""time""
""fullscreenenter"",""1"",""12939""
","
","","","","","","9017.300000000745","Welcome to the experiment. Press any key to begin and to advance the instructions."," ","","","","","","","","","","","","",""
"learning-instructions","8","75405","0.0-8.0-0.0-0.0","5885","2","9","Female","approach_avoid_spark_v1","""event"",""trial"",""time""
""fullscreenenter"",""1"",""12939""
","
","
","""event"",""trial"",""time""
""fullscreenenter"",""1"",""12939""
","
","","","","","","1654.5","<p> Welcome! Today you are going to play 6 different rounds of a decision-making game. </p><p> Use the mouse to click next to continue. </p>","","0","instructions","","","","","","","","","","",""
"learning-instructions","9","79413","0.0-8.0-0.0-0.1","5885","2","9","Female","approach_avoid_spark_v1","""event"",""trial"",""time""
""fullscreenenter"",""1"",""12939""
","
","
","""event"",""trial"",""time""
""fullscreenenter"",""1"",""12939""
","
","","","","","","1279.5999999996275","<p> You will start with a practice round to learn the rules. </p>","","0","instructions","","","","","","","","","","",""
"learning-instructions","10","83469","0.0-8.0-0.0-0.2","5885","2","9","Female","approach_avoid_spark_v1","""event"",""trial"",""time""
""fullscreenenter"",""1"",""12939""
","
","
","""event"",""trial"",""time""
""fullscreenenter"",""1"",""12939""
","
","","","","","","611.1999999992549","<p> Your goal in this round is to give out sports equipment to kids. </p></div>","","0","instructions","","","","","","","","","","",""
"learning-instructions","11","91689","0.0-8.0-0.0-0.3","5885","2","9","Female","approach_avoid_spark_v1","""event"",""trial"",""time""
""fullscreenenter"",""1"",""12939""
","
","
","""event"",""trial"",""time""
""fullscreenenter"",""1"",""12939""
","
","","","","","","674.2999999988824","<p> The kids only like some of the equipment.  </p><p> On each turn, you will see a piece of sports equipment.   </p><p> You need to decide whether to give it to the kids or not.  </p>","","0","instructions","","","","","","","","","","",""
"learning-instructions","12","97586","0.0-8.0-0.0-0.4","5885","2","9","Female","approach_avoid_spark_v1","""event"",""trial"",""time""
""fullscreenenter"",""1"",""12939""
","
","
","""event"",""trial"",""time""
""fullscreenenter"",""1"",""12939""
","
","","","","","","1149.9000000003725","<p> You can give them the equipment by pressing 1 and choose not to give it to them by pressing 0. </p><br><div class=""choice-instructions-grid""> <div class=""choice-option""><img src=""images/approach.png"" class=""choice-option-img"" stage=""instructions"" position=""0"" ><div class=""choice-option-text""> Press ""1."" </div></div><div class=""choice-option""><img src=""images/avoid.png"" class=""choice-option-img"" stage=""instructions"" position=""1"" ><div class=""choice-option-text""> Press ""0."" </div></div>","","0","instructions","","","","","","","","","","",""
"learning-instructions","13","111013","0.0-8.0-0.0-0.5","5885","2","9","Female","approach_avoid_spark_v1","""event"",""trial"",""time""
""fullscreenenter"",""1"",""12939""
","
","
","""event"",""trial"",""time""
""fullscreenenter"",""1"",""12939""
","
","","","","","","6044.0999999996275","<p> If you give them a piece of equipment they like, they will be happy! </p><p> But if you give them a piece of equipment they do not like, they will be sad. </p>","","0","instructions","","","","","","","","","","",""
"learning-instructions","14","122163","0.0-8.0-0.0-0.6","5885","2","9","Female","approach_avoid_spark_v1","""event"",""trial"",""time""
""fullscreenenter"",""1"",""12939""
","
","
","""event"",""trial"",""time""
""fullscreenenter"",""1"",""12939""
","
","","","","","","643.8000000007451","<p> You will earn points based on how you make kids feel. </p><p> If you make them happy, you will WIN anywhere from 1 - 9 points, </p><p> but if you make them sad, you will LOSE anywhere from 1 - 9 points. </p>","","0","instructions","","","","","","","","","","",""
"learning-instructions","15","132768","0.0-8.0-0.0-0.7","5885","2","9","Female","approach_avoid_spark_v1","""event"",""trial"",""time""
""fullscreenenter"",""1"",""12939""
","
","
","""event"",""trial"",""time""
""fullscreenenter"",""1"",""12939""
","
","","","","","","1049.7000000011176","<p> You will see how many points you won or lost in the center of the screen. </p><p> Here is what you would see if you won 6 points: </p><p style=""color:green;font-size:50px;font-weight:bolder"">6</p><p style=""color:green"">The text is GREEN because you WON points.</p>","","0","instructions","","","","","","","","","","",""
"learning-instructions","16","139354","0.0-8.0-0.0-0.8","5885","2","9","Female","approach_avoid_spark_v1","""event"",""trial"",""time""
""fullscreenenter"",""1"",""12939""
","
","
","""event"",""trial"",""time""
""fullscreenenter"",""1"",""12939""
","
","","","","","","1087.8999999985099","<p> And here is what you would see if you lost 4 points: </p><p style=""color:red;font-size:50px;font-weight:bolder"">-4</p><p style=""color:red"">The text is RED because you LOST points. </p>","","0","instructions","","","","","","","","","","",""
"learning-instructions","17","155109","0.0-8.0-0.0-0.9","5885","2","9","Female","approach_avoid_spark_v1","""event"",""trial"",""time""
""fullscreenenter"",""1"",""12939""
","
","
","""event"",""trial"",""time""
""fullscreenenter"",""1"",""12939""
","
","","","","","","1047.0999999996275","<p> Some of the equipment will make the kids VERY happy or sad. </p><p> These pieces of equipment will make you win or lose LOTS of points. </p><p> Other pieces of equipment will only make the kids a little happy or sad. </p><p> These pieces of equipment will make you win or lose small amounts of points. </p>","","0","instructions","","","","","","","","","","",""
"learning-instructions","18","166385","0.0-8.0-0.0-0.10","5885","2","9","Female","approach_avoid_spark_v1","""event"",""trial"",""time""
""fullscreenenter"",""1"",""12939""
","
","
","""event"",""trial"",""time""
""fullscreenenter"",""1"",""12939""
","
","","","","","","655.9000000003725","<p> If you choose not to give them the equipment, you will not win or lose any points. </p><p>  However, in the center of the screen, you will see the number of points you WOULD HAVE won or lost if you had given them the equipment. </p>","","0","instructions","","","","","","","","","","",""
"learning-instructions","19","189298","0.0-8.0-0.0-0.11","5885","2","9","Female","approach_avoid_spark_v1","""event"",""trial"",""time""
""fullscreenenter"",""1"",""12939""
","
","
","""event"",""trial"",""time""
""fullscreenenter"",""1"",""12939""
","
","","","","","","1388.800000000745","<p> Here is what you might see if you did not give the equipment to the kids but it would have made them happy: </p><p style=""color:grey; font-size:50px; display: inline-block; border-spacing: 15px; border-width:3px; border-style:solid; border-color:red"">  &nbsp; 7 &nbsp; </p><p> Remember, in this case, you would not win or lose ANY points because you did not give them the equipment.  </p><p style=""color:grey"">The text is GREY because you earned ZERO points. </p><p style=""color:red"">However, choosing to give the kids the equipment would have made you win points. The box around the text is RED because you chose the worse option. </p>","","0","instructions","","","","","","","","","","",""
"learning-instructions","20","211574","0.0-8.0-0.0-0.12","5885","2","9","Female","approach_avoid_spark_v1","""event"",""trial"",""time""
""fullscreenenter"",""1"",""12939""
","
","
","""event"",""trial"",""time""
""fullscreenenter"",""1"",""12939""
","
","","","","","","1205.5999999996275","<p> Here is what you might see if you did not give the equipment to the kids but it would have made them sad: </p><p style=""color:grey;font-size:50px; display: inline-block; border-spacing: 15px; border-width:3px; border-style:solid; border-color:green"">  &nbsp; -8 &nbsp; </p><p> Remember, in this case, you would not win or lose ANY points because you did not give them the equipment.  </p><p style=""color:grey"">The text is GREY because you earned ZERO points. </p><p  style=""color:green""> Choosing to give the kids the equipment would have made you lose points. The box around the text is GREEN because you chose the better option.</p>","","0","instructions","","","","","","","","","","",""
"learning-instructions","21","223938","0.0-8.0-0.0-0.13","5885","2","9","Female","approach_avoid_spark_v1","""event"",""trial"",""time""
""fullscreenenter"",""1"",""12939""
","
","
","""event"",""trial"",""time""
""fullscreenenter"",""1"",""12939""
","
","","","","","","3330","<p> You will have 3 seconds to make each choice. Try to respond before time runs out! </p><p> You will lose 5 points each time you do not make a response. </p>","","0","instructions","","","","","","","","","","",""
"learning-instructions","22","234174","0.0-8.0-0.0-0.14","5885","2","9","Female","approach_avoid_spark_v1","""event"",""trial"",""time""
""fullscreenenter"",""1"",""12939""
","
","
","""event"",""trial"",""time""
""fullscreenenter"",""1"",""12939""
","
","","","","","","4829.800000000745","<p> This is just a practice round, but in the real game, your bonus payment will depend on your total number of points.","","0","instructions","","","","","","","","","","",""
"learning-instructions","23","241199","0.0-8.0-0.0-0.15","5885","2","9","Female","approach_avoid_spark_v1","""event"",""trial"",""time""
""fullscreenenter"",""1"",""12939""
","
","
","""event"",""trial"",""time""
""fullscreenenter"",""1"",""12939""
","
","","","","","","1265.0999999996275","<p> Remember, you can give them the equipment by pressing 1 and choose not to give it to them by pressing 0. </p><br><div class=""choice-instructions-grid""> <div class=""choice-option""><img src=""images/approach.png"" class=""choice-option-img"" stage=""instructions"" position=""0"" ><div class=""choice-option-text""> Press ""1."" </div></div><div class=""choice-option""><img src=""images/avoid.png"" class=""choice-option-img"" stage=""instructions"" position=""1"" ><div class=""choice-option-text""> Press ""0."" </div></div>","","0","instructions","","","","","","","","","","",""
"html-button-response","24","242835","0.0-8.0-1.0","5885","2","9","Female","approach_avoid_spark_v1","""event"",""trial"",""time""
""fullscreenenter"",""1"",""12939""
","
","
","""event"",""trial"",""time""
""fullscreenenter"",""1"",""12939""
","
","","","","","","1530.4000000003725","<p> Ready to practice? </p>","0","","","","","","","","","","","","",""
"html-keyboard-response","25","243439","0.0-8.0-2.0-0.0","5885","2","9","Female","approach_avoid_spark_v1","""event"",""trial"",""time""
""fullscreenenter"",""1"",""12939""
","
","
","""event"",""trial"",""time""
""fullscreenenter"",""1"",""12939""
","
","","","","","","null","<div style=""font-size:60px;"">+</div>","null","","fixation","","","","","","","","","","",""
"aa-learning-trial","26","246445","0.0-8.0-2.0-1.0","5885","2","9","Female","approach_avoid_spark_v1","""event"",""trial"",""time""
""fullscreenenter"",""1"",""12939""
","
","
","""event"",""trial"",""time""
""fullscreenenter"",""1"",""12939""
","
","","","","","","2980.7999999988824","images/ball3.png","","","learning","9","9","1","1","practice","practice","practice","-1","","",""
"html-keyboard-response","27","246947","0.0-8.0-2.0-0.1","5885","2","9","Female","approach_avoid_spark_v1","""event"",""trial"",""time""
""fullscreenenter"",""1"",""12939""
","
","
","""event"",""trial"",""time""
""fullscreenenter"",""1"",""12939""
","
","","","","","","null","<div style=""font-size:60px;"">+</div>","null","","fixation","","","","","","","","","","",""
"aa-learning-trial","28","249951","0.0-8.0-2.0-1.1","5885","2","9","Female","approach_avoid_spark_v1","""event"",""trial"",""time""
""fullscreenenter"",""1"",""12939""
","
","
","""event"",""trial"",""time""
""fullscreenenter"",""1"",""12939""
","
","","","","","","1938.800000000745","images/ball1.png","","","learning","-9","-9","1","1","practice","practice","practice","-1","","",""
"html-keyboard-response","29","250456","0.0-8.0-2.0-0.2","5885","2","9","Female","approach_avoid_spark_v1","""event"",""trial"",""time""
""fullscreenenter"",""1"",""12939""
","
","
","""event"",""trial"",""time""
""fullscreenenter"",""1"",""12939""
","
","","","","","","null","<div style=""font-size:60px;"">+</div>","null","","fixation","","","","","","","","","","",""
"aa-learning-trial","30","253461","0.0-8.0-2.0-1.2","5885","2","9","Female","approach_avoid_spark_v1","""event"",""trial"",""time""
""fullscreenenter"",""1"",""12939""
","
","
","""event"",""trial"",""time""
""fullscreenenter"",""1"",""12939""
","
","","","","","","1477.300000000745","images/ball4.png","","","learning","8","8","1","1","practice","practice","practice","-1","","",""
"html-keyboard-response","31","253962","0.0-8.0-2.0-0.3","5885","2","9","Female","approach_avoid_spark_v1","""event"",""trial"",""time""
""fullscreenenter"",""1"",""12939""
","
","
","""event"",""trial"",""time""
""fullscreenenter"",""1"",""12939""
","
","","","","","","null","<div style=""font-size:60px;"">+</div>","null","","fixation","","","","","","","","","","",""
"aa-learning-trial","32","256969","0.0-8.0-2.0-1.3","5885","2","9","Female","approach_avoid_spark_v1","""event"",""trial"",""time""
""fullscreenenter"",""1"",""12939""
","
","
","""event"",""trial"",""time""
""fullscreenenter"",""1"",""12939""
","
","","","","","","2067.199999999255","images/racket3.png","","","learning","1","0","0","0","practice","practice","practice","-1","","",""
"html-keyboard-response","33","257474","0.0-8.0-2.0-0.4","5885","2","9","Female","approach_avoid_spark_v1","""event"",""trial"",""time""
""fullscreenenter"",""1"",""12939""
","
","
","""event"",""trial"",""time""
""fullscreenenter"",""1"",""12939""
","
","","","","","","null","<div style=""font-size:60px;"">+</div>","null","","fixation","","","","","","","","","","",""
"aa-learning-trial","34","260481","0.0-8.0-2.0-1.4","5885","2","9","Female","approach_avoid_spark_v1","""event"",""trial"",""time""
""fullscreenenter"",""1"",""12939""
","
","
","""event"",""trial"",""time""
""fullscreenenter"",""1"",""12939""
","
","","","","","","1930.8999999985099","images/ball4.png","","","learning","-7","-7","1","1","practice","practice","practice","-1","","",""
"html-keyboard-response","35","260986","0.0-8.0-2.0-0.5","5885","2","9","Female","approach_avoid_spark_v1","""event"",""trial"",""time""
""fullscreenenter"",""1"",""12939""
","
","
","""event"",""trial"",""time""
""fullscreenenter"",""1"",""12939""
","
","","","","","","null","<div style=""font-size:60px;"">+</div>","null","","fixation","","","","","","","","","","",""
"aa-learning-trial","36","263993","0.0-8.0-2.0-1.5","5885","2","9","Female","approach_avoid_spark_v1","""event"",""trial"",""time""
""fullscreenenter"",""1"",""12939""
","
","
","""event"",""trial"",""time""
""fullscreenenter"",""1"",""12939""
","
","","","","","","962.2000000011176","images/racket2.png","","","learning","-3","-3","1","1","practice","practice","practice","-1","","",""
"html-keyboard-response","37","264498","0.0-8.0-2.0-0.6","5885","2","9","Female","approach_avoid_spark_v1","""event"",""trial"",""time""
""fullscreenenter"",""1"",""12939""
","
","
","""event"",""trial"",""time""
""fullscreenenter"",""1"",""12939""
","
","","","","","","null","<div style=""font-size:60px;"">+</div>","null","","fixation","","","","","","","","","","",""
"aa-learning-trial","38","267505","0.0-8.0-2.0-1.6","5885","2","9","Female","approach_avoid_spark_v1","""event"",""trial"",""time""
""fullscreenenter"",""1"",""12939""
","
","
","""event"",""trial"",""time""
""fullscreenenter"",""1"",""12939""
","
","","","","","","1510.800000000745","images/racket1.png","","","learning","6","0","0","0","practice","practice","practice","-1","","",""
"html-keyboard-response","39","268010","0.0-8.0-2.0-0.7","5885","2","9","Female","approach_avoid_spark_v1","""event"",""trial"",""time""
""fullscreenenter"",""1"",""12939""
","
","
","""event"",""trial"",""time""
""fullscreenenter"",""1"",""12939""
","
","","","","","","null","<div style=""font-size:60px;"">+</div>","null","","fixation","","","","","","","","","","",""
"aa-learning-trial","40","271014","0.0-8.0-2.0-1.7","5885","2","9","Female","approach_avoid_spark_v1","""event"",""trial"",""time""
""fullscreenenter"",""1"",""12939""
","
","
","""event"",""trial"",""time""
""fullscreenenter"",""1"",""12939""
","
","","","","","","null","images/racket1.png","","","learning","1","-5","","null","practice","practice","practice","-1","","",""
"html-keyboard-response","41","271517","0.0-8.0-2.0-0.8","5885","2","9","Female","approach_avoid_spark_v1","""event"",""trial"",""time""
""fullscreenenter"",""1"",""12939""
","
","
","""event"",""trial"",""time""
""fullscreenenter"",""1"",""12939""
","
","","","","","","null","<div style=""font-size:60px;"">+</div>","null","","fixation","","","","","","","","","","",""
"aa-learning-trial","42","274525","0.0-8.0-2.0-1.8","5885","2","9","Female","approach_avoid_spark_v1","""event"",""trial"",""time""
""fullscreenenter"",""1"",""12939""
","
","
","""event"",""trial"",""time""
""fullscreenenter"",""1"",""12939""
","
","","","","","","1008.1000000014901","images/ball3.png","","","learning","-9","-9","1","1","practice","practice","practice","-1","","",""
"html-keyboard-response","43","275030","0.0-8.0-2.0-0.9","5885","2","9","Female","approach_avoid_spark_v1","""event"",""trial"",""time""
""fullscreenenter"",""1"",""12939""
","
","
","""event"",""trial"",""time""
""fullscreenenter"",""1"",""12939""
","
","","","","","","null","<div style=""font-size:60px;"">+</div>","null","","fixation","","","","","","","","","","",""
"aa-learning-trial","44","278036","0.0-8.0-2.0-1.9","5885","2","9","Female","approach_avoid_spark_v1","""event"",""trial"",""time""
""fullscreenenter"",""1"",""12939""
","
","
","""event"",""trial"",""time""
""fullscreenenter"",""1"",""12939""
","
","","","","","","1258.4000000003725","images/ball4.png","","","learning","-4","0","0","0","practice","practice","practice","-1","","",""
"html-keyboard-response","45","278541","0.0-8.0-2.0-0.10","5885","2","9","Female","approach_avoid_spark_v1","""event"",""trial"",""time""
""fullscreenenter"",""1"",""12939""
","
","
","""event"",""trial"",""time""
""fullscreenenter"",""1"",""12939""
","
","","","","","","null","<div style=""font-size:60px;"">+</div>","null","","fixation","","","","","","","","","","",""
"aa-learning-trial","46","281548","0.0-8.0-2.0-1.10","5885","2","9","Female","approach_avoid_spark_v1","""event"",""trial"",""time""
""fullscreenenter"",""1"",""12939""
","
","
","""event"",""trial"",""time""
""fullscreenenter"",""1"",""12939""
","
","","","","","","882.2000000011176","images/ball2.png","","","learning","-4","-4","1","1","practice","practice","practice","-1","","",""
"html-keyboard-response","47","282050","0.0-8.0-2.0-0.11","5885","2","9","Female","approach_avoid_spark_v1","""event"",""trial"",""time""
""fullscreenenter"",""1"",""12939""
","
","
","""event"",""trial"",""time""
""fullscreenenter"",""1"",""12939""
","
","","","","","","null","<div style=""font-size:60px;"">+</div>","null","","fixation","","","","","","","","","","",""
"aa-learning-trial","48","285055","0.0-8.0-2.0-1.11","5885","2","9","Female","approach_avoid_spark_v1","""event"",""trial"",""time""
""fullscreenenter"",""1"",""12939""
","
","
","""event"",""trial"",""time""
""fullscreenenter"",""1"",""12939""
","
","","","","","","453.80000000074506","images/ball3.png","","","learning","1","0","0","0","practice","practice","practice","-1","","",""
"html-button-response","49","288579","0.0-8.0-3.0","5885","2","9","Female","approach_avoid_spark_v1","""event"",""trial"",""time""
""fullscreenenter"",""1"",""12939""
","
","
","""event"",""trial"",""time""
""fullscreenenter"",""1"",""12939""
","
","","","","","","3521.300000000745","<p> You earned -20 points in the practice round! </p>","0","","break","","","","","","","","","","",""
"learning-instructions","50","296608","0.0-8.0-4.0-0.0","5885","2","9","Female","approach_avoid_spark_v1","""event"",""trial"",""time""
""fullscreenenter"",""1"",""12939""
","
","
","""event"",""trial"",""time""
""fullscreenenter"",""1"",""12939""
","
","","","","","","2067.2999999988824","<p> It's almost time to start the real game. </p><p> Before you start, we're going to ask you a few questions about how the game works. </p>","","0","instructions","","","","","","","","","","",""
"preload","51","300322","0.0-8.0-5.0","5885","2","9","Female","approach_avoid_spark_v1","""event"",""trial"",""time""
""fullscreenenter"",""1"",""12939""
","
","
","""event"",""trial"",""time""
""fullscreenenter"",""1"",""12939""
","
","true","false","[]","[]","[]","","","","","","","","","","","","","","","",""
"comp-q","52","307376","0.0-8.0-6.0-0.0","5885","2","9","Female","approach_avoid_spark_v1","""event"",""trial"",""time""
""fullscreenenter"",""1"",""12939""
","
","
","""event"",""trial"",""time""
""fullscreenenter"",""1"",""12939""
","
","","","","","","2060.7999999988824","<p> <b> True or False? </b> </p><p> If you see a number in GREY, that means you earned that many points. </p>","","1","comp_question","","","","","","","","","true","",""
"comp-q","53","317319","0.0-8.0-6.0-1.0","5885","2","9","Female","approach_avoid_spark_v1","""event"",""trial"",""time""
""fullscreenenter"",""1"",""12939""
","
","
","""event"",""trial"",""time""
""fullscreenenter"",""1"",""12939""
","
","","","","","","1583.9000000003725","<p><b> That's right! </b> If you see a grey number, it means you earned ZERO points. <br> The grey numbers show the points you WOULD HAVE earned if you had made the other choice. </p>","","0","comp_answer","","","","","","","","","","",""
"comp-q","54","322706","0.0-8.0-7.0-0.0","5885","2","9","Female","approach_avoid_spark_v1","""event"",""trial"",""time""
""fullscreenenter"",""1"",""12939""
","
","
","""event"",""trial"",""time""
""fullscreenenter"",""1"",""12939""
","
","","","","","","702.4000000003725","<p> <b> True or False? </b> </p><p> You will have as much time as you want to make each choice. </p>","","1","comp_question","","","","","","","","","true","",""
"comp-q","55","328304","0.0-8.0-7.0-1.0","5885","2","9","Female","approach_avoid_spark_v1","""event"",""trial"",""time""
""fullscreenenter"",""1"",""12939""
","
","
","""event"",""trial"",""time""
""fullscreenenter"",""1"",""12939""
","
","","","","","","1563.800000000745","<p> <b> That's right! </b> You will only have 3 seconds to make each choice. </p>","","0","comp_answer","","","","","","","","","","",""
"comp-q","56","333639","0.0-8.0-8.0-0.0","5885","2","9","Female","approach_avoid_spark_v1","""event"",""trial"",""time""
""fullscreenenter"",""1"",""12939""
","
","
","""event"",""trial"",""time""
""fullscreenenter"",""1"",""12939""
","
","","","","","","682.2000000011176","<p> <b> True or False? </b> </p><p> You should use the '1' and '0' keys to make your choices. </p>","","0","comp_question","","","","","","","","","true","",""
"comp-q","57","339666","0.0-8.0-8.0-1.0","5885","2","9","Female","approach_avoid_spark_v1","""event"",""trial"",""time""
""fullscreenenter"",""1"",""12939""
","
","
","""event"",""trial"",""time""
""fullscreenenter"",""1"",""12939""
","
","","","","","","1420","<p> <b> That's right! </b> You should use the '1' and '0' keys to make each choice. </p>","","0","comp_answer","","","","","","","","","","",""
"learning-instructions","58","347649","0.0-8.0-9.0-0.0","5885","2","9","Female","approach_avoid_spark_v1","""event"",""trial"",""time""
""fullscreenenter"",""1"",""12939""
","
","
","""event"",""trial"",""time""
""fullscreenenter"",""1"",""12939""
","
","","","","","","1717","<p> It's now time to start the real game. </p>Do your best, because the points you earn in the next rounds will influence your bonus payment. </p>","","0","instructions","","","","","","","","","","",""
"preload","59","347779","0.0-9.0-0.0","5885","2","9","Female","approach_avoid_spark_v1","""event"",""trial"",""time""
""fullscreenenter"",""1"",""12939""
","
","
","""event"",""trial"",""time""
""fullscreenenter"",""1"",""12939""
","
","true","false","[]","[]","[]","","","","","","","","","","","","","","","",""
"learning-instructions","60","352116","0.0-9.0-1.0-0.0","5885","2","9","Female","approach_avoid_spark_v1","""event"",""trial"",""time""
""fullscreenenter"",""1"",""12939""
","
","
","""event"",""trial"",""time""
""fullscreenenter"",""1"",""12939""
","
","","","","","","1180.800000000745","<p> Your goal in this round is to eat tasty fruit. </p></div>","","0","instructions","","","","","","","","","","",""
"learning-instructions","61","362644","0.0-9.0-1.0-0.1","5885","2","9","Female","approach_avoid_spark_v1","""event"",""trial"",""time""
""fullscreenenter"",""1"",""12939""
","
","
","""event"",""trial"",""time""
""fullscreenenter"",""1"",""12939""
","
","","","","","","859.1999999992549","<p> Some of the fruits you will see are tasty. Others are rotten on the inside.  </p><p> On each turn, you will see a fruit.   </p><p> You need to decide whether to eat it or not.  </p>","","0","instructions","","","","","","","","","","",""
"learning-instructions","62","368294","0.0-9.0-1.0-0.2","5885","2","9","Female","approach_avoid_spark_v1","""event"",""trial"",""time""
""fullscreenenter"",""1"",""12939""
","
","
","""event"",""trial"",""time""
""fullscreenenter"",""1"",""12939""
","
","","","","","","912.4000000003725","<p> You can eat the fruit by pressing 1 and choose not to eat it by pressing 0. </p><br><div class=""choice-instructions-grid""> <div class=""choice-option""><img src=""images/approach.png"" class=""choice-option-img"" stage=""instructions"" position=""0"" ><div class=""choice-option-text""> Press ""1."" </div></div><div class=""choice-option""><img src=""images/avoid.png"" class=""choice-option-img"" stage=""instructions"" position=""1"" ><div class=""choice-option-text""> Press ""0."" </div></div>","","0","instructions","","","","","","","","","","",""
"learning-instructions","63","377221","0.0-9.0-1.0-0.3","5885","2","9","Female","approach_avoid_spark_v1","""event"",""trial"",""time""
""fullscreenenter"",""1"",""12939""
","
","
","""event"",""trial"",""time""
""fullscreenenter"",""1"",""12939""
","
","","","","","","1713.5","<p> If you eat the fruit and it was tasty, you will win points! </p><p> But if you eat the fruit and it was rotten, you will lose points. </p>","","0","instructions","","","","","","","","","","",""
"learning-instructions","64","389582","0.0-9.0-1.0-0.4","5885","2","9","Female","approach_avoid_spark_v1","""event"",""trial"",""time""
""fullscreenenter"",""1"",""12939""
","
","
","""event"",""trial"",""time""
""fullscreenenter"",""1"",""12939""
","
","","","","","","1147.4000000003725","<p> You will earn points based on how tasty or rotten the fruit was. </p><p> If it was tasty, you will WIN anywhere from 1 - 9 points, </p><p> but if it was rotten, you will LOSE anywhere from 1 - 9 points. </p>","","0","instructions","","","","","","","","","","",""
"learning-instructions","65","398514","0.0-9.0-1.0-0.5","5885","2","9","Female","approach_avoid_spark_v1","""event"",""trial"",""time""
""fullscreenenter"",""1"",""12939""
","
","
","""event"",""trial"",""time""
""fullscreenenter"",""1"",""12939""
","
","","","","","","1633.5999999996275","<p> You will see how many points you won or lost in the center of the screen. </p><p> Here is what you would see if you earned 5 points: </p><p style=""color:green;font-size:50px;font-weight:bolder"">5</p>","","0","instructions","","","","","","","","","","",""
"learning-instructions","66","402299","0.0-9.0-1.0-0.6","5885","2","9","Female","approach_avoid_spark_v1","""event"",""trial"",""time""
""fullscreenenter"",""1"",""12939""
","
","
","""event"",""trial"",""time""
""fullscreenenter"",""1"",""12939""
","
","","","","","","530.7000000011176","<p> And here is what you would see if you lost 3 points: </p><p style=""color:red;font-size:50px;font-weight:bolder"">-3</p>","","0","instructions","","","","","","","","","","",""
"learning-instructions","67","416901","0.0-9.0-1.0-0.7","5885","2","9","Female","approach_avoid_spark_v1","""event"",""trial"",""time""
""fullscreenenter"",""1"",""12939""
","
","
","""event"",""trial"",""time""
""fullscreenenter"",""1"",""12939""
","
","","","","","","980.2000000011176","<p> Some fruit is very tasty or very rotten. </p><p> These fruits will make you win or lose LOTS of points. </p><p> Other fruits are only kind of tasty or kind of rotten. </p><p> These fruits will make you win or lose small amounts of points. </p>","","0","instructions","","","","","","","","","","",""
"learning-instructions","68","428254","0.0-9.0-1.0-0.8","5885","2","9","Female","approach_avoid_spark_v1","""event"",""trial"",""time""
""fullscreenenter"",""1"",""12939""
","
","
","""event"",""trial"",""time""
""fullscreenenter"",""1"",""12939""
","
","","","","","","1205.2000000011176","<p> If you choose to not eat the fruit, you will not win or lose any points. </p><p>  However, in the center of the screen, you will see the number of points you WOULD HAVE earned if you had eaten the fruit. </p>","","0","instructions","","","","","","","","","","",""
"learning-instructions","69","438376","0.0-9.0-1.0-0.9","5885","2","9","Female","approach_avoid_spark_v1","""event"",""trial"",""time""
""fullscreenenter"",""1"",""12939""
","
","
","""event"",""trial"",""time""
""fullscreenenter"",""1"",""12939""
","
","","","","","","500.90000000037253","<p> Here is what you might see if you did not eat the fruit but the fruit was tasty: </p><p style=""color:grey; font-size:50px; display: inline-block; border-spacing: 15px; border-width:3px; border-style:solid; border-color:red"">  &nbsp; 6 &nbsp; </p><p> Remember, in this case, you would not win or lose ANY points because you did not eat the fruit.  </p>","","0","instructions","","","","","","","","","","",""
"learning-instructions","70","447785","0.0-9.0-1.0-0.10","5885","2","9","Female","approach_avoid_spark_v1","""event"",""trial"",""time""
""fullscreenenter"",""1"",""12939""
","
","
","""event"",""trial"",""time""
""fullscreenenter"",""1"",""12939""
","
","","","","","","1829.300000000745","<p> Try to make the best choice for each fruit because </p><p> at the end of the game, you will earn bonus money based on how many points you earned. </p>","","0","instructions","","","","","","","","","","",""
"learning-instructions","71","456263","0.0-9.0-1.0-0.11","5885","2","9","Female","approach_avoid_spark_v1","""event"",""trial"",""time""
""fullscreenenter"",""1"",""12939""
","
","
","""event"",""trial"",""time""
""fullscreenenter"",""1"",""12939""
","
","","","","","","293.8999999985099","<p> You will have 3 seconds to make each choice. Try to respond before time runs out! </p><p> You will lose 5 points each time you do not make a response. </p>","","0","instructions","","","","","","","","","","",""
"html-keyboard-response","72","456868","0.0-9.0-2.0-0.0","5885","2","9","Female","approach_avoid_spark_v1","""event"",""trial"",""time""
""fullscreenenter"",""1"",""12939""
","
","
","""event"",""trial"",""time""
""fullscreenenter"",""1"",""12939""
","
","","","","","","null","<div style=""font-size:60px;"">+</div>","null","","fixation","","","","","","","","","","",""
"aa-learning-trial","73","459875","0.0-9.0-2.0-1.0","5885","2","9","Female","approach_avoid_spark_v1","""event"",""trial"",""time""
""fullscreenenter"",""1"",""12939""
","
","
","""event"",""trial"",""time""
""fullscreenenter"",""1"",""12939""
","
","","","","","","1535.4000000003725","images/banana4.png","","","learning","-4","-4","1","1","banana","fruit","2","0","","good","[5]"
"html-keyboard-response","74","460380","0.0-9.0-2.0-0.1","5885","2","9","Female","approach_avoid_spark_v1","""event"",""trial"",""time""
""fullscreenenter"",""1"",""12939""
","
","
","""event"",""trial"",""time""
""fullscreenenter"",""1"",""12939""
","
","","","","","","null","<div style=""font-size:60px;"">+</div>","null","","fixation","","","","","","","","","","",""
"aa-learning-trial","75","463384","0.0-9.0-2.0-1.1","5885","2","9","Female","approach_avoid_spark_v1","""event"",""trial"",""time""
""fullscreenenter"",""1"",""12939""
","
","
","""event"",""trial"",""time""
""fullscreenenter"",""1"",""12939""
","
","","","","","","1824.800000000745","images/straw5.png","","","learning","9","9","1","1","straw","fruit","2","0","","bad","[-5]"
"html-keyboard-response","76","463886","0.0-9.0-2.0-0.2","5885","2","9","Female","approach_avoid_spark_v1","""event"",""trial"",""time""
""fullscreenenter"",""1"",""12939""
","
","
","""event"",""trial"",""time""
""fullscreenenter"",""1"",""12939""
","
","","","","","","null","<div style=""font-size:60px;"">+</div>","null","","fixation","","","","","","","","","","",""
"aa-learning-trial","77","466890","0.0-9.0-2.0-1.2","5885","2","9","Female","approach_avoid_spark_v1","""event"",""trial"",""time""
""fullscreenenter"",""1"",""12939""
","
","
","""event"",""trial"",""time""
""fullscreenenter"",""1"",""12939""
","
","","","","","","2510.699999999255","images/apple3.png","","","learning","2","0","0","0","apple","fruit","2","0","","neutral","0"
"html-keyboard-response","78","467392","0.0-9.0-2.0-0.3","5885","2","9","Female","approach_avoid_spark_v1","""event"",""trial"",""time""
""fullscreenenter"",""1"",""12939""
","
","
","""event"",""trial"",""time""
""fullscreenenter"",""1"",""12939""
","
","","","","","","null","<div style=""font-size:60px;"">+</div>","null","","fixation","","","","","","","","","","",""
"aa-learning-trial","79","470399","0.0-9.0-2.0-1.3","5885","2","9","Female","approach_avoid_spark_v1","""event"",""trial"",""time""
""fullscreenenter"",""1"",""12939""
","
","
","""event"",""trial"",""time""
""fullscreenenter"",""1"",""12939""
","
","","","","","","2516.5999999996275","images/straw4.png","","","learning","-8","-8","1","1","straw","fruit","2","0","","bad","[-5]"
"html-keyboard-response","80","470904","0.0-9.0-2.0-0.4","5885","2","9","Female","approach_avoid_spark_v1","""event"",""trial"",""time""
""fullscreenenter"",""1"",""12939""
","
","
","""event"",""trial"",""time""
""fullscreenenter"",""1"",""12939""
","
","","","","","","null","<div style=""font-size:60px;"">+</div>","null","","fixation","","","","","","","","","","",""
"aa-learning-trial","81","473911","0.0-9.0-2.0-1.4","5885","2","9","Female","approach_avoid_spark_v1","""event"",""trial"",""time""
""fullscreenenter"",""1"",""12939""
","
","
","""event"",""trial"",""time""
""fullscreenenter"",""1"",""12939""
","
","","","","","","1667.699999999255","images/banana6.png","","","learning","-7","-7","1","1","banana","fruit","2","0","","good","[5]"
"html-keyboard-response","82","474416","0.0-9.0-2.0-0.5","5885","2","9","Female","approach_avoid_spark_v1","""event"",""trial"",""time""
""fullscreenenter"",""1"",""12939""
","
","
","""event"",""trial"",""time""
""fullscreenenter"",""1"",""12939""
","
","","","","","","null","<div style=""font-size:60px;"">+</div>","null","","fixation","","","","","","","","","","",""
"aa-learning-trial","83","477423","0.0-9.0-2.0-1.5","5885","2","9","Female","approach_avoid_spark_v1","""event"",""trial"",""time""
""fullscreenenter"",""1"",""12939""
","
","
","""event"",""trial"",""time""
""fullscreenenter"",""1"",""12939""
","
","","","","","","1599","images/banana1.png","","","learning","6","6","1","1","banana","fruit","2","0","","good","[5]"
"html-keyboard-response","84","477928","0.0-9.0-2.0-0.6","5885","2","9","Female","approach_avoid_spark_v1","""event"",""trial"",""time""
""fullscreenenter"",""1"",""12939""
","
","
","""event"",""trial"",""time""
""fullscreenenter"",""1"",""12939""
","
","","","","","","null","<div style=""font-size:60px;"">+</div>","null","","fixation","","","","","","","","","","",""
"aa-learning-trial","85","480935","0.0-9.0-2.0-1.6","5885","2","9","Female","approach_avoid_spark_v1","""event"",""trial"",""time""
""fullscreenenter"",""1"",""12939""
","
","
","""event"",""trial"",""time""
""fullscreenenter"",""1"",""12939""
","
","","","","","","null","images/apple4.png","","","learning","7","-5","","null","apple","fruit","2","0","","neutral","0"
"html-keyboard-response","86","481440","0.0-9.0-2.0-0.7","5885","2","9","Female","approach_avoid_spark_v1","""event"",""trial"",""time""
""fullscreenenter"",""1"",""12939""
","
","
","""event"",""trial"",""time""
""fullscreenenter"",""1"",""12939""
","
","","","","","","null","<div style=""font-size:60px;"">+</div>","null","","fixation","","","","","","","","","","",""
"aa-learning-trial","87","484447","0.0-9.0-2.0-1.7","5885","2","9","Female","approach_avoid_spark_v1","""event"",""trial"",""time""
""fullscreenenter"",""1"",""12939""
","
","
","""event"",""trial"",""time""
""fullscreenenter"",""1"",""12939""
","
","","","","","","1380.4000000003725","images/apple4.png","","","learning","7","0","0","0","apple","fruit","2","0","","neutral","0"
"html-keyboard-response","88","484948","0.0-9.0-2.0-0.8","5885","2","9","Female","approach_avoid_spark_v1","""event"",""trial"",""time""
""fullscreenenter"",""1"",""12939""
","
","
","""event"",""trial"",""time""
""fullscreenenter"",""1"",""12939""
","
","","","","","","null","<div style=""font-size:60px;"">+</div>","null","","fixation","","","","","","","","","","",""
"aa-learning-trial","89","487953","0.0-9.0-2.0-1.8","5885","2","9","Female","approach_avoid_spark_v1","""event"",""trial"",""time""
""fullscreenenter"",""1"",""12939""
","
","
","""event"",""trial"",""time""
""fullscreenenter"",""1"",""12939""
","
","","","","","","1215.199999999255","images/straw5.png","","","learning","9","9","1","1","straw","fruit","2","0","","bad","[-5]"
"html-keyboard-response","90","488459","0.0-9.0-2.0-0.9","5885","2","9","Female","approach_avoid_spark_v1","""event"",""trial"",""time""
""fullscreenenter"",""1"",""12939""
","
","
","""event"",""trial"",""time""
""fullscreenenter"",""1"",""12939""
","
","","","","","","null","<div style=""font-size:60px;"">+</div>","null","","fixation","","","","","","","","","","",""
"aa-learning-trial","91","491466","0.0-9.0-2.0-1.9","5885","2","9","Female","approach_avoid_spark_v1","""event"",""trial"",""time""
""fullscreenenter"",""1"",""12939""
","
","
","""event"",""trial"",""time""
""fullscreenenter"",""1"",""12939""
","
","","","","","","1346.0999999996275","images/apple6.png","","","learning","-6","-6","1","1","apple","fruit","2","0","","neutral","0"
"html-keyboard-response","92","491970","0.0-9.0-2.0-0.10","5885","2","9","Female","approach_avoid_spark_v1","""event"",""trial"",""time""
""fullscreenenter"",""1"",""12939""
","
","
","""event"",""trial"",""time""
""fullscreenenter"",""1"",""12939""
","
","","","","","","null","<div style=""font-size:60px;"">+</div>","null","","fixation","","","","","","","","","","",""
"aa-learning-trial","93","494978","0.0-9.0-2.0-1.10","5885","2","9","Female","approach_avoid_spark_v1","""event"",""trial"",""time""
""fullscreenenter"",""1"",""12939""
","
","
","""event"",""trial"",""time""
""fullscreenenter"",""1"",""12939""
","
","","","","","","1242.0999999996275","images/banana4.png","","","learning","-4","-4","1","1","banana","fruit","2","0","","good","[5]"
"html-keyboard-response","94","495483","0.0-9.0-2.0-0.11","5885","2","9","Female","approach_avoid_spark_v1","""event"",""trial"",""time""
""fullscreenenter"",""1"",""12939""
","
","
","""event"",""trial"",""time""
""fullscreenenter"",""1"",""12939""
","
","","","","","","null","<div style=""font-size:60px;"">+</div>","null","","fixation","","","","","","","","","","",""
"aa-learning-trial","95","498490","0.0-9.0-2.0-1.11","5885","2","9","Female","approach_avoid_spark_v1","""event"",""trial"",""time""
""fullscreenenter"",""1"",""12939""
","
","
","""event"",""trial"",""time""
""fullscreenenter"",""1"",""12939""
","
","","","","","","1177","images/straw4.png","","","learning","-8","0","0","0","straw","fruit","2","0","","bad","[-5]"
"html-keyboard-response","96","498995","0.0-9.0-2.0-0.12","5885","2","9","Female","approach_avoid_spark_v1","""event"",""trial"",""time""
""fullscreenenter"",""1"",""12939""
","
","
","""event"",""trial"",""time""
""fullscreenenter"",""1"",""12939""
","
","","","","","","null","<div style=""font-size:60px;"">+</div>","null","","fixation","","","","","","","","","","",""
"aa-learning-trial","97","502002","0.0-9.0-2.0-1.12","5885","2","9","Female","approach_avoid_spark_v1","""event"",""trial"",""time""
""fullscreenenter"",""1"",""12939""
","
","
","""event"",""trial"",""time""
""fullscreenenter"",""1"",""12939""
","
","","","","","","640.7999999988824","images/apple6.png","","","learning","-6","-6","1","1","apple","fruit","2","0","","neutral","0"
"html-keyboard-response","98","502508","0.0-9.0-2.0-0.13","5885","2","9","Female","approach_avoid_spark_v1","""event"",""trial"",""time""
""fullscreenenter"",""1"",""12939""
","
","
","""event"",""trial"",""time""
""fullscreenenter"",""1"",""12939""
","
","","","","","","null","<div style=""font-size:60px;"">+</div>","null","","fixation","","","","","","","","","","",""
"aa-learning-trial","99","505514","0.0-9.0-2.0-1.13","5885","2","9","Female","approach_avoid_spark_v1","""event"",""trial"",""time""
""fullscreenenter"",""1"",""12939""
","
","
","""event"",""trial"",""time""
""fullscreenenter"",""1"",""12939""
","
","","","","","","2269.10000000149","images/straw6.png","","","learning","-2","0","0","0","straw","fruit","2","0","","bad","[-5]"
"html-keyboard-response","100","506018","0.0-9.0-2.0-0.14","5885","2","9","Female","approach_avoid_spark_v1","""event"",""trial"",""time""
""fullscreenenter"",""1"",""12939""
","
","
","""event"",""trial"",""time""
""fullscreenenter"",""1"",""12939""
","
","","","","","","null","<div style=""font-size:60px;"">+</div>","null","","fixation","","","","","","","","","","",""
"aa-learning-trial","101","509026","0.0-9.0-2.0-1.14","5885","2","9","Female","approach_avoid_spark_v1","""event"",""trial"",""time""
""fullscreenenter"",""1"",""12939""
","
","
","""event"",""trial"",""time""
""fullscreenenter"",""1"",""12939""
","
","","","","","","2826.7999999988824","images/banana1.png","","","learning","6","6","1","1","banana","fruit","2","0","","good","[5]"
"html-keyboard-response","102","509530","0.0-9.0-2.0-0.15","5885","2","9","Female","approach_avoid_spark_v1","""event"",""trial"",""time""
""fullscreenenter"",""1"",""12939""
","
","
","""event"",""trial"",""time""
""fullscreenenter"",""1"",""12939""
","
","","","","","","null","<div style=""font-size:60px;"">+</div>","null","","fixation","","","","","","","","","","",""
"aa-learning-trial","103","512537","0.0-9.0-2.0-1.15","5885","2","9","Female","approach_avoid_spark_v1","""event"",""trial"",""time""
""fullscreenenter"",""1"",""12939""
","
","
","""event"",""trial"",""time""
""fullscreenenter"",""1"",""12939""
","
","","","","","","2027.300000000745","images/straw4.png","","","learning","-8","0","0","0","straw","fruit","2","0","","bad","[-5]"
"html-keyboard-response","104","513042","0.0-9.0-2.0-0.16","5885","2","9","Female","approach_avoid_spark_v1","""event"",""trial"",""time""
""fullscreenenter"",""1"",""12939""
","
","
","""event"",""trial"",""time""
""fullscreenenter"",""1"",""12939""
","
","","","","","","null","<div style=""font-size:60px;"">+</div>","null","","fixation","","","","","","","","","","",""
"aa-learning-trial","105","516049","0.0-9.0-2.0-1.16","5885","2","9","Female","approach_avoid_spark_v1","""event"",""trial"",""time""
""fullscreenenter"",""1"",""12939""
","
","
","""event"",""trial"",""time""
""fullscreenenter"",""1"",""12939""
","
","","","","","","922.0999999996275","images/straw4.png","","","learning","-8","0","0","0","straw","fruit","2","0","","bad","[-5]"
"html-keyboard-response","106","516554","0.0-9.0-2.0-0.17","5885","2","9","Female","approach_avoid_spark_v1","""event"",""trial"",""time""
""fullscreenenter"",""1"",""12939""
","
","
","""event"",""trial"",""time""
""fullscreenenter"",""1"",""12939""
","
","","","","","","null","<div style=""font-size:60px;"">+</div>","null","","fixation","","","","","","","","","","",""
"aa-learning-trial","107","519561","0.0-9.0-2.0-1.17","5885","2","9","Female","approach_avoid_spark_v1","""event"",""trial"",""time""
""fullscreenenter"",""1"",""12939""
","
","
","""event"",""trial"",""time""
""fullscreenenter"",""1"",""12939""
","
","","","","","","1503.0999999996275","images/apple4.png","","","learning","7","0","0","0","apple","fruit","2","0","","neutral","0"
"html-keyboard-response","108","520066","0.0-9.0-2.0-0.18","5885","2","9","Female","approach_avoid_spark_v1","""event"",""trial"",""time""
""fullscreenenter"",""1"",""12939""
","
","
","""event"",""trial"",""time""
""fullscreenenter"",""1"",""12939""
","
","","","","","","null","<div style=""font-size:60px;"">+</div>","null","","fixation","","","","","","","","","","",""
"aa-learning-trial","109","523073","0.0-9.0-2.0-1.18","5885","2","9","Female","approach_avoid_spark_v1","""event"",""trial"",""time""
""fullscreenenter"",""1"",""12939""
","
","
","""event"",""trial"",""time""
""fullscreenenter"",""1"",""12939""
","
","","","","","","1341.800000000745","images/apple6.png","","","learning","-6","0","0","0","apple","fruit","2","0","","neutral","0"
"html-keyboard-response","110","523578","0.0-9.0-2.0-0.19","5885","2","9","Female","approach_avoid_spark_v1","""event"",""trial"",""time""
""fullscreenenter"",""1"",""12939""
","
","
","""event"",""trial"",""time""
""fullscreenenter"",""1"",""12939""
","
","","","","","","null","<div style=""font-size:60px;"">+</div>","null","","fixation","","","","","","","","","","",""
"aa-learning-trial","111","526585","0.0-9.0-2.0-1.19","5885","2","9","Female","approach_avoid_spark_v1","""event"",""trial"",""time""
""fullscreenenter"",""1"",""12939""
","
","
","""event"",""trial"",""time""
""fullscreenenter"",""1"",""12939""
","
","","","","","","1919.4000000003725","images/banana1.png","","","learning","6","0","0","0","banana","fruit","2","0","","good","[5]"
"html-keyboard-response","112","527090","0.0-9.0-2.0-0.20","5885","2","9","Female","approach_avoid_spark_v1","""event"",""trial"",""time""
""fullscreenenter"",""1"",""12939""
","
","
","""event"",""trial"",""time""
""fullscreenenter"",""1"",""12939""
","
","","","","","","null","<div style=""font-size:60px;"">+</div>","null","","fixation","","","","","","","","","","",""
"aa-learning-trial","113","530097","0.0-9.0-2.0-1.20","5885","2","9","Female","approach_avoid_spark_v1","""event"",""trial"",""time""
""fullscreenenter"",""1"",""12939""
","
","
","""event"",""trial"",""time""
""fullscreenenter"",""1"",""12939""
","
","","","","","","1319.7999999988824","images/straw1.png","","","learning","5","5","1","1","straw","fruit","2","0","","bad","[-5]"
"html-keyboard-response","114","530602","0.0-9.0-2.0-0.21","5885","2","9","Female","approach_avoid_spark_v1","""event"",""trial"",""time""
""fullscreenenter"",""1"",""12939""
","
","
","""event"",""trial"",""time""
""fullscreenenter"",""1"",""12939""
","
","","","","","","null","<div style=""font-size:60px;"">+</div>","null","","fixation","","","","","","","","","","",""
"aa-learning-trial","115","533609","0.0-9.0-2.0-1.21","5885","2","9","Female","approach_avoid_spark_v1","""event"",""trial"",""time""
""fullscreenenter"",""1"",""12939""
","
","
","""event"",""trial"",""time""
""fullscreenenter"",""1"",""12939""
","
","","","","","","2153.300000000745","images/banana6.png","","","learning","-7","-7","1","1","banana","fruit","2","0","","good","[5]"
"html-keyboard-response","116","534114","0.0-9.0-2.0-0.22","5885","2","9","Female","approach_avoid_spark_v1","""event"",""trial"",""time""
""fullscreenenter"",""1"",""12939""
","
","
","""event"",""trial"",""time""
""fullscreenenter"",""1"",""12939""
","
","","","","","","null","<div style=""font-size:60px;"">+</div>","null","","fixation","","","","","","","","","","",""
"aa-learning-trial","117","537121","0.0-9.0-2.0-1.22","5885","2","9","Female","approach_avoid_spark_v1","""event"",""trial"",""time""
""fullscreenenter"",""1"",""12939""
","
","
","""event"",""trial"",""time""
""fullscreenenter"",""1"",""12939""
","
","","","","","","1377.4000000003725","images/straw4.png","","","learning","-8","0","0","0","straw","fruit","2","0","","bad","[-5]"
"html-keyboard-response","118","537626","0.0-9.0-2.0-0.23","5885","2","9","Female","approach_avoid_spark_v1","""event"",""trial"",""time""
""fullscreenenter"",""1"",""12939""
","
","
","""event"",""trial"",""time""
""fullscreenenter"",""1"",""12939""
","
","","","","","","null","<div style=""font-size:60px;"">+</div>","null","","fixation","","","","","","","","","","",""
"aa-learning-trial","119","540633","0.0-9.0-2.0-1.23","5885","2","9","Female","approach_avoid_spark_v1","""event"",""trial"",""time""
""fullscreenenter"",""1"",""12939""
","
","
","""event"",""trial"",""time""
""fullscreenenter"",""1"",""12939""
","
","","","","","","1944.9000000003725","images/straw7.png","","","learning","-5","0","0","0","straw","fruit","2","0","","bad","[-5]"
"html-keyboard-response","120","541138","0.0-9.0-2.0-0.24","5885","2","9","Female","approach_avoid_spark_v1","""event"",""trial"",""time""
""fullscreenenter"",""1"",""12939""
","
","
","""event"",""trial"",""time""
""fullscreenenter"",""1"",""12939""
","
","","","","","","null","<div style=""font-size:60px;"">+</div>","null","","fixation","","","","","","","","","","",""
"aa-learning-trial","121","544145","0.0-9.0-2.0-1.24","5885","2","9","Female","approach_avoid_spark_v1","""event"",""trial"",""time""
""fullscreenenter"",""1"",""12939""
","
","
","""event"",""trial"",""time""
""fullscreenenter"",""1"",""12939""
","
","","","","","","856.9000000003725","images/apple6.png","","","learning","-6","0","0","0","apple","fruit","2","0","","neutral","0"
"html-keyboard-response","122","544650","0.0-9.0-2.0-0.25","5885","2","9","Female","approach_avoid_spark_v1","""event"",""trial"",""time""
""fullscreenenter"",""1"",""12939""
","
","
","""event"",""trial"",""time""
""fullscreenenter"",""1"",""12939""
","
","","","","","","null","<div style=""font-size:60px;"">+</div>","null","","fixation","","","","","","","","","","",""
"aa-learning-trial","123","547657","0.0-9.0-2.0-1.25","5885","2","9","Female","approach_avoid_spark_v1","""event"",""trial"",""time""
""fullscreenenter"",""1"",""12939""
","
","
","""event"",""trial"",""time""
""fullscreenenter"",""1"",""12939""
","
","","","","","","1414.5999999996275","images/banana4.png","","","learning","-4","0","0","0","banana","fruit","2","0","","good","[5]"
"html-keyboard-response","124","548161","0.0-9.0-2.0-0.26","5885","2","9","Female","approach_avoid_spark_v1","""event"",""trial"",""time""
""fullscreenenter"",""1"",""12939""
","
","
","""event"",""trial"",""time""
""fullscreenenter"",""1"",""12939""
","
","","","","","","null","<div style=""font-size:60px;"">+</div>","null","","fixation","","","","","","","","","","",""
"aa-learning-trial","125","551169","0.0-9.0-2.0-1.26","5885","2","9","Female","approach_avoid_spark_v1","""event"",""trial"",""time""
""fullscreenenter"",""1"",""12939""
","
","
","""event"",""trial"",""time""
""fullscreenenter"",""1"",""12939""
","
","","","","","","1474.300000000745","images/banana2.png","","","learning","4","4","1","1","banana","fruit","2","0","","good","[5]"
"html-keyboard-response","126","551674","0.0-9.0-2.0-0.27","5885","2","9","Female","approach_avoid_spark_v1","""event"",""trial"",""time""
""fullscreenenter"",""1"",""12939""
","
","
","""event"",""trial"",""time""
""fullscreenenter"",""1"",""12939""
","
","","","","","","null","<div style=""font-size:60px;"">+</div>","null","","fixation","","","","","","","","","","",""
"aa-learning-trial","127","554677","0.0-9.0-2.0-1.27","5885","2","9","Female","approach_avoid_spark_v1","""event"",""trial"",""time""
""fullscreenenter"",""1"",""12939""
","
","
","""event"",""trial"",""time""
""fullscreenenter"",""1"",""12939""
","
","","","","","","2538.2999999988824","images/apple7.png","","","learning","3","3","1","1","apple","fruit","2","0","","neutral","0"
"html-keyboard-response","128","555180","0.0-9.0-2.0-0.28","5885","2","9","Female","approach_avoid_spark_v1","""event"",""trial"",""time""
""fullscreenenter"",""1"",""12939""
","
","
","""event"",""trial"",""time""
""fullscreenenter"",""1"",""12939""
","
","","","","","","null","<div style=""font-size:60px;"">+</div>","null","","fixation","","","","","","","","","","",""
"aa-learning-trial","129","558186","0.0-9.0-2.0-1.28","5885","2","9","Female","approach_avoid_spark_v1","""event"",""trial"",""time""
""fullscreenenter"",""1"",""12939""
","
","
","""event"",""trial"",""time""
""fullscreenenter"",""1"",""12939""
","
","","","","","","2350","images/apple4.png","","","learning","7","7","1","1","apple","fruit","2","0","","neutral","0"
"html-keyboard-response","130","558692","0.0-9.0-2.0-0.29","5885","2","9","Female","approach_avoid_spark_v1","""event"",""trial"",""time""
""fullscreenenter"",""1"",""12939""
","
","
","""event"",""trial"",""time""
""fullscreenenter"",""1"",""12939""
","
","","","","","","null","<div style=""font-size:60px;"">+</div>","null","","fixation","","","","","","","","","","",""
"aa-learning-trial","131","561699","0.0-9.0-2.0-1.29","5885","2","9","Female","approach_avoid_spark_v1","""event"",""trial"",""time""
""fullscreenenter"",""1"",""12939""
","
","
","""event"",""trial"",""time""
""fullscreenenter"",""1"",""12939""
","
","","","","","","1111.699999999255","images/apple6.png","","","learning","-6","0","0","0","apple","fruit","2","0","","neutral","0"
"html-keyboard-response","132","562204","0.0-9.0-2.0-0.30","5885","2","9","Female","approach_avoid_spark_v1","""event"",""trial"",""time""
""fullscreenenter"",""1"",""12939""
","
","
","""event"",""trial"",""time""
""fullscreenenter"",""1"",""12939""
","
","","","","","","null","<div style=""font-size:60px;"">+</div>","null","","fixation","","","","","","","","","","",""
"aa-learning-trial","133","565212","0.0-9.0-2.0-1.30","5885","2","9","Female","approach_avoid_spark_v1","""event"",""trial"",""time""
""fullscreenenter"",""1"",""12939""
","
","
","""event"",""trial"",""time""
""fullscreenenter"",""1"",""12939""
","
","","","","","","750.0999999996275","images/straw5.png","","","learning","9","9","1","1","straw","fruit","2","0","","bad","[-5]"
"html-keyboard-response","134","565716","0.0-9.0-2.0-0.31","5885","2","9","Female","approach_avoid_spark_v1","""event"",""trial"",""time""
""fullscreenenter"",""1"",""12939""
","
","
","""event"",""trial"",""time""
""fullscreenenter"",""1"",""12939""
","
","","","","","","null","<div style=""font-size:60px;"">+</div>","null","","fixation","","","","","","","","","","",""
"aa-learning-trial","135","568723","0.0-9.0-2.0-1.31","5885","2","9","Female","approach_avoid_spark_v1","""event"",""trial"",""time""
""fullscreenenter"",""1"",""12939""
","
","
","""event"",""trial"",""time""
""fullscreenenter"",""1"",""12939""
","
","","","","","","1714.800000000745","images/banana5.png","","","learning","-1","0","0","0","banana","fruit","2","0","","good","[5]"
"html-keyboard-response","136","569228","0.0-9.0-2.0-0.32","5885","2","9","Female","approach_avoid_spark_v1","""event"",""trial"",""time""
""fullscreenenter"",""1"",""12939""
","
","
","""event"",""trial"",""time""
""fullscreenenter"",""1"",""12939""
","
","","","","","","null","<div style=""font-size:60px;"">+</div>","null","","fixation","","","","","","","","","","",""
"aa-learning-trial","137","572235","0.0-9.0-2.0-1.32","5885","2","9","Female","approach_avoid_spark_v1","""event"",""trial"",""time""
""fullscreenenter"",""1"",""12939""
","
","
","""event"",""trial"",""time""
""fullscreenenter"",""1"",""12939""
","
","","","","","","1404.0999999996275","images/banana1.png","","","learning","6","6","1","1","banana","fruit","2","0","","good","[5]"
"html-keyboard-response","138","572737","0.0-9.0-2.0-0.33","5885","2","9","Female","approach_avoid_spark_v1","""event"",""trial"",""time""
""fullscreenenter"",""1"",""12939""
","
","
","""event"",""trial"",""time""
""fullscreenenter"",""1"",""12939""
","
","","","","","","null","<div style=""font-size:60px;"">+</div>","null","","fixation","","","","","","","","","","",""
"aa-learning-trial","139","575741","0.0-9.0-2.0-1.33","5885","2","9","Female","approach_avoid_spark_v1","""event"",""trial"",""time""
""fullscreenenter"",""1"",""12939""
","
","
","""event"",""trial"",""time""
""fullscreenenter"",""1"",""12939""
","
","","","","","","2548","images/apple3.png","","","learning","2","2","1","1","apple","fruit","2","0","","neutral","0"
"html-keyboard-response","140","576246","0.0-9.0-2.0-0.34","5885","2","9","Female","approach_avoid_spark_v1","""event"",""trial"",""time""
""fullscreenenter"",""1"",""12939""
","
","
","""event"",""trial"",""time""
""fullscreenenter"",""1"",""12939""
","
","","","","","","null","<div style=""font-size:60px;"">+</div>","null","","fixation","","","","","","","","","","",""
"aa-learning-trial","141","579253","0.0-9.0-2.0-1.34","5885","2","9","Female","approach_avoid_spark_v1","""event"",""trial"",""time""
""fullscreenenter"",""1"",""12939""
","
","
","""event"",""trial"",""time""
""fullscreenenter"",""1"",""12939""
","
","","","","","","861.4000000003725","images/straw5.png","","","learning","9","9","1","1","straw","fruit","2","0","","bad","[-5]"
"html-keyboard-response","142","579758","0.0-9.0-2.0-0.35","5885","2","9","Female","approach_avoid_spark_v1","""event"",""trial"",""time""
""fullscreenenter"",""1"",""12939""
","
","
","""event"",""trial"",""time""
""fullscreenenter"",""1"",""12939""
","
","","","","","","null","<div style=""font-size:60px;"">+</div>","null","","fixation","","","","","","","","","","",""
"aa-learning-trial","143","582765","0.0-9.0-2.0-1.35","5885","2","9","Female","approach_avoid_spark_v1","""event"",""trial"",""time""
""fullscreenenter"",""1"",""12939""
","
","
","""event"",""trial"",""time""
""fullscreenenter"",""1"",""12939""
","
","","","","","","718.7000000011176","images/straw5.png","","","learning","9","9","1","1","straw","fruit","2","0","","bad","[-5]"
"html-keyboard-response","144","583270","0.0-9.0-2.0-0.36","5885","2","9","Female","approach_avoid_spark_v1","""event"",""trial"",""time""
""fullscreenenter"",""1"",""12939""
","
","
","""event"",""trial"",""time""
""fullscreenenter"",""1"",""12939""
","
","","","","","","null","<div style=""font-size:60px;"">+</div>","null","","fixation","","","","","","","","","","",""
"aa-learning-trial","145","586277","0.0-9.0-2.0-1.36","5885","2","9","Female","approach_avoid_spark_v1","""event"",""trial"",""time""
""fullscreenenter"",""1"",""12939""
","
","
","""event"",""trial"",""time""
""fullscreenenter"",""1"",""12939""
","
","","","","","","1033.699999999255","images/apple6.png","","","learning","-6","0","0","0","apple","fruit","2","0","","neutral","0"
"html-keyboard-response","146","586782","0.0-9.0-2.0-0.37","5885","2","9","Female","approach_avoid_spark_v1","""event"",""trial"",""time""
""fullscreenenter"",""1"",""12939""
","
","
","""event"",""trial"",""time""
""fullscreenenter"",""1"",""12939""
","
","","","","","","null","<div style=""font-size:60px;"">+</div>","null","","fixation","","","","","","","","","","",""
"aa-learning-trial","147","589789","0.0-9.0-2.0-1.37","5885","2","9","Female","approach_avoid_spark_v1","""event"",""trial"",""time""
""fullscreenenter"",""1"",""12939""
","
","
","""event"",""trial"",""time""
""fullscreenenter"",""1"",""12939""
","
","","","","","","1430.2000000011176","images/banana4.png","","","learning","-4","0","0","0","banana","fruit","2","0","","good","[5]"
"html-keyboard-response","148","590294","0.0-9.0-2.0-0.38","5885","2","9","Female","approach_avoid_spark_v1","""event"",""trial"",""time""
""fullscreenenter"",""1"",""12939""
","
","
","""event"",""trial"",""time""
""fullscreenenter"",""1"",""12939""
","
","","","","","","null","<div style=""font-size:60px;"">+</div>","null","","fixation","","","","","","","","","","",""
"aa-learning-trial","149","593301","0.0-9.0-2.0-1.38","5885","2","9","Female","approach_avoid_spark_v1","""event"",""trial"",""time""
""fullscreenenter"",""1"",""12939""
","
","
","""event"",""trial"",""time""
""fullscreenenter"",""1"",""12939""
","
","","","","","","958.3000000007451","images/banana1.png","","","learning","6","6","1","1","banana","fruit","2","0","","good","[5]"
"html-keyboard-response","150","593805","0.0-9.0-2.0-0.39","5885","2","9","Female","approach_avoid_spark_v1","""event"",""trial"",""time""
""fullscreenenter"",""1"",""12939""
","
","
","""event"",""trial"",""time""
""fullscreenenter"",""1"",""12939""
","
","","","","","","null","<div style=""font-size:60px;"">+</div>","null","","fixation","","","","","","","","","","",""
"aa-learning-trial","151","596813","0.0-9.0-2.0-1.39","5885","2","9","Female","approach_avoid_spark_v1","""event"",""trial"",""time""
""fullscreenenter"",""1"",""12939""
","
","
","""event"",""trial"",""time""
""fullscreenenter"",""1"",""12939""
","
","","","","","","2857.4000000003725","images/apple8.png","","","learning","-3","-3","1","1","apple","fruit","2","0","","neutral","0"
"html-keyboard-response","152","597317","0.0-9.0-2.0-0.40","5885","2","9","Female","approach_avoid_spark_v1","""event"",""trial"",""time""
""fullscreenenter"",""1"",""12939""
","
","
","""event"",""trial"",""time""
""fullscreenenter"",""1"",""12939""
","
","","","","","","null","<div style=""font-size:60px;"">+</div>","null","","fixation","","","","","","","","","","",""
"aa-learning-trial","153","600325","0.0-9.0-2.0-1.40","5885","2","9","Female","approach_avoid_spark_v1","""event"",""trial"",""time""
""fullscreenenter"",""1"",""12939""
","
","
","""event"",""trial"",""time""
""fullscreenenter"",""1"",""12939""
","
","","","","","","1952.5999999996275","images/apple3.png","","","learning","2","2","1","1","apple","fruit","2","0","","neutral","0"
"html-keyboard-response","154","600829","0.0-9.0-2.0-0.41","5885","2","9","Female","approach_avoid_spark_v1","""event"",""trial"",""time""
""fullscreenenter"",""1"",""12939""
","
","
","""event"",""trial"",""time""
""fullscreenenter"",""1"",""12939""
","
","","","","","","null","<div style=""font-size:60px;"">+</div>","null","","fixation","","","","","","","","","","",""
"aa-learning-trial","155","603837","0.0-9.0-2.0-1.41","5885","2","9","Female","approach_avoid_spark_v1","""event"",""trial"",""time""
""fullscreenenter"",""1"",""12939""
","
","
","""event"",""trial"",""time""
""fullscreenenter"",""1"",""12939""
","
","","","","","","1825.5","images/straw6.png","","","learning","-2","-2","1","1","straw","fruit","2","0","","bad","[-5]"
"html-keyboard-response","156","604341","0.0-9.0-2.0-0.42","5885","2","9","Female","approach_avoid_spark_v1","""event"",""trial"",""time""
""fullscreenenter"",""1"",""12939""
","
","
","""event"",""trial"",""time""
""fullscreenenter"",""1"",""12939""
","
","","","","","","null","<div style=""font-size:60px;"">+</div>","null","","fixation","","","","","","","","","","",""
"aa-learning-trial","157","607349","0.0-9.0-2.0-1.42","5885","2","9","Female","approach_avoid_spark_v1","""event"",""trial"",""time""
""fullscreenenter"",""1"",""12939""
","
","
","""event"",""trial"",""time""
""fullscreenenter"",""1"",""12939""
","
","","","","","","1000.3000000007451","images/apple4.png","","","learning","7","7","1","1","apple","fruit","2","0","","neutral","0"
"html-keyboard-response","158","607853","0.0-9.0-2.0-0.43","5885","2","9","Female","approach_avoid_spark_v1","""event"",""trial"",""time""
""fullscreenenter"",""1"",""12939""
","
","
","""event"",""trial"",""time""
""fullscreenenter"",""1"",""12939""
","
","","","","","","null","<div style=""font-size:60px;"">+</div>","null","","fixation","","","","","","","","","","",""
"aa-learning-trial","159","610860","0.0-9.0-2.0-1.43","5885","2","9","Female","approach_avoid_spark_v1","""event"",""trial"",""time""
""fullscreenenter"",""1"",""12939""
","
","
","""event"",""trial"",""time""
""fullscreenenter"",""1"",""12939""
","
","","","","","","1881.7000000011176","images/straw6.png","","","learning","-2","0","0","0","straw","fruit","2","0","","bad","[-5]"
"html-keyboard-response","160","611365","0.0-9.0-2.0-0.44","5885","2","9","Female","approach_avoid_spark_v1","""event"",""trial"",""time""
""fullscreenenter"",""1"",""12939""
","
","
","""event"",""trial"",""time""
""fullscreenenter"",""1"",""12939""
","
","","","","","","null","<div style=""font-size:60px;"">+</div>","null","","fixation","","","","","","","","","","",""
"aa-learning-trial","161","614372","0.0-9.0-2.0-1.44","5885","2","9","Female","approach_avoid_spark_v1","""event"",""trial"",""time""
""fullscreenenter"",""1"",""12939""
","
","
","""event"",""trial"",""time""
""fullscreenenter"",""1"",""12939""
","
","","","","","","1796","images/straw4.png","","","learning","-8","-8","1","1","straw","fruit","2","0","","bad","[-5]"
"html-keyboard-response","162","614877","0.0-9.0-2.0-0.45","5885","2","9","Female","approach_avoid_spark_v1","""event"",""trial"",""time""
""fullscreenenter"",""1"",""12939""
","
","
","""event"",""trial"",""time""
""fullscreenenter"",""1"",""12939""
","
","","","","","","null","<div style=""font-size:60px;"">+</div>","null","","fixation","","","","","","","","","","",""
"aa-learning-trial","163","617884","0.0-9.0-2.0-1.45","5885","2","9","Female","approach_avoid_spark_v1","""event"",""trial"",""time""
""fullscreenenter"",""1"",""12939""
","
","
","""event"",""trial"",""time""
""fullscreenenter"",""1"",""12939""
","
","","","","","","1444.800000000745","images/banana1.png","","","learning","6","6","1","1","banana","fruit","2","0","","good","[5]"
"html-keyboard-response","164","618389","0.0-9.0-2.0-0.46","5885","2","9","Female","approach_avoid_spark_v1","""event"",""trial"",""time""
""fullscreenenter"",""1"",""12939""
","
","
","""event"",""trial"",""time""
""fullscreenenter"",""1"",""12939""
","
","","","","","","null","<div style=""font-size:60px;"">+</div>","null","","fixation","","","","","","","","","","",""
"aa-learning-trial","165","621396","0.0-9.0-2.0-1.46","5885","2","9","Female","approach_avoid_spark_v1","""event"",""trial"",""time""
""fullscreenenter"",""1"",""12939""
","
","
","""event"",""trial"",""time""
""fullscreenenter"",""1"",""12939""
","
","","","","","","1324.3999999985099","images/apple4.png","","","learning","7","7","1","1","apple","fruit","2","0","","neutral","0"
"html-keyboard-response","166","621901","0.0-9.0-2.0-0.47","5885","2","9","Female","approach_avoid_spark_v1","""event"",""trial"",""time""
""fullscreenenter"",""1"",""12939""
","
","
","""event"",""trial"",""time""
""fullscreenenter"",""1"",""12939""
","
","","","","","","null","<div style=""font-size:60px;"">+</div>","null","","fixation","","","","","","","","","","",""
"aa-learning-trial","167","624908","0.0-9.0-2.0-1.47","5885","2","9","Female","approach_avoid_spark_v1","""event"",""trial"",""time""
""fullscreenenter"",""1"",""12939""
","
","
","""event"",""trial"",""time""
""fullscreenenter"",""1"",""12939""
","
","","","","","","836.5","images/straw5.png","","","learning","9","9","1","1","straw","fruit","2","0","","bad","[-5]"
"html-keyboard-response","168","625413","0.0-9.0-2.0-0.48","5885","2","9","Female","approach_avoid_spark_v1","""event"",""trial"",""time""
""fullscreenenter"",""1"",""12939""
","
","
","""event"",""trial"",""time""
""fullscreenenter"",""1"",""12939""
","
","","","","","","null","<div style=""font-size:60px;"">+</div>","null","","fixation","","","","","","","","","","",""
"aa-learning-trial","169","628420","0.0-9.0-2.0-1.48","5885","2","9","Female","approach_avoid_spark_v1","""event"",""trial"",""time""
""fullscreenenter"",""1"",""12939""
","
","
","""event"",""trial"",""time""
""fullscreenenter"",""1"",""12939""
","
","","","","","","1838.699999999255","images/banana6.png","","","learning","-7","-7","1","1","banana","fruit","2","0","","good","[5]"
"html-keyboard-response","170","628925","0.0-9.0-2.0-0.49","5885","2","9","Female","approach_avoid_spark_v1","""event"",""trial"",""time""
""fullscreenenter"",""1"",""12939""
","
","
","""event"",""trial"",""time""
""fullscreenenter"",""1"",""12939""
","
","","","","","","null","<div style=""font-size:60px;"">+</div>","null","","fixation","","","","","","","","","","",""
"aa-learning-trial","171","631932","0.0-9.0-2.0-1.49","5885","2","9","Female","approach_avoid_spark_v1","""event"",""trial"",""time""
""fullscreenenter"",""1"",""12939""
","
","
","""event"",""trial"",""time""
""fullscreenenter"",""1"",""12939""
","
","","","","","","1272.7999999988824","images/banana4.png","","","learning","-4","0","0","0","banana","fruit","2","0","","good","[5]"
"html-keyboard-response","172","632437","0.0-9.0-2.0-0.50","5885","2","9","Female","approach_avoid_spark_v1","""event"",""trial"",""time""
""fullscreenenter"",""1"",""12939""
","
","
","""event"",""trial"",""time""
""fullscreenenter"",""1"",""12939""
","
","","","","","","null","<div style=""font-size:60px;"">+</div>","null","","fixation","","","","","","","","","","",""
"aa-learning-trial","173","635444","0.0-9.0-2.0-1.50","5885","2","9","Female","approach_avoid_spark_v1","""event"",""trial"",""time""
""fullscreenenter"",""1"",""12939""
","
","
","""event"",""trial"",""time""
""fullscreenenter"",""1"",""12939""
","
","","","","","","920.3000000007451","images/banana4.png","","","learning","-4","0","0","0","banana","fruit","2","0","","good","[5]"
"html-button-response","174","641150","0.0-9.0-3.0","5885","2","9","Female","approach_avoid_spark_v1","""event"",""trial"",""time""
""fullscreenenter"",""1"",""12939""
","
","
","""event"",""trial"",""time""
""fullscreenenter"",""1"",""12939""
","
","","","","","","5703.9000000003725","<p> You have completed the round! <p> In this round, you earned 54 points! </p>","0","","break","","","","","","","","","","",""
"html-button-response","175","652661","0.0-10.0","5885","2","9","Female","approach_avoid_spark_v1","""event"",""trial"",""time""
""fullscreenenter"",""1"",""12939""
","
","
","""event"",""trial"",""time""
""fullscreenenter"",""1"",""12939""
","
","","","","","","11509.099999999627","<p> Now it's time to play another round. </p>","0","","transition_screen","","","","","","","","","","",""
"preload","176","653162","0.0-11.0-0.0","5885","2","9","Female","approach_avoid_spark_v1","""event"",""trial"",""time""
""fullscreenenter"",""1"",""12939""
","
","
","""event"",""trial"",""time""
""fullscreenenter"",""1"",""12939""
","
","true","false","[]","[]","[]","","","","","","","","","","","","","","","",""
"learning-instructions","177","659352","0.0-11.0-1.0-0.0","5885","2","9","Female","approach_avoid_spark_v1","""event"",""trial"",""time""
""fullscreenenter"",""1"",""12939""
","
","
","""event"",""trial"",""time""
""fullscreenenter"",""1"",""12939""
","
","","","","","","1298.199999999255","<p> Your goal in this round is to decorate your friend's new house with furniture. </p></div>","","0","instructions","","","","","","","","","","",""
"learning-instructions","178","672145","0.0-11.0-1.0-0.1","5885","2","9","Female","approach_avoid_spark_v1","""event"",""trial"",""time""
""fullscreenenter"",""1"",""12939""
","
","
","""event"",""trial"",""time""
""fullscreenenter"",""1"",""12939""
","
","","","","","","3078.5","<p> Your friend likes some pieces of furniture but not others.  </p><p> On each turn, you will see a piece of furniture.   </p><p> You need to decide whether to put it in your friend's house or not.  </p>","","0","instructions","","","","","","","","","","",""
"learning-instructions","179","679313","0.0-11.0-1.0-0.2","5885","2","9","Female","approach_avoid_spark_v1","""event"",""trial"",""time""
""fullscreenenter"",""1"",""12939""
","
","
","""event"",""trial"",""time""
""fullscreenenter"",""1"",""12939""
","
","","","","","","1486.9000000003725","<p> You can put the furniture in her house by pressing 1 and deliver it elsewhere by pressing 0. </p><br><div class=""choice-instructions-grid""> <div class=""choice-option""><img src=""images/approach.png"" class=""choice-option-img"" stage=""instructions"" position=""0"" ><div class=""choice-option-text""> Press ""1."" </div></div><div class=""choice-option""><img src=""images/avoid.png"" class=""choice-option-img"" stage=""instructions"" position=""1"" ><div class=""choice-option-text""> Press ""0."" </div></div>","","0","instructions","","","","","","","","","","",""
"learning-instructions","180","690637","0.0-11.0-1.0-0.3","5885","2","9","Female","approach_avoid_spark_v1","""event"",""trial"",""time""
""fullscreenenter"",""1"",""12939""
","
","
","""event"",""trial"",""time""
""fullscreenenter"",""1"",""12939""
","
","","","","","","2710.5","<p> If you decorate your friend's house with furniture she likes, she will be happy! </p><p> But if you give her furniture that she does not like, she will be annoyed. </p>","","0","instructions","","","","","","","","","","",""
"learning-instructions","181","706003","0.0-11.0-1.0-0.4","5885","2","9","Female","approach_avoid_spark_v1","""event"",""trial"",""time""
""fullscreenenter"",""1"",""12939""
","
","
","""event"",""trial"",""time""
""fullscreenenter"",""1"",""12939""
","
","","","","","","3216.9000000003725","<p> You will earn points based on how you made your friend feel. </p><p> If you made her happy, you will WIN anywhere from 1 - 9 points, </p><p> but if you made her annoyed you will LOSE anywhere from 1 - 9 points. </p>","","0","instructions","","","","","","","","","","",""
"learning-instructions","182","713950","0.0-11.0-1.0-0.5","5885","2","9","Female","approach_avoid_spark_v1","""event"",""trial"",""time""
""fullscreenenter"",""1"",""12939""
","
","
","""event"",""trial"",""time""
""fullscreenenter"",""1"",""12939""
","
","","","","","","1295.5","<p> You will see how many points you won or lost in the center of the screen. </p><p> Here is what you would see if you won 5 points: </p><p style=""color:green;font-size:50px;font-weight:bolder"">5</p>","","0","instructions","","","","","","","","","","",""
"learning-instructions","183","718225","0.0-11.0-1.0-0.6","5885","2","9","Female","approach_avoid_spark_v1","""event"",""trial"",""time""
""fullscreenenter"",""1"",""12939""
","
","
","""event"",""trial"",""time""
""fullscreenenter"",""1"",""12939""
","
","","","","","","1443.5999999996275","<p> And here is what you would see if you lost 3 points: </p><p style=""color:red;font-size:50px;font-weight:bolder"">-3</p>","","0","instructions","","","","","","","","","","",""
"learning-instructions","184","737809","0.0-11.0-1.0-0.7","5885","2","9","Female","approach_avoid_spark_v1","""event"",""trial"",""time""
""fullscreenenter"",""1"",""12939""
","
","
","""event"",""trial"",""time""
""fullscreenenter"",""1"",""12939""
","
","","","","","","2143.5","<p> Some pieces of furniture will make her feel very happy or very annoyed. </p><p> These pieces of furniture will make you win or lose LOTS of points. </p><p> Other pieces of furniture will only make her feel a little happy or a little annoyed. </p><p> These pieces of furniture will make you win or lose small amounts of points. </p>","","0","instructions","","","","","","","","","","",""
"learning-instructions","185","752307","0.0-11.0-1.0-0.8","5885","2","9","Female","approach_avoid_spark_v1","""event"",""trial"",""time""
""fullscreenenter"",""1"",""12939""
","
","
","""event"",""trial"",""time""
""fullscreenenter"",""1"",""12939""
","
","","","","","","1583.2999999988824","<p> If you choose to deliver a piece of furniture elsewhere, you will not win or lose any points. </p><p>  However, in the center of the screen, you will see the number of points you WOULD HAVE won or lost if you had given the furniture to your friend. </p>","","0","instructions","","","","","","","","","","",""
"learning-instructions","186","767639","0.0-11.0-1.0-0.9","5885","2","9","Female","approach_avoid_spark_v1","""event"",""trial"",""time""
""fullscreenenter"",""1"",""12939""
","
","
","""event"",""trial"",""time""
""fullscreenenter"",""1"",""12939""
","
","","","","","","3710.0999999996275","<p> Here is what you might see if you did not give a piece of furniture to your friend that would have made her happy: </p><p style=""color:grey; font-size:50px; display: inline-block; border-spacing: 15px; border-width:3px; border-style:solid; border-color:red"">  &nbsp; 6 &nbsp; </p><p> Remember, in this case, you would not win or lose ANY points because you did not give her the furniture.  </p>","","0","instructions","","","","","","","","","","",""
"learning-instructions","187","776434","0.0-11.0-1.0-0.10","5885","2","9","Female","approach_avoid_spark_v1","""event"",""trial"",""time""
""fullscreenenter"",""1"",""12939""
","
","
","""event"",""trial"",""time""
""fullscreenenter"",""1"",""12939""
","
","","","","","","1254.300000000745","<p> Try to make the best choice for each piece of furniture because </p><p> at the end of the game, you will earn bonus money based on how many points you earned. </p>","","0","instructions","","","","","","","","","","",""
"learning-instructions","188","785409","0.0-11.0-1.0-0.11","5885","2","9","Female","approach_avoid_spark_v1","""event"",""trial"",""time""
""fullscreenenter"",""1"",""12939""
","
","
","""event"",""trial"",""time""
""fullscreenenter"",""1"",""12939""
","
","","","","","","791.2000000011176","<p> You will have 3 seconds to make each choice. Try to respond before time runs out! </p><p> You will lose 5 points each time you do not make a response. </p>","","0","instructions","","","","","","","","","","",""
"html-keyboard-response","189","786016","0.0-11.0-2.0-0.0","5885","2","9","Female","approach_avoid_spark_v1","""event"",""trial"",""time""
""fullscreenenter"",""1"",""12939""
","
","
","""event"",""trial"",""time""
""fullscreenenter"",""1"",""12939""
","
","","","","","","null","<div style=""font-size:60px;"">+</div>","null","","fixation","","","","","","","","","","",""
"aa-learning-trial","190","789023","0.0-11.0-2.0-1.0","5885","2","9","Female","approach_avoid_spark_v1","""event"",""trial"",""time""
""fullscreenenter"",""1"",""12939""
","
","
","""event"",""trial"",""time""
""fullscreenenter"",""1"",""12939""
","
","","","","","","1366.4000000003725","images/bed5.png","","","learning","-4","-4","1","1","bed","furniture","1","1","","bad","[-3]"
"html-keyboard-response","191","789528","0.0-11.0-2.0-0.1","5885","2","9","Female","approach_avoid_spark_v1","""event"",""trial"",""time""
""fullscreenenter"",""1"",""12939""
","
","
","""event"",""trial"",""time""
""fullscreenenter"",""1"",""12939""
","
","","","","","","null","<div style=""font-size:60px;"">+</div>","null","","fixation","","","","","","","","","","",""
"aa-learning-trial","192","792535","0.0-11.0-2.0-1.1","5885","2","9","Female","approach_avoid_spark_v1","""event"",""trial"",""time""
""fullscreenenter"",""1"",""12939""
","
","
","""event"",""trial"",""time""
""fullscreenenter"",""1"",""12939""
","
","","","","","","1715.5","images/table8.png","","","learning","2","2","1","1","table","furniture","1","1","","good","[3]"
"html-keyboard-response","193","793040","0.0-11.0-2.0-0.2","5885","2","9","Female","approach_avoid_spark_v1","""event"",""trial"",""time""
""fullscreenenter"",""1"",""12939""
","
","
","""event"",""trial"",""time""
""fullscreenenter"",""1"",""12939""
","
","","","","","","null","<div style=""font-size:60px;"">+</div>","null","","fixation","","","","","","","","","","",""
"aa-learning-trial","194","796047","0.0-11.0-2.0-1.2","5885","2","9","Female","approach_avoid_spark_v1","""event"",""trial"",""time""
""fullscreenenter"",""1"",""12939""
","
","
","""event"",""trial"",""time""
""fullscreenenter"",""1"",""12939""
","
","","","","","","1561.300000000745","images/table2.png","","","learning","3","0","0","0","table","furniture","1","1","","good","[3]"
"html-keyboard-response","195","796552","0.0-11.0-2.0-0.3","5885","2","9","Female","approach_avoid_spark_v1","""event"",""trial"",""time""
""fullscreenenter"",""1"",""12939""
","
","
","""event"",""trial"",""time""
""fullscreenenter"",""1"",""12939""
","
","","","","","","null","<div style=""font-size:60px;"">+</div>","null","","fixation","","","","","","","","","","",""
"aa-learning-trial","196","799559","0.0-11.0-2.0-1.3","5885","2","9","Female","approach_avoid_spark_v1","""event"",""trial"",""time""
""fullscreenenter"",""1"",""12939""
","
","
","""event"",""trial"",""time""
""fullscreenenter"",""1"",""12939""
","
","","","","","","1299.2999999988824","images/chair2.png","","","learning","-3","-3","1","1","chair","furniture","1","1","","neutral","0"
"html-keyboard-response","197","800063","0.0-11.0-2.0-0.4","5885","2","9","Female","approach_avoid_spark_v1","""event"",""trial"",""time""
""fullscreenenter"",""1"",""12939""
","
","
","""event"",""trial"",""time""
""fullscreenenter"",""1"",""12939""
","
","","","","","","null","<div style=""font-size:60px;"">+</div>","null","","fixation","","","","","","","","","","",""
"aa-learning-trial","198","803068","0.0-11.0-2.0-1.4","5885","2","9","Female","approach_avoid_spark_v1","""event"",""trial"",""time""
""fullscreenenter"",""1"",""12939""
","
","
","""event"",""trial"",""time""
""fullscreenenter"",""1"",""12939""
","
","","","","","","1066.699999999255","images/chair1.png","","","learning","2","2","1","1","chair","furniture","1","1","","neutral","0"
"html-keyboard-response","199","803573","0.0-11.0-2.0-0.5","5885","2","9","Female","approach_avoid_spark_v1","""event"",""trial"",""time""
""fullscreenenter"",""1"",""12939""
","
","
","""event"",""trial"",""time""
""fullscreenenter"",""1"",""12939""
","
","","","","","","null","<div style=""font-size:60px;"">+</div>","null","","fixation","","","","","","","","","","",""
"aa-learning-trial","200","806579","0.0-11.0-2.0-1.5","5885","2","9","Female","approach_avoid_spark_v1","""event"",""trial"",""time""
""fullscreenenter"",""1"",""12939""
","
","
","""event"",""trial"",""time""
""fullscreenenter"",""1"",""12939""
","
","","","","","","886.5999999996275","images/bed5.png","","","learning","-2","0","0","0","bed","furniture","1","1","","bad","[-3]"
"html-keyboard-response","201","807084","0.0-11.0-2.0-0.6","5885","2","9","Female","approach_avoid_spark_v1","""event"",""trial"",""time""
""fullscreenenter"",""1"",""12939""
","
","
","""event"",""trial"",""time""
""fullscreenenter"",""1"",""12939""
","
","","","","","","null","<div style=""font-size:60px;"">+</div>","null","","fixation","","","","","","","","","","",""
"aa-learning-trial","202","810089","0.0-11.0-2.0-1.6","5885","2","9","Female","approach_avoid_spark_v1","""event"",""trial"",""time""
""fullscreenenter"",""1"",""12939""
","
","
","""event"",""trial"",""time""
""fullscreenenter"",""1"",""12939""
","
","","","","","","927.2000000011176","images/bed4.png","","","learning","-4","-4","1","1","bed","furniture","1","1","","bad","[-3]"
"html-keyboard-response","203","810594","0.0-11.0-2.0-0.7","5885","2","9","Female","approach_avoid_spark_v1","""event"",""trial"",""time""
""fullscreenenter"",""1"",""12939""
","
","
","""event"",""trial"",""time""
""fullscreenenter"",""1"",""12939""
","
","","","","","","null","<div style=""font-size:60px;"">+</div>","null","","fixation","","","","","","","","","","",""
"aa-learning-trial","204","813598","0.0-11.0-2.0-1.7","5885","2","9","Female","approach_avoid_spark_v1","""event"",""trial"",""time""
""fullscreenenter"",""1"",""12939""
","
","
","""event"",""trial"",""time""
""fullscreenenter"",""1"",""12939""
","
","","","","","","2176.4000000003725","images/table2.png","","","learning","6","6","1","1","table","furniture","1","1","","good","[3]"
"html-keyboard-response","205","814100","0.0-11.0-2.0-0.8","5885","2","9","Female","approach_avoid_spark_v1","""event"",""trial"",""time""
""fullscreenenter"",""1"",""12939""
","
","
","""event"",""trial"",""time""
""fullscreenenter"",""1"",""12939""
","
","","","","","","null","<div style=""font-size:60px;"">+</div>","null","","fixation","","","","","","","","","","",""
"aa-learning-trial","206","817106","0.0-11.0-2.0-1.8","5885","2","9","Female","approach_avoid_spark_v1","""event"",""trial"",""time""
""fullscreenenter"",""1"",""12939""
","
","
","""event"",""trial"",""time""
""fullscreenenter"",""1"",""12939""
","
","","","","","","2909","images/bed4.png","","","learning","-3","0","0","0","bed","furniture","1","1","","bad","[-3]"
"html-keyboard-response","207","817607","0.0-11.0-2.0-0.9","5885","2","9","Female","approach_avoid_spark_v1","""event"",""trial"",""time""
""fullscreenenter"",""1"",""12939""
","
","
","""event"",""trial"",""time""
""fullscreenenter"",""1"",""12939""
","
","","","","","","null","<div style=""font-size:60px;"">+</div>","null","","fixation","","","","","","","","","","",""
"aa-learning-trial","208","820614","0.0-11.0-2.0-1.9","5885","2","9","Female","approach_avoid_spark_v1","""event"",""trial"",""time""
""fullscreenenter"",""1"",""12939""
","
","
","""event"",""trial"",""time""
""fullscreenenter"",""1"",""12939""
","
","","","","","","1418.8999999985099","images/chair2.png","","","learning","-2","0","0","0","chair","furniture","1","1","","neutral","0"
"html-keyboard-response","209","821119","0.0-11.0-2.0-0.10","5885","2","9","Female","approach_avoid_spark_v1","""event"",""trial"",""time""
""fullscreenenter"",""1"",""12939""
","
","
","""event"",""trial"",""time""
""fullscreenenter"",""1"",""12939""
","
","","","","","","null","<div style=""font-size:60px;"">+</div>","null","","fixation","","","","","","","","","","",""
"aa-learning-trial","210","824126","0.0-11.0-2.0-1.10","5885","2","9","Female","approach_avoid_spark_v1","""event"",""trial"",""time""
""fullscreenenter"",""1"",""12939""
","
","
","""event"",""trial"",""time""
""fullscreenenter"",""1"",""12939""
","
","","","","","","1433.699999999255","images/table8.png","","","learning","3","0","0","0","table","furniture","1","1","","good","[3]"
"html-keyboard-response","211","824631","0.0-11.0-2.0-0.11","5885","2","9","Female","approach_avoid_spark_v1","""event"",""trial"",""time""
""fullscreenenter"",""1"",""12939""
","
","
","""event"",""trial"",""time""
""fullscreenenter"",""1"",""12939""
","
","","","","","","null","<div style=""font-size:60px;"">+</div>","null","","fixation","","","","","","","","","","",""
"aa-learning-trial","212","827638","0.0-11.0-2.0-1.11","5885","2","9","Female","approach_avoid_spark_v1","""event"",""trial"",""time""
""fullscreenenter"",""1"",""12939""
","
","
","""event"",""trial"",""time""
""fullscreenenter"",""1"",""12939""
","
","","","","","","1057.5","images/table6.png","","","learning","3","3","1","1","table","furniture","1","1","","good","[3]"
"html-keyboard-response","213","828143","0.0-11.0-2.0-0.12","5885","2","9","Female","approach_avoid_spark_v1","""event"",""trial"",""time""
""fullscreenenter"",""1"",""12939""
","
","
","""event"",""trial"",""time""
""fullscreenenter"",""1"",""12939""
","
","","","","","","null","<div style=""font-size:60px;"">+</div>","null","","fixation","","","","","","","","","","",""
"aa-learning-trial","214","831147","0.0-11.0-2.0-1.12","5885","2","9","Female","approach_avoid_spark_v1","""event"",""trial"",""time""
""fullscreenenter"",""1"",""12939""
","
","
","""event"",""trial"",""time""
""fullscreenenter"",""1"",""12939""
","
","","","","","","1989.4000000003725","images/chair1.png","","","learning","[-1]","-1","1","1","chair","furniture","1","1","","neutral","0"
"html-keyboard-response","215","831649","0.0-11.0-2.0-0.13","5885","2","9","Female","approach_avoid_spark_v1","""event"",""trial"",""time""
""fullscreenenter"",""1"",""12939""
","
","
","""event"",""trial"",""time""
""fullscreenenter"",""1"",""12939""
","
","","","","","","null","<div style=""font-size:60px;"">+</div>","null","","fixation","","","","","","","","","","",""
"aa-learning-trial","216","834656","0.0-11.0-2.0-1.13","5885","2","9","Female","approach_avoid_spark_v1","""event"",""trial"",""time""
""fullscreenenter"",""1"",""12939""
","
","
","""event"",""trial"",""time""
""fullscreenenter"",""1"",""12939""
","
","","","","","","1619.7000000011176","images/bed2.png","","","learning","-4","-4","1","1","bed","furniture","1","1","","bad","[-3]"
"html-keyboard-response","217","835161","0.0-11.0-2.0-0.14","5885","2","9","Female","approach_avoid_spark_v1","""event"",""trial"",""time""
""fullscreenenter"",""1"",""12939""
","
","
","""event"",""trial"",""time""
""fullscreenenter"",""1"",""12939""
","
","","","","","","null","<div style=""font-size:60px;"">+</div>","null","","fixation","","","","","","","","","","",""
"aa-learning-trial","218","838168","0.0-11.0-2.0-1.14","5885","2","9","Female","approach_avoid_spark_v1","""event"",""trial"",""time""
""fullscreenenter"",""1"",""12939""
","
","
","""event"",""trial"",""time""
""fullscreenenter"",""1"",""12939""
","
","","","","","","1695.5","images/chair4.png","","","learning","4","0","0","0","chair","furniture","1","1","","neutral","0"
"html-keyboard-response","219","838673","0.0-11.0-2.0-0.15","5885","2","9","Female","approach_avoid_spark_v1","""event"",""trial"",""time""
""fullscreenenter"",""1"",""12939""
","
","
","""event"",""trial"",""time""
""fullscreenenter"",""1"",""12939""
","
","","","","","","null","<div style=""font-size:60px;"">+</div>","null","","fixation","","","","","","","","","","",""
"aa-learning-trial","220","841680","0.0-11.0-2.0-1.15","5885","2","9","Female","approach_avoid_spark_v1","""event"",""trial"",""time""
""fullscreenenter"",""1"",""12939""
","
","
","""event"",""trial"",""time""
""fullscreenenter"",""1"",""12939""
","
","","","","","","1095.4000000003725","images/table6.png","","","learning","3","3","1","1","table","furniture","1","1","","good","[3]"
"html-keyboard-response","221","842185","0.0-11.0-2.0-0.16","5885","2","9","Female","approach_avoid_spark_v1","""event"",""trial"",""time""
""fullscreenenter"",""1"",""12939""
","
","
","""event"",""trial"",""time""
""fullscreenenter"",""1"",""12939""
","
","","","","","","null","<div style=""font-size:60px;"">+</div>","null","","fixation","","","","","","","","","","",""
"aa-learning-trial","222","845192","0.0-11.0-2.0-1.16","5885","2","9","Female","approach_avoid_spark_v1","""event"",""trial"",""time""
""fullscreenenter"",""1"",""12939""
","
","
","""event"",""trial"",""time""
""fullscreenenter"",""1"",""12939""
","
","","","","","","1348.2000000011176","images/table2.png","","","learning","4","4","1","1","table","furniture","1","1","","good","[3]"
"html-keyboard-response","223","845697","0.0-11.0-2.0-0.17","5885","2","9","Female","approach_avoid_spark_v1","""event"",""trial"",""time""
""fullscreenenter"",""1"",""12939""
","
","
","""event"",""trial"",""time""
""fullscreenenter"",""1"",""12939""
","
","","","","","","null","<div style=""font-size:60px;"">+</div>","null","","fixation","","","","","","","","","","",""
"aa-learning-trial","224","848704","0.0-11.0-2.0-1.17","5885","2","9","Female","approach_avoid_spark_v1","""event"",""trial"",""time""
""fullscreenenter"",""1"",""12939""
","
","
","""event"",""trial"",""time""
""fullscreenenter"",""1"",""12939""
","
","","","","","","2287.5999999996275","images/chair2.png","","","learning","-1","0","0","0","chair","furniture","1","1","","neutral","0"
"html-keyboard-response","225","849209","0.0-11.0-2.0-0.18","5885","2","9","Female","approach_avoid_spark_v1","""event"",""trial"",""time""
""fullscreenenter"",""1"",""12939""
","
","
","""event"",""trial"",""time""
""fullscreenenter"",""1"",""12939""
","
","","","","","","null","<div style=""font-size:60px;"">+</div>","null","","fixation","","","","","","","","","","",""
"aa-learning-trial","226","852214","0.0-11.0-2.0-1.18","5885","2","9","Female","approach_avoid_spark_v1","""event"",""trial"",""time""
""fullscreenenter"",""1"",""12939""
","
","
","""event"",""trial"",""time""
""fullscreenenter"",""1"",""12939""
","
","","","","","","2673.5","images/bed5.png","","","learning","-3","0","0","0","bed","furniture","1","1","","bad","[-3]"
"html-keyboard-response","227","852721","0.0-11.0-2.0-0.19","5885","2","9","Female","approach_avoid_spark_v1","""event"",""trial"",""time""
""fullscreenenter"",""1"",""12939""
","
","
","""event"",""trial"",""time""
""fullscreenenter"",""1"",""12939""
","
","","","","","","null","<div style=""font-size:60px;"">+</div>","null","","fixation","","","","","","","","","","",""
"aa-learning-trial","228","855728","0.0-11.0-2.0-1.19","5885","2","9","Female","approach_avoid_spark_v1","""event"",""trial"",""time""
""fullscreenenter"",""1"",""12939""
","
","
","""event"",""trial"",""time""
""fullscreenenter"",""1"",""12939""
","
","","","","","","1218","images/bed7.png","","","learning","-5","-5","1","1","bed","furniture","1","1","","bad","[-3]"
"html-keyboard-response","229","856233","0.0-11.0-2.0-0.20","5885","2","9","Female","approach_avoid_spark_v1","""event"",""trial"",""time""
""fullscreenenter"",""1"",""12939""
","
","
","""event"",""trial"",""time""
""fullscreenenter"",""1"",""12939""
","
","","","","","","null","<div style=""font-size:60px;"">+</div>","null","","fixation","","","","","","","","","","",""
"aa-learning-trial","230","859240","0.0-11.0-2.0-1.20","5885","2","9","Female","approach_avoid_spark_v1","""event"",""trial"",""time""
""fullscreenenter"",""1"",""12939""
","
","
","""event"",""trial"",""time""
""fullscreenenter"",""1"",""12939""
","
","","","","","","1404.5","images/table2.png","","","learning","2","2","1","1","table","furniture","1","1","","good","[3]"
"html-keyboard-response","231","859745","0.0-11.0-2.0-0.21","5885","2","9","Female","approach_avoid_spark_v1","""event"",""trial"",""time""
""fullscreenenter"",""1"",""12939""
","
","
","""event"",""trial"",""time""
""fullscreenenter"",""1"",""12939""
","
","","","","","","null","<div style=""font-size:60px;"">+</div>","null","","fixation","","","","","","","","","","",""
"aa-learning-trial","232","862752","0.0-11.0-2.0-1.21","5885","2","9","Female","approach_avoid_spark_v1","""event"",""trial"",""time""
""fullscreenenter"",""1"",""12939""
","
","
","""event"",""trial"",""time""
""fullscreenenter"",""1"",""12939""
","
","","","","","","1809.5","images/table1.png","","","learning","3","0","0","0","table","furniture","1","1","","good","[3]"
"html-keyboard-response","233","863257","0.0-11.0-2.0-0.22","5885","2","9","Female","approach_avoid_spark_v1","""event"",""trial"",""time""
""fullscreenenter"",""1"",""12939""
","
","
","""event"",""trial"",""time""
""fullscreenenter"",""1"",""12939""
","
","","","","","","null","<div style=""font-size:60px;"">+</div>","null","","fixation","","","","","","","","","","",""
"aa-learning-trial","234","866264","0.0-11.0-2.0-1.22","5885","2","9","Female","approach_avoid_spark_v1","""event"",""trial"",""time""
""fullscreenenter"",""1"",""12939""
","
","
","""event"",""trial"",""time""
""fullscreenenter"",""1"",""12939""
","
","","","","","","1544.699999999255","images/chair4.png","","","learning","-1","-1","1","1","chair","furniture","1","1","","neutral","0"
"html-keyboard-response","235","866769","0.0-11.0-2.0-0.23","5885","2","9","Female","approach_avoid_spark_v1","""event"",""trial"",""time""
""fullscreenenter"",""1"",""12939""
","
","
","""event"",""trial"",""time""
""fullscreenenter"",""1"",""12939""
","
