"trial_type","trial_index","time_elapsed","internal_node_id","subject_id","task_condition","age","gender","task_version","interactions","blur_events","focus_events","fullscreenenter_events","fullscreenexit_events","success","timeout","failed_images","failed_audio","failed_video","rt","stimulus","response","button_pressed","task_part","approach_reward","points","key_press","option_selected","stim_cat","task_block","block_condition","block_number","correct","cat_type","mean_cat_reward"
"pavlovia","0","4","0.0-0.0","6409","2","11","Female","approach_avoid_spark_v1","""event"",""trial"",""time""
""fullscreenenter"",""1"",""4631""
","
","
","""event"",""trial"",""time""
""fullscreenenter"",""1"",""4631""
","
","","","","","","","","","","","","","","","","","","","","",""
"fullscreen","1","5614","0.0-1.0","6409","2","11","Female","approach_avoid_spark_v1","""event"",""trial"",""time""
""fullscreenenter"",""1"",""4631""
","
","
","""event"",""trial"",""time""
""fullscreenenter"",""1"",""4631""
","
","true","","","","","","","","","","","","","","","","","","","",""
"preload","2","12398","0.0-2.0","6409","2","11","Female","approach_avoid_spark_v1","""event"",""trial"",""time""
""fullscreenenter"",""1"",""4631""
","
","
","""event"",""trial"",""time""
""fullscreenenter"",""1"",""4631""
","
","true","false","[]","[]","[]","","","","","","","","","","","","","","","",""
"audio-keyboard-response","3","16568","0.0-3.0","6409","2","11","Female","approach_avoid_spark_v1","""event"",""trial"",""time""
""fullscreenenter"",""1"",""4631""
","
","
","""event"",""trial"",""time""
""fullscreenenter"",""1"",""4631""
","
","","","","","","4170.666666666666","audio/beep_loop.wav"," ","","","","","","","","","","","","",""
"audio-button-response","4","20598","0.0-4.0","6409","2","11","Female","approach_avoid_spark_v1","""event"",""trial"",""time""
""fullscreenenter"",""1"",""4631""
","
","
","""event"",""trial"",""time""
""fullscreenenter"",""1"",""4631""
","
","","","","","","4029","audio/shark.wav","4","","","","","","","","","","","","",""
"audio-button-response","5","23848","0.0-5.0","6409","2","11","Female","approach_avoid_spark_v1","""event"",""trial"",""time""
""fullscreenenter"",""1"",""4631""
","
","
","""event"",""trial"",""time""
""fullscreenenter"",""1"",""4631""
","
","","","","","","2251","audio/turtle.wav","1","","","","","","","","","","","","",""
"preload","6","27278","0.0-6.0","6409","2","11","Female","approach_avoid_spark_v1","""event"",""trial"",""time""
""fullscreenenter"",""1"",""4631""
","
","
","""event"",""trial"",""time""
""fullscreenenter"",""1"",""4631""
","
","true","false","[]","[]","[]","","","","","","","","","","","","","","","",""
"html-keyboard-response","7","31815","0.0-7.0","6409","2","11","Female","approach_avoid_spark_v1","""event"",""trial"",""time""
""fullscreenenter"",""1"",""4631""
","
","
","""event"",""trial"",""time""
""fullscreenenter"",""1"",""4631""
","
","","","","","","4536.700000047684","Welcome to the experiment. Press any key to begin and to advance the instructions."," ","","","","","","","","","","","","",""
"learning-instructions","8","40790","0.0-8.0-0.0-0.0","6409","2","11","Female","approach_avoid_spark_v1","""event"",""trial"",""time""
""fullscreenenter"",""1"",""4631""
","
","
","""event"",""trial"",""time""
""fullscreenenter"",""1"",""4631""
","
","","","","","","2015.4000000357628","<p> Welcome! Today you are going to play 6 different rounds of a decision-making game. </p><p> Use the mouse to click next to continue. </p>","","0","instructions","","","","","","","","","","",""
"learning-instructions","9","110947","0.0-8.0-0.0-0.1","6409","2","11","Female","approach_avoid_spark_v1","""event"",""trial"",""time""
""fullscreenenter"",""1"",""4631""
","
","
","""event"",""trial"",""time""
""fullscreenenter"",""1"",""4631""
","
","","","","","","67435.09999996424","<p> You will start with a practice round to learn the rules. </p>","","0","instructions","","","","","","","","","","",""
"learning-instructions","10","116382","0.0-8.0-0.0-0.2","6409","2","11","Female","approach_avoid_spark_v1","""event"",""trial"",""time""
""fullscreenenter"",""1"",""4631""
","
","
","""event"",""trial"",""time""
""fullscreenenter"",""1"",""4631""
","
","","","","","","1477","<p> Your goal in this round is to give out sports equipment to kids. </p></div>","","0","instructions","","","","","","","","","","",""
"learning-instructions","11","124937","0.0-8.0-0.0-0.3","6409","2","11","Female","approach_avoid_spark_v1","""event"",""trial"",""time""
""fullscreenenter"",""1"",""4631""
","
","
","""event"",""trial"",""time""
""fullscreenenter"",""1"",""4631""
","
","","","","","","1000","<p> The kids only like some of the equipment.  </p><p> On each turn, you will see a piece of sports equipment.   </p><p> You need to decide whether to give it to the kids or not.  </p>","","0","instructions","","","","","","","","","","",""
"learning-instructions","12","171440","0.0-8.0-0.0-0.4","6409","2","11","Female","approach_avoid_spark_v1","""event"",""trial"",""time""
""fullscreenenter"",""1"",""4631""
","
","
","""event"",""trial"",""time""
""fullscreenenter"",""1"",""4631""
","
","","","","","","41734.09999996424","<p> You can give them the equipment by pressing 1 and choose not to give it to them by pressing 0. </p><br><div class=""choice-instructions-grid""> <div class=""choice-option""><img src=""images/approach.png"" class=""choice-option-img"" stage=""instructions"" position=""0"" ><div class=""choice-option-text""> Press ""1."" </div></div><div class=""choice-option""><img src=""images/avoid.png"" class=""choice-option-img"" stage=""instructions"" position=""1"" ><div class=""choice-option-text""> Press ""0."" </div></div>","","0","instructions","","","","","","","","","","",""
"learning-instructions","13","181762","0.0-8.0-0.0-0.5","6409","2","11","Female","approach_avoid_spark_v1","""event"",""trial"",""time""
""fullscreenenter"",""1"",""4631""
","
","
","""event"",""trial"",""time""
""fullscreenenter"",""1"",""4631""
","
","","","","","","2657.199999988079","<p> If you give them a piece of equipment they like, they will be happy! </p><p> But if you give them a piece of equipment they do not like, they will be sad. </p>","","0","instructions","","","","","","","","","","",""
"learning-instructions","14","221346","0.0-8.0-0.0-0.6","6409","2","11","Female","approach_avoid_spark_v1","""event"",""trial"",""time""
""fullscreenenter"",""1"",""4631""
","
","
","""event"",""trial"",""time""
""fullscreenenter"",""1"",""4631""
","
","","","","","","29069.19999998808","<p> You will earn points based on how you make kids feel. </p><p> If you make them happy, you will WIN anywhere from 1 - 9 points, </p><p> but if you make them sad, you will LOSE anywhere from 1 - 9 points. </p>","","0","instructions","","","","","","","","","","",""
"learning-instructions","15","241954","0.0-8.0-0.0-0.7","6409","2","11","Female","approach_avoid_spark_v1","""event"",""trial"",""time""
""fullscreenenter"",""1"",""4631""
","
","
","""event"",""trial"",""time""
""fullscreenenter"",""1"",""4631""
","
","","","","","","11045.600000023842","<p> You will see how many points you won or lost in the center of the screen. </p><p> Here is what you would see if you won 6 points: </p><p style=""color:green;font-size:50px;font-weight:bolder"">6</p><p style=""color:green"">The text is GREEN because you WON points.</p>","","0","instructions","","","","","","","","","","",""
"learning-instructions","16","252036","0.0-8.0-0.0-0.8","6409","2","11","Female","approach_avoid_spark_v1","""event"",""trial"",""time""
""fullscreenenter"",""1"",""4631""
","
","
","""event"",""trial"",""time""
""fullscreenenter"",""1"",""4631""
","
","","","","","","4568.699999988079","<p> And here is what you would see if you lost 4 points: </p><p style=""color:red;font-size:50px;font-weight:bolder"">-4</p><p style=""color:red"">The text is RED because you LOST points. </p>","","0","instructions","","","","","","","","","","",""
"learning-instructions","17","269839","0.0-8.0-0.0-0.9","6409","2","11","Female","approach_avoid_spark_v1","""event"",""trial"",""time""
""fullscreenenter"",""1"",""4631""
","
","
","""event"",""trial"",""time""
""fullscreenenter"",""1"",""4631""
","
","","","","","","3091.399999976158","<p> Some of the equipment will make the kids VERY happy or sad. </p><p> These pieces of equipment will make you win or lose LOTS of points. </p><p> Other pieces of equipment will only make the kids a little happy or sad. </p><p> These pieces of equipment will make you win or lose small amounts of points. </p>","","0","instructions","","","","","","","","","","",""
"learning-instructions","18","282004","0.0-8.0-0.0-0.10","6409","2","11","Female","approach_avoid_spark_v1","""event"",""trial"",""time""
""fullscreenenter"",""1"",""4631""
","
","
","""event"",""trial"",""time""
""fullscreenenter"",""1"",""4631""
","
","","","","","","1535.5","<p> If you choose not to give them the equipment, you will not win or lose any points. </p><p>  However, in the center of the screen, you will see the number of points you WOULD HAVE won or lost if you had given them the equipment. </p>","","0","instructions","","","","","","","","","","",""
"learning-instructions","19","304984","0.0-8.0-0.0-0.11","6409","2","11","Female","approach_avoid_spark_v1","""event"",""trial"",""time""
""fullscreenenter"",""1"",""4631""
","
","
","""event"",""trial"",""time""
""fullscreenenter"",""1"",""4631""
","
","","","","","","1456","<p> Here is what you might see if you did not give the equipment to the kids but it would have made them happy: </p><p style=""color:grey; font-size:50px; display: inline-block; border-spacing: 15px; border-width:3px; border-style:solid; border-color:red"">  &nbsp; 7 &nbsp; </p><p> Remember, in this case, you would not win or lose ANY points because you did not give them the equipment.  </p><p style=""color:grey"">The text is GREY because you earned ZERO points. </p><p style=""color:red"">However, choosing to give the kids the equipment would have made you win points. The box around the text is RED because you chose the worse option. </p>","","0","instructions","","","","","","","","","","",""
"learning-instructions","20","327504","0.0-8.0-0.0-0.12","6409","2","11","Female","approach_avoid_spark_v1","""event"",""trial"",""time""
""fullscreenenter"",""1"",""4631""
","
","
","""event"",""trial"",""time""
""fullscreenenter"",""1"",""4631""
","
","","","","","","1446.800000011921","<p> Here is what you might see if you did not give the equipment to the kids but it would have made them sad: </p><p style=""color:grey;font-size:50px; display: inline-block; border-spacing: 15px; border-width:3px; border-style:solid; border-color:green"">  &nbsp; -8 &nbsp; </p><p> Remember, in this case, you would not win or lose ANY points because you did not give them the equipment.  </p><p style=""color:grey"">The text is GREY because you earned ZERO points. </p><p  style=""color:green""> Choosing to give the kids the equipment would have made you lose points. The box around the text is GREEN because you chose the better option.</p>","","0","instructions","","","","","","","","","","",""
"learning-instructions","21","338233","0.0-8.0-0.0-0.13","6409","2","11","Female","approach_avoid_spark_v1","""event"",""trial"",""time""
""fullscreenenter"",""1"",""4631""
","
","
","""event"",""trial"",""time""
""fullscreenenter"",""1"",""4631""
","
","","","","","","1234.300000011921","<p> You will have 3 seconds to make each choice. Try to respond before time runs out! </p><p> You will lose 5 points each time you do not make a response. </p>","","0","instructions","","","","","","","","","","",""
"learning-instructions","22","344447","0.0-8.0-0.0-0.14","6409","2","11","Female","approach_avoid_spark_v1","""event"",""trial"",""time""
""fullscreenenter"",""1"",""4631""
","
","
","""event"",""trial"",""time""
""fullscreenenter"",""1"",""4631""
","
","","","","","","808.3000000119209","<p> This is just a practice round, but in the real game, your bonus payment will depend on your total number of points.","","0","instructions","","","","","","","","","","",""
"learning-instructions","23","351487","0.0-8.0-0.0-0.15","6409","2","11","Female","approach_avoid_spark_v1","""event"",""trial"",""time""
""fullscreenenter"",""1"",""4631""
","
","
","""event"",""trial"",""time""
""fullscreenenter"",""1"",""4631""
","
","","","","","","1266.800000011921","<p> Remember, you can give them the equipment by pressing 1 and choose not to give it to them by pressing 0. </p><br><div class=""choice-instructions-grid""> <div class=""choice-option""><img src=""images/approach.png"" class=""choice-option-img"" stage=""instructions"" position=""0"" ><div class=""choice-option-text""> Press ""1."" </div></div><div class=""choice-option""><img src=""images/avoid.png"" class=""choice-option-img"" stage=""instructions"" position=""1"" ><div class=""choice-option-text""> Press ""0."" </div></div>","","0","instructions","","","","","","","","","","",""
"html-button-response","24","353625","0.0-8.0-1.0","6409","2","11","Female","approach_avoid_spark_v1","""event"",""trial"",""time""
""fullscreenenter"",""1"",""4631""
","
","
","""event"",""trial"",""time""
""fullscreenenter"",""1"",""4631""
","
","","","","","","2026.5","<p> Ready to practice? </p>","0","","","","","","","","","","","","",""
"html-keyboard-response","25","354236","0.0-8.0-2.0-0.0","6409","2","11","Female","approach_avoid_spark_v1","""event"",""trial"",""time""
""fullscreenenter"",""1"",""4631""
","
","
","""event"",""trial"",""time""
""fullscreenenter"",""1"",""4631""
","
","","","","","","null","<div style=""font-size:60px;"">+</div>","null","","fixation","","","","","","","","","","",""
"aa-learning-trial","26","357250","0.0-8.0-2.0-1.0","6409","2","11","Female","approach_avoid_spark_v1","""event"",""trial"",""time""
""fullscreenenter"",""1"",""4631""
","
","
","""event"",""trial"",""time""
""fullscreenenter"",""1"",""4631""
","
","","","","","","1681.5","images/ball4.png","","","learning","7","7","1","1","practice","practice","practice","-1","","",""
"html-keyboard-response","27","357765","0.0-8.0-2.0-0.1","6409","2","11","Female","approach_avoid_spark_v1","""event"",""trial"",""time""
""fullscreenenter"",""1"",""4631""
","
","
","""event"",""trial"",""time""
""fullscreenenter"",""1"",""4631""
","
","","","","","","null","<div style=""font-size:60px;"">+</div>","null","","fixation","","","","","","","","","","",""
"aa-learning-trial","28","360786","0.0-8.0-2.0-1.1","6409","2","11","Female","approach_avoid_spark_v1","""event"",""trial"",""time""
""fullscreenenter"",""1"",""4631""
","
","
","""event"",""trial"",""time""
""fullscreenenter"",""1"",""4631""
","
","","","","","","917","images/racket2.png","","","learning","-2","-2","1","1","practice","practice","practice","-1","","",""
"html-keyboard-response","29","361298","0.0-8.0-2.0-0.2","6409","2","11","Female","approach_avoid_spark_v1","""event"",""trial"",""time""
""fullscreenenter"",""1"",""4631""
","
","
","""event"",""trial"",""time""
""fullscreenenter"",""1"",""4631""
","
","","","","","","null","<div style=""font-size:60px;"">+</div>","null","","fixation","","","","","","","","","","",""
"aa-learning-trial","30","364307","0.0-8.0-2.0-1.2","6409","2","11","Female","approach_avoid_spark_v1","""event"",""trial"",""time""
""fullscreenenter"",""1"",""4631""
","
","
","""event"",""trial"",""time""
""fullscreenenter"",""1"",""4631""
","
","","","","","","922.3000000119209","images/racket4.png","","","learning","-7","0","0","0","practice","practice","practice","-1","","",""
"html-keyboard-response","31","364826","0.0-8.0-2.0-0.3","6409","2","11","Female","approach_avoid_spark_v1","""event"",""trial"",""time""
""fullscreenenter"",""1"",""4631""
","
","
","""event"",""trial"",""time""
""fullscreenenter"",""1"",""4631""
","
","","","","","","null","<div style=""font-size:60px;"">+</div>","null","","fixation","","","","","","","","","","",""
"aa-learning-trial","32","367846","0.0-8.0-2.0-1.3","6409","2","11","Female","approach_avoid_spark_v1","""event"",""trial"",""time""
""fullscreenenter"",""1"",""4631""
","
","
","""event"",""trial"",""time""
""fullscreenenter"",""1"",""4631""
","
","","","","","","1386","images/ball4.png","","","learning","-9","-9","1","1","practice","practice","practice","-1","","",""
"html-keyboard-response","33","368356","0.0-8.0-2.0-0.4","6409","2","11","Female","approach_avoid_spark_v1","""event"",""trial"",""time""
""fullscreenenter"",""1"",""4631""
","
","
","""event"",""trial"",""time""
""fullscreenenter"",""1"",""4631""
","
","","","","","","null","<div style=""font-size:60px;"">+</div>","null","","fixation","","","","","","","","","","",""
"aa-learning-trial","34","371359","0.0-8.0-2.0-1.4","6409","2","11","Female","approach_avoid_spark_v1","""event"",""trial"",""time""
""fullscreenenter"",""1"",""4631""
","
","
","""event"",""trial"",""time""
""fullscreenenter"",""1"",""4631""
","
","","","","","","992.1000000238419","images/racket2.png","","","learning","6","0","0","0","practice","practice","practice","-1","","",""
"html-keyboard-response","35","371862","0.0-8.0-2.0-0.5","6409","2","11","Female","approach_avoid_spark_v1","""event"",""trial"",""time""
""fullscreenenter"",""1"",""4631""
","
","
","""event"",""trial"",""time""
""fullscreenenter"",""1"",""4631""
","
","","","","","","null","<div style=""font-size:60px;"">+</div>","null","","fixation","","","","","","","","","","",""
"aa-learning-trial","36","374867","0.0-8.0-2.0-1.5","6409","2","11","Female","approach_avoid_spark_v1","""event"",""trial"",""time""
""fullscreenenter"",""1"",""4631""
","
","
","""event"",""trial"",""time""
""fullscreenenter"",""1"",""4631""
","
","","","","","","1792","images/racket3.png","","","learning","-3","-3","1","1","practice","practice","practice","-1","","",""
"html-keyboard-response","37","375387","0.0-8.0-2.0-0.6","6409","2","11","Female","approach_avoid_spark_v1","""event"",""trial"",""time""
""fullscreenenter"",""1"",""4631""
","
","
","""event"",""trial"",""time""
""fullscreenenter"",""1"",""4631""
","
","","","","","","null","<div style=""font-size:60px;"">+</div>","null","","fixation","","","","","","","","","","",""
"aa-learning-trial","38","378397","0.0-8.0-2.0-1.6","6409","2","11","Female","approach_avoid_spark_v1","""event"",""trial"",""time""
""fullscreenenter"",""1"",""4631""
","
","
","""event"",""trial"",""time""
""fullscreenenter"",""1"",""4631""
","
","","","","","","1407.7999999523163","images/ball2.png","","","learning","7","0","0","0","practice","practice","practice","-1","","",""
"html-keyboard-response","39","378917","0.0-8.0-2.0-0.7","6409","2","11","Female","approach_avoid_spark_v1","""event"",""trial"",""time""
""fullscreenenter"",""1"",""4631""
","
","
","""event"",""trial"",""time""
""fullscreenenter"",""1"",""4631""
","
","","","","","","null","<div style=""font-size:60px;"">+</div>","null","","fixation","","","","","","","","","","",""
"aa-learning-trial","40","381919","0.0-8.0-2.0-1.7","6409","2","11","Female","approach_avoid_spark_v1","""event"",""trial"",""time""
""fullscreenenter"",""1"",""4631""
","
","
","""event"",""trial"",""time""
""fullscreenenter"",""1"",""4631""
","
","","","","","","1044.699999988079","images/racket3.png","","","learning","-7","-7","1","1","practice","practice","practice","-1","","",""
"html-keyboard-response","41","382421","0.0-8.0-2.0-0.8","6409","2","11","Female","approach_avoid_spark_v1","""event"",""trial"",""time""
""fullscreenenter"",""1"",""4631""
","
","
","""event"",""trial"",""time""
""fullscreenenter"",""1"",""4631""
","
","","","","","","null","<div style=""font-size:60px;"">+</div>","null","","fixation","","","","","","","","","","",""
"aa-learning-trial","42","385423","0.0-8.0-2.0-1.8","6409","2","11","Female","approach_avoid_spark_v1","""event"",""trial"",""time""
""fullscreenenter"",""1"",""4631""
","
","
","""event"",""trial"",""time""
""fullscreenenter"",""1"",""4631""
","
","","","","","","120","images/ball4.png","","","learning","9","0","0","0","practice","practice","practice","-1","","",""
"html-keyboard-response","43","385925","0.0-8.0-2.0-0.9","6409","2","11","Female","approach_avoid_spark_v1","""event"",""trial"",""time""
""fullscreenenter"",""1"",""4631""
","
","
","""event"",""trial"",""time""
""fullscreenenter"",""1"",""4631""
","
","","","","","","null","<div style=""font-size:60px;"">+</div>","null","","fixation","","","","","","","","","","",""
"aa-learning-trial","44","388930","0.0-8.0-2.0-1.9","6409","2","11","Female","approach_avoid_spark_v1","""event"",""trial"",""time""
""fullscreenenter"",""1"",""4631""
","
","
","""event"",""trial"",""time""
""fullscreenenter"",""1"",""4631""
","
","","","","","","840.0999999642372","images/ball3.png","","","learning","8","8","1","1","practice","practice","practice","-1","","",""
"html-keyboard-response","45","389433","0.0-8.0-2.0-0.10","6409","2","11","Female","approach_avoid_spark_v1","""event"",""trial"",""time""
""fullscreenenter"",""1"",""4631""
","
","
","""event"",""trial"",""time""
""fullscreenenter"",""1"",""4631""
","
","","","","","","null","<div style=""font-size:60px;"">+</div>","null","","fixation","","","","","","","","","","",""
"aa-learning-trial","46","392439","0.0-8.0-2.0-1.10","6409","2","11","Female","approach_avoid_spark_v1","""event"",""trial"",""time""
""fullscreenenter"",""1"",""4631""
","
","
","""event"",""trial"",""time""
""fullscreenenter"",""1"",""4631""
","
","","","","","","819.8000000119209","images/ball3.png","","","learning","2","2","1","1","practice","practice","practice","-1","","",""
"html-keyboard-response","47","392941","0.0-8.0-2.0-0.11","6409","2","11","Female","approach_avoid_spark_v1","""event"",""trial"",""time""
""fullscreenenter"",""1"",""4631""
","
","
","""event"",""trial"",""time""
""fullscreenenter"",""1"",""4631""
","
","","","","","","null","<div style=""font-size:60px;"">+</div>","null","","fixation","","","","","","","","","","",""
"aa-learning-trial","48","395946","0.0-8.0-2.0-1.11","6409","2","11","Female","approach_avoid_spark_v1","""event"",""trial"",""time""
""fullscreenenter"",""1"",""4631""
","
","
","""event"",""trial"",""time""
""fullscreenenter"",""1"",""4631""
","
","","","","","","1222.5","images/racket1.png","","","learning","2","2","1","1","practice","practice","practice","-1","","",""
"html-button-response","49","403114","0.0-8.0-3.0","6409","2","11","Female","approach_avoid_spark_v1","""event"",""trial"",""time""
""fullscreenenter"",""1"",""4631""
","
","
","""event"",""trial"",""time""
""fullscreenenter"",""1"",""4631""
","
","","","","","","7164.5","<p> You earned -2 points in the practice round! </p>","0","","break","","","","","","","","","","",""
"learning-instructions","50","410824","0.0-8.0-4.0-0.0","6409","2","11","Female","approach_avoid_spark_v1","""event"",""trial"",""time""
""fullscreenenter"",""1"",""4631""
","
","
","""event"",""trial"",""time""
""fullscreenenter"",""1"",""4631""
","
","","","","","","1294.300000011921","<p> It's almost time to start the real game. </p><p> Before you start, we're going to ask you a few questions about how the game works. </p>","","0","instructions","","","","","","","","","","",""
"preload","51","412177","0.0-8.0-5.0","6409","2","11","Female","approach_avoid_spark_v1","""event"",""trial"",""time""
""fullscreenenter"",""1"",""4631""
","
","
","""event"",""trial"",""time""
""fullscreenenter"",""1"",""4631""
","
","true","false","[]","[]","[]","","","","","","","","","","","","","","","",""
"comp-q","52","420097","0.0-8.0-6.0-0.0","6409","2","11","Female","approach_avoid_spark_v1","""event"",""trial"",""time""
""fullscreenenter"",""1"",""4631""
","
","
","""event"",""trial"",""time""
""fullscreenenter"",""1"",""4631""
","
","","","","","","2917.900000035763","<p> <b> True or False? </b> </p><p> If you see a number in GREY, that means you earned that many points. </p>","","1","comp_question","","","","","","","","","true","",""
"comp-q","53","430575","0.0-8.0-6.0-1.0","6409","2","11","Female","approach_avoid_spark_v1","""event"",""trial"",""time""
""fullscreenenter"",""1"",""4631""
","
","
","""event"",""trial"",""time""
""fullscreenenter"",""1"",""4631""
","
","","","","","","2097.2999999523163","<p><b> That's right! </b> If you see a grey number, it means you earned ZERO points. <br> The grey numbers show the points you WOULD HAVE earned if you had made the other choice. </p>","","0","comp_answer","","","","","","","","","","",""
"comp-q","54","436128","0.0-8.0-7.0-0.0","6409","2","11","Female","approach_avoid_spark_v1","""event"",""trial"",""time""
""fullscreenenter"",""1"",""4631""
","
","
","""event"",""trial"",""time""
""fullscreenenter"",""1"",""4631""
","
","","","","","","858.0999999642372","<p> <b> True or False? </b> </p><p> You will have as much time as you want to make each choice. </p>","","1","comp_question","","","","","","","","","true","",""
"comp-q","55","441412","0.0-8.0-7.0-1.0","6409","2","11","Female","approach_avoid_spark_v1","""event"",""trial"",""time""
""fullscreenenter"",""1"",""4631""
","
","
","""event"",""trial"",""time""
""fullscreenenter"",""1"",""4631""
","
","","","","","","1242.1000000238419","<p> <b> That's right! </b> You will only have 3 seconds to make each choice. </p>","","0","comp_answer","","","","","","","","","","",""
"comp-q","56","446705","0.0-8.0-8.0-0.0","6409","2","11","Female","approach_avoid_spark_v1","""event"",""trial"",""time""
""fullscreenenter"",""1"",""4631""
","
","
","""event"",""trial"",""time""
""fullscreenenter"",""1"",""4631""
","
","","","","","","635.1999999880791","<p> <b> True or False? </b> </p><p> You should use the '1' and '0' keys to make your choices. </p>","","0","comp_question","","","","","","","","","true","",""
"comp-q","57","453276","0.0-8.0-8.0-1.0","6409","2","11","Female","approach_avoid_spark_v1","""event"",""trial"",""time""
""fullscreenenter"",""1"",""4631""
","
","
","""event"",""trial"",""time""
""fullscreenenter"",""1"",""4631""
","
","","","","","","1947.5","<p> <b> That's right! </b> You should use the '1' and '0' keys to make each choice. </p>","","0","comp_answer","","","","","","","","","","",""
"learning-instructions","58","462043","0.0-8.0-9.0-0.0","6409","2","11","Female","approach_avoid_spark_v1","""event"",""trial"",""time""
""fullscreenenter"",""1"",""4631""
","
","
","""event"",""trial"",""time""
""fullscreenenter"",""1"",""4631""
","
","","","","","","2483.800000011921","<p> It's now time to start the real game. </p>Do your best, because the points you earn in the next rounds will influence your bonus payment. </p>","","0","instructions","","","","","","","","","","",""
"preload","59","462180","0.0-9.0-0.0","6409","2","11","Female","approach_avoid_spark_v1","""event"",""trial"",""time""
""fullscreenenter"",""1"",""4631""
","
","
","""event"",""trial"",""time""
""fullscreenenter"",""1"",""4631""
","
","true","false","[]","[]","[]","","","","","","","","","","","","","","","",""
"learning-instructions","60","467983","0.0-9.0-1.0-0.0","6409","2","11","Female","approach_avoid_spark_v1","""event"",""trial"",""time""
""fullscreenenter"",""1"",""4631""
","
","
","""event"",""trial"",""time""
""fullscreenenter"",""1"",""4631""
","
","","","","","","1294.7999999523163","<p> Your goal in this round is to decorate your friend's new house with furniture. </p></div>","","0","instructions","","","","","","","","","","",""
"learning-instructions","61","478344","0.0-9.0-1.0-0.1","6409","2","11","Female","approach_avoid_spark_v1","""event"",""trial"",""time""
""fullscreenenter"",""1"",""4631""
","
","
","""event"",""trial"",""time""
""fullscreenenter"",""1"",""4631""
","
","","","","","","705.2000000476837","<p> Your friend likes some pieces of furniture but not others.  </p><p> On each turn, you will see a piece of furniture.   </p><p> You need to decide whether to put it in your friend's house or not.  </p>","","0","instructions","","","","","","","","","","",""
"learning-instructions","62","486625","0.0-9.0-1.0-0.2","6409","2","11","Female","approach_avoid_spark_v1","""event"",""trial"",""time""
""fullscreenenter"",""1"",""4631""
""blur"",""63"",""492351""
""focus"",""63"",""496170""
","""event"",""trial"",""time""
""blur"",""63"",""492351""
","""event"",""trial"",""time""
""focus"",""63"",""496170""
","""event"",""trial"",""time""
""fullscreenenter"",""1"",""4631""
","
","","","","","","2677.2000000476837","<p> You can put the furniture in her house by pressing 1 and deliver it elsewhere by pressing 0. </p><br><div class=""choice-instructions-grid""> <div class=""choice-option""><img src=""images/approach.png"" class=""choice-option-img"" stage=""instructions"" position=""0"" ><div class=""choice-option-text""> Press ""1."" </div></div><div class=""choice-option""><img src=""images/avoid.png"" class=""choice-option-img"" stage=""instructions"" position=""1"" ><div class=""choice-option-text""> Press ""0."" </div></div>","","0","instructions","","","","","","","","","","",""
"learning-instructions","63","496247","0.0-9.0-1.0-0.3","6409","2","11","Female","approach_avoid_spark_v1","""event"",""trial"",""time""
""fullscreenenter"",""1"",""4631""
""blur"",""63"",""492351""
""focus"",""63"",""496170""
","""event"",""trial"",""time""
""blur"",""63"",""492351""
","""event"",""trial"",""time""
""focus"",""63"",""496170""
","""event"",""trial"",""time""
""fullscreenenter"",""1"",""4631""
","
","","","","","","968.3000000119209","<p> If you decorate your friend's house with furniture she likes, she will be happy! </p><p> But if you give her furniture that she does not like, she will be annoyed. </p>","","0","instructions","","","","","","","","","","",""
"learning-instructions","64","509606","0.0-9.0-1.0-0.4","6409","2","11","Female","approach_avoid_spark_v1","""event"",""trial"",""time""
""fullscreenenter"",""1"",""4631""
""blur"",""63"",""492351""
""focus"",""63"",""496170""
","""event"",""trial"",""time""
""blur"",""63"",""492351""
","""event"",""trial"",""time""
""focus"",""63"",""496170""
","""event"",""trial"",""time""
""fullscreenenter"",""1"",""4631""
","
","","","","","","1337.199999988079","<p> You will earn points based on how you made your friend feel. </p><p> If you made her happy, you will WIN anywhere from 1 - 9 points, </p><p> but if you made her annoyed you will LOSE anywhere from 1 - 9 points. </p>","","0","instructions","","","","","","","","","","",""
"learning-instructions","65","518261","0.0-9.0-1.0-0.5","6409","2","11","Female","approach_avoid_spark_v1","""event"",""trial"",""time""
""fullscreenenter"",""1"",""4631""
""blur"",""63"",""492351""
""focus"",""63"",""496170""
","""event"",""trial"",""time""
""blur"",""63"",""492351""
","""event"",""trial"",""time""
""focus"",""63"",""496170""
","""event"",""trial"",""time""
""fullscreenenter"",""1"",""4631""
","
","","","","","","1191.1000000238419","<p> You will see how many points you won or lost in the center of the screen. </p><p> Here is what you would see if you won 5 points: </p><p style=""color:green;font-size:50px;font-weight:bolder"">5</p>","","0","instructions","","","","","","","","","","",""
"learning-instructions","66","523183","0.0-9.0-1.0-0.6","6409","2","11","Female","approach_avoid_spark_v1","""event"",""trial"",""time""
""fullscreenenter"",""1"",""4631""
""blur"",""63"",""492351""
""focus"",""63"",""496170""
","""event"",""trial"",""time""
""blur"",""63"",""492351""
","""event"",""trial"",""time""
""focus"",""63"",""496170""
","""event"",""trial"",""time""
""fullscreenenter"",""1"",""4631""
","
","","","","","","1561.5999999642372","<p> And here is what you would see if you lost 3 points: </p><p style=""color:red;font-size:50px;font-weight:bolder"">-3</p>","","0","instructions","","","","","","","","","","",""
"learning-instructions","67","543065","0.0-9.0-1.0-0.7","6409","2","11","Female","approach_avoid_spark_v1","""event"",""trial"",""time""
""fullscreenenter"",""1"",""4631""
""blur"",""63"",""492351""
""focus"",""63"",""496170""
","""event"",""trial"",""time""
""blur"",""63"",""492351""
","""event"",""trial"",""time""
""focus"",""63"",""496170""
","""event"",""trial"",""time""
""fullscreenenter"",""1"",""4631""
","
","","","","","","2745.300000011921","<p> Some pieces of furniture will make her feel very happy or very annoyed. </p><p> These pieces of furniture will make you win or lose LOTS of points. </p><p> Other pieces of furniture will only make her feel a little happy or a little annoyed. </p><p> These pieces of furniture will make you win or lose small amounts of points. </p>","","0","instructions","","","","","","","","","","",""
"learning-instructions","68","557325","0.0-9.0-1.0-0.8","6409","2","11","Female","approach_avoid_spark_v1","""event"",""trial"",""time""
""fullscreenenter"",""1"",""4631""
""blur"",""63"",""492351""
""focus"",""63"",""496170""
","""event"",""trial"",""time""
""blur"",""63"",""492351""
","""event"",""trial"",""time""
""focus"",""63"",""496170""
","""event"",""trial"",""time""
""fullscreenenter"",""1"",""4631""
","
","","","","","","1703.800000011921","<p> If you choose to deliver a piece of furniture elsewhere, you will not win or lose any points. </p><p>  However, in the center of the screen, you will see the number of points you WOULD HAVE won or lost if you had given the furniture to your friend. </p>","","0","instructions","","","","","","","","","","",""
"learning-instructions","69","609847","0.0-9.0-1.0-0.9","6409","2","11","Female","approach_avoid_spark_v1","""event"",""trial"",""time""
""fullscreenenter"",""1"",""4631""
""blur"",""63"",""492351""
""focus"",""63"",""496170""
","""event"",""trial"",""time""
""blur"",""63"",""492351""
","""event"",""trial"",""time""
""focus"",""63"",""496170""
","""event"",""trial"",""time""
""fullscreenenter"",""1"",""4631""
","
","","","","","","41237","<p> Here is what you might see if you did not give a piece of furniture to your friend that would have made her happy: </p><p style=""color:grey; font-size:50px; display: inline-block; border-spacing: 15px; border-width:3px; border-style:solid; border-color:red"">  &nbsp; 6 &nbsp; </p><p> Remember, in this case, you would not win or lose ANY points because you did not give her the furniture.  </p>","","0","instructions","","","","","","","","","","",""
"learning-instructions","70","618720","0.0-9.0-1.0-0.10","6409","2","11","Female","approach_avoid_spark_v1","""event"",""trial"",""time""
""fullscreenenter"",""1"",""4631""
""blur"",""63"",""492351""
""focus"",""63"",""496170""
","""event"",""trial"",""time""
""blur"",""63"",""492351""
","""event"",""trial"",""time""
""focus"",""63"",""496170""
","""event"",""trial"",""time""
""fullscreenenter"",""1"",""4631""
","
","","","","","","1172","<p> Try to make the best choice for each piece of furniture because </p><p> at the end of the game, you will earn bonus money based on how many points you earned. </p>","","0","instructions","","","","","","","","","","",""
"learning-instructions","71","630443","0.0-9.0-1.0-0.11","6409","2","11","Female","approach_avoid_spark_v1","""event"",""trial"",""time""
""fullscreenenter"",""1"",""4631""
""blur"",""63"",""492351""
""focus"",""63"",""496170""
","""event"",""trial"",""time""
""blur"",""63"",""492351""
","""event"",""trial"",""time""
""focus"",""63"",""496170""
","""event"",""trial"",""time""
""fullscreenenter"",""1"",""4631""
","
","","","","","","3534.900000035763","<p> You will have 3 seconds to make each choice. Try to respond before time runs out! </p><p> You will lose 5 points each time you do not make a response. </p>","","0","instructions","","","","","","","","","","",""
"html-keyboard-response","72","631076","0.0-9.0-2.0-0.0","6409","2","11","Female","approach_avoid_spark_v1","""event"",""trial"",""time""
""fullscreenenter"",""1"",""4631""
""blur"",""63"",""492351""
""focus"",""63"",""496170""
","""event"",""trial"",""time""
""blur"",""63"",""492351""
","""event"",""trial"",""time""
""focus"",""63"",""496170""
","""event"",""trial"",""time""
""fullscreenenter"",""1"",""4631""
","
","","","","","","null","<div style=""font-size:60px;"">+</div>","null","","fixation","","","","","","","","","","",""
"aa-learning-trial","73","634087","0.0-9.0-2.0-1.0","6409","2","11","Female","approach_avoid_spark_v1","""event"",""trial"",""time""
""fullscreenenter"",""1"",""4631""
""blur"",""63"",""492351""
""focus"",""63"",""496170""
","""event"",""trial"",""time""
""blur"",""63"",""492351""
","""event"",""trial"",""time""
""focus"",""63"",""496170""
","""event"",""trial"",""time""
""fullscreenenter"",""1"",""4631""
","
","","","","","","1331.1000000238419","images/table8.png","","","learning","3","3","1","1","table","furniture","2","0","","bad","[-5]"
"html-keyboard-response","74","634597","0.0-9.0-2.0-0.1","6409","2","11","Female","approach_avoid_spark_v1","""event"",""trial"",""time""
""fullscreenenter"",""1"",""4631""
""blur"",""63"",""492351""
""focus"",""63"",""496170""
","""event"",""trial"",""time""
""blur"",""63"",""492351""
","""event"",""trial"",""time""
""focus"",""63"",""496170""
","""event"",""trial"",""time""
""fullscreenenter"",""1"",""4631""
","
","","","","","","null","<div style=""font-size:60px;"">+</div>","null","","fixation","","","","","","","","","","",""
"aa-learning-trial","75","637617","0.0-9.0-2.0-1.1","6409","2","11","Female","approach_avoid_spark_v1","""event"",""trial"",""time""
""fullscreenenter"",""1"",""4631""
""blur"",""63"",""492351""
""focus"",""63"",""496170""
","""event"",""trial"",""time""
""blur"",""63"",""492351""
","""event"",""trial"",""time""
""focus"",""63"",""496170""
","""event"",""trial"",""time""
""fullscreenenter"",""1"",""4631""
","
","","","","","","1327.5999999642372","images/sofa3.png","","","learning","7","0","0","0","sofa","furniture","2","0","","neutral","0"
"html-keyboard-response","76","638126","0.0-9.0-2.0-0.2","6409","2","11","Female","approach_avoid_spark_v1","""event"",""trial"",""time""
""fullscreenenter"",""1"",""4631""
""blur"",""63"",""492351""
""focus"",""63"",""496170""
","""event"",""trial"",""time""
""blur"",""63"",""492351""
","""event"",""trial"",""time""
""focus"",""63"",""496170""
","""event"",""trial"",""time""
""fullscreenenter"",""1"",""4631""
","
","","","","","","null","<div style=""font-size:60px;"">+</div>","null","","fixation","","","","","","","","","","",""
"aa-learning-trial","77","641138","0.0-9.0-2.0-1.2","6409","2","11","Female","approach_avoid_spark_v1","""event"",""trial"",""time""
""fullscreenenter"",""1"",""4631""
""blur"",""63"",""492351""
""focus"",""63"",""496170""
","""event"",""trial"",""time""
""blur"",""63"",""492351""
","""event"",""trial"",""time""
""focus"",""63"",""496170""
","""event"",""trial"",""time""
""fullscreenenter"",""1"",""4631""
","
","","","","","","943.6999999880791","images/table3.png","","","learning","-5","-5","1","1","table","furniture","2","0","","bad","[-5]"
"html-keyboard-response","78","641640","0.0-9.0-2.0-0.3","6409","2","11","Female","approach_avoid_spark_v1","""event"",""trial"",""time""
""fullscreenenter"",""1"",""4631""
""blur"",""63"",""492351""
""focus"",""63"",""496170""
","""event"",""trial"",""time""
""blur"",""63"",""492351""
","""event"",""trial"",""time""
""focus"",""63"",""496170""
","""event"",""trial"",""time""
""fullscreenenter"",""1"",""4631""
","
","","","","","","null","<div style=""font-size:60px;"">+</div>","null","","fixation","","","","","","","","","","",""
"aa-learning-trial","79","644657","0.0-9.0-2.0-1.3","6409","2","11","Female","approach_avoid_spark_v1","""event"",""trial"",""time""
""fullscreenenter"",""1"",""4631""
""blur"",""63"",""492351""
""focus"",""63"",""496170""
","""event"",""trial"",""time""
""blur"",""63"",""492351""
","""event"",""trial"",""time""
""focus"",""63"",""496170""
","""event"",""trial"",""time""
""fullscreenenter"",""1"",""4631""
","
","","","","","","721","images/table8.png","","","learning","3","3","1","1","table","furniture","2","0","","bad","[-5]"
"html-keyboard-response","80","645166","0.0-9.0-2.0-0.4","6409","2","11","Female","approach_avoid_spark_v1","""event"",""trial"",""time""
""fullscreenenter"",""1"",""4631""
""blur"",""63"",""492351""
""focus"",""63"",""496170""
","""event"",""trial"",""time""
""blur"",""63"",""492351""
","""event"",""trial"",""time""
""focus"",""63"",""496170""
","""event"",""trial"",""time""
""fullscreenenter"",""1"",""4631""
","
","","","","","","null","<div style=""font-size:60px;"">+</div>","null","","fixation","","","","","","","","","","",""
"aa-learning-trial","81","648177","0.0-9.0-2.0-1.4","6409","2","11","Female","approach_avoid_spark_v1","""event"",""trial"",""time""
""fullscreenenter"",""1"",""4631""
""blur"",""63"",""492351""
""focus"",""63"",""496170""
","""event"",""trial"",""time""
""blur"",""63"",""492351""
","""event"",""trial"",""time""
""focus"",""63"",""496170""
","""event"",""trial"",""time""
""fullscreenenter"",""1"",""4631""
","
","","","","","","876.5","images/table7.png","","","learning","-1","-1","1","1","table","furniture","2","0","","bad","[-5]"
"html-keyboard-response","82","648686","0.0-9.0-2.0-0.5","6409","2","11","Female","approach_avoid_spark_v1","""event"",""trial"",""time""
""fullscreenenter"",""1"",""4631""
""blur"",""63"",""492351""
""focus"",""63"",""496170""
","""event"",""trial"",""time""
""blur"",""63"",""492351""
","""event"",""trial"",""time""
""focus"",""63"",""496170""
","""event"",""trial"",""time""
""fullscreenenter"",""1"",""4631""
","
","","","","","","null","<div style=""font-size:60px;"">+</div>","null","","fixation","","","","","","","","","","",""
"aa-learning-trial","83","651689","0.0-9.0-2.0-1.5","6409","2","11","Female","approach_avoid_spark_v1","""event"",""trial"",""time""
""fullscreenenter"",""1"",""4631""
""blur"",""63"",""492351""
""focus"",""63"",""496170""
","""event"",""trial"",""time""
""blur"",""63"",""492351""
","""event"",""trial"",""time""
""focus"",""63"",""496170""
","""event"",""trial"",""time""
""fullscreenenter"",""1"",""4631""
","
","","","","","","770.5","images/sofa3.png","","","learning","7","7","1","1","sofa","furniture","2","0","","neutral","0"
"html-keyboard-response","84","652208","0.0-9.0-2.0-0.6","6409","2","11","Female","approach_avoid_spark_v1","""event"",""trial"",""time""
""fullscreenenter"",""1"",""4631""
""blur"",""63"",""492351""
""focus"",""63"",""496170""
","""event"",""trial"",""time""
""blur"",""63"",""492351""
","""event"",""trial"",""time""
""focus"",""63"",""496170""
","""event"",""trial"",""time""
""fullscreenenter"",""1"",""4631""
","
","","","","","","null","<div style=""font-size:60px;"">+</div>","null","","fixation","","","","","","","","","","",""
"aa-learning-trial","85","655227","0.0-9.0-2.0-1.6","6409","2","11","Female","approach_avoid_spark_v1","""event"",""trial"",""time""
""fullscreenenter"",""1"",""4631""
""blur"",""63"",""492351""
""focus"",""63"",""496170""
","""event"",""trial"",""time""
""blur"",""63"",""492351""
","""event"",""trial"",""time""
""focus"",""63"",""496170""
","""event"",""trial"",""time""
""fullscreenenter"",""1"",""4631""
","
","","","","","","1343.300000011921","images/table3.png","","","learning","-5","0","0","0","table","furniture","2","0","","bad","[-5]"
"html-keyboard-response","86","655747","0.0-9.0-2.0-0.7","6409","2","11","Female","approach_avoid_spark_v1","""event"",""trial"",""time""
""fullscreenenter"",""1"",""4631""
""blur"",""63"",""492351""
""focus"",""63"",""496170""
","""event"",""trial"",""time""
""blur"",""63"",""492351""
","""event"",""trial"",""time""
""focus"",""63"",""496170""
","""event"",""trial"",""time""
""fullscreenenter"",""1"",""4631""
","
","","","","","","null","<div style=""font-size:60px;"">+</div>","null","","fixation","","","","","","","","","","",""
"aa-learning-trial","87","658751","0.0-9.0-2.0-1.7","6409","2","11","Female","approach_avoid_spark_v1","""event"",""trial"",""time""
""fullscreenenter"",""1"",""4631""
""blur"",""63"",""492351""
""focus"",""63"",""496170""
","""event"",""trial"",""time""
""blur"",""63"",""492351""
","""event"",""trial"",""time""
""focus"",""63"",""496170""
","""event"",""trial"",""time""
""fullscreenenter"",""1"",""4631""
","
","","","","","","895.3000000119209","images/sofa8.png","","","learning","-2","-2","1","1","sofa","furniture","2","0","","neutral","0"
"html-keyboard-response","88","659253","0.0-9.0-2.0-0.8","6409","2","11","Female","approach_avoid_spark_v1","""event"",""trial"",""time""
""fullscreenenter"",""1"",""4631""
""blur"",""63"",""492351""
""focus"",""63"",""496170""
","""event"",""trial"",""time""
""blur"",""63"",""492351""
","""event"",""trial"",""time""
""focus"",""63"",""496170""
","""event"",""trial"",""time""
""fullscreenenter"",""1"",""4631""
","
","","","","","","null","<div style=""font-size:60px;"">+</div>","null","","fixation","","","","","","","","","","",""
"aa-learning-trial","89","662259","0.0-9.0-2.0-1.8","6409","2","11","Female","approach_avoid_spark_v1","""event"",""trial"",""time""
""fullscreenenter"",""1"",""4631""
""blur"",""63"",""492351""
""focus"",""63"",""496170""
","""event"",""trial"",""time""
""blur"",""63"",""492351""
","""event"",""trial"",""time""
""focus"",""63"",""496170""
","""event"",""trial"",""time""
""fullscreenenter"",""1"",""4631""
","
","","","","","","845.5","images/bed1.png","","","learning","5","5","1","1","bed","furniture","2","0","","good","[6]"
"html-keyboard-response","90","662761","0.0-9.0-2.0-0.9","6409","2","11","Female","approach_avoid_spark_v1","""event"",""trial"",""time""
""fullscreenenter"",""1"",""4631""
""blur"",""63"",""492351""
""focus"",""63"",""496170""
","""event"",""trial"",""time""
""blur"",""63"",""492351""
","""event"",""trial"",""time""
""focus"",""63"",""496170""
","""event"",""trial"",""time""
""fullscreenenter"",""1"",""4631""
","
","","","","","","null","<div style=""font-size:60px;"">+</div>","null","","fixation","","","","","","","","","","",""
"aa-learning-trial","91","665765","0.0-9.0-2.0-1.9","6409","2","11","Female","approach_avoid_spark_v1","""event"",""trial"",""time""
""fullscreenenter"",""1"",""4631""
""blur"",""63"",""492351""
""focus"",""63"",""496170""
","""event"",""trial"",""time""
""blur"",""63"",""492351""
","""event"",""trial"",""time""
""focus"",""63"",""496170""
","""event"",""trial"",""time""
""fullscreenenter"",""1"",""4631""
","
","","","","","","563.8999999761581","images/bed1.png","","","learning","5","5","1","1","bed","furniture","2","0","","good","[6]"
"html-keyboard-response","92","666267","0.0-9.0-2.0-0.10","6409","2","11","Female","approach_avoid_spark_v1","""event"",""trial"",""time""
""fullscreenenter"",""1"",""4631""
""blur"",""63"",""492351""
""focus"",""63"",""496170""
","""event"",""trial"",""time""
""blur"",""63"",""492351""
","""event"",""trial"",""time""
""focus"",""63"",""496170""
","""event"",""trial"",""time""
""fullscreenenter"",""1"",""4631""
","
","","","","","","null","<div style=""font-size:60px;"">+</div>","null","","fixation","","","","","","","","","","",""
"aa-learning-trial","93","669273","0.0-9.0-2.0-1.10","6409","2","11","Female","approach_avoid_spark_v1","""event"",""trial"",""time""
""fullscreenenter"",""1"",""4631""
""blur"",""63"",""492351""
""focus"",""63"",""496170""
","""event"",""trial"",""time""
""blur"",""63"",""492351""
","""event"",""trial"",""time""
""focus"",""63"",""496170""
","""event"",""trial"",""time""
""fullscreenenter"",""1"",""4631""
","
","","","","","","1445.8999999761581","images/sofa7.png","","","learning","-4","-4","1","1","sofa","furniture","2","0","","neutral","0"
"html-keyboard-response","94","669776","0.0-9.0-2.0-0.11","6409","2","11","Female","approach_avoid_spark_v1","""event"",""trial"",""time""
""fullscreenenter"",""1"",""4631""
""blur"",""63"",""492351""
""focus"",""63"",""496170""
","""event"",""trial"",""time""
""blur"",""63"",""492351""
","""event"",""trial"",""time""
""focus"",""63"",""496170""
","""event"",""trial"",""time""
""fullscreenenter"",""1"",""4631""
","
","","","","","","null","<div style=""font-size:60px;"">+</div>","null","","fixation","","","","","","","","","","",""
"aa-learning-trial","95","672781","0.0-9.0-2.0-1.11","6409","2","11","Female","approach_avoid_spark_v1","""event"",""trial"",""time""
""fullscreenenter"",""1"",""4631""
""blur"",""63"",""492351""
""focus"",""63"",""496170""
","""event"",""trial"",""time""
""blur"",""63"",""492351""
","""event"",""trial"",""time""
""focus"",""63"",""496170""
","""event"",""trial"",""time""
""fullscreenenter"",""1"",""4631""
","
","","","","","","820.1999999880791","images/bed3.png","","","learning","2","2","1","1","bed","furniture","2","0","","good","[6]"
"html-keyboard-response","96","673283","0.0-9.0-2.0-0.12","6409","2","11","Female","approach_avoid_spark_v1","""event"",""trial"",""time""
""fullscreenenter"",""1"",""4631""
""blur"",""63"",""492351""
""focus"",""63"",""496170""
","""event"",""trial"",""time""
""blur"",""63"",""492351""
","""event"",""trial"",""time""
""focus"",""63"",""496170""
","""event"",""trial"",""time""
""fullscreenenter"",""1"",""4631""
","
","","","","","","null","<div style=""font-size:60px;"">+</div>","null","","fixation","","","","","","","","","","",""
"aa-learning-trial","97","676288","0.0-9.0-2.0-1.12","6409","2","11","Female","approach_avoid_spark_v1","""event"",""trial"",""time""
""fullscreenenter"",""1"",""4631""
""blur"",""63"",""492351""
""focus"",""63"",""496170""
","""event"",""trial"",""time""
""blur"",""63"",""492351""
","""event"",""trial"",""time""
""focus"",""63"",""496170""
","""event"",""trial"",""time""
""fullscreenenter"",""1"",""4631""
","
","","","","","","1178.5999999642372","images/bed7.png","","","learning","-7","0","0","0","bed","furniture","2","0","","good","[6]"
"html-keyboard-response","98","676790","0.0-9.0-2.0-0.13","6409","2","11","Female","approach_avoid_spark_v1","""event"",""trial"",""time""
""fullscreenenter"",""1"",""4631""
""blur"",""63"",""492351""
""focus"",""63"",""496170""
","""event"",""trial"",""time""
""blur"",""63"",""492351""
","""event"",""trial"",""time""
""focus"",""63"",""496170""
","""event"",""trial"",""time""
""fullscreenenter"",""1"",""4631""
","
","","","","","","null","<div style=""font-size:60px;"">+</div>","null","","fixation","","","","","","","","","","",""
"aa-learning-trial","99","679793","0.0-9.0-2.0-1.13","6409","2","11","Female","approach_avoid_spark_v1","""event"",""trial"",""time""
""fullscreenenter"",""1"",""4631""
""blur"",""63"",""492351""
""focus"",""63"",""496170""
","""event"",""trial"",""time""
""blur"",""63"",""492351""
","""event"",""trial"",""time""
""focus"",""63"",""496170""
","""event"",""trial"",""time""
""fullscreenenter"",""1"",""4631""
","
","","","","","","1384.6000000238419","images/sofa7.png","","","learning","-4","0","0","0","sofa","furniture","2","0","","neutral","0"
"html-keyboard-response","100","680296","0.0-9.0-2.0-0.14","6409","2","11","Female","approach_avoid_spark_v1","""event"",""trial"",""time""
""fullscreenenter"",""1"",""4631""
""blur"",""63"",""492351""
""focus"",""63"",""496170""
","""event"",""trial"",""time""
""blur"",""63"",""492351""
","""event"",""trial"",""time""
""focus"",""63"",""496170""
","""event"",""trial"",""time""
""fullscreenenter"",""1"",""4631""
","
","","","","","","null","<div style=""font-size:60px;"">+</div>","null","","fixation","","","","","","","","","","",""
"aa-learning-trial","101","683300","0.0-9.0-2.0-1.14","6409","2","11","Female","approach_avoid_spark_v1","""event"",""trial"",""time""
""fullscreenenter"",""1"",""4631""
""blur"",""63"",""492351""
""focus"",""63"",""496170""
","""event"",""trial"",""time""
""blur"",""63"",""492351""
","""event"",""trial"",""time""
""focus"",""63"",""496170""
","""event"",""trial"",""time""
""fullscreenenter"",""1"",""4631""
","
","","","","","","1358.4000000357628","images/bed3.png","","","learning","2","2","1","1","bed","furniture","2","0","","good","[6]"
"html-keyboard-response","102","683802","0.0-9.0-2.0-0.15","6409","2","11","Female","approach_avoid_spark_v1","""event"",""trial"",""time""
""fullscreenenter"",""1"",""4631""
""blur"",""63"",""492351""
""focus"",""63"",""496170""
","""event"",""trial"",""time""
""blur"",""63"",""492351""
","""event"",""trial"",""time""
""focus"",""63"",""496170""
","""event"",""trial"",""time""
""fullscreenenter"",""1"",""4631""
","
","","","","","","null","<div style=""font-size:60px;"">+</div>","null","","fixation","","","","","","","","","","",""
"aa-learning-trial","103","686807","0.0-9.0-2.0-1.15","6409","2","11","Female","approach_avoid_spark_v1","""event"",""trial"",""time""
""fullscreenenter"",""1"",""4631""
""blur"",""63"",""492351""
""focus"",""63"",""496170""
","""event"",""trial"",""time""
""blur"",""63"",""492351""
","""event"",""trial"",""time""
""focus"",""63"",""496170""
","""event"",""trial"",""time""
""fullscreenenter"",""1"",""4631""
","
","","","","","","901","images/table5.png","","","learning","9","0","0","0","table","furniture","2","0","","bad","[-5]"
"html-keyboard-response","104","687309","0.0-9.0-2.0-0.16","6409","2","11","Female","approach_avoid_spark_v1","""event"",""trial"",""time""
""fullscreenenter"",""1"",""4631""
""blur"",""63"",""492351""
""focus"",""63"",""496170""
","""event"",""trial"",""time""
""blur"",""63"",""492351""
","""event"",""trial"",""time""
""focus"",""63"",""496170""
","""event"",""trial"",""time""
""fullscreenenter"",""1"",""4631""
","
","","","","","","null","<div style=""font-size:60px;"">+</div>","null","","fixation","","","","","","","","","","",""
"aa-learning-trial","105","690315","0.0-9.0-2.0-1.16","6409","2","11","Female","approach_avoid_spark_v1","""event"",""trial"",""time""
""fullscreenenter"",""1"",""4631""
""blur"",""63"",""492351""
""focus"",""63"",""496170""
","""event"",""trial"",""time""
""blur"",""63"",""492351""
","""event"",""trial"",""time""
""focus"",""63"",""496170""
","""event"",""trial"",""time""
""fullscreenenter"",""1"",""4631""
","
","","","","","","987.7000000476837","images/table7.png","","","learning","-1","0","0","0","table","furniture","2","0","","bad","[-5]"
"html-keyboard-response","106","690817","0.0-9.0-2.0-0.17","6409","2","11","Female","approach_avoid_spark_v1","""event"",""trial"",""time""
""fullscreenenter"",""1"",""4631""
""blur"",""63"",""492351""
""focus"",""63"",""496170""
","""event"",""trial"",""time""
""blur"",""63"",""492351""
","""event"",""trial"",""time""
""focus"",""63"",""496170""
","""event"",""trial"",""time""
""fullscreenenter"",""1"",""4631""
","
","","","","","","null","<div style=""font-size:60px;"">+</div>","null","","fixation","","","","","","","","","","",""
"aa-learning-trial","107","693821","0.0-9.0-2.0-1.17","6409","2","11","Female","approach_avoid_spark_v1","""event"",""trial"",""time""
""fullscreenenter"",""1"",""4631""
""blur"",""63"",""492351""
""focus"",""63"",""496170""
","""event"",""trial"",""time""
""blur"",""63"",""492351""
","""event"",""trial"",""time""
""focus"",""63"",""496170""
","""event"",""trial"",""time""
""fullscreenenter"",""1"",""4631""
","
","","","","","","1004.3000000119209","images/table3.png","","","learning","-5","0","0","0","table","furniture","2","0","","bad","[-5]"
"html-keyboard-response","108","694323","0.0-9.0-2.0-0.18","6409","2","11","Female","approach_avoid_spark_v1","""event"",""trial"",""time""
""fullscreenenter"",""1"",""4631""
""blur"",""63"",""492351""
""focus"",""63"",""496170""
","""event"",""trial"",""time""
""blur"",""63"",""492351""
","""event"",""trial"",""time""
""focus"",""63"",""496170""
","""event"",""trial"",""time""
""fullscreenenter"",""1"",""4631""
","
","","","","","","null","<div style=""font-size:60px;"">+</div>","null","","fixation","","","","","","","","","","",""
"aa-learning-trial","109","697328","0.0-9.0-2.0-1.18","6409","2","11","Female","approach_avoid_spark_v1","""event"",""trial"",""time""
""fullscreenenter"",""1"",""4631""
""blur"",""63"",""492351""
""focus"",""63"",""496170""
","""event"",""trial"",""time""
""blur"",""63"",""492351""
","""event"",""trial"",""time""
""focus"",""63"",""496170""
","""event"",""trial"",""time""
""fullscreenenter"",""1"",""4631""
","
","","","","","","581.1999999880791","images/sofa7.png","","","learning","-4","-4","1","1","sofa","furniture","2","0","","neutral","0"
"html-keyboard-response","110","697830","0.0-9.0-2.0-0.19","6409","2","11","Female","approach_avoid_spark_v1","""event"",""trial"",""time""
""fullscreenenter"",""1"",""4631""
""blur"",""63"",""492351""
""focus"",""63"",""496170""
","""event"",""trial"",""time""
""blur"",""63"",""492351""
","""event"",""trial"",""time""
""focus"",""63"",""496170""
","""event"",""trial"",""time""
""fullscreenenter"",""1"",""4631""
","
","","","","","","null","<div style=""font-size:60px;"">+</div>","null","","fixation","","","","","","","","","","",""
"aa-learning-trial","111","700835","0.0-9.0-2.0-1.19","6409","2","11","Female","approach_avoid_spark_v1","""event"",""trial"",""time""
""fullscreenenter"",""1"",""4631""
""blur"",""63"",""492351""
""focus"",""63"",""496170""
","""event"",""trial"",""time""
""blur"",""63"",""492351""
","""event"",""trial"",""time""
""focus"",""63"",""496170""
","""event"",""trial"",""time""
""fullscreenenter"",""1"",""4631""
","
","","","","","","1655.300000011921","images/bed4.png","","","learning","-3","-3","1","1","bed","furniture","2","0","","good","[6]"
"html-keyboard-response","112","701337","0.0-9.0-2.0-0.20","6409","2","11","Female","approach_avoid_spark_v1","""event"",""trial"",""time""
""fullscreenenter"",""1"",""4631""
""blur"",""63"",""492351""
""focus"",""63"",""496170""
","""event"",""trial"",""time""
""blur"",""63"",""492351""
","""event"",""trial"",""time""
""focus"",""63"",""496170""
","""event"",""trial"",""time""
""fullscreenenter"",""1"",""4631""
","
","","","","","","null","<div style=""font-size:60px;"">+</div>","null","","fixation","","","","","","","","","","",""
"aa-learning-trial","113","704341","0.0-9.0-2.0-1.20","6409","2","11","Female","approach_avoid_spark_v1","""event"",""trial"",""time""
""fullscreenenter"",""1"",""4631""
""blur"",""63"",""492351""
""focus"",""63"",""496170""
","""event"",""trial"",""time""
""blur"",""63"",""492351""
","""event"",""trial"",""time""
""focus"",""63"",""496170""
","""event"",""trial"",""time""
""fullscreenenter"",""1"",""4631""
","
","","","","","","695.5","images/table3.png","","","learning","-5","0","0","0","table","furniture","2","0","","bad","[-5]"
"html-keyboard-response","114","704843","0.0-9.0-2.0-0.21","6409","2","11","Female","approach_avoid_spark_v1","""event"",""trial"",""time""
""fullscreenenter"",""1"",""4631""
""blur"",""63"",""492351""
""focus"",""63"",""496170""
","""event"",""trial"",""time""
""blur"",""63"",""492351""
","""event"",""trial"",""time""
""focus"",""63"",""496170""
","""event"",""trial"",""time""
""fullscreenenter"",""1"",""4631""
","
","","","","","","null","<div style=""font-size:60px;"">+</div>","null","","fixation","","","","","","","","","","",""
"aa-learning-trial","115","707847","0.0-9.0-2.0-1.21","6409","2","11","Female","approach_avoid_spark_v1","""event"",""trial"",""time""
""fullscreenenter"",""1"",""4631""
""blur"",""63"",""492351""
""focus"",""63"",""496170""
","""event"",""trial"",""time""
""blur"",""63"",""492351""
","""event"",""trial"",""time""
""focus"",""63"",""496170""
","""event"",""trial"",""time""
""fullscreenenter"",""1"",""4631""
","
","","","","","","490.80000001192093","images/bed1.png","","","learning","5","5","1","1","bed","furniture","2","0","","good","[6]"
"html-keyboard-response","116","708348","0.0-9.0-2.0-0.22","6409","2","11","Female","approach_avoid_spark_v1","""event"",""trial"",""time""
""fullscreenenter"",""1"",""4631""
""blur"",""63"",""492351""
""focus"",""63"",""496170""
","""event"",""trial"",""time""
""blur"",""63"",""492351""
","""event"",""trial"",""time""
""focus"",""63"",""496170""
","""event"",""trial"",""time""
""fullscreenenter"",""1"",""4631""
","
","","","","","","null","<div style=""font-size:60px;"">+</div>","null","","fixation","","","","","","","","","","",""
"aa-learning-trial","117","711354","0.0-9.0-2.0-1.22","6409","2","11","Female","approach_avoid_spark_v1","""event"",""trial"",""time""
""fullscreenenter"",""1"",""4631""
""blur"",""63"",""492351""
""focus"",""63"",""496170""
","""event"",""trial"",""time""
""blur"",""63"",""492351""
","""event"",""trial"",""time""
""focus"",""63"",""496170""
","""event"",""trial"",""time""
""fullscreenenter"",""1"",""4631""
","
","","","","","","747.5999999642372","images/bed1.png","","","learning","5","5","1","1","bed","furniture","2","0","","good","[6]"
"html-keyboard-response","118","711855","0.0-9.0-2.0-0.23","6409","2","11","Female","approach_avoid_spark_v1","""event"",""trial"",""time""
""fullscreenenter"",""1"",""4631""
""blur"",""63"",""492351""
""focus"",""63"",""496170""
","""event"",""trial"",""time""
""blur"",""63"",""492351""
","""event"",""trial"",""time""
""focus"",""63"",""496170""
","""event"",""trial"",""time""
""fullscreenenter"",""1"",""4631""
","
","","","","","","null","<div style=""font-size:60px;"">+</div>","null","","fixation","","","","","","","","","","",""
"aa-learning-trial","119","714860","0.0-9.0-2.0-1.23","6409","2","11","Female","approach_avoid_spark_v1","""event"",""trial"",""time""
""fullscreenenter"",""1"",""4631""
""blur"",""63"",""492351""
""focus"",""63"",""496170""
","""event"",""trial"",""time""
""blur"",""63"",""492351""
","""event"",""trial"",""time""
""focus"",""63"",""496170""
","""event"",""trial"",""time""
""fullscreenenter"",""1"",""4631""
","
","","","","","","699.8000000119209","images/bed3.png","","","learning","2","2","1","1","bed","furniture","2","0","","good","[6]"
"html-keyboard-response","120","715362","0.0-9.0-2.0-0.24","6409","2","11","Female","approach_avoid_spark_v1","""event"",""trial"",""time""
""fullscreenenter"",""1"",""4631""
""blur"",""63"",""492351""
""focus"",""63"",""496170""
","""event"",""trial"",""time""
""blur"",""63"",""492351""
","""event"",""trial"",""time""
""focus"",""63"",""496170""
","""event"",""trial"",""time""
""fullscreenenter"",""1"",""4631""
","
","","","","","","null","<div style=""font-size:60px;"">+</div>","null","","fixation","","","","","","","","","","",""
"aa-learning-trial","121","718364","0.0-9.0-2.0-1.24","6409","2","11","Female","approach_avoid_spark_v1","""event"",""trial"",""time""
""fullscreenenter"",""1"",""4631""
""blur"",""63"",""492351""
""focus"",""63"",""496170""
","""event"",""trial"",""time""
""blur"",""63"",""492351""
","""event"",""trial"",""time""
""focus"",""63"",""496170""
","""event"",""trial"",""time""
""fullscreenenter"",""1"",""4631""
","
","","","","","","714.3000000119209","images/bed7.png","","","learning","-7","0","0","0","bed","furniture","2","0","","good","[6]"
"html-keyboard-response","122","718866","0.0-9.0-2.0-0.25","6409","2","11","Female","approach_avoid_spark_v1","""event"",""trial"",""time""
""fullscreenenter"",""1"",""4631""
""blur"",""63"",""492351""
""focus"",""63"",""496170""
","""event"",""trial"",""time""
""blur"",""63"",""492351""
","""event"",""trial"",""time""
""focus"",""63"",""496170""
","""event"",""trial"",""time""
""fullscreenenter"",""1"",""4631""
","
","","","","","","null","<div style=""font-size:60px;"">+</div>","null","","fixation","","","","","","","","","","",""
"aa-learning-trial","123","721870","0.0-9.0-2.0-1.25","6409","2","11","Female","approach_avoid_spark_v1","""event"",""trial"",""time""
""fullscreenenter"",""1"",""4631""
""blur"",""63"",""492351""
""focus"",""63"",""496170""
","""event"",""trial"",""time""
""blur"",""63"",""492351""
","""event"",""trial"",""time""
""focus"",""63"",""496170""
","""event"",""trial"",""time""
""fullscreenenter"",""1"",""4631""
","
","","","","","","1788.1000000238419","images/sofa6.png","","","learning","-6","0","0","0","sofa","furniture","2","0","","neutral","0"
"html-keyboard-response","124","722372","0.0-9.0-2.0-0.26","6409","2","11","Female","approach_avoid_spark_v1","""event"",""trial"",""time""
""fullscreenenter"",""1"",""4631""
""blur"",""63"",""492351""
""focus"",""63"",""496170""
","""event"",""trial"",""time""
""blur"",""63"",""492351""
","""event"",""trial"",""time""
""focus"",""63"",""496170""
","""event"",""trial"",""time""
""fullscreenenter"",""1"",""4631""
","
","","","","","","null","<div style=""font-size:60px;"">+</div>","null","","fixation","","","","","","","","","","",""
"aa-learning-trial","125","725377","0.0-9.0-2.0-1.26","6409","2","11","Female","approach_avoid_spark_v1","""event"",""trial"",""time""
""fullscreenenter"",""1"",""4631""
""blur"",""63"",""492351""
""focus"",""63"",""496170""
","""event"",""trial"",""time""
""blur"",""63"",""492351""
","""event"",""trial"",""time""
""focus"",""63"",""496170""
","""event"",""trial"",""time""
""fullscreenenter"",""1"",""4631""
","
","","","","","","870.6999999880791","images/sofa7.png","","","learning","-4","0","0","0","sofa","furniture","2","0","","neutral","0"
"html-keyboard-response","126","725879","0.0-9.0-2.0-0.27","6409","2","11","Female","approach_avoid_spark_v1","""event"",""trial"",""time""
""fullscreenenter"",""1"",""4631""
""blur"",""63"",""492351""
""focus"",""63"",""496170""
","""event"",""trial"",""time""
""blur"",""63"",""492351""
","""event"",""trial"",""time""
""focus"",""63"",""496170""
","""event"",""trial"",""time""
""fullscreenenter"",""1"",""4631""
","
","","","","","","null","<div style=""font-size:60px;"">+</div>","null","","fixation","","","","","","","","","","",""
"aa-learning-trial","127","728884","0.0-9.0-2.0-1.27","6409","2","11","Female","approach_avoid_spark_v1","""event"",""trial"",""time""
""fullscreenenter"",""1"",""4631""
""blur"",""63"",""492351""
""focus"",""63"",""496170""
","""event"",""trial"",""time""
""blur"",""63"",""492351""
","""event"",""trial"",""time""
""focus"",""63"",""496170""
","""event"",""trial"",""time""
""fullscreenenter"",""1"",""4631""
","
","","","","","","632.5","images/sofa7.png","","","learning","-4","0","0","0","sofa","furniture","2","0","","neutral","0"
"html-keyboard-response","128","729387","0.0-9.0-2.0-0.28","6409","2","11","Female","approach_avoid_spark_v1","""event"",""trial"",""time""
""fullscreenenter"",""1"",""4631""
""blur"",""63"",""492351""
""focus"",""63"",""496170""
","""event"",""trial"",""time""
""blur"",""63"",""492351""
","""event"",""trial"",""time""
""focus"",""63"",""496170""
","""event"",""trial"",""time""
""fullscreenenter"",""1"",""4631""
","
","","","","","","null","<div style=""font-size:60px;"">+</div>","null","","fixation","","","","","","","","","","",""
"aa-learning-trial","129","732394","0.0-9.0-2.0-1.28","6409","2","11","Female","approach_avoid_spark_v1","""event"",""trial"",""time""
""fullscreenenter"",""1"",""4631""
""blur"",""63"",""492351""
""focus"",""63"",""496170""
","""event"",""trial"",""time""
""blur"",""63"",""492351""
","""event"",""trial"",""time""
""focus"",""63"",""496170""
","""event"",""trial"",""time""
""fullscreenenter"",""1"",""4631""
","
","","","","","","1479.300000011921","images/sofa1.png","","","learning","4","4","1","1","sofa","furniture","2","0","","neutral","0"
"html-keyboard-response","130","732896","0.0-9.0-2.0-0.29","6409","2","11","Female","approach_avoid_spark_v1","""event"",""trial"",""time""
""fullscreenenter"",""1"",""4631""
""blur"",""63"",""492351""
""focus"",""63"",""496170""
","""event"",""trial"",""time""
""blur"",""63"",""492351""
","""event"",""trial"",""time""
""focus"",""63"",""496170""
","""event"",""trial"",""time""
""fullscreenenter"",""1"",""4631""
","
","","","","","","null","<div style=""font-size:60px;"">+</div>","null","","fixation","","","","","","","","","","",""
"aa-learning-trial","131","735899","0.0-9.0-2.0-1.29","6409","2","11","Female","approach_avoid_spark_v1","""event"",""trial"",""time""
""fullscreenenter"",""1"",""4631""
""blur"",""63"",""492351""
""focus"",""63"",""496170""
","""event"",""trial"",""time""
""blur"",""63"",""492351""
","""event"",""trial"",""time""
""focus"",""63"",""496170""
","""event"",""trial"",""time""
""fullscreenenter"",""1"",""4631""
","
","","","","","","737.5999999642372","images/bed7.png","","","learning","-7","0","0","0","bed","furniture","2","0","","good","[6]"
"html-keyboard-response","132","736402","0.0-9.0-2.0-0.30","6409","2","11","Female","approach_avoid_spark_v1","""event"",""trial"",""time""
""fullscreenenter"",""1"",""4631""
""blur"",""63"",""492351""
""focus"",""63"",""496170""
","""event"",""trial"",""time""
""blur"",""63"",""492351""
","""event"",""trial"",""time""
""focus"",""63"",""496170""
","""event"",""trial"",""time""
""fullscreenenter"",""1"",""4631""
","
","","","","","","null","<div style=""font-size:60px;"">+</div>","null","","fixation","","","","","","","","","","",""
"aa-learning-trial","133","739407","0.0-9.0-2.0-1.30","6409","2","11","Female","approach_avoid_spark_v1","""event"",""trial"",""time""
""fullscreenenter"",""1"",""4631""
""blur"",""63"",""492351""
""focus"",""63"",""496170""
","""event"",""trial"",""time""
""blur"",""63"",""492351""
","""event"",""trial"",""time""
""focus"",""63"",""496170""
","""event"",""trial"",""time""
""fullscreenenter"",""1"",""4631""
","
","","","","","","414.10000002384186","images/bed3.png","","","learning","2","2","1","1","bed","furniture","2","0","","good","[6]"
"html-keyboard-response","134","739910","0.0-9.0-2.0-0.31","6409","2","11","Female","approach_avoid_spark_v1","""event"",""trial"",""time""
""fullscreenenter"",""1"",""4631""
""blur"",""63"",""492351""
""focus"",""63"",""496170""
","""event"",""trial"",""time""
""blur"",""63"",""492351""
","""event"",""trial"",""time""
""focus"",""63"",""496170""
","""event"",""trial"",""time""
""fullscreenenter"",""1"",""4631""
","
","","","","","","null","<div style=""font-size:60px;"">+</div>","null","","fixation","","","","","","","","","","",""
"aa-learning-trial","135","742915","0.0-9.0-2.0-1.31","6409","2","11","Female","approach_avoid_spark_v1","""event"",""trial"",""time""
""fullscreenenter"",""1"",""4631""
""blur"",""63"",""492351""
""focus"",""63"",""496170""
","""event"",""trial"",""time""
""blur"",""63"",""492351""
","""event"",""trial"",""time""
""focus"",""63"",""496170""
","""event"",""trial"",""time""
""fullscreenenter"",""1"",""4631""
","
","","","","","","905.6999999880791","images/sofa3.png","","","learning","7","0","0","0","sofa","furniture","2","0","","neutral","0"
"html-keyboard-response","136","743419","0.0-9.0-2.0-0.32","6409","2","11","Female","approach_avoid_spark_v1","""event"",""trial"",""time""
""fullscreenenter"",""1"",""4631""
""blur"",""63"",""492351""
""focus"",""63"",""496170""
","""event"",""trial"",""time""
""blur"",""63"",""492351""
","""event"",""trial"",""time""
""focus"",""63"",""496170""
","""event"",""trial"",""time""
""fullscreenenter"",""1"",""4631""
","
","","","","","","null","<div style=""font-size:60px;"">+</div>","null","","fixation","","","","","","","","","","",""
"aa-learning-trial","137","746425","0.0-9.0-2.0-1.32","6409","2","11","Female","approach_avoid_spark_v1","""event"",""trial"",""time""
""fullscreenenter"",""1"",""4631""
""blur"",""63"",""492351""
""focus"",""63"",""496170""
","""event"",""trial"",""time""
""blur"",""63"",""492351""
","""event"",""trial"",""time""
""focus"",""63"",""496170""
","""event"",""trial"",""time""
""fullscreenenter"",""1"",""4631""
","
","","","","","","725.6000000238419","images/bed1.png","","","learning","5","5","1","1","bed","furniture","2","0","","good","[6]"
"html-keyboard-response","138","746927","0.0-9.0-2.0-0.33","6409","2","11","Female","approach_avoid_spark_v1","""event"",""trial"",""time""
""fullscreenenter"",""1"",""4631""
""blur"",""63"",""492351""
""focus"",""63"",""496170""
","""event"",""trial"",""time""
""blur"",""63"",""492351""
","""event"",""trial"",""time""
""focus"",""63"",""496170""
","""event"",""trial"",""time""
""fullscreenenter"",""1"",""4631""
","
","","","","","","null","<div style=""font-size:60px;"">+</div>","null","","fixation","","","","","","","","","","",""
"aa-learning-trial","139","749932","0.0-9.0-2.0-1.33","6409","2","11","Female","approach_avoid_spark_v1","""event"",""trial"",""time""
""fullscreenenter"",""1"",""4631""
""blur"",""63"",""492351""
""focus"",""63"",""496170""
","""event"",""trial"",""time""
""blur"",""63"",""492351""
","""event"",""trial"",""time""
""focus"",""63"",""496170""
","""event"",""trial"",""time""
""fullscreenenter"",""1"",""4631""
","
","","","","","","737.9000000357628","images/table8.png","","","learning","3","0","0","0","table","furniture","2","0","","bad","[-5]"
"html-keyboard-response","140","750434","0.0-9.0-2.0-0.34","6409","2","11","Female","approach_avoid_spark_v1","""event"",""trial"",""time""
""fullscreenenter"",""1"",""4631""
""blur"",""63"",""492351""
""focus"",""63"",""496170""
","""event"",""trial"",""time""
""blur"",""63"",""492351""
","""event"",""trial"",""time""
""focus"",""63"",""496170""
","""event"",""trial"",""time""
""fullscreenenter"",""1"",""4631""
","
","","","","","","null","<div style=""font-size:60px;"">+</div>","null","","fixation","","","","","","","","","","",""
"aa-learning-trial","141","753439","0.0-9.0-2.0-1.34","6409","2","11","Female","approach_avoid_spark_v1","""event"",""trial"",""time""
""fullscreenenter"",""1"",""4631""
""blur"",""63"",""492351""
""focus"",""63"",""496170""
","""event"",""trial"",""time""
""blur"",""63"",""492351""
","""event"",""trial"",""time""
""focus"",""63"",""496170""
","""event"",""trial"",""time""
""fullscreenenter"",""1"",""4631""
","
","","","","","","789.3999999761581","images/sofa8.png","","","learning","-2","0","0","0","sofa","furniture","2","0","","neutral","0"
"html-keyboard-response","142","753942","0.0-9.0-2.0-0.35","6409","2","11","Female","approach_avoid_spark_v1","""event"",""trial"",""time""
""fullscreenenter"",""1"",""4631""
""blur"",""63"",""492351""
""focus"",""63"",""496170""
","""event"",""trial"",""time""
""blur"",""63"",""492351""
","""event"",""trial"",""time""
""focus"",""63"",""496170""
","""event"",""trial"",""time""
""fullscreenenter"",""1"",""4631""
","
","","","","","","null","<div style=""font-size:60px;"">+</div>","null","","fixation","","","","","","","","","","",""
"aa-learning-trial","143","756947","0.0-9.0-2.0-1.35","6409","2","11","Female","approach_avoid_spark_v1","""event"",""trial"",""time""
""fullscreenenter"",""1"",""4631""
""blur"",""63"",""492351""
""focus"",""63"",""496170""
","""event"",""trial"",""time""
""blur"",""63"",""492351""
","""event"",""trial"",""time""
""focus"",""63"",""496170""
","""event"",""trial"",""time""
""fullscreenenter"",""1"",""4631""
","
","","","","","","904.5","images/table8.png","","","learning","3","0","0","0","table","furniture","2","0","","bad","[-5]"
"html-keyboard-response","144","757450","0.0-9.0-2.0-0.36","6409","2","11","Female","approach_avoid_spark_v1","""event"",""trial"",""time""
""fullscreenenter"",""1"",""4631""
""blur"",""63"",""492351""
""focus"",""63"",""496170""
","""event"",""trial"",""time""
""blur"",""63"",""492351""
","""event"",""trial"",""time""
""focus"",""63"",""496170""
","""event"",""trial"",""time""
""fullscreenenter"",""1"",""4631""
","
","","","","","","null","<div style=""font-size:60px;"">+</div>","null","","fixation","","","","","","","","","","",""
"aa-learning-trial","145","760454","0.0-9.0-2.0-1.36","6409","2","11","Female","approach_avoid_spark_v1","""event"",""trial"",""time""
""fullscreenenter"",""1"",""4631""
""blur"",""63"",""492351""
""focus"",""63"",""496170""
","""event"",""trial"",""time""
""blur"",""63"",""492351""
","""event"",""trial"",""time""
""focus"",""63"",""496170""
","""event"",""trial"",""time""
""fullscreenenter"",""1"",""4631""
","
","","","","","","616.5","images/sofa3.png","","","learning","7","0","0","0","sofa","furniture","2","0","","neutral","0"
"html-keyboard-response","146","760957","0.0-9.0-2.0-0.37","6409","2","11","Female","approach_avoid_spark_v1","""event"",""trial"",""time""
""fullscreenenter"",""1"",""4631""
""blur"",""63"",""492351""
""focus"",""63"",""496170""
","""event"",""trial"",""time""
""blur"",""63"",""492351""
","""event"",""trial"",""time""
""focus"",""63"",""496170""
","""event"",""trial"",""time""
""fullscreenenter"",""1"",""4631""
","
","","","","","","null","<div style=""font-size:60px;"">+</div>","null","","fixation","","","","","","","","","","",""
"aa-learning-trial","147","763960","0.0-9.0-2.0-1.37","6409","2","11","Female","approach_avoid_spark_v1","""event"",""trial"",""time""
""fullscreenenter"",""1"",""4631""
""blur"",""63"",""492351""
""focus"",""63"",""496170""
","""event"",""trial"",""time""
""blur"",""63"",""492351""
","""event"",""trial"",""time""
""focus"",""63"",""496170""
","""event"",""trial"",""time""
""fullscreenenter"",""1"",""4631""
","
","","","","","","664","images/bed3.png","","","learning","2","2","1","1","bed","furniture","2","0","","good","[6]"
"html-keyboard-response","148","764462","0.0-9.0-2.0-0.38","6409","2","11","Female","approach_avoid_spark_v1","""event"",""trial"",""time""
""fullscreenenter"",""1"",""4631""
""blur"",""63"",""492351""
""focus"",""63"",""496170""
","""event"",""trial"",""time""
""blur"",""63"",""492351""
","""event"",""trial"",""time""
""focus"",""63"",""496170""
","""event"",""trial"",""time""
""fullscreenenter"",""1"",""4631""
","
","","","","","","null","<div style=""font-size:60px;"">+</div>","null","","fixation","","","","","","","","","","",""
"aa-learning-trial","149","767467","0.0-9.0-2.0-1.38","6409","2","11","Female","approach_avoid_spark_v1","""event"",""trial"",""time""
""fullscreenenter"",""1"",""4631""
""blur"",""63"",""492351""
""focus"",""63"",""496170""
","""event"",""trial"",""time""
""blur"",""63"",""492351""
","""event"",""trial"",""time""
""focus"",""63"",""496170""
","""event"",""trial"",""time""
""fullscreenenter"",""1"",""4631""
","
","","","","","","747.8999999761581","images/table3.png","","","learning","-5","0","0","0","table","furniture","2","0","","bad","[-5]"
"html-keyboard-response","150","767969","0.0-9.0-2.0-0.39","6409","2","11","Female","approach_avoid_spark_v1","""event"",""trial"",""time""
""fullscreenenter"",""1"",""4631""
""blur"",""63"",""492351""
""focus"",""63"",""496170""
","""event"",""trial"",""time""
""blur"",""63"",""492351""
","""event"",""trial"",""time""
""focus"",""63"",""496170""
","""event"",""trial"",""time""
""fullscreenenter"",""1"",""4631""
","
","","","","","","null","<div style=""font-size:60px;"">+</div>","null","","fixation","","","","","","","","","","",""
"aa-learning-trial","151","770974","0.0-9.0-2.0-1.39","6409","2","11","Female","approach_avoid_spark_v1","""event"",""trial"",""time""
""fullscreenenter"",""1"",""4631""
""blur"",""63"",""492351""
""focus"",""63"",""496170""
","""event"",""trial"",""time""
""blur"",""63"",""492351""
","""event"",""trial"",""time""
""focus"",""63"",""496170""
","""event"",""trial"",""time""
""fullscreenenter"",""1"",""4631""
","
","","","","","","751.9000000357628","images/sofa8.png","","","learning","-2","0","0","0","sofa","furniture","2","0","","neutral","0"
"html-keyboard-response","152","771477","0.0-9.0-2.0-0.40","6409","2","11","Female","approach_avoid_spark_v1","""event"",""trial"",""time""
""fullscreenenter"",""1"",""4631""
""blur"",""63"",""492351""
""focus"",""63"",""496170""
","""event"",""trial"",""time""
""blur"",""63"",""492351""
","""event"",""trial"",""time""
""focus"",""63"",""496170""
","""event"",""trial"",""time""
""fullscreenenter"",""1"",""4631""
","
","","","","","","null","<div style=""font-size:60px;"">+</div>","null","","fixation","","","","","","","","","","",""
"aa-learning-trial","153","774481","0.0-9.0-2.0-1.40","6409","2","11","Female","approach_avoid_spark_v1","""event"",""trial"",""time""
""fullscreenenter"",""1"",""4631""
""blur"",""63"",""492351""
""focus"",""63"",""496170""
","""event"",""trial"",""time""
""blur"",""63"",""492351""
","""event"",""trial"",""time""
""focus"",""63"",""496170""
","""event"",""trial"",""time""
""fullscreenenter"",""1"",""4631""
","
","","","","","","887.2000000476837","images/table8.png","","","learning","3","0","0","0","table","furniture","2","0","","bad","[-5]"
"html-keyboard-response","154","774983","0.0-9.0-2.0-0.41","6409","2","11","Female","approach_avoid_spark_v1","""event"",""trial"",""time""
""fullscreenenter"",""1"",""4631""
""blur"",""63"",""492351""
""focus"",""63"",""496170""
","""event"",""trial"",""time""
""blur"",""63"",""492351""
","""event"",""trial"",""time""
""focus"",""63"",""496170""
","""event"",""trial"",""time""
""fullscreenenter"",""1"",""4631""
","
","","","","","","null","<div style=""font-size:60px;"">+</div>","null","","fixation","","","","","","","","","","",""
"aa-learning-trial","155","777987","0.0-9.0-2.0-1.41","6409","2","11","Female","approach_avoid_spark_v1","""event"",""trial"",""time""
""fullscreenenter"",""1"",""4631""
""blur"",""63"",""492351""
""focus"",""63"",""496170""
","""event"",""trial"",""time""
""blur"",""63"",""492351""
","""event"",""trial"",""time""
""focus"",""63"",""496170""
","""event"",""trial"",""time""
""fullscreenenter"",""1"",""4631""
","
","","","","","","799.8999999761581","images/table4.png","","","learning","-8","-8","1","1","table","furniture","2","0","","bad","[-5]"
"html-keyboard-response","156","778488","0.0-9.0-2.0-0.42","6409","2","11","Female","approach_avoid_spark_v1","""event"",""trial"",""time""
""fullscreenenter"",""1"",""4631""
""blur"",""63"",""492351""
""focus"",""63"",""496170""
","""event"",""trial"",""time""
""blur"",""63"",""492351""
","""event"",""trial"",""time""
""focus"",""63"",""496170""
","""event"",""trial"",""time""
""fullscreenenter"",""1"",""4631""
","
","","","","","","null","<div style=""font-size:60px;"">+</div>","null","","fixation","","","","","","","","","","",""
"aa-learning-trial","157","781493","0.0-9.0-2.0-1.42","6409","2","11","Female","approach_avoid_spark_v1","""event"",""trial"",""time""
""fullscreenenter"",""1"",""4631""
""blur"",""63"",""492351""
""focus"",""63"",""496170""
","""event"",""trial"",""time""
""blur"",""63"",""492351""
","""event"",""trial"",""time""
""focus"",""63"",""496170""
","""event"",""trial"",""time""
""fullscreenenter"",""1"",""4631""
","
","","","","","","887.8999999761581","images/table7.png","","","learning","-1","0","0","0","table","furniture","2","0","","bad","[-5]"
"html-keyboard-response","158","781995","0.0-9.0-2.0-0.43","6409","2","11","Female","approach_avoid_spark_v1","""event"",""trial"",""time""
""fullscreenenter"",""1"",""4631""
""blur"",""63"",""492351""
""focus"",""63"",""496170""
","""event"",""trial"",""time""
""blur"",""63"",""492351""
","""event"",""trial"",""time""
""focus"",""63"",""496170""
","""event"",""trial"",""time""
""fullscreenenter"",""1"",""4631""
","
","","","","","","null","<div style=""font-size:60px;"">+</div>","null","","fixation","","","","","","","","","","",""
"aa-learning-trial","159","785001","0.0-9.0-2.0-1.43","6409","2","11","Female","approach_avoid_spark_v1","""event"",""trial"",""time""
""fullscreenenter"",""1"",""4631""
""blur"",""63"",""492351""
""focus"",""63"",""496170""
","""event"",""trial"",""time""
""blur"",""63"",""492351""
","""event"",""trial"",""time""
""focus"",""63"",""496170""
","""event"",""trial"",""time""
""fullscreenenter"",""1"",""4631""
","
","","","","","","610.6000000238419","images/bed1.png","","","learning","5","5","1","1","bed","furniture","2","0","","good","[6]"
"html-keyboard-response","160","785503","0.0-9.0-2.0-0.44","6409","2","11","Female","approach_avoid_spark_v1","""event"",""trial"",""time""
""fullscreenenter"",""1"",""4631""
""blur"",""63"",""492351""
""focus"",""63"",""496170""
","""event"",""trial"",""time""
""blur"",""63"",""492351""
","""event"",""trial"",""time""
""focus"",""63"",""496170""
","""event"",""trial"",""time""
""fullscreenenter"",""1"",""4631""
","
","","","","","","null","<div style=""font-size:60px;"">+</div>","null","","fixation","","","","","","","","","","",""
"aa-learning-trial","161","788507","0.0-9.0-2.0-1.44","6409","2","11","Female","approach_avoid_spark_v1","""event"",""trial"",""time""
""fullscreenenter"",""1"",""4631""
""blur"",""63"",""492351""
""focus"",""63"",""496170""
","""event"",""trial"",""time""
""blur"",""63"",""492351""
","""event"",""trial"",""time""
""focus"",""63"",""496170""
","""event"",""trial"",""time""
""fullscreenenter"",""1"",""4631""
","
","","","","","","697.8000000119209","images/table3.png","","","learning","-5","0","0","0","table","furniture","2","0","","bad","[-5]"
"html-keyboard-response","162","789009","0.0-9.0-2.0-0.45","6409","2","11","Female","approach_avoid_spark_v1","""event"",""trial"",""time""
""fullscreenenter"",""1"",""4631""
""blur"",""63"",""492351""
""focus"",""63"",""496170""
","""event"",""trial"",""time""
""blur"",""63"",""492351""
","""event"",""trial"",""time""
""focus"",""63"",""496170""
","""event"",""trial"",""time""
""fullscreenenter"",""1"",""4631""
","
","","","","","","null","<div style=""font-size:60px;"">+</div>","null","","fixation","","","","","","","","","","",""
"aa-learning-trial","163","792013","0.0-9.0-2.0-1.45","6409","2","11","Female","approach_avoid_spark_v1","""event"",""trial"",""time""
""fullscreenenter"",""1"",""4631""
""blur"",""63"",""492351""
""focus"",""63"",""496170""
","""event"",""trial"",""time""
""blur"",""63"",""492351""
","""event"",""trial"",""time""
""focus"",""63"",""496170""
","""event"",""trial"",""time""
""fullscreenenter"",""1"",""4631""
","
","","","","","","2311.599999964237","images/sofa3.png","","","learning","7","7","1","1","sofa","furniture","2","0","","neutral","0"
"html-keyboard-response","164","792517","0.0-9.0-2.0-0.46","6409","2","11","Female","approach_avoid_spark_v1","""event"",""trial"",""time""
""fullscreenenter"",""1"",""4631""
""blur"",""63"",""492351""
""focus"",""63"",""496170""
","""event"",""trial"",""time""
""blur"",""63"",""492351""
","""event"",""trial"",""time""
""focus"",""63"",""496170""
","""event"",""trial"",""time""
""fullscreenenter"",""1"",""4631""
","
","","","","","","null","<div style=""font-size:60px;"">+</div>","null","","fixation","","","","","","","","","","",""
"aa-learning-trial","165","795521","0.0-9.0-2.0-1.46","6409","2","11","Female","approach_avoid_spark_v1","""event"",""trial"",""time""
""fullscreenenter"",""1"",""4631""
""blur"",""63"",""492351""
""focus"",""63"",""496170""
","""event"",""trial"",""time""
""blur"",""63"",""492351""
","""event"",""trial"",""time""
""focus"",""63"",""496170""
","""event"",""trial"",""time""
""fullscreenenter"",""1"",""4631""
","
","","","","","","1125","images/bed3.png","","","learning","2","0","0","0","bed","furniture","2","0","","good","[6]"
"html-keyboard-response","166","796023","0.0-9.0-2.0-0.47","6409","2","11","Female","approach_avoid_spark_v1","""event"",""trial"",""time""
""fullscreenenter"",""1"",""4631""
""blur"",""63"",""492351""
""focus"",""63"",""496170""
","""event"",""trial"",""time""
""blur"",""63"",""492351""
","""event"",""trial"",""time""
""focus"",""63"",""496170""
","""event"",""trial"",""time""
""fullscreenenter"",""1"",""4631""
","
","","","","","","null","<div style=""font-size:60px;"">+</div>","null","","fixation","","","","","","","","","","",""
"aa-learning-trial","167","799028","0.0-9.0-2.0-1.47","6409","2","11","Female","approach_avoid_spark_v1","""event"",""trial"",""time""
""fullscreenenter"",""1"",""4631""
""blur"",""63"",""492351""
""focus"",""63"",""496170""
","""event"",""trial"",""time""
""blur"",""63"",""492351""
","""event"",""trial"",""time""
""focus"",""63"",""496170""
","""event"",""trial"",""time""
""fullscreenenter"",""1"",""4631""
","
","","","","","","1011","images/sofa7.png","","","learning","-4","0","0","0","sofa","furniture","2","0","","neutral","0"
"html-keyboard-response","168","799531","0.0-9.0-2.0-0.48","6409","2","11","Female","approach_avoid_spark_v1","""event"",""trial"",""time""
""fullscreenenter"",""1"",""4631""
""blur"",""63"",""492351""
""focus"",""63"",""496170""
","""event"",""trial"",""time""
""blur"",""63"",""492351""
","""event"",""trial"",""time""
""focus"",""63"",""496170""
","""event"",""trial"",""time""
""fullscreenenter"",""1"",""4631""
","
","","","","","","null","<div style=""font-size:60px;"">+</div>","null","","fixation","","","","","","","","","","",""
"aa-learning-trial","169","802537","0.0-9.0-2.0-1.48","6409","2","11","Female","approach_avoid_spark_v1","""event"",""trial"",""time""
""fullscreenenter"",""1"",""4631""
""blur"",""63"",""492351""
""focus"",""63"",""496170""
","""event"",""trial"",""time""
""blur"",""63"",""492351""
","""event"",""trial"",""time""
""focus"",""63"",""496170""
","""event"",""trial"",""time""
""fullscreenenter"",""1"",""4631""
","
","","","","","","1427.699999988079","images/table8.png","","","learning","3","0","0","0","table","furniture","2","0","","bad","[-5]"
"html-keyboard-response","170","803040","0.0-9.0-2.0-0.49","6409","2","11","Female","approach_avoid_spark_v1","""event"",""trial"",""time""
""fullscreenenter"",""1"",""4631""
""blur"",""63"",""492351""
""focus"",""63"",""496170""
","""event"",""trial"",""time""
""blur"",""63"",""492351""
","""event"",""trial"",""time""
""focus"",""63"",""496170""
","""event"",""trial"",""time""
""fullscreenenter"",""1"",""4631""
","
","","","","","","null","<div style=""font-size:60px;"">+</div>","null","","fixation","","","","","","","","","","",""
"aa-learning-trial","171","806043","0.0-9.0-2.0-1.49","6409","2","11","Female","approach_avoid_spark_v1","""event"",""trial"",""time""
""fullscreenenter"",""1"",""4631""
""blur"",""63"",""492351""
""focus"",""63"",""496170""
","""event"",""trial"",""time""
""blur"",""63"",""492351""
","""event"",""trial"",""time""
""focus"",""63"",""496170""
","""event"",""trial"",""time""
""fullscreenenter"",""1"",""4631""
","
","","","","","","1206.3999999761581","images/bed6.png","","","learning","6","6","1","1","bed","furniture","2","0","","good","[6]"
"html-keyboard-response","172","806545","0.0-9.0-2.0-0.50","6409","2","11","Female","approach_avoid_spark_v1","""event"",""trial"",""time""
""fullscreenenter"",""1"",""4631""
""blur"",""63"",""492351""
""focus"",""63"",""496170""
","""event"",""trial"",""time""
""blur"",""63"",""492351""
","""event"",""trial"",""time""
""focus"",""63"",""496170""
","""event"",""trial"",""time""
""fullscreenenter"",""1"",""4631""
","
","","","","","","null","<div style=""font-size:60px;"">+</div>","null","","fixation","","","","","","","","","","",""
"aa-learning-trial","173","809554","0.0-9.0-2.0-1.50","6409","2","11","Female","approach_avoid_spark_v1","""event"",""trial"",""time""
""fullscreenenter"",""1"",""4631""
""blur"",""63"",""492351""
""focus"",""63"",""496170""
","""event"",""trial"",""time""
""blur"",""63"",""492351""
","""event"",""trial"",""time""
""focus"",""63"",""496170""
","""event"",""trial"",""time""
""fullscreenenter"",""1"",""4631""
","
","","","","","","835.2000000476837","images/sofa3.png","","","learning","7","7","1","1","sofa","furniture","2","0","","neutral","0"
"html-button-response","174","812661","0.0-9.0-3.0","6409","2","11","Female","approach_avoid_spark_v1","""event"",""trial"",""time""
""fullscreenenter"",""1"",""4631""
""blur"",""63"",""492351""
""focus"",""63"",""496170""
","""event"",""trial"",""time""
""blur"",""63"",""492351""
","""event"",""trial"",""time""
""focus"",""63"",""496170""
","""event"",""trial"",""time""
""fullscreenenter"",""1"",""4631""
","
","","","","","","3104.399999976158","<p> You have completed the round! <p> In this round, you earned 50 points! </p>","0","","break","","","","","","","","","","",""
"html-button-response","175","814131","0.0-10.0","6409","2","11","Female","approach_avoid_spark_v1","""event"",""trial"",""time""
""fullscreenenter"",""1"",""4631""
""blur"",""63"",""492351""
""focus"",""63"",""496170""
","""event"",""trial"",""time""
""blur"",""63"",""492351""
","""event"",""trial"",""time""
""focus"",""63"",""496170""
","""event"",""trial"",""time""
""fullscreenenter"",""1"",""4631""
","
","","","","","","1468.6000000238419","<p> Now it's time to play another round. </p>","0","","transition_screen","","","","","","","","","","",""
"preload","176","814277","0.0-11.0-0.0","6409","2","11","Female","approach_avoid_spark_v1","""event"",""trial"",""time""
""fullscreenenter"",""1"",""4631""
""blur"",""63"",""492351""
""focus"",""63"",""496170""
","""event"",""trial"",""time""
""blur"",""63"",""492351""
","""event"",""trial"",""time""
""focus"",""63"",""496170""
","""event"",""trial"",""time""
""fullscreenenter"",""1"",""4631""
","
","true","false","[]","[]","[]","","","","","","","","","","","","","","","",""
"learning-instructions","177","821735","0.0-11.0-1.0-0.0","6409","2","11","Female","approach_avoid_spark_v1","""event"",""trial"",""time""
""fullscreenenter"",""1"",""4631""
""blur"",""63"",""492351""
""focus"",""63"",""496170""
","""event"",""trial"",""time""
""blur"",""63"",""492351""
","""event"",""trial"",""time""
""focus"",""63"",""496170""
","""event"",""trial"",""time""
""fullscreenenter"",""1"",""4631""
","
","","","","","","3310.800000011921","<p> Your goal in this round is to eat tasty fruit. </p></div>","","0","instructions","","","","","","","","","","",""
"learning-instructions","178","834234","0.0-11.0-1.0-0.1","6409","2","11","Female","approach_avoid_spark_v1","""event"",""trial"",""time""
""fullscreenenter"",""1"",""4631""
""blur"",""63"",""492351""
""focus"",""63"",""496170""
","""event"",""trial"",""time""
""blur"",""63"",""492351""
","""event"",""trial"",""time""
""focus"",""63"",""496170""
","""event"",""trial"",""time""
""fullscreenenter"",""1"",""4631""
","
","","","","","","2900.199999988079","<p> Some of the fruits you will see are tasty. Others are rotten on the inside.  </p><p> On each turn, you will see a fruit.   </p><p> You need to decide whether to eat it or not.  </p>","","0","instructions","","","","","","","","","","",""
"learning-instructions","179","840457","0.0-11.0-1.0-0.2","6409","2","11","Female","approach_avoid_spark_v1","""event"",""trial"",""time""
""fullscreenenter"",""1"",""4631""
""blur"",""63"",""492351""
""focus"",""63"",""496170""
","""event"",""trial"",""time""
""blur"",""63"",""492351""
","""event"",""trial"",""time""
""focus"",""63"",""496170""
","""event"",""trial"",""time""
""fullscreenenter"",""1"",""4631""
","
","","","","","","1433.300000011921","<p> You can eat the fruit by pressing 1 and choose not to eat it by pressing 0. </p><br><div class=""choice-instructions-grid""> <div class=""choice-option""><img src=""images/approach.png"" class=""choice-option-img"" stage=""instructions"" position=""0"" ><div class=""choice-option-text""> Press ""1."" </div></div><div class=""choice-option""><img src=""images/avoid.png"" class=""choice-option-img"" stage=""instructions"" position=""1"" ><div class=""choice-option-text""> Press ""0."" </div></div>","","0","instructions","","","","","","","","","","",""
"learning-instructions","180","849230","0.0-11.0-1.0-0.3","6409","2","11","Female","approach_avoid_spark_v1","""event"",""trial"",""time""
""fullscreenenter"",""1"",""4631""
""blur"",""63"",""492351""
""focus"",""63"",""496170""
","""event"",""trial"",""time""
""blur"",""63"",""492351""
","""event"",""trial"",""time""
""focus"",""63"",""496170""
","""event"",""trial"",""time""
""fullscreenenter"",""1"",""4631""
","
","","","","","","1496.3999999761581","<p> If you eat the fruit and it was tasty, you will win points! </p><p> But if you eat the fruit and it was rotten, you will lose points. </p>","","0","instructions","","","","","","","","","","",""
"learning-instructions","181","862241","0.0-11.0-1.0-0.4","6409","2","11","Female","approach_avoid_spark_v1","""event"",""trial"",""time""
""fullscreenenter"",""1"",""4631""
""blur"",""63"",""492351""
""focus"",""63"",""496170""
","""event"",""trial"",""time""
""blur"",""63"",""492351""
","""event"",""trial"",""time""
""focus"",""63"",""496170""
","""event"",""trial"",""time""
""fullscreenenter"",""1"",""4631""
","
","","","","","","1916.800000011921","<p> You will earn points based on how tasty or rotten the fruit was. </p><p> If it was tasty, you will WIN anywhere from 1 - 9 points, </p><p> but if it was rotten, you will LOSE anywhere from 1 - 9 points. </p>","","0","instructions","","","","","","","","","","",""
"learning-instructions","182","870045","0.0-11.0-1.0-0.5","6409","2","11","Female","approach_avoid_spark_v1","""event"",""trial"",""time""
""fullscreenenter"",""1"",""4631""
""blur"",""63"",""492351""
""focus"",""63"",""496170""
","""event"",""trial"",""time""
""blur"",""63"",""492351""
","""event"",""trial"",""time""
""focus"",""63"",""496170""
","""event"",""trial"",""time""
""fullscreenenter"",""1"",""4631""
","
","","","","","","1161.300000011921","<p> You will see how many points you won or lost in the center of the screen. </p><p> Here is what you would see if you earned 5 points: </p><p style=""color:green;font-size:50px;font-weight:bolder"">5</p>","","0","instructions","","","","","","","","","","",""
"learning-instructions","183","874251","0.0-11.0-1.0-0.6","6409","2","11","Female","approach_avoid_spark_v1","""event"",""trial"",""time""
""fullscreenenter"",""1"",""4631""
""blur"",""63"",""492351""
""focus"",""63"",""496170""
","""event"",""trial"",""time""
""blur"",""63"",""492351""
","""event"",""trial"",""time""
""focus"",""63"",""496170""
","""event"",""trial"",""time""
""fullscreenenter"",""1"",""4631""
","
","","","","","","1355","<p> And here is what you would see if you lost 3 points: </p><p style=""color:red;font-size:50px;font-weight:bolder"">-3</p>","","0","instructions","","","","","","","","","","",""
"learning-instructions","184","891043","0.0-11.0-1.0-0.7","6409","2","11","Female","approach_avoid_spark_v1","""event"",""trial"",""time""
""fullscreenenter"",""1"",""4631""
""blur"",""63"",""492351""
""focus"",""63"",""496170""
","""event"",""trial"",""time""
""blur"",""63"",""492351""
","""event"",""trial"",""time""
""focus"",""63"",""496170""
","""event"",""trial"",""time""
""fullscreenenter"",""1"",""4631""
","
