"trial_type","trial_index","time_elapsed","internal_node_id","subject_id","task_condition","age","gender","task_version","interactions","blur_events","focus_events","fullscreenenter_events","fullscreenexit_events","success","timeout","failed_images","failed_audio","failed_video","rt","stimulus","response","button_pressed","task_part","approach_reward","points","key_press","option_selected","stim_cat","task_block","block_condition","block_number","correct","cat_type","mean_cat_reward"
"pavlovia","0","22","0.0-0.0","3898","2","22","Male","approach_avoid_spark_v1","""event"",""trial"",""time""
""blur"",""1"",""5988""
""focus"",""1"",""7785""
""fullscreenenter"",""1"",""8688""
","""event"",""trial"",""time""
""blur"",""1"",""5988""
","""event"",""trial"",""time""
""focus"",""1"",""7785""
","""event"",""trial"",""time""
""fullscreenenter"",""1"",""8688""
","
","","","","","","","","","","","","","","","","","","","","",""
"fullscreen","1","9686","0.0-1.0","3898","2","22","Male","approach_avoid_spark_v1","""event"",""trial"",""time""
""blur"",""1"",""5988""
""focus"",""1"",""7785""
""fullscreenenter"",""1"",""8688""
","""event"",""trial"",""time""
""blur"",""1"",""5988""
","""event"",""trial"",""time""
""focus"",""1"",""7785""
","""event"",""trial"",""time""
""fullscreenenter"",""1"",""8688""
","
","true","","","","","","","","","","","","","","","","","","","",""
"preload","2","24981","0.0-2.0","3898","2","22","Male","approach_avoid_spark_v1","""event"",""trial"",""time""
""blur"",""1"",""5988""
""focus"",""1"",""7785""
""fullscreenenter"",""1"",""8688""
","""event"",""trial"",""time""
""blur"",""1"",""5988""
","""event"",""trial"",""time""
""focus"",""1"",""7785""
","""event"",""trial"",""time""
""fullscreenenter"",""1"",""8688""
","
","true","false","[]","[]","[]","","","","","","","","","","","","","","","",""
"audio-keyboard-response","3","26911","0.0-3.0","3898","2","22","Male","approach_avoid_spark_v1","""event"",""trial"",""time""
""blur"",""1"",""5988""
""focus"",""1"",""7785""
""fullscreenenter"",""1"",""8688""
","""event"",""trial"",""time""
""blur"",""1"",""5988""
","""event"",""trial"",""time""
""focus"",""1"",""7785""
","""event"",""trial"",""time""
""fullscreenenter"",""1"",""8688""
","
","","","","","","1930.6666666666654","audio/beep_loop.wav"," ","","","","","","","","","","","","",""
"audio-button-response","4","28212","0.0-4.0","3898","2","22","Male","approach_avoid_spark_v1","""event"",""trial"",""time""
""blur"",""1"",""5988""
""focus"",""1"",""7785""
""fullscreenenter"",""1"",""8688""
","""event"",""trial"",""time""
""blur"",""1"",""5988""
","""event"",""trial"",""time""
""focus"",""1"",""7785""
","""event"",""trial"",""time""
""fullscreenenter"",""1"",""8688""
","
","","","","","","1280","audio/shark.wav","4","","","","","","","","","","","","",""
"audio-button-response","5","30444","0.0-5.0","3898","2","22","Male","approach_avoid_spark_v1","""event"",""trial"",""time""
""blur"",""1"",""5988""
""focus"",""1"",""7785""
""fullscreenenter"",""1"",""8688""
","""event"",""trial"",""time""
""blur"",""1"",""5988""
","""event"",""trial"",""time""
""focus"",""1"",""7785""
","""event"",""trial"",""time""
""fullscreenenter"",""1"",""8688""
","
","","","","","","1221","audio/turtle.wav","1","","","","","","","","","","","","",""
"preload","6","34831","0.0-6.0","3898","2","22","Male","approach_avoid_spark_v1","""event"",""trial"",""time""
""blur"",""1"",""5988""
""focus"",""1"",""7785""
""fullscreenenter"",""1"",""8688""
","""event"",""trial"",""time""
""blur"",""1"",""5988""
","""event"",""trial"",""time""
""focus"",""1"",""7785""
","""event"",""trial"",""time""
""fullscreenenter"",""1"",""8688""
","
","true","false","[]","[]","[]","","","","","","","","","","","","","","","",""
"html-keyboard-response","7","39704","0.0-7.0","3898","2","22","Male","approach_avoid_spark_v1","""event"",""trial"",""time""
""blur"",""1"",""5988""
""focus"",""1"",""7785""
""fullscreenenter"",""1"",""8688""
","""event"",""trial"",""time""
""blur"",""1"",""5988""
","""event"",""trial"",""time""
""focus"",""1"",""7785""
","""event"",""trial"",""time""
""fullscreenenter"",""1"",""8688""
","
","","","","","","4871.400000095367","Welcome to the experiment. Press any key to begin and to advance the instructions."," ","","","","","","","","","","","","",""
"learning-instructions","8","47763","0.0-8.0-0.0-0.0","3898","2","22","Male","approach_avoid_spark_v1","""event"",""trial"",""time""
""blur"",""1"",""5988""
""focus"",""1"",""7785""
""fullscreenenter"",""1"",""8688""
","""event"",""trial"",""time""
""blur"",""1"",""5988""
","""event"",""trial"",""time""
""focus"",""1"",""7785""
","""event"",""trial"",""time""
""fullscreenenter"",""1"",""8688""
","
","","","","","","1104","<p> Welcome! Today you are going to play 6 different rounds of a decision-making game. </p><p> Use the mouse to click next to continue. </p>","","0","instructions","","","","","","","","","","",""
"learning-instructions","9","51654","0.0-8.0-0.0-0.1","3898","2","22","Male","approach_avoid_spark_v1","""event"",""trial"",""time""
""blur"",""1"",""5988""
""focus"",""1"",""7785""
""fullscreenenter"",""1"",""8688""
","""event"",""trial"",""time""
""blur"",""1"",""5988""
","""event"",""trial"",""time""
""focus"",""1"",""7785""
","""event"",""trial"",""time""
""fullscreenenter"",""1"",""8688""
","
","","","","","","1166.6000001430511","<p> You will start with a practice round to learn the rules. </p>","","0","instructions","","","","","","","","","","",""
"learning-instructions","10","56091","0.0-8.0-0.0-0.2","3898","2","22","Male","approach_avoid_spark_v1","""event"",""trial"",""time""
""blur"",""1"",""5988""
""focus"",""1"",""7785""
""fullscreenenter"",""1"",""8688""
","""event"",""trial"",""time""
""blur"",""1"",""5988""
","""event"",""trial"",""time""
""focus"",""1"",""7785""
","""event"",""trial"",""time""
""fullscreenenter"",""1"",""8688""
","
","","","","","","990.6999998092651","<p> Your goal in this round is to give out sports equipment to kids. </p></div>","","0","instructions","","","","","","","","","","",""
"learning-instructions","11","64057","0.0-8.0-0.0-0.3","3898","2","22","Male","approach_avoid_spark_v1","""event"",""trial"",""time""
""blur"",""1"",""5988""
""focus"",""1"",""7785""
""fullscreenenter"",""1"",""8688""
","""event"",""trial"",""time""
""blur"",""1"",""5988""
","""event"",""trial"",""time""
""focus"",""1"",""7785""
","""event"",""trial"",""time""
""fullscreenenter"",""1"",""8688""
","
","","","","","","417.7999999523163","<p> The kids only like some of the equipment.  </p><p> On each turn, you will see a piece of sports equipment.   </p><p> You need to decide whether to give it to the kids or not.  </p>","","0","instructions","","","","","","","","","","",""
"learning-instructions","12","69782","0.0-8.0-0.0-0.4","3898","2","22","Male","approach_avoid_spark_v1","""event"",""trial"",""time""
""blur"",""1"",""5988""
""focus"",""1"",""7785""
""fullscreenenter"",""1"",""8688""
","""event"",""trial"",""time""
""blur"",""1"",""5988""
","""event"",""trial"",""time""
""focus"",""1"",""7785""
","""event"",""trial"",""time""
""fullscreenenter"",""1"",""8688""
","
","","","","","","975.1000001430511","<p> You can give them the equipment by pressing 1 and choose not to give it to them by pressing 0. </p><br><div class=""choice-instructions-grid""> <div class=""choice-option""><img src=""images/approach.png"" class=""choice-option-img"" stage=""instructions"" position=""0"" ><div class=""choice-option-text""> Press ""1."" </div></div><div class=""choice-option""><img src=""images/avoid.png"" class=""choice-option-img"" stage=""instructions"" position=""1"" ><div class=""choice-option-text""> Press ""0."" </div></div>","","0","instructions","","","","","","","","","","",""
"learning-instructions","13","78111","0.0-8.0-0.0-0.5","3898","2","22","Male","approach_avoid_spark_v1","""event"",""trial"",""time""
""blur"",""1"",""5988""
""focus"",""1"",""7785""
""fullscreenenter"",""1"",""8688""
","""event"",""trial"",""time""
""blur"",""1"",""5988""
","""event"",""trial"",""time""
""focus"",""1"",""7785""
","""event"",""trial"",""time""
""fullscreenenter"",""1"",""8688""
","
","","","","","","942.4000000953674","<p> If you give them a piece of equipment they like, they will be happy! </p><p> But if you give them a piece of equipment they do not like, they will be sad. </p>","","0","instructions","","","","","","","","","","",""
"learning-instructions","14","88987","0.0-8.0-0.0-0.6","3898","2","22","Male","approach_avoid_spark_v1","""event"",""trial"",""time""
""blur"",""1"",""5988""
""focus"",""1"",""7785""
""fullscreenenter"",""1"",""8688""
","""event"",""trial"",""time""
""blur"",""1"",""5988""
","""event"",""trial"",""time""
""focus"",""1"",""7785""
","""event"",""trial"",""time""
""fullscreenenter"",""1"",""8688""
","
","","","","","","363.7000000476837","<p> You will earn points based on how you make kids feel. </p><p> If you make them happy, you will WIN anywhere from 1 - 9 points, </p><p> but if you make them sad, you will LOSE anywhere from 1 - 9 points. </p>","","0","instructions","","","","","","","","","","",""
"learning-instructions","15","99502","0.0-8.0-0.0-0.7","3898","2","22","Male","approach_avoid_spark_v1","""event"",""trial"",""time""
""blur"",""1"",""5988""
""focus"",""1"",""7785""
""fullscreenenter"",""1"",""8688""
","""event"",""trial"",""time""
""blur"",""1"",""5988""
","""event"",""trial"",""time""
""focus"",""1"",""7785""
","""event"",""trial"",""time""
""fullscreenenter"",""1"",""8688""
","
","","","","","","953.1999998092651","<p> You will see how many points you won or lost in the center of the screen. </p><p> Here is what you would see if you won 6 points: </p><p style=""color:green;font-size:50px;font-weight:bolder"">6</p><p style=""color:green"">The text is GREEN because you WON points.</p>","","0","instructions","","","","","","","","","","",""
"learning-instructions","16","105626","0.0-8.0-0.0-0.8","3898","2","22","Male","approach_avoid_spark_v1","""event"",""trial"",""time""
""blur"",""1"",""5988""
""focus"",""1"",""7785""
""fullscreenenter"",""1"",""8688""
","""event"",""trial"",""time""
""blur"",""1"",""5988""
","""event"",""trial"",""time""
""focus"",""1"",""7785""
","""event"",""trial"",""time""
""fullscreenenter"",""1"",""8688""
","
","","","","","","613.6999998092651","<p> And here is what you would see if you lost 4 points: </p><p style=""color:red;font-size:50px;font-weight:bolder"">-4</p><p style=""color:red"">The text is RED because you LOST points. </p>","","0","instructions","","","","","","","","","","",""
"learning-instructions","17","121682","0.0-8.0-0.0-0.9","3898","2","22","Male","approach_avoid_spark_v1","""event"",""trial"",""time""
""blur"",""1"",""5988""
""focus"",""1"",""7785""
""fullscreenenter"",""1"",""8688""
","""event"",""trial"",""time""
""blur"",""1"",""5988""
","""event"",""trial"",""time""
""focus"",""1"",""7785""
","""event"",""trial"",""time""
""fullscreenenter"",""1"",""8688""
","
","","","","","","1337.5","<p> Some of the equipment will make the kids VERY happy or sad. </p><p> These pieces of equipment will make you win or lose LOTS of points. </p><p> Other pieces of equipment will only make the kids a little happy or sad. </p><p> These pieces of equipment will make you win or lose small amounts of points. </p>","","0","instructions","","","","","","","","","","",""
"learning-instructions","18","132598","0.0-8.0-0.0-0.10","3898","2","22","Male","approach_avoid_spark_v1","""event"",""trial"",""time""
""blur"",""1"",""5988""
""focus"",""1"",""7785""
""fullscreenenter"",""1"",""8688""
","""event"",""trial"",""time""
""blur"",""1"",""5988""
","""event"",""trial"",""time""
""focus"",""1"",""7785""
","""event"",""trial"",""time""
""fullscreenenter"",""1"",""8688""
","
","","","","","","285.5","<p> If you choose not to give them the equipment, you will not win or lose any points. </p><p>  However, in the center of the screen, you will see the number of points you WOULD HAVE won or lost if you had given them the equipment. </p>","","0","instructions","","","","","","","","","","",""
"learning-instructions","19","155529","0.0-8.0-0.0-0.11","3898","2","22","Male","approach_avoid_spark_v1","""event"",""trial"",""time""
""blur"",""1"",""5988""
""focus"",""1"",""7785""
""fullscreenenter"",""1"",""8688""
","""event"",""trial"",""time""
""blur"",""1"",""5988""
","""event"",""trial"",""time""
""focus"",""1"",""7785""
","""event"",""trial"",""time""
""fullscreenenter"",""1"",""8688""
","
","","","","","","1395.2000000476837","<p> Here is what you might see if you did not give the equipment to the kids but it would have made them happy: </p><p style=""color:grey; font-size:50px; display: inline-block; border-spacing: 15px; border-width:3px; border-style:solid; border-color:red"">  &nbsp; 7 &nbsp; </p><p> Remember, in this case, you would not win or lose ANY points because you did not give them the equipment.  </p><p style=""color:grey"">The text is GREY because you earned ZERO points. </p><p style=""color:red"">However, choosing to give the kids the equipment would have made you win points. The box around the text is RED because you chose the worse option. </p>","","0","instructions","","","","","","","","","","",""
"learning-instructions","20","177186","0.0-8.0-0.0-0.12","3898","2","22","Male","approach_avoid_spark_v1","""event"",""trial"",""time""
""blur"",""1"",""5988""
""focus"",""1"",""7785""
""fullscreenenter"",""1"",""8688""
","""event"",""trial"",""time""
""blur"",""1"",""5988""
","""event"",""trial"",""time""
""focus"",""1"",""7785""
","""event"",""trial"",""time""
""fullscreenenter"",""1"",""8688""
","
","","","","","","578.9000000953674","<p> Here is what you might see if you did not give the equipment to the kids but it would have made them sad: </p><p style=""color:grey;font-size:50px; display: inline-block; border-spacing: 15px; border-width:3px; border-style:solid; border-color:green"">  &nbsp; -8 &nbsp; </p><p> Remember, in this case, you would not win or lose ANY points because you did not give them the equipment.  </p><p style=""color:grey"">The text is GREY because you earned ZERO points. </p><p  style=""color:green""> Choosing to give the kids the equipment would have made you lose points. The box around the text is GREEN because you chose the better option.</p>","","0","instructions","","","","","","","","","","",""
"learning-instructions","21","186420","0.0-8.0-0.0-0.13","3898","2","22","Male","approach_avoid_spark_v1","""event"",""trial"",""time""
""blur"",""1"",""5988""
""focus"",""1"",""7785""
""fullscreenenter"",""1"",""8688""
","""event"",""trial"",""time""
""blur"",""1"",""5988""
","""event"",""trial"",""time""
""focus"",""1"",""7785""
","""event"",""trial"",""time""
""fullscreenenter"",""1"",""8688""
","
","","","","","","143.59999990463257","<p> You will have 3 seconds to make each choice. Try to respond before time runs out! </p><p> You will lose 5 points each time you do not make a response. </p>","","0","instructions","","","","","","","","","","",""
"learning-instructions","22","192916","0.0-8.0-0.0-0.14","3898","2","22","Male","approach_avoid_spark_v1","""event"",""trial"",""time""
""blur"",""1"",""5988""
""focus"",""1"",""7785""
""fullscreenenter"",""1"",""8688""
","""event"",""trial"",""time""
""blur"",""1"",""5988""
","""event"",""trial"",""time""
""focus"",""1"",""7785""
","""event"",""trial"",""time""
""fullscreenenter"",""1"",""8688""
","
","","","","","","1087.7999999523163","<p> This is just a practice round, but in the real game, your bonus payment will depend on your total number of points.","","0","instructions","","","","","","","","","","",""
"learning-instructions","23","199060","0.0-8.0-0.0-0.15","3898","2","22","Male","approach_avoid_spark_v1","""event"",""trial"",""time""
""blur"",""1"",""5988""
""focus"",""1"",""7785""
""fullscreenenter"",""1"",""8688""
","""event"",""trial"",""time""
""blur"",""1"",""5988""
","""event"",""trial"",""time""
""focus"",""1"",""7785""
","""event"",""trial"",""time""
""fullscreenenter"",""1"",""8688""
","
","","","","","","378.19999980926514","<p> Remember, you can give them the equipment by pressing 1 and choose not to give it to them by pressing 0. </p><br><div class=""choice-instructions-grid""> <div class=""choice-option""><img src=""images/approach.png"" class=""choice-option-img"" stage=""instructions"" position=""0"" ><div class=""choice-option-text""> Press ""1."" </div></div><div class=""choice-option""><img src=""images/avoid.png"" class=""choice-option-img"" stage=""instructions"" position=""1"" ><div class=""choice-option-text""> Press ""0."" </div></div>","","0","instructions","","","","","","","","","","",""
"html-button-response","24","202153","0.0-8.0-1.0","3898","2","22","Male","approach_avoid_spark_v1","""event"",""trial"",""time""
""blur"",""1"",""5988""
""focus"",""1"",""7785""
""fullscreenenter"",""1"",""8688""
","""event"",""trial"",""time""
""blur"",""1"",""5988""
","""event"",""trial"",""time""
""focus"",""1"",""7785""
","""event"",""trial"",""time""
""fullscreenenter"",""1"",""8688""
","
","","","","","","2985.4000000953674","<p> Ready to practice? </p>","0","","","","","","","","","","","","",""
"html-keyboard-response","25","202761","0.0-8.0-2.0-0.0","3898","2","22","Male","approach_avoid_spark_v1","""event"",""trial"",""time""
""blur"",""1"",""5988""
""focus"",""1"",""7785""
""fullscreenenter"",""1"",""8688""
","""event"",""trial"",""time""
""blur"",""1"",""5988""
","""event"",""trial"",""time""
""focus"",""1"",""7785""
","""event"",""trial"",""time""
""fullscreenenter"",""1"",""8688""
","
","","","","","","null","<div style=""font-size:60px;"">+</div>","null","","fixation","","","","","","","","","","",""
"aa-learning-trial","26","205773","0.0-8.0-2.0-1.0","3898","2","22","Male","approach_avoid_spark_v1","""event"",""trial"",""time""
""blur"",""1"",""5988""
""focus"",""1"",""7785""
""fullscreenenter"",""1"",""8688""
","""event"",""trial"",""time""
""blur"",""1"",""5988""
","""event"",""trial"",""time""
""focus"",""1"",""7785""
","""event"",""trial"",""time""
""fullscreenenter"",""1"",""8688""
","
","","","","","","1037.7000000476837","images/racket1.png","","","learning","-6","-6","1","1","practice","practice","practice","-1","","",""
"html-keyboard-response","27","206283","0.0-8.0-2.0-0.1","3898","2","22","Male","approach_avoid_spark_v1","""event"",""trial"",""time""
""blur"",""1"",""5988""
""focus"",""1"",""7785""
""fullscreenenter"",""1"",""8688""
","""event"",""trial"",""time""
""blur"",""1"",""5988""
","""event"",""trial"",""time""
""focus"",""1"",""7785""
","""event"",""trial"",""time""
""fullscreenenter"",""1"",""8688""
","
","","","","","","null","<div style=""font-size:60px;"">+</div>","null","","fixation","","","","","","","","","","",""
"aa-learning-trial","28","209293","0.0-8.0-2.0-1.1","3898","2","22","Male","approach_avoid_spark_v1","""event"",""trial"",""time""
""blur"",""1"",""5988""
""focus"",""1"",""7785""
""fullscreenenter"",""1"",""8688""
","""event"",""trial"",""time""
""blur"",""1"",""5988""
","""event"",""trial"",""time""
""focus"",""1"",""7785""
","""event"",""trial"",""time""
""fullscreenenter"",""1"",""8688""
","
","","","","","","1072.7000000476837","images/racket3.png","","","learning","-4","-4","1","1","practice","practice","practice","-1","","",""
"html-keyboard-response","29","209805","0.0-8.0-2.0-0.2","3898","2","22","Male","approach_avoid_spark_v1","""event"",""trial"",""time""
""blur"",""1"",""5988""
""focus"",""1"",""7785""
""fullscreenenter"",""1"",""8688""
","""event"",""trial"",""time""
""blur"",""1"",""5988""
","""event"",""trial"",""time""
""focus"",""1"",""7785""
","""event"",""trial"",""time""
""fullscreenenter"",""1"",""8688""
","
","","","","","","null","<div style=""font-size:60px;"">+</div>","null","","fixation","","","","","","","","","","",""
"aa-learning-trial","30","212818","0.0-8.0-2.0-1.2","3898","2","22","Male","approach_avoid_spark_v1","""event"",""trial"",""time""
""blur"",""1"",""5988""
""focus"",""1"",""7785""
""fullscreenenter"",""1"",""8688""
","""event"",""trial"",""time""
""blur"",""1"",""5988""
","""event"",""trial"",""time""
""focus"",""1"",""7785""
","""event"",""trial"",""time""
""fullscreenenter"",""1"",""8688""
","
","","","","","","865.4000000953674","images/ball2.png","","","learning","6","6","1","1","practice","practice","practice","-1","","",""
"html-keyboard-response","31","213325","0.0-8.0-2.0-0.3","3898","2","22","Male","approach_avoid_spark_v1","""event"",""trial"",""time""
""blur"",""1"",""5988""
""focus"",""1"",""7785""
""fullscreenenter"",""1"",""8688""
","""event"",""trial"",""time""
""blur"",""1"",""5988""
","""event"",""trial"",""time""
""focus"",""1"",""7785""
","""event"",""trial"",""time""
""fullscreenenter"",""1"",""8688""
","
","","","","","","null","<div style=""font-size:60px;"">+</div>","null","","fixation","","","","","","","","","","",""
"aa-learning-trial","32","216338","0.0-8.0-2.0-1.3","3898","2","22","Male","approach_avoid_spark_v1","""event"",""trial"",""time""
""blur"",""1"",""5988""
""focus"",""1"",""7785""
""fullscreenenter"",""1"",""8688""
","""event"",""trial"",""time""
""blur"",""1"",""5988""
","""event"",""trial"",""time""
""focus"",""1"",""7785""
","""event"",""trial"",""time""
""fullscreenenter"",""1"",""8688""
","
","","","","","","989.5999999046326","images/racket2.png","","","learning","-4","0","0","0","practice","practice","practice","-1","","",""
"html-keyboard-response","33","216844","0.0-8.0-2.0-0.4","3898","2","22","Male","approach_avoid_spark_v1","""event"",""trial"",""time""
""blur"",""1"",""5988""
""focus"",""1"",""7785""
""fullscreenenter"",""1"",""8688""
","""event"",""trial"",""time""
""blur"",""1"",""5988""
","""event"",""trial"",""time""
""focus"",""1"",""7785""
","""event"",""trial"",""time""
""fullscreenenter"",""1"",""8688""
","
","","","","","","null","<div style=""font-size:60px;"">+</div>","null","","fixation","","","","","","","","","","",""
"aa-learning-trial","34","219858","0.0-8.0-2.0-1.4","3898","2","22","Male","approach_avoid_spark_v1","""event"",""trial"",""time""
""blur"",""1"",""5988""
""focus"",""1"",""7785""
""fullscreenenter"",""1"",""8688""
","""event"",""trial"",""time""
""blur"",""1"",""5988""
","""event"",""trial"",""time""
""focus"",""1"",""7785""
","""event"",""trial"",""time""
""fullscreenenter"",""1"",""8688""
","
","","","","","","1350.4000000953674","images/ball3.png","","","learning","-2","-2","1","1","practice","practice","practice","-1","","",""
"html-keyboard-response","35","220363","0.0-8.0-2.0-0.5","3898","2","22","Male","approach_avoid_spark_v1","""event"",""trial"",""time""
""blur"",""1"",""5988""
""focus"",""1"",""7785""
""fullscreenenter"",""1"",""8688""
","""event"",""trial"",""time""
""blur"",""1"",""5988""
","""event"",""trial"",""time""
""focus"",""1"",""7785""
","""event"",""trial"",""time""
""fullscreenenter"",""1"",""8688""
","
","","","","","","null","<div style=""font-size:60px;"">+</div>","null","","fixation","","","","","","","","","","",""
"aa-learning-trial","36","223373","0.0-8.0-2.0-1.5","3898","2","22","Male","approach_avoid_spark_v1","""event"",""trial"",""time""
""blur"",""1"",""5988""
""focus"",""1"",""7785""
""fullscreenenter"",""1"",""8688""
","""event"",""trial"",""time""
""blur"",""1"",""5988""
","""event"",""trial"",""time""
""focus"",""1"",""7785""
","""event"",""trial"",""time""
""fullscreenenter"",""1"",""8688""
","
","","","","","","1227","images/racket2.png","","","learning","-6","0","0","0","practice","practice","practice","-1","","",""
"html-keyboard-response","37","223884","0.0-8.0-2.0-0.6","3898","2","22","Male","approach_avoid_spark_v1","""event"",""trial"",""time""
""blur"",""1"",""5988""
""focus"",""1"",""7785""
""fullscreenenter"",""1"",""8688""
","""event"",""trial"",""time""
""blur"",""1"",""5988""
","""event"",""trial"",""time""
""focus"",""1"",""7785""
","""event"",""trial"",""time""
""fullscreenenter"",""1"",""8688""
","
","","","","","","null","<div style=""font-size:60px;"">+</div>","null","","fixation","","","","","","","","","","",""
"aa-learning-trial","38","226897","0.0-8.0-2.0-1.6","3898","2","22","Male","approach_avoid_spark_v1","""event"",""trial"",""time""
""blur"",""1"",""5988""
""focus"",""1"",""7785""
""fullscreenenter"",""1"",""8688""
","""event"",""trial"",""time""
""blur"",""1"",""5988""
","""event"",""trial"",""time""
""focus"",""1"",""7785""
","""event"",""trial"",""time""
""fullscreenenter"",""1"",""8688""
","
","","","","","","660.1000001430511","images/racket2.png","","","learning","2","0","0","0","practice","practice","practice","-1","","",""
"html-keyboard-response","39","227404","0.0-8.0-2.0-0.7","3898","2","22","Male","approach_avoid_spark_v1","""event"",""trial"",""time""
""blur"",""1"",""5988""
""focus"",""1"",""7785""
""fullscreenenter"",""1"",""8688""
","""event"",""trial"",""time""
""blur"",""1"",""5988""
","""event"",""trial"",""time""
""focus"",""1"",""7785""
","""event"",""trial"",""time""
""fullscreenenter"",""1"",""8688""
","
","","","","","","null","<div style=""font-size:60px;"">+</div>","null","","fixation","","","","","","","","","","",""
"aa-learning-trial","40","230418","0.0-8.0-2.0-1.7","3898","2","22","Male","approach_avoid_spark_v1","""event"",""trial"",""time""
""blur"",""1"",""5988""
""focus"",""1"",""7785""
""fullscreenenter"",""1"",""8688""
","""event"",""trial"",""time""
""blur"",""1"",""5988""
","""event"",""trial"",""time""
""focus"",""1"",""7785""
","""event"",""trial"",""time""
""fullscreenenter"",""1"",""8688""
","
","","","","","","621.2000000476837","images/racket3.png","","","learning","6","0","0","0","practice","practice","practice","-1","","",""
"html-keyboard-response","41","230928","0.0-8.0-2.0-0.8","3898","2","22","Male","approach_avoid_spark_v1","""event"",""trial"",""time""
""blur"",""1"",""5988""
""focus"",""1"",""7785""
""fullscreenenter"",""1"",""8688""
","""event"",""trial"",""time""
""blur"",""1"",""5988""
","""event"",""trial"",""time""
""focus"",""1"",""7785""
","""event"",""trial"",""time""
""fullscreenenter"",""1"",""8688""
","
","","","","","","null","<div style=""font-size:60px;"">+</div>","null","","fixation","","","","","","","","","","",""
"aa-learning-trial","42","233936","0.0-8.0-2.0-1.8","3898","2","22","Male","approach_avoid_spark_v1","""event"",""trial"",""time""
""blur"",""1"",""5988""
""focus"",""1"",""7785""
""fullscreenenter"",""1"",""8688""
","""event"",""trial"",""time""
""blur"",""1"",""5988""
","""event"",""trial"",""time""
""focus"",""1"",""7785""
","""event"",""trial"",""time""
""fullscreenenter"",""1"",""8688""
","
","","","","","","451.2000000476837","images/racket2.png","","","learning","-7","0","0","0","practice","practice","practice","-1","","",""
"html-keyboard-response","43","234442","0.0-8.0-2.0-0.9","3898","2","22","Male","approach_avoid_spark_v1","""event"",""trial"",""time""
""blur"",""1"",""5988""
""focus"",""1"",""7785""
""fullscreenenter"",""1"",""8688""
","""event"",""trial"",""time""
""blur"",""1"",""5988""
","""event"",""trial"",""time""
""focus"",""1"",""7785""
","""event"",""trial"",""time""
""fullscreenenter"",""1"",""8688""
","
","","","","","","null","<div style=""font-size:60px;"">+</div>","null","","fixation","","","","","","","","","","",""
"aa-learning-trial","44","237450","0.0-8.0-2.0-1.9","3898","2","22","Male","approach_avoid_spark_v1","""event"",""trial"",""time""
""blur"",""1"",""5988""
""focus"",""1"",""7785""
""fullscreenenter"",""1"",""8688""
","""event"",""trial"",""time""
""blur"",""1"",""5988""
","""event"",""trial"",""time""
""focus"",""1"",""7785""
","""event"",""trial"",""time""
""fullscreenenter"",""1"",""8688""
","
","","","","","","669.7999999523163","images/racket3.png","","","learning","3","0","0","0","practice","practice","practice","-1","","",""
"html-keyboard-response","45","237962","0.0-8.0-2.0-0.10","3898","2","22","Male","approach_avoid_spark_v1","""event"",""trial"",""time""
""blur"",""1"",""5988""
""focus"",""1"",""7785""
""fullscreenenter"",""1"",""8688""
","""event"",""trial"",""time""
""blur"",""1"",""5988""
","""event"",""trial"",""time""
""focus"",""1"",""7785""
","""event"",""trial"",""time""
""fullscreenenter"",""1"",""8688""
","
","","","","","","null","<div style=""font-size:60px;"">+</div>","null","","fixation","","","","","","","","","","",""
"aa-learning-trial","46","240968","0.0-8.0-2.0-1.10","3898","2","22","Male","approach_avoid_spark_v1","""event"",""trial"",""time""
""blur"",""1"",""5988""
""focus"",""1"",""7785""
""fullscreenenter"",""1"",""8688""
","""event"",""trial"",""time""
""blur"",""1"",""5988""
","""event"",""trial"",""time""
""focus"",""1"",""7785""
","""event"",""trial"",""time""
""fullscreenenter"",""1"",""8688""
","
","","","","","","496.40000009536743","images/racket2.png","","","learning","2","0","0","0","practice","practice","practice","-1","","",""
"html-keyboard-response","47","241471","0.0-8.0-2.0-0.11","3898","2","22","Male","approach_avoid_spark_v1","""event"",""trial"",""time""
""blur"",""1"",""5988""
""focus"",""1"",""7785""
""fullscreenenter"",""1"",""8688""
","""event"",""trial"",""time""
""blur"",""1"",""5988""
","""event"",""trial"",""time""
""focus"",""1"",""7785""
","""event"",""trial"",""time""
""fullscreenenter"",""1"",""8688""
","
","","","","","","null","<div style=""font-size:60px;"">+</div>","null","","fixation","","","","","","","","","","",""
"aa-learning-trial","48","244481","0.0-8.0-2.0-1.11","3898","2","22","Male","approach_avoid_spark_v1","""event"",""trial"",""time""
""blur"",""1"",""5988""
""focus"",""1"",""7785""
""fullscreenenter"",""1"",""8688""
","""event"",""trial"",""time""
""blur"",""1"",""5988""
","""event"",""trial"",""time""
""focus"",""1"",""7785""
","""event"",""trial"",""time""
""fullscreenenter"",""1"",""8688""
","
","","","","","","2276.7999999523163","images/ball4.png","","","learning","-4","-4","1","1","practice","practice","practice","-1","","",""
"html-button-response","49","246669","0.0-8.0-3.0","3898","2","22","Male","approach_avoid_spark_v1","""event"",""trial"",""time""
""blur"",""1"",""5988""
""focus"",""1"",""7785""
""fullscreenenter"",""1"",""8688""
","""event"",""trial"",""time""
""blur"",""1"",""5988""
","""event"",""trial"",""time""
""focus"",""1"",""7785""
","""event"",""trial"",""time""
""fullscreenenter"",""1"",""8688""
","
","","","","","","2183.399999856949","<p> You earned -10 points in the practice round! </p>","0","","break","","","","","","","","","","",""
"learning-instructions","50","256147","0.0-8.0-4.0-0.0","3898","2","22","Male","approach_avoid_spark_v1","""event"",""trial"",""time""
""blur"",""1"",""5988""
""focus"",""1"",""7785""
""fullscreenenter"",""1"",""8688""
","""event"",""trial"",""time""
""blur"",""1"",""5988""
","""event"",""trial"",""time""
""focus"",""1"",""7785""
","""event"",""trial"",""time""
""fullscreenenter"",""1"",""8688""
","
","","","","","","3475.7999999523163","<p> It's almost time to start the real game. </p><p> Before you start, we're going to ask you a few questions about how the game works. </p>","","0","instructions","","","","","","","","","","",""
"preload","51","257885","0.0-8.0-5.0","3898","2","22","Male","approach_avoid_spark_v1","""event"",""trial"",""time""
""blur"",""1"",""5988""
""focus"",""1"",""7785""
""fullscreenenter"",""1"",""8688""
","""event"",""trial"",""time""
""blur"",""1"",""5988""
","""event"",""trial"",""time""
""focus"",""1"",""7785""
","""event"",""trial"",""time""
""fullscreenenter"",""1"",""8688""
","
","true","false","[]","[]","[]","","","","","","","","","","","","","","","",""
"comp-q","52","263831","0.0-8.0-6.0-0.0","3898","2","22","Male","approach_avoid_spark_v1","""event"",""trial"",""time""
""blur"",""1"",""5988""
""focus"",""1"",""7785""
""fullscreenenter"",""1"",""8688""
","""event"",""trial"",""time""
""blur"",""1"",""5988""
","""event"",""trial"",""time""
""focus"",""1"",""7785""
","""event"",""trial"",""time""
""fullscreenenter"",""1"",""8688""
","
","","","","","","945.0999999046326","<p> <b> True or False? </b> </p><p> If you see a number in GREY, that means you earned that many points. </p>","","1","comp_question","","","","","","","","","true","",""
"comp-q","53","273052","0.0-8.0-6.0-1.0","3898","2","22","Male","approach_avoid_spark_v1","""event"",""trial"",""time""
""blur"",""1"",""5988""
""focus"",""1"",""7785""
""fullscreenenter"",""1"",""8688""
","""event"",""trial"",""time""
""blur"",""1"",""5988""
","""event"",""trial"",""time""
""focus"",""1"",""7785""
","""event"",""trial"",""time""
""fullscreenenter"",""1"",""8688""
","
","","","","","","862","<p><b> That's right! </b> If you see a grey number, it means you earned ZERO points. <br> The grey numbers show the points you WOULD HAVE earned if you had made the other choice. </p>","","0","comp_answer","","","","","","","","","","",""
"comp-q","54","278671","0.0-8.0-7.0-0.0","3898","2","22","Male","approach_avoid_spark_v1","""event"",""trial"",""time""
""blur"",""1"",""5988""
""focus"",""1"",""7785""
""fullscreenenter"",""1"",""8688""
","""event"",""trial"",""time""
""blur"",""1"",""5988""
","""event"",""trial"",""time""
""focus"",""1"",""7785""
","""event"",""trial"",""time""
""fullscreenenter"",""1"",""8688""
","
","","","","","","923.0999999046326","<p> <b> True or False? </b> </p><p> You will have as much time as you want to make each choice. </p>","","1","comp_question","","","","","","","","","true","",""
"comp-q","55","285351","0.0-8.0-7.0-1.0","3898","2","22","Male","approach_avoid_spark_v1","""event"",""trial"",""time""
""blur"",""1"",""5988""
""focus"",""1"",""7785""
""fullscreenenter"",""1"",""8688""
","""event"",""trial"",""time""
""blur"",""1"",""5988""
","""event"",""trial"",""time""
""focus"",""1"",""7785""
","""event"",""trial"",""time""
""fullscreenenter"",""1"",""8688""
","
","","","","","","2638.7999999523163","<p> <b> That's right! </b> You will only have 3 seconds to make each choice. </p>","","0","comp_answer","","","","","","","","","","",""
"comp-q","56","291095","0.0-8.0-8.0-0.0","3898","2","22","Male","approach_avoid_spark_v1","""event"",""trial"",""time""
""blur"",""1"",""5988""
""focus"",""1"",""7785""
""fullscreenenter"",""1"",""8688""
","""event"",""trial"",""time""
""blur"",""1"",""5988""
","""event"",""trial"",""time""
""focus"",""1"",""7785""
","""event"",""trial"",""time""
""fullscreenenter"",""1"",""8688""
","
","","","","","","1086.2999999523163","<p> <b> True or False? </b> </p><p> You should use the '1' and '0' keys to make your choices. </p>","","0","comp_question","","","","","","","","","true","",""
"comp-q","57","298260","0.0-8.0-8.0-1.0","3898","2","22","Male","approach_avoid_spark_v1","""event"",""trial"",""time""
""blur"",""1"",""5988""
""focus"",""1"",""7785""
""fullscreenenter"",""1"",""8688""
","""event"",""trial"",""time""
""blur"",""1"",""5988""
","""event"",""trial"",""time""
""focus"",""1"",""7785""
","""event"",""trial"",""time""
""fullscreenenter"",""1"",""8688""
","
","","","","","","2551.2000000476837","<p> <b> That's right! </b> You should use the '1' and '0' keys to make each choice. </p>","","0","comp_answer","","","","","","","","","","",""
"learning-instructions","58","305592","0.0-8.0-9.0-0.0","3898","2","22","Male","approach_avoid_spark_v1","""event"",""trial"",""time""
""blur"",""1"",""5988""
""focus"",""1"",""7785""
""fullscreenenter"",""1"",""8688""
","""event"",""trial"",""time""
""blur"",""1"",""5988""
","""event"",""trial"",""time""
""focus"",""1"",""7785""
","""event"",""trial"",""time""
""fullscreenenter"",""1"",""8688""
","
","","","","","","1056.6000001430511","<p> It's now time to start the real game. </p>Do your best, because the points you earn in the next rounds will influence your bonus payment. </p>","","0","instructions","","","","","","","","","","",""
"preload","59","305726","0.0-9.0-0.0","3898","2","22","Male","approach_avoid_spark_v1","""event"",""trial"",""time""
""blur"",""1"",""5988""
""focus"",""1"",""7785""
""fullscreenenter"",""1"",""8688""
","""event"",""trial"",""time""
""blur"",""1"",""5988""
","""event"",""trial"",""time""
""focus"",""1"",""7785""
","""event"",""trial"",""time""
""fullscreenenter"",""1"",""8688""
","
","true","false","[]","[]","[]","","","","","","","","","","","","","","","",""
"learning-instructions","60","315087","0.0-9.0-1.0-0.0","3898","2","22","Male","approach_avoid_spark_v1","""event"",""trial"",""time""
""blur"",""1"",""5988""
""focus"",""1"",""7785""
""fullscreenenter"",""1"",""8688""
","""event"",""trial"",""time""
""blur"",""1"",""5988""
","""event"",""trial"",""time""
""focus"",""1"",""7785""
","""event"",""trial"",""time""
""fullscreenenter"",""1"",""8688""
","
","","","","","","883.5","<p> Your goal in this round is to take your friend for rides in different vehicles. </p></div>","","0","instructions","","","","","","","","","","",""
"learning-instructions","61","329442","0.0-9.0-1.0-0.1","3898","2","22","Male","approach_avoid_spark_v1","""event"",""trial"",""time""
""blur"",""1"",""5988""
""focus"",""1"",""7785""
""fullscreenenter"",""1"",""8688""
","""event"",""trial"",""time""
""blur"",""1"",""5988""
","""event"",""trial"",""time""
""focus"",""1"",""7785""
","""event"",""trial"",""time""
""fullscreenenter"",""1"",""8688""
","
","","","","","","449.2000000476837","<p> Your friend enjoys riding in some vehicles but not in others.  </p><p> On each turn, you will see a vehicle.   </p><p> You need to decide whether to take your friend for a ride or not.  </p>","","0","instructions","","","","","","","","","","",""
"learning-instructions","62","336905","0.0-9.0-1.0-0.2","3898","2","22","Male","approach_avoid_spark_v1","""event"",""trial"",""time""
""blur"",""1"",""5988""
""focus"",""1"",""7785""
""fullscreenenter"",""1"",""8688""
","""event"",""trial"",""time""
""blur"",""1"",""5988""
","""event"",""trial"",""time""
""focus"",""1"",""7785""
","""event"",""trial"",""time""
""fullscreenenter"",""1"",""8688""
","
","","","","","","760.5999999046326","<p> You can take your friend for a ride in the vehicle by pressing 1 and skip the ride by pressing 0. </p><br><div class=""choice-instructions-grid""> <div class=""choice-option""><img src=""images/approach.png"" class=""choice-option-img"" stage=""instructions"" position=""0"" ><div class=""choice-option-text""> Press ""1."" </div></div><div class=""choice-option""><img src=""images/avoid.png"" class=""choice-option-img"" stage=""instructions"" position=""1"" ><div class=""choice-option-text""> Press ""0."" </div></div>","","0","instructions","","","","","","","","","","",""
"learning-instructions","63","346213","0.0-9.0-1.0-0.3","3898","2","22","Male","approach_avoid_spark_v1","""event"",""trial"",""time""
""blur"",""1"",""5988""
""focus"",""1"",""7785""
""fullscreenenter"",""1"",""8688""
","""event"",""trial"",""time""
""blur"",""1"",""5988""
","""event"",""trial"",""time""
""focus"",""1"",""7785""
","""event"",""trial"",""time""
""fullscreenenter"",""1"",""8688""
","
","","","","","","373.2999999523163","<p> If you take them for a ride in a vehicle they like, they will be thrilled! </p><p> But if you take them for a ride in a vehicle they do not like, they will be upset. </p>","","0","instructions","","","","","","","","","","",""
"learning-instructions","64","359491","0.0-9.0-1.0-0.4","3898","2","22","Male","approach_avoid_spark_v1","""event"",""trial"",""time""
""blur"",""1"",""5988""
""focus"",""1"",""7785""
""fullscreenenter"",""1"",""8688""
","""event"",""trial"",""time""
""blur"",""1"",""5988""
","""event"",""trial"",""time""
""focus"",""1"",""7785""
","""event"",""trial"",""time""
""fullscreenenter"",""1"",""8688""
","
","","","","","","1354.2000000476837","<p> You will earn points based on how you made your friend feel. </p><p> If you made him thrilled, you will WIN anywhere from 1 - 9 points, </p><p> but if you made him upset, you will LOSE anywhere from 1 - 9 points. </p>","","0","instructions","","","","","","","","","","",""
"learning-instructions","65","368143","0.0-9.0-1.0-0.5","3898","2","22","Male","approach_avoid_spark_v1","""event"",""trial"",""time""
""blur"",""1"",""5988""
""focus"",""1"",""7785""
""fullscreenenter"",""1"",""8688""
","""event"",""trial"",""time""
""blur"",""1"",""5988""
","""event"",""trial"",""time""
""focus"",""1"",""7785""
","""event"",""trial"",""time""
""fullscreenenter"",""1"",""8688""
","
","","","","","","1062.7000000476837","<p> You will see how many points you won or lost in the center of the screen. </p><p> Here is what you would see if you won 5 points: </p><p style=""color:green;font-size:50px;font-weight:bolder"">5</p>","","0","instructions","","","","","","","","","","",""
"learning-instructions","66","373384","0.0-9.0-1.0-0.6","3898","2","22","Male","approach_avoid_spark_v1","""event"",""trial"",""time""
""blur"",""1"",""5988""
""focus"",""1"",""7785""
""fullscreenenter"",""1"",""8688""
","""event"",""trial"",""time""
""blur"",""1"",""5988""
","""event"",""trial"",""time""
""focus"",""1"",""7785""
","""event"",""trial"",""time""
""fullscreenenter"",""1"",""8688""
","
","","","","","","1530.3999998569489","<p> And here is what you would see if you lost 3 points: </p><p style=""color:red;font-size:50px;font-weight:bolder"">-3</p>","","0","instructions","","","","","","","","","","",""
"learning-instructions","67","389187","0.0-9.0-1.0-0.7","3898","2","22","Male","approach_avoid_spark_v1","""event"",""trial"",""time""
""blur"",""1"",""5988""
""focus"",""1"",""7785""
""fullscreenenter"",""1"",""8688""
","""event"",""trial"",""time""
""blur"",""1"",""5988""
","""event"",""trial"",""time""
""focus"",""1"",""7785""
","""event"",""trial"",""time""
""fullscreenenter"",""1"",""8688""
","
","","","","","","436.09999990463257","<p> Some vehicles will make your friend REALLY thrilled or upset. </p><p> These vehicles will make you win or lose LOTS of points. </p><p> Other vehicles will only make him feel a little thrilled or upset. </p><p> These vehicles will make you win or lose small amounts of points. </p>","","0","instructions","","","","","","","","","","",""
"learning-instructions","68","403007","0.0-9.0-1.0-0.8","3898","2","22","Male","approach_avoid_spark_v1","""event"",""trial"",""time""
""blur"",""1"",""5988""
""focus"",""1"",""7785""
""fullscreenenter"",""1"",""8688""
","""event"",""trial"",""time""
""blur"",""1"",""5988""
","""event"",""trial"",""time""
""focus"",""1"",""7785""
","""event"",""trial"",""time""
""fullscreenenter"",""1"",""8688""
","
","","","","","","1752.3000001907349","<p> If you choose to skip the ride, you will not win or lose any points. </p><p>  However, in the center of the screen, you will see the number of points you WOULD HAVE won or lost if you had taken your friend for a ride. </p>","","0","instructions","","","","","","","","","","",""
"learning-instructions","69","415374","0.0-9.0-1.0-0.9","3898","2","22","Male","approach_avoid_spark_v1","""event"",""trial"",""time""
""blur"",""1"",""5988""
""focus"",""1"",""7785""
""fullscreenenter"",""1"",""8688""
","""event"",""trial"",""time""
""blur"",""1"",""5988""
","""event"",""trial"",""time""
""focus"",""1"",""7785""
","""event"",""trial"",""time""
""fullscreenenter"",""1"",""8688""
","
","","","","","","1197.2999999523163","<p> Here is what you might see if you did not take your friend for a ride but he would have enjoyed it: </p><p style=""color:grey; font-size:50px; display: inline-block; border-spacing: 15px; border-width:3px; border-style:solid; border-color:red"">  &nbsp; 6 &nbsp; </p><p> Remember, in this case, you would not win or lose ANY points because you skipped the ride.  </p>","","0","instructions","","","","","","","","","","",""
"learning-instructions","70","424419","0.0-9.0-1.0-0.10","3898","2","22","Male","approach_avoid_spark_v1","""event"",""trial"",""time""
""blur"",""1"",""5988""
""focus"",""1"",""7785""
""fullscreenenter"",""1"",""8688""
","""event"",""trial"",""time""
""blur"",""1"",""5988""
","""event"",""trial"",""time""
""focus"",""1"",""7785""
","""event"",""trial"",""time""
""fullscreenenter"",""1"",""8688""
","
","","","","","","1309.7000000476837","<p> Try to make the best choice for each vehicle because </p><p> at the end of the game, you will earn bonus money based on how many points you earned. </p>","","0","instructions","","","","","","","","","","",""
"learning-instructions","71","433041","0.0-9.0-1.0-0.11","3898","2","22","Male","approach_avoid_spark_v1","""event"",""trial"",""time""
""blur"",""1"",""5988""
""focus"",""1"",""7785""
""fullscreenenter"",""1"",""8688""
","""event"",""trial"",""time""
""blur"",""1"",""5988""
","""event"",""trial"",""time""
""focus"",""1"",""7785""
","""event"",""trial"",""time""
""fullscreenenter"",""1"",""8688""
","
","","","","","","427.30000019073486","<p> You will have 3 seconds to make each choice. Try to respond before time runs out! </p><p> You will lose 5 points each time you do not make a response. </p>","","0","instructions","","","","","","","","","","",""
"html-keyboard-response","72","433657","0.0-9.0-2.0-0.0","3898","2","22","Male","approach_avoid_spark_v1","""event"",""trial"",""time""
""blur"",""1"",""5988""
""focus"",""1"",""7785""
""fullscreenenter"",""1"",""8688""
","""event"",""trial"",""time""
""blur"",""1"",""5988""
","""event"",""trial"",""time""
""focus"",""1"",""7785""
","""event"",""trial"",""time""
""fullscreenenter"",""1"",""8688""
","
","","","","","","null","<div style=""font-size:60px;"">+</div>","null","","fixation","","","","","","","","","","",""
"aa-learning-trial","73","436665","0.0-9.0-2.0-1.0","3898","2","22","Male","approach_avoid_spark_v1","""event"",""trial"",""time""
""blur"",""1"",""5988""
""focus"",""1"",""7785""
""fullscreenenter"",""1"",""8688""
","""event"",""trial"",""time""
""blur"",""1"",""5988""
","""event"",""trial"",""time""
""focus"",""1"",""7785""
","""event"",""trial"",""time""
""fullscreenenter"",""1"",""8688""
","
","","","","","","1335.2999999523163","images/train6.png","","","learning","2","2","1","1","train","vehicles","2","0","","bad","[-5]"
"html-keyboard-response","74","437177","0.0-9.0-2.0-0.1","3898","2","22","Male","approach_avoid_spark_v1","""event"",""trial"",""time""
""blur"",""1"",""5988""
""focus"",""1"",""7785""
""fullscreenenter"",""1"",""8688""
","""event"",""trial"",""time""
""blur"",""1"",""5988""
","""event"",""trial"",""time""
""focus"",""1"",""7785""
","""event"",""trial"",""time""
""fullscreenenter"",""1"",""8688""
","
","","","","","","null","<div style=""font-size:60px;"">+</div>","null","","fixation","","","","","","","","","","",""
"aa-learning-trial","75","440185","0.0-9.0-2.0-1.1","3898","2","22","Male","approach_avoid_spark_v1","""event"",""trial"",""time""
""blur"",""1"",""5988""
""focus"",""1"",""7785""
""fullscreenenter"",""1"",""8688""
","""event"",""trial"",""time""
""blur"",""1"",""5988""
","""event"",""trial"",""time""
""focus"",""1"",""7785""
","""event"",""trial"",""time""
""fullscreenenter"",""1"",""8688""
","
","","","","","","841.7000000476837","images/boat3.png","","","learning","-4","-4","1","1","boat","vehicles","2","0","","good","[4]"
"html-keyboard-response","76","440697","0.0-9.0-2.0-0.2","3898","2","22","Male","approach_avoid_spark_v1","""event"",""trial"",""time""
""blur"",""1"",""5988""
""focus"",""1"",""7785""
""fullscreenenter"",""1"",""8688""
","""event"",""trial"",""time""
""blur"",""1"",""5988""
","""event"",""trial"",""time""
""focus"",""1"",""7785""
","""event"",""trial"",""time""
""fullscreenenter"",""1"",""8688""
","
","","","","","","null","<div style=""font-size:60px;"">+</div>","null","","fixation","","","","","","","","","","",""
"aa-learning-trial","77","443704","0.0-9.0-2.0-1.2","3898","2","22","Male","approach_avoid_spark_v1","""event"",""trial"",""time""
""blur"",""1"",""5988""
""focus"",""1"",""7785""
""fullscreenenter"",""1"",""8688""
","""event"",""trial"",""time""
""blur"",""1"",""5988""
","""event"",""trial"",""time""
""focus"",""1"",""7785""
","""event"",""trial"",""time""
""fullscreenenter"",""1"",""8688""
","
","","","","","","741.5","images/train5.png","","","learning","9","9","1","1","train","vehicles","2","0","","bad","[-5]"
"html-keyboard-response","78","444216","0.0-9.0-2.0-0.3","3898","2","22","Male","approach_avoid_spark_v1","""event"",""trial"",""time""
""blur"",""1"",""5988""
""focus"",""1"",""7785""
""fullscreenenter"",""1"",""8688""
","""event"",""trial"",""time""
""blur"",""1"",""5988""
","""event"",""trial"",""time""
""focus"",""1"",""7785""
","""event"",""trial"",""time""
""fullscreenenter"",""1"",""8688""
","
","","","","","","null","<div style=""font-size:60px;"">+</div>","null","","fixation","","","","","","","","","","",""
"aa-learning-trial","79","447225","0.0-9.0-2.0-1.3","3898","2","22","Male","approach_avoid_spark_v1","""event"",""trial"",""time""
""blur"",""1"",""5988""
""focus"",""1"",""7785""
""fullscreenenter"",""1"",""8688""
","""event"",""trial"",""time""
""blur"",""1"",""5988""
","""event"",""trial"",""time""
""focus"",""1"",""7785""
","""event"",""trial"",""time""
""fullscreenenter"",""1"",""8688""
","
","","","","","","689.0999999046326","images/plane1.png","","","learning","5","5","1","1","plane","vehicles","2","0","","neutral","0"
"html-keyboard-response","80","447735","0.0-9.0-2.0-0.4","3898","2","22","Male","approach_avoid_spark_v1","""event"",""trial"",""time""
""blur"",""1"",""5988""
""focus"",""1"",""7785""
""fullscreenenter"",""1"",""8688""
","""event"",""trial"",""time""
""blur"",""1"",""5988""
","""event"",""trial"",""time""
""focus"",""1"",""7785""
","""event"",""trial"",""time""
""fullscreenenter"",""1"",""8688""
","
","","","","","","null","<div style=""font-size:60px;"">+</div>","null","","fixation","","","","","","","","","","",""
"aa-learning-trial","81","450743","0.0-9.0-2.0-1.4","3898","2","22","Male","approach_avoid_spark_v1","""event"",""trial"",""time""
""blur"",""1"",""5988""
""focus"",""1"",""7785""
""fullscreenenter"",""1"",""8688""
","""event"",""trial"",""time""
""blur"",""1"",""5988""
","""event"",""trial"",""time""
""focus"",""1"",""7785""
","""event"",""trial"",""time""
""fullscreenenter"",""1"",""8688""
","
","","","","","","657.1999998092651","images/plane6.png","","","learning","-9","-9","1","1","plane","vehicles","2","0","","neutral","0"
"html-keyboard-response","82","451253","0.0-9.0-2.0-0.5","3898","2","22","Male","approach_avoid_spark_v1","""event"",""trial"",""time""
""blur"",""1"",""5988""
""focus"",""1"",""7785""
""fullscreenenter"",""1"",""8688""
","""event"",""trial"",""time""
""blur"",""1"",""5988""
","""event"",""trial"",""time""
""focus"",""1"",""7785""
","""event"",""trial"",""time""
""fullscreenenter"",""1"",""8688""
","
","","","","","","null","<div style=""font-size:60px;"">+</div>","null","","fixation","","","","","","","","","","",""
"aa-learning-trial","83","454262","0.0-9.0-2.0-1.5","3898","2","22","Male","approach_avoid_spark_v1","""event"",""trial"",""time""
""blur"",""1"",""5988""
""focus"",""1"",""7785""
""fullscreenenter"",""1"",""8688""
","""event"",""trial"",""time""
""blur"",""1"",""5988""
","""event"",""trial"",""time""
""focus"",""1"",""7785""
","""event"",""trial"",""time""
""fullscreenenter"",""1"",""8688""
","
","","","","","","670.0999999046326","images/plane1.png","","","learning","5","5","1","1","plane","vehicles","2","0","","neutral","0"
"html-keyboard-response","84","454765","0.0-9.0-2.0-0.6","3898","2","22","Male","approach_avoid_spark_v1","""event"",""trial"",""time""
""blur"",""1"",""5988""
""focus"",""1"",""7785""
""fullscreenenter"",""1"",""8688""
","""event"",""trial"",""time""
""blur"",""1"",""5988""
","""event"",""trial"",""time""
""focus"",""1"",""7785""
","""event"",""trial"",""time""
""fullscreenenter"",""1"",""8688""
","
","","","","","","null","<div style=""font-size:60px;"">+</div>","null","","fixation","","","","","","","","","","",""
"aa-learning-trial","85","457773","0.0-9.0-2.0-1.6","3898","2","22","Male","approach_avoid_spark_v1","""event"",""trial"",""time""
""blur"",""1"",""5988""
""focus"",""1"",""7785""
""fullscreenenter"",""1"",""8688""
","""event"",""trial"",""time""
""blur"",""1"",""5988""
","""event"",""trial"",""time""
""focus"",""1"",""7785""
","""event"",""trial"",""time""
""fullscreenenter"",""1"",""8688""
","
","","","","","","1486.7999999523163","images/boat3.png","","","learning","-4","0","0","0","boat","vehicles","2","0","","good","[4]"
"html-keyboard-response","86","458277","0.0-9.0-2.0-0.7","3898","2","22","Male","approach_avoid_spark_v1","""event"",""trial"",""time""
""blur"",""1"",""5988""
""focus"",""1"",""7785""
""fullscreenenter"",""1"",""8688""
","""event"",""trial"",""time""
""blur"",""1"",""5988""
","""event"",""trial"",""time""
""focus"",""1"",""7785""
","""event"",""trial"",""time""
""fullscreenenter"",""1"",""8688""
","
","","","","","","null","<div style=""font-size:60px;"">+</div>","null","","fixation","","","","","","","","","","",""
"aa-learning-trial","87","461288","0.0-9.0-2.0-1.7","3898","2","22","Male","approach_avoid_spark_v1","""event"",""trial"",""time""
""blur"",""1"",""5988""
""focus"",""1"",""7785""
""fullscreenenter"",""1"",""8688""
","""event"",""trial"",""time""
""blur"",""1"",""5988""
","""event"",""trial"",""time""
""focus"",""1"",""7785""
","""event"",""trial"",""time""
""fullscreenenter"",""1"",""8688""
","
","","","","","","895.6999998092651","images/plane2.png","","","learning","-3","-3","1","1","plane","vehicles","2","0","","neutral","0"
"html-keyboard-response","88","461799","0.0-9.0-2.0-0.8","3898","2","22","Male","approach_avoid_spark_v1","""event"",""trial"",""time""
""blur"",""1"",""5988""
""focus"",""1"",""7785""
""fullscreenenter"",""1"",""8688""
","""event"",""trial"",""time""
""blur"",""1"",""5988""
","""event"",""trial"",""time""
""focus"",""1"",""7785""
","""event"",""trial"",""time""
""fullscreenenter"",""1"",""8688""
","
","","","","","","null","<div style=""font-size:60px;"">+</div>","null","","fixation","","","","","","","","","","",""
"aa-learning-trial","89","464808","0.0-9.0-2.0-1.8","3898","2","22","Male","approach_avoid_spark_v1","""event"",""trial"",""time""
""blur"",""1"",""5988""
""focus"",""1"",""7785""
""fullscreenenter"",""1"",""8688""
","""event"",""trial"",""time""
""blur"",""1"",""5988""
","""event"",""trial"",""time""
""focus"",""1"",""7785""
","""event"",""trial"",""time""
""fullscreenenter"",""1"",""8688""
","
","","","","","","967.2000000476837","images/plane2.png","","","learning","-3","0","0","0","plane","vehicles","2","0","","neutral","0"
"html-keyboard-response","90","465314","0.0-9.0-2.0-0.9","3898","2","22","Male","approach_avoid_spark_v1","""event"",""trial"",""time""
""blur"",""1"",""5988""
""focus"",""1"",""7785""
""fullscreenenter"",""1"",""8688""
","""event"",""trial"",""time""
""blur"",""1"",""5988""
","""event"",""trial"",""time""
""focus"",""1"",""7785""
","""event"",""trial"",""time""
""fullscreenenter"",""1"",""8688""
","
","","","","","","null","<div style=""font-size:60px;"">+</div>","null","","fixation","","","","","","","","","","",""
"aa-learning-trial","91","468320","0.0-9.0-2.0-1.9","3898","2","22","Male","approach_avoid_spark_v1","""event"",""trial"",""time""
""blur"",""1"",""5988""
""focus"",""1"",""7785""
""fullscreenenter"",""1"",""8688""
","""event"",""trial"",""time""
""blur"",""1"",""5988""
","""event"",""trial"",""time""
""focus"",""1"",""7785""
","""event"",""trial"",""time""
""fullscreenenter"",""1"",""8688""
","
","","","","","","911.2000000476837","images/train5.png","","","learning","9","9","1","1","train","vehicles","2","0","","bad","[-5]"
"html-keyboard-response","92","468829","0.0-9.0-2.0-0.10","3898","2","22","Male","approach_avoid_spark_v1","""event"",""trial"",""time""
""blur"",""1"",""5988""
""focus"",""1"",""7785""
""fullscreenenter"",""1"",""8688""
","""event"",""trial"",""time""
""blur"",""1"",""5988""
","""event"",""trial"",""time""
""focus"",""1"",""7785""
","""event"",""trial"",""time""
""fullscreenenter"",""1"",""8688""
","
","","","","","","null","<div style=""font-size:60px;"">+</div>","null","","fixation","","","","","","","","","","",""
"aa-learning-trial","93","471837","0.0-9.0-2.0-1.10","3898","2","22","Male","approach_avoid_spark_v1","""event"",""trial"",""time""
""blur"",""1"",""5988""
""focus"",""1"",""7785""
""fullscreenenter"",""1"",""8688""
","""event"",""trial"",""time""
""blur"",""1"",""5988""
","""event"",""trial"",""time""
""focus"",""1"",""7785""
","""event"",""trial"",""time""
""fullscreenenter"",""1"",""8688""
","
","","","","","","856.7000000476837","images/boat2.png","","","learning","-1","0","0","0","boat","vehicles","2","0","","good","[4]"
"html-keyboard-response","94","472341","0.0-9.0-2.0-0.11","3898","2","22","Male","approach_avoid_spark_v1","""event"",""trial"",""time""
""blur"",""1"",""5988""
""focus"",""1"",""7785""
""fullscreenenter"",""1"",""8688""
","""event"",""trial"",""time""
""blur"",""1"",""5988""
","""event"",""trial"",""time""
""focus"",""1"",""7785""
","""event"",""trial"",""time""
""fullscreenenter"",""1"",""8688""
","
","","","","","","null","<div style=""font-size:60px;"">+</div>","null","","fixation","","","","","","","","","","",""
"aa-learning-trial","95","475349","0.0-9.0-2.0-1.11","3898","2","22","Male","approach_avoid_spark_v1","""event"",""trial"",""time""
""blur"",""1"",""5988""
""focus"",""1"",""7785""
""fullscreenenter"",""1"",""8688""
","""event"",""trial"",""time""
""blur"",""1"",""5988""
","""event"",""trial"",""time""
""focus"",""1"",""7785""
","""event"",""trial"",""time""
""fullscreenenter"",""1"",""8688""
","
","","","","","","812","images/train6.png","","","learning","2","2","1","1","train","vehicles","2","0","","bad","[-5]"
"html-keyboard-response","96","475853","0.0-9.0-2.0-0.12","3898","2","22","Male","approach_avoid_spark_v1","""event"",""trial"",""time""
""blur"",""1"",""5988""
""focus"",""1"",""7785""
""fullscreenenter"",""1"",""8688""
","""event"",""trial"",""time""
""blur"",""1"",""5988""
","""event"",""trial"",""time""
""focus"",""1"",""7785""
","""event"",""trial"",""time""
""fullscreenenter"",""1"",""8688""
","
","","","","","","null","<div style=""font-size:60px;"">+</div>","null","","fixation","","","","","","","","","","",""
"aa-learning-trial","97","478861","0.0-9.0-2.0-1.12","3898","2","22","Male","approach_avoid_spark_v1","""event"",""trial"",""time""
""blur"",""1"",""5988""
""focus"",""1"",""7785""
""fullscreenenter"",""1"",""8688""
","""event"",""trial"",""time""
""blur"",""1"",""5988""
","""event"",""trial"",""time""
""focus"",""1"",""7785""
","""event"",""trial"",""time""
""fullscreenenter"",""1"",""8688""
","
","","","","","","905.9000000953674","images/train7.png","","","learning","3","3","1","1","train","vehicles","2","0","","bad","[-5]"
"html-keyboard-response","98","479365","0.0-9.0-2.0-0.13","3898","2","22","Male","approach_avoid_spark_v1","""event"",""trial"",""time""
""blur"",""1"",""5988""
""focus"",""1"",""7785""
""fullscreenenter"",""1"",""8688""
","""event"",""trial"",""time""
""blur"",""1"",""5988""
","""event"",""trial"",""time""
""focus"",""1"",""7785""
","""event"",""trial"",""time""
""fullscreenenter"",""1"",""8688""
","
","","","","","","null","<div style=""font-size:60px;"">+</div>","null","","fixation","","","","","","","","","","",""
"aa-learning-trial","99","482373","0.0-9.0-2.0-1.13","3898","2","22","Male","approach_avoid_spark_v1","""event"",""trial"",""time""
""blur"",""1"",""5988""
""focus"",""1"",""7785""
""fullscreenenter"",""1"",""8688""
","""event"",""trial"",""time""
""blur"",""1"",""5988""
","""event"",""trial"",""time""
""focus"",""1"",""7785""
","""event"",""trial"",""time""
""fullscreenenter"",""1"",""8688""
","
","","","","","","1337.7000000476837","images/boat5.png","","","learning","7","0","0","0","boat","vehicles","2","0","","good","[4]"
"html-keyboard-response","100","482876","0.0-9.0-2.0-0.14","3898","2","22","Male","approach_avoid_spark_v1","""event"",""trial"",""time""
""blur"",""1"",""5988""
""focus"",""1"",""7785""
""fullscreenenter"",""1"",""8688""
","""event"",""trial"",""time""
""blur"",""1"",""5988""
","""event"",""trial"",""time""
""focus"",""1"",""7785""
","""event"",""trial"",""time""
""fullscreenenter"",""1"",""8688""
","
","","","","","","null","<div style=""font-size:60px;"">+</div>","null","","fixation","","","","","","","","","","",""
"aa-learning-trial","101","485885","0.0-9.0-2.0-1.14","3898","2","22","Male","approach_avoid_spark_v1","""event"",""trial"",""time""
""blur"",""1"",""5988""
""focus"",""1"",""7785""
""fullscreenenter"",""1"",""8688""
","""event"",""trial"",""time""
""blur"",""1"",""5988""
","""event"",""trial"",""time""
""focus"",""1"",""7785""
","""event"",""trial"",""time""
""fullscreenenter"",""1"",""8688""
","
","","","","","","1211.7000000476837","images/boat5.png","","","learning","7","7","1","1","boat","vehicles","2","0","","good","[4]"
"html-keyboard-response","102","486390","0.0-9.0-2.0-0.15","3898","2","22","Male","approach_avoid_spark_v1","""event"",""trial"",""time""
""blur"",""1"",""5988""
""focus"",""1"",""7785""
""fullscreenenter"",""1"",""8688""
","""event"",""trial"",""time""
""blur"",""1"",""5988""
","""event"",""trial"",""time""
""focus"",""1"",""7785""
","""event"",""trial"",""time""
""fullscreenenter"",""1"",""8688""
","
","","","","","","null","<div style=""font-size:60px;"">+</div>","null","","fixation","","","","","","","","","","",""
"aa-learning-trial","103","489396","0.0-9.0-2.0-1.15","3898","2","22","Male","approach_avoid_spark_v1","""event"",""trial"",""time""
""blur"",""1"",""5988""
""focus"",""1"",""7785""
""fullscreenenter"",""1"",""8688""
","""event"",""trial"",""time""
""blur"",""1"",""5988""
","""event"",""trial"",""time""
""focus"",""1"",""7785""
","""event"",""trial"",""time""
""fullscreenenter"",""1"",""8688""
","
","","","","","","1452.2000000476837","images/boat3.png","","","learning","-4","0","0","0","boat","vehicles","2","0","","good","[4]"
"html-keyboard-response","104","489900","0.0-9.0-2.0-0.16","3898","2","22","Male","approach_avoid_spark_v1","""event"",""trial"",""time""
""blur"",""1"",""5988""
""focus"",""1"",""7785""
""fullscreenenter"",""1"",""8688""
","""event"",""trial"",""time""
""blur"",""1"",""5988""
","""event"",""trial"",""time""
""focus"",""1"",""7785""
","""event"",""trial"",""time""
""fullscreenenter"",""1"",""8688""
","
","","","","","","null","<div style=""font-size:60px;"">+</div>","null","","fixation","","","","","","","","","","",""
"aa-learning-trial","105","492908","0.0-9.0-2.0-1.16","3898","2","22","Male","approach_avoid_spark_v1","""event"",""trial"",""time""
""blur"",""1"",""5988""
""focus"",""1"",""7785""
""fullscreenenter"",""1"",""8688""
","""event"",""trial"",""time""
""blur"",""1"",""5988""
","""event"",""trial"",""time""
""focus"",""1"",""7785""
","""event"",""trial"",""time""
""fullscreenenter"",""1"",""8688""
","
","","","","","","918.6999998092651","images/train5.png","","","learning","9","9","1","1","train","vehicles","2","0","","bad","[-5]"
"html-keyboard-response","106","493413","0.0-9.0-2.0-0.17","3898","2","22","Male","approach_avoid_spark_v1","""event"",""trial"",""time""
""blur"",""1"",""5988""
""focus"",""1"",""7785""
""fullscreenenter"",""1"",""8688""
","""event"",""trial"",""time""
""blur"",""1"",""5988""
","""event"",""trial"",""time""
""focus"",""1"",""7785""
","""event"",""trial"",""time""
""fullscreenenter"",""1"",""8688""
","
","","","","","","null","<div style=""font-size:60px;"">+</div>","null","","fixation","","","","","","","","","","",""
"aa-learning-trial","107","496420","0.0-9.0-2.0-1.17","3898","2","22","Male","approach_avoid_spark_v1","""event"",""trial"",""time""
""blur"",""1"",""5988""
""focus"",""1"",""7785""
""fullscreenenter"",""1"",""8688""
","""event"",""trial"",""time""
""blur"",""1"",""5988""
","""event"",""trial"",""time""
""focus"",""1"",""7785""
","""event"",""trial"",""time""
""fullscreenenter"",""1"",""8688""
","
","","","","","","1078.2000000476837","images/boat1.png","","","learning","-7","0","0","0","boat","vehicles","2","0","","good","[4]"
"html-keyboard-response","108","496924","0.0-9.0-2.0-0.18","3898","2","22","Male","approach_avoid_spark_v1","""event"",""trial"",""time""
""blur"",""1"",""5988""
""focus"",""1"",""7785""
""fullscreenenter"",""1"",""8688""
","""event"",""trial"",""time""
""blur"",""1"",""5988""
","""event"",""trial"",""time""
""focus"",""1"",""7785""
","""event"",""trial"",""time""
""fullscreenenter"",""1"",""8688""
","
","","","","","","null","<div style=""font-size:60px;"">+</div>","null","","fixation","","","","","","","","","","",""
"aa-learning-trial","109","499934","0.0-9.0-2.0-1.18","3898","2","22","Male","approach_avoid_spark_v1","""event"",""trial"",""time""
""blur"",""1"",""5988""
""focus"",""1"",""7785""
""fullscreenenter"",""1"",""8688""
","""event"",""trial"",""time""
""blur"",""1"",""5988""
","""event"",""trial"",""time""
""focus"",""1"",""7785""
","""event"",""trial"",""time""
""fullscreenenter"",""1"",""8688""
","
","","","","","","995.9000000953674","images/plane2.png","","","learning","-3","0","0","0","plane","vehicles","2","0","","neutral","0"
"html-keyboard-response","110","500444","0.0-9.0-2.0-0.19","3898","2","22","Male","approach_avoid_spark_v1","""event"",""trial"",""time""
""blur"",""1"",""5988""
""focus"",""1"",""7785""
""fullscreenenter"",""1"",""8688""
","""event"",""trial"",""time""
""blur"",""1"",""5988""
","""event"",""trial"",""time""
""focus"",""1"",""7785""
","""event"",""trial"",""time""
""fullscreenenter"",""1"",""8688""
","
","","","","","","null","<div style=""font-size:60px;"">+</div>","null","","fixation","","","","","","","","","","",""
"aa-learning-trial","111","503452","0.0-9.0-2.0-1.19","3898","2","22","Male","approach_avoid_spark_v1","""event"",""trial"",""time""
""blur"",""1"",""5988""
""focus"",""1"",""7785""
""fullscreenenter"",""1"",""8688""
","""event"",""trial"",""time""
""blur"",""1"",""5988""
","""event"",""trial"",""time""
""focus"",""1"",""7785""
","""event"",""trial"",""time""
""fullscreenenter"",""1"",""8688""
","
","","","","","","534","images/plane2.png","","","learning","-3","0","0","0","plane","vehicles","2","0","","neutral","0"
"html-keyboard-response","112","503955","0.0-9.0-2.0-0.20","3898","2","22","Male","approach_avoid_spark_v1","""event"",""trial"",""time""
""blur"",""1"",""5988""
""focus"",""1"",""7785""
""fullscreenenter"",""1"",""8688""
","""event"",""trial"",""time""
""blur"",""1"",""5988""
","""event"",""trial"",""time""
""focus"",""1"",""7785""
","""event"",""trial"",""time""
""fullscreenenter"",""1"",""8688""
","
","","","","","","null","<div style=""font-size:60px;"">+</div>","null","","fixation","","","","","","","","","","",""
"aa-learning-trial","113","506963","0.0-9.0-2.0-1.20","3898","2","22","Male","approach_avoid_spark_v1","""event"",""trial"",""time""
""blur"",""1"",""5988""
""focus"",""1"",""7785""
""fullscreenenter"",""1"",""8688""
","""event"",""trial"",""time""
""blur"",""1"",""5988""
","""event"",""trial"",""time""
""focus"",""1"",""7785""
","""event"",""trial"",""time""
""fullscreenenter"",""1"",""8688""
","
","","","","","","1081.8999998569489","images/plane2.png","","","learning","-3","0","0","0","plane","vehicles","2","0","","neutral","0"
"html-keyboard-response","114","507467","0.0-9.0-2.0-0.21","3898","2","22","Male","approach_avoid_spark_v1","""event"",""trial"",""time""
""blur"",""1"",""5988""
""focus"",""1"",""7785""
""fullscreenenter"",""1"",""8688""
","""event"",""trial"",""time""
""blur"",""1"",""5988""
","""event"",""trial"",""time""
""focus"",""1"",""7785""
","""event"",""trial"",""time""
""fullscreenenter"",""1"",""8688""
","
","","","","","","null","<div style=""font-size:60px;"">+</div>","null","","fixation","","","","","","","","","","",""
"aa-learning-trial","115","510482","0.0-9.0-2.0-1.21","3898","2","22","Male","approach_avoid_spark_v1","""event"",""trial"",""time""
""blur"",""1"",""5988""
""focus"",""1"",""7785""
""fullscreenenter"",""1"",""8688""
","""event"",""trial"",""time""
""blur"",""1"",""5988""
","""event"",""trial"",""time""
""focus"",""1"",""7785""
","""event"",""trial"",""time""
""fullscreenenter"",""1"",""8688""
","
","","","","","","1756.7000000476837","images/plane6.png","","","learning","-9","0","0","0","plane","vehicles","2","0","","neutral","0"
"html-keyboard-response","116","510987","0.0-9.0-2.0-0.22","3898","2","22","Male","approach_avoid_spark_v1","""event"",""trial"",""time""
""blur"",""1"",""5988""
""focus"",""1"",""7785""
""fullscreenenter"",""1"",""8688""
","""event"",""trial"",""time""
""blur"",""1"",""5988""
","""event"",""trial"",""time""
""focus"",""1"",""7785""
","""event"",""trial"",""time""
""fullscreenenter"",""1"",""8688""
","
","","","","","","null","<div style=""font-size:60px;"">+</div>","null","","fixation","","","","","","","","","","",""
"aa-learning-trial","117","513995","0.0-9.0-2.0-1.22","3898","2","22","Male","approach_avoid_spark_v1","""event"",""trial"",""time""
""blur"",""1"",""5988""
""focus"",""1"",""7785""
""fullscreenenter"",""1"",""8688""
","""event"",""trial"",""time""
""blur"",""1"",""5988""
","""event"",""trial"",""time""
""focus"",""1"",""7785""
","""event"",""trial"",""time""
""fullscreenenter"",""1"",""8688""
","
","","","","","","1402.3000001907349","images/train6.png","","","learning","2","2","1","1","train","vehicles","2","0","","bad","[-5]"
"html-keyboard-response","118","514499","0.0-9.0-2.0-0.23","3898","2","22","Male","approach_avoid_spark_v1","""event"",""trial"",""time""
""blur"",""1"",""5988""
""focus"",""1"",""7785""
""fullscreenenter"",""1"",""8688""
","""event"",""trial"",""time""
""blur"",""1"",""5988""
","""event"",""trial"",""time""
""focus"",""1"",""7785""
","""event"",""trial"",""time""
""fullscreenenter"",""1"",""8688""
","
","","","","","","null","<div style=""font-size:60px;"">+</div>","null","","fixation","","","","","","","","","","",""
"aa-learning-trial","119","517507","0.0-9.0-2.0-1.23","3898","2","22","Male","approach_avoid_spark_v1","""event"",""trial"",""time""
""blur"",""1"",""5988""
""focus"",""1"",""7785""
""fullscreenenter"",""1"",""8688""
","""event"",""trial"",""time""
""blur"",""1"",""5988""
","""event"",""trial"",""time""
""focus"",""1"",""7785""
","""event"",""trial"",""time""
""fullscreenenter"",""1"",""8688""
","
","","","","","","1594.2000000476837","images/boat6.png","","","learning","4","0","0","0","boat","vehicles","2","0","","good","[4]"
"html-keyboard-response","120","518013","0.0-9.0-2.0-0.24","3898","2","22","Male","approach_avoid_spark_v1","""event"",""trial"",""time""
""blur"",""1"",""5988""
""focus"",""1"",""7785""
""fullscreenenter"",""1"",""8688""
","""event"",""trial"",""time""
""blur"",""1"",""5988""
","""event"",""trial"",""time""
""focus"",""1"",""7785""
","""event"",""trial"",""time""
""fullscreenenter"",""1"",""8688""
","
","","","","","","null","<div style=""font-size:60px;"">+</div>","null","","fixation","","","","","","","","","","",""
"aa-learning-trial","121","521019","0.0-9.0-2.0-1.24","3898","2","22","Male","approach_avoid_spark_v1","""event"",""trial"",""time""
""blur"",""1"",""5988""
""focus"",""1"",""7785""
""fullscreenenter"",""1"",""8688""
","""event"",""trial"",""time""
""blur"",""1"",""5988""
","""event"",""trial"",""time""
""focus"",""1"",""7785""
","""event"",""trial"",""time""
""fullscreenenter"",""1"",""8688""
","
","","","","","","1042.7999999523163","images/train6.png","","","learning","2","2","1","1","train","vehicles","2","0","","bad","[-5]"
"html-keyboard-response","122","521523","0.0-9.0-2.0-0.25","3898","2","22","Male","approach_avoid_spark_v1","""event"",""trial"",""time""
""blur"",""1"",""5988""
""focus"",""1"",""7785""
""fullscreenenter"",""1"",""8688""
","""event"",""trial"",""time""
""blur"",""1"",""5988""
","""event"",""trial"",""time""
""focus"",""1"",""7785""
","""event"",""trial"",""time""
""fullscreenenter"",""1"",""8688""
","
","","","","","","null","<div style=""font-size:60px;"">+</div>","null","","fixation","","","","","","","","","","",""
"aa-learning-trial","123","524533","0.0-9.0-2.0-1.25","3898","2","22","Male","approach_avoid_spark_v1","""event"",""trial"",""time""
""blur"",""1"",""5988""
""focus"",""1"",""7785""
""fullscreenenter"",""1"",""8688""
","""event"",""trial"",""time""
""blur"",""1"",""5988""
","""event"",""trial"",""time""
""focus"",""1"",""7785""
","""event"",""trial"",""time""
""fullscreenenter"",""1"",""8688""
","
","","","","","","1859.2000000476837","images/boat5.png","","","learning","7","0","0","0","boat","vehicles","2","0","","good","[4]"
"html-keyboard-response","124","525043","0.0-9.0-2.0-0.26","3898","2","22","Male","approach_avoid_spark_v1","""event"",""trial"",""time""
""blur"",""1"",""5988""
""focus"",""1"",""7785""
""fullscreenenter"",""1"",""8688""
","""event"",""trial"",""time""
""blur"",""1"",""5988""
","""event"",""trial"",""time""
""focus"",""1"",""7785""
","""event"",""trial"",""time""
""fullscreenenter"",""1"",""8688""
","
","","","","","","null","<div style=""font-size:60px;"">+</div>","null","","fixation","","","","","","","","","","",""
"aa-learning-trial","125","528053","0.0-9.0-2.0-1.26","3898","2","22","Male","approach_avoid_spark_v1","""event"",""trial"",""time""
""blur"",""1"",""5988""
""focus"",""1"",""7785""
""fullscreenenter"",""1"",""8688""
","""event"",""trial"",""time""
""blur"",""1"",""5988""
","""event"",""trial"",""time""
""focus"",""1"",""7785""
","""event"",""trial"",""time""
""fullscreenenter"",""1"",""8688""
","
","","","","","","1267.3000001907349","images/train3.png","","","learning","-6","-6","1","1","train","vehicles","2","0","","bad","[-5]"
"html-keyboard-response","126","528563","0.0-9.0-2.0-0.27","3898","2","22","Male","approach_avoid_spark_v1","""event"",""trial"",""time""
""blur"",""1"",""5988""
""focus"",""1"",""7785""
""fullscreenenter"",""1"",""8688""
","""event"",""trial"",""time""
""blur"",""1"",""5988""
","""event"",""trial"",""time""
""focus"",""1"",""7785""
","""event"",""trial"",""time""
""fullscreenenter"",""1"",""8688""
","
","","","","","","null","<div style=""font-size:60px;"">+</div>","null","","fixation","","","","","","","","","","",""
"aa-learning-trial","127","531570","0.0-9.0-2.0-1.27","3898","2","22","Male","approach_avoid_spark_v1","""event"",""trial"",""time""
""blur"",""1"",""5988""
""focus"",""1"",""7785""
""fullscreenenter"",""1"",""8688""
","""event"",""trial"",""time""
""blur"",""1"",""5988""
","""event"",""trial"",""time""
""focus"",""1"",""7785""
","""event"",""trial"",""time""
""fullscreenenter"",""1"",""8688""
","
","","","","","","596.7000000476837","images/train5.png","","","learning","9","9","1","1","train","vehicles","2","0","","bad","[-5]"
"html-keyboard-response","128","532074","0.0-9.0-2.0-0.28","3898","2","22","Male","approach_avoid_spark_v1","""event"",""trial"",""time""
""blur"",""1"",""5988""
""focus"",""1"",""7785""
""fullscreenenter"",""1"",""8688""
","""event"",""trial"",""time""
""blur"",""1"",""5988""
","""event"",""trial"",""time""
""focus"",""1"",""7785""
","""event"",""trial"",""time""
""fullscreenenter"",""1"",""8688""
","
","","","","","","null","<div style=""font-size:60px;"">+</div>","null","","fixation","","","","","","","","","","",""
"aa-learning-trial","129","535082","0.0-9.0-2.0-1.28","3898","2","22","Male","approach_avoid_spark_v1","""event"",""trial"",""time""
""blur"",""1"",""5988""
""focus"",""1"",""7785""
""fullscreenenter"",""1"",""8688""
","""event"",""trial"",""time""
""blur"",""1"",""5988""
","""event"",""trial"",""time""
""focus"",""1"",""7785""
","""event"",""trial"",""time""
""fullscreenenter"",""1"",""8688""
","
","","","","","","979.0999999046326","images/plane6.png","","","learning","-9","0","0","0","plane","vehicles","2","0","","neutral","0"
"html-keyboard-response","130","535586","0.0-9.0-2.0-0.29","3898","2","22","Male","approach_avoid_spark_v1","""event"",""trial"",""time""
""blur"",""1"",""5988""
""focus"",""1"",""7785""
""fullscreenenter"",""1"",""8688""
","""event"",""trial"",""time""
""blur"",""1"",""5988""
","""event"",""trial"",""time""
""focus"",""1"",""7785""
","""event"",""trial"",""time""
""fullscreenenter"",""1"",""8688""
","
","","","","","","null","<div style=""font-size:60px;"">+</div>","null","","fixation","","","","","","","","","","",""
"aa-learning-trial","131","538594","0.0-9.0-2.0-1.29","3898","2","22","Male","approach_avoid_spark_v1","""event"",""trial"",""time""
""blur"",""1"",""5988""
""focus"",""1"",""7785""
""fullscreenenter"",""1"",""8688""
","""event"",""trial"",""time""
""blur"",""1"",""5988""
","""event"",""trial"",""time""
""focus"",""1"",""7785""
","""event"",""trial"",""time""
""fullscreenenter"",""1"",""8688""
","
","","","","","","1369.2000000476837","images/boat2.png","","","learning","-1","0","0","0","boat","vehicles","2","0","","good","[4]"
"html-keyboard-response","132","539098","0.0-9.0-2.0-0.30","3898","2","22","Male","approach_avoid_spark_v1","""event"",""trial"",""time""
""blur"",""1"",""5988""
""focus"",""1"",""7785""
""fullscreenenter"",""1"",""8688""
","""event"",""trial"",""time""
""blur"",""1"",""5988""
","""event"",""trial"",""time""
""focus"",""1"",""7785""
","""event"",""trial"",""time""
""fullscreenenter"",""1"",""8688""
","
","","","","","","null","<div style=""font-size:60px;"">+</div>","null","","fixation","","","","","","","","","","",""
"aa-learning-trial","133","542107","0.0-9.0-2.0-1.30","3898","2","22","Male","approach_avoid_spark_v1","""event"",""trial"",""time""
""blur"",""1"",""5988""
""focus"",""1"",""7785""
""fullscreenenter"",""1"",""8688""
","""event"",""trial"",""time""
""blur"",""1"",""5988""
","""event"",""trial"",""time""
""focus"",""1"",""7785""
","""event"",""trial"",""time""
""fullscreenenter"",""1"",""8688""
","
","","","","","","834.1999998092651","images/plane2.png","","","learning","-3","0","0","0","plane","vehicles","2","0","","neutral","0"
"html-keyboard-response","134","542610","0.0-9.0-2.0-0.31","3898","2","22","Male","approach_avoid_spark_v1","""event"",""trial"",""time""
""blur"",""1"",""5988""
""focus"",""1"",""7785""
""fullscreenenter"",""1"",""8688""
","""event"",""trial"",""time""
""blur"",""1"",""5988""
","""event"",""trial"",""time""
""focus"",""1"",""7785""
","""event"",""trial"",""time""
""fullscreenenter"",""1"",""8688""
","
","","","","","","null","<div style=""font-size:60px;"">+</div>","null","","fixation","","","","","","","","","","",""
"aa-learning-trial","135","545618","0.0-9.0-2.0-1.31","3898","2","22","Male","approach_avoid_spark_v1","""event"",""trial"",""time""
""blur"",""1"",""5988""
""focus"",""1"",""7785""
""fullscreenenter"",""1"",""8688""
","""event"",""trial"",""time""
""blur"",""1"",""5988""
","""event"",""trial"",""time""
""focus"",""1"",""7785""
","""event"",""trial"",""time""
""fullscreenenter"",""1"",""8688""
","
","","","","","","1019.7000000476837","images/boat5.png","","","learning","7","7","1","1","boat","vehicles","2","0","","good","[4]"
"html-keyboard-response","136","546128","0.0-9.0-2.0-0.32","3898","2","22","Male","approach_avoid_spark_v1","""event"",""trial"",""time""
""blur"",""1"",""5988""
""focus"",""1"",""7785""
""fullscreenenter"",""1"",""8688""
","""event"",""trial"",""time""
""blur"",""1"",""5988""
","""event"",""trial"",""time""
""focus"",""1"",""7785""
","""event"",""trial"",""time""
""fullscreenenter"",""1"",""8688""
","
","","","","","","null","<div style=""font-size:60px;"">+</div>","null","","fixation","","","","","","","","","","",""
"aa-learning-trial","137","549138","0.0-9.0-2.0-1.32","3898","2","22","Male","approach_avoid_spark_v1","""event"",""trial"",""time""
""blur"",""1"",""5988""
""focus"",""1"",""7785""
""fullscreenenter"",""1"",""8688""
","""event"",""trial"",""time""
""blur"",""1"",""5988""
","""event"",""trial"",""time""
""focus"",""1"",""7785""
","""event"",""trial"",""time""
""fullscreenenter"",""1"",""8688""
","
","","","","","","1395.7999999523163","images/train7.png","","","learning","3","3","1","1","train","vehicles","2","0","","bad","[-5]"
"html-keyboard-response","138","549642","0.0-9.0-2.0-0.33","3898","2","22","Male","approach_avoid_spark_v1","""event"",""trial"",""time""
""blur"",""1"",""5988""
""focus"",""1"",""7785""
""fullscreenenter"",""1"",""8688""
","""event"",""trial"",""time""
""blur"",""1"",""5988""
","""event"",""trial"",""time""
""focus"",""1"",""7785""
","""event"",""trial"",""time""
""fullscreenenter"",""1"",""8688""
","
","","","","","","null","<div style=""font-size:60px;"">+</div>","null","","fixation","","","","","","","","","","",""
"aa-learning-trial","139","552650","0.0-9.0-2.0-1.33","3898","2","22","Male","approach_avoid_spark_v1","""event"",""trial"",""time""
""blur"",""1"",""5988""
""focus"",""1"",""7785""
""fullscreenenter"",""1"",""8688""
","""event"",""trial"",""time""
""blur"",""1"",""5988""
","""event"",""trial"",""time""
""focus"",""1"",""7785""
","""event"",""trial"",""time""
""fullscreenenter"",""1"",""8688""
","
","","","","","","1059.7000000476837","images/plane8.png","","","learning","6","0","0","0","plane","vehicles","2","0","","neutral","0"
"html-keyboard-response","140","553153","0.0-9.0-2.0-0.34","3898","2","22","Male","approach_avoid_spark_v1","""event"",""trial"",""time""
""blur"",""1"",""5988""
""focus"",""1"",""7785""
""fullscreenenter"",""1"",""8688""
","""event"",""trial"",""time""
""blur"",""1"",""5988""
","""event"",""trial"",""time""
""focus"",""1"",""7785""
","""event"",""trial"",""time""
""fullscreenenter"",""1"",""8688""
","
","","","","","","null","<div style=""font-size:60px;"">+</div>","null","","fixation","","","","","","","","","","",""
"aa-learning-trial","141","556162","0.0-9.0-2.0-1.34","3898","2","22","Male","approach_avoid_spark_v1","""event"",""trial"",""time""
""blur"",""1"",""5988""
""focus"",""1"",""7785""
""fullscreenenter"",""1"",""8688""
","""event"",""trial"",""time""
""blur"",""1"",""5988""
","""event"",""trial"",""time""
""focus"",""1"",""7785""
","""event"",""trial"",""time""
""fullscreenenter"",""1"",""8688""
","
","","","","","","1628","images/plane1.png","","","learning","5","5","1","1","plane","vehicles","2","0","","neutral","0"
"html-keyboard-response","142","556665","0.0-9.0-2.0-0.35","3898","2","22","Male","approach_avoid_spark_v1","""event"",""trial"",""time""
""blur"",""1"",""5988""
""focus"",""1"",""7785""
""fullscreenenter"",""1"",""8688""
","""event"",""trial"",""time""
""blur"",""1"",""5988""
","""event"",""trial"",""time""
""focus"",""1"",""7785""
","""event"",""trial"",""time""
""fullscreenenter"",""1"",""8688""
","
","","","","","","null","<div style=""font-size:60px;"">+</div>","null","","fixation","","","","","","","","","","",""
"aa-learning-trial","143","559673","0.0-9.0-2.0-1.35","3898","2","22","Male","approach_avoid_spark_v1","""event"",""trial"",""time""
""blur"",""1"",""5988""
""focus"",""1"",""7785""
""fullscreenenter"",""1"",""8688""
","""event"",""trial"",""time""
""blur"",""1"",""5988""
","""event"",""trial"",""time""
""focus"",""1"",""7785""
","""event"",""trial"",""time""
""fullscreenenter"",""1"",""8688""
","
","","","","","","2500.7000000476837","images/boat5.png","","","learning","7","7","1","1","boat","vehicles","2","0","","good","[4]"
"html-keyboard-response","144","560177","0.0-9.0-2.0-0.36","3898","2","22","Male","approach_avoid_spark_v1","""event"",""trial"",""time""
""blur"",""1"",""5988""
""focus"",""1"",""7785""
""fullscreenenter"",""1"",""8688""
","""event"",""trial"",""time""
""blur"",""1"",""5988""
","""event"",""trial"",""time""
""focus"",""1"",""7785""
","""event"",""trial"",""time""
""fullscreenenter"",""1"",""8688""
","
","","","","","","null","<div style=""font-size:60px;"">+</div>","null","","fixation","","","","","","","","","","",""
"aa-learning-trial","145","563188","0.0-9.0-2.0-1.36","3898","2","22","Male","approach_avoid_spark_v1","""event"",""trial"",""time""
""blur"",""1"",""5988""
""focus"",""1"",""7785""
""fullscreenenter"",""1"",""8688""
","""event"",""trial"",""time""
""blur"",""1"",""5988""
","""event"",""trial"",""time""
""focus"",""1"",""7785""
","""event"",""trial"",""time""
""fullscreenenter"",""1"",""8688""
","
","","","","","","1963","images/plane1.png","","","learning","5","5","1","1","plane","vehicles","2","0","","neutral","0"
"html-keyboard-response","146","563697","0.0-9.0-2.0-0.37","3898","2","22","Male","approach_avoid_spark_v1","""event"",""trial"",""time""
""blur"",""1"",""5988""
""focus"",""1"",""7785""
""fullscreenenter"",""1"",""8688""
","""event"",""trial"",""time""
""blur"",""1"",""5988""
","""event"",""trial"",""time""
""focus"",""1"",""7785""
","""event"",""trial"",""time""
""fullscreenenter"",""1"",""8688""
","
","","","","","","null","<div style=""font-size:60px;"">+</div>","null","","fixation","","","","","","","","","","",""
"aa-learning-trial","147","566704","0.0-9.0-2.0-1.37","3898","2","22","Male","approach_avoid_spark_v1","""event"",""trial"",""time""
""blur"",""1"",""5988""
""focus"",""1"",""7785""
""fullscreenenter"",""1"",""8688""
","""event"",""trial"",""time""
""blur"",""1"",""5988""
","""event"",""trial"",""time""
""focus"",""1"",""7785""
","""event"",""trial"",""time""
""fullscreenenter"",""1"",""8688""
","
","","","","","","2935.2999999523163","images/plane7.png","","","learning","-2","0","0","0","plane","vehicles","2","0","","neutral","0"
"html-keyboard-response","148","567210","0.0-9.0-2.0-0.38","3898","2","22","Male","approach_avoid_spark_v1","""event"",""trial"",""time""
""blur"",""1"",""5988""
""focus"",""1"",""7785""
""fullscreenenter"",""1"",""8688""
","""event"",""trial"",""time""
""blur"",""1"",""5988""
","""event"",""trial"",""time""
""focus"",""1"",""7785""
","""event"",""trial"",""time""
""fullscreenenter"",""1"",""8688""
","
","","","","","","null","<div style=""font-size:60px;"">+</div>","null","","fixation","","","","","","","","","","",""
"aa-learning-trial","149","570222","0.0-9.0-2.0-1.38","3898","2","22","Male","approach_avoid_spark_v1","""event"",""trial"",""time""
""blur"",""1"",""5988""
""focus"",""1"",""7785""
""fullscreenenter"",""1"",""8688""
","""event"",""trial"",""time""
""blur"",""1"",""5988""
","""event"",""trial"",""time""
""focus"",""1"",""7785""
","""event"",""trial"",""time""
""fullscreenenter"",""1"",""8688""
","
","","","","","","1038","images/boat2.png","","","learning","-1","0","0","0","boat","vehicles","2","0","","good","[4]"
"html-keyboard-response","150","570731","0.0-9.0-2.0-0.39","3898","2","22","Male","approach_avoid_spark_v1","""event"",""trial"",""time""
""blur"",""1"",""5988""
""focus"",""1"",""7785""
""fullscreenenter"",""1"",""8688""
","""event"",""trial"",""time""
""blur"",""1"",""5988""
","""event"",""trial"",""time""
""focus"",""1"",""7785""
","""event"",""trial"",""time""
""fullscreenenter"",""1"",""8688""
","
","","","","","","null","<div style=""font-size:60px;"">+</div>","null","","fixation","","","","","","","","","","",""
"aa-learning-trial","151","573737","0.0-9.0-2.0-1.39","3898","2","22","Male","approach_avoid_spark_v1","""event"",""trial"",""time""
""blur"",""1"",""5988""
""focus"",""1"",""7785""
""fullscreenenter"",""1"",""8688""
","""event"",""trial"",""time""
""blur"",""1"",""5988""
","""event"",""trial"",""time""
""focus"",""1"",""7785""
","""event"",""trial"",""time""
""fullscreenenter"",""1"",""8688""
","
","","","","","","557.1000001430511","images/train5.png","","","learning","9","9","1","1","train","vehicles","2","0","","bad","[-5]"
"html-keyboard-response","152","574240","0.0-9.0-2.0-0.40","3898","2","22","Male","approach_avoid_spark_v1","""event"",""trial"",""time""
""blur"",""1"",""5988""
""focus"",""1"",""7785""
""fullscreenenter"",""1"",""8688""
","""event"",""trial"",""time""
""blur"",""1"",""5988""
","""event"",""trial"",""time""
""focus"",""1"",""7785""
","""event"",""trial"",""time""
""fullscreenenter"",""1"",""8688""
","
","","","","","","null","<div style=""font-size:60px;"">+</div>","null","","fixation","","","","","","","","","","",""
"aa-learning-trial","153","577249","0.0-9.0-2.0-1.40","3898","2","22","Male","approach_avoid_spark_v1","""event"",""trial"",""time""
""blur"",""1"",""5988""
""focus"",""1"",""7785""
""fullscreenenter"",""1"",""8688""
","""event"",""trial"",""time""
""blur"",""1"",""5988""
","""event"",""trial"",""time""
""focus"",""1"",""7785""
","""event"",""trial"",""time""
""fullscreenenter"",""1"",""8688""
","
","","","","","","683.6000001430511","images/train5.png","","","learning","9","9","1","1","train","vehicles","2","0","","bad","[-5]"
"html-keyboard-response","154","577752","0.0-9.0-2.0-0.41","3898","2","22","Male","approach_avoid_spark_v1","""event"",""trial"",""time""
""blur"",""1"",""5988""
""focus"",""1"",""7785""
""fullscreenenter"",""1"",""8688""
","""event"",""trial"",""time""
""blur"",""1"",""5988""
","""event"",""trial"",""time""
""focus"",""1"",""7785""
","""event"",""trial"",""time""
""fullscreenenter"",""1"",""8688""
","
","","","","","","null","<div style=""font-size:60px;"">+</div>","null","","fixation","","","","","","","","","","",""
"aa-learning-trial","155","580761","0.0-9.0-2.0-1.41","3898","2","22","Male","approach_avoid_spark_v1","""event"",""trial"",""time""
""blur"",""1"",""5988""
""focus"",""1"",""7785""
""fullscreenenter"",""1"",""8688""
","""event"",""trial"",""time""
""blur"",""1"",""5988""
","""event"",""trial"",""time""
""focus"",""1"",""7785""
","""event"",""trial"",""time""
""fullscreenenter"",""1"",""8688""
","
","","","","","","1194.3000001907349","images/train6.png","","","learning","2","2","1","1","train","vehicles","2","0","","bad","[-5]"
"html-keyboard-response","156","581264","0.0-9.0-2.0-0.42","3898","2","22","Male","approach_avoid_spark_v1","""event"",""trial"",""time""
""blur"",""1"",""5988""
""focus"",""1"",""7785""
""fullscreenenter"",""1"",""8688""
","""event"",""trial"",""time""
""blur"",""1"",""5988""
","""event"",""trial"",""time""
""focus"",""1"",""7785""
","""event"",""trial"",""time""
""fullscreenenter"",""1"",""8688""
","
","","","","","","null","<div style=""font-size:60px;"">+</div>","null","","fixation","","","","","","","","","","",""
"aa-learning-trial","157","584272","0.0-9.0-2.0-1.42","3898","2","22","Male","approach_avoid_spark_v1","""event"",""trial"",""time""
""blur"",""1"",""5988""
""focus"",""1"",""7785""
""fullscreenenter"",""1"",""8688""
","""event"",""trial"",""time""
""blur"",""1"",""5988""
","""event"",""trial"",""time""
""focus"",""1"",""7785""
","""event"",""trial"",""time""
""fullscreenenter"",""1"",""8688""
","
","","","","","","1433","images/boat3.png","","","learning","-4","0","0","0","boat","vehicles","2","0","","good","[4]"
"html-keyboard-response","158","584777","0.0-9.0-2.0-0.43","3898","2","22","Male","approach_avoid_spark_v1","""event"",""trial"",""time""
""blur"",""1"",""5988""
""focus"",""1"",""7785""
""fullscreenenter"",""1"",""8688""
","""event"",""trial"",""time""
""blur"",""1"",""5988""
","""event"",""trial"",""time""
""focus"",""1"",""7785""
","""event"",""trial"",""time""
""fullscreenenter"",""1"",""8688""
","
","","","","","","null","<div style=""font-size:60px;"">+</div>","null","","fixation","","","","","","","","","","",""
"aa-learning-trial","159","587784","0.0-9.0-2.0-1.43","3898","2","22","Male","approach_avoid_spark_v1","""event"",""trial"",""time""
""blur"",""1"",""5988""
""focus"",""1"",""7785""
""fullscreenenter"",""1"",""8688""
","""event"",""trial"",""time""
""blur"",""1"",""5988""
","""event"",""trial"",""time""
""focus"",""1"",""7785""
","""event"",""trial"",""time""
""fullscreenenter"",""1"",""8688""
","
","","","","","","1029.6000001430511","images/plane1.png","","","learning","5","0","0","0","plane","vehicles","2","0","","neutral","0"
"html-keyboard-response","160","588288","0.0-9.0-2.0-0.44","3898","2","22","Male","approach_avoid_spark_v1","""event"",""trial"",""time""
""blur"",""1"",""5988""
""focus"",""1"",""7785""
""fullscreenenter"",""1"",""8688""
","""event"",""trial"",""time""
""blur"",""1"",""5988""
","""event"",""trial"",""time""
""focus"",""1"",""7785""
","""event"",""trial"",""time""
""fullscreenenter"",""1"",""8688""
","
","","","","","","null","<div style=""font-size:60px;"">+</div>","null","","fixation","","","","","","","","","","",""
"aa-learning-trial","161","591295","0.0-9.0-2.0-1.44","3898","2","22","Male","approach_avoid_spark_v1","""event"",""trial"",""time""
""blur"",""1"",""5988""
""focus"",""1"",""7785""
""fullscreenenter"",""1"",""8688""
","""event"",""trial"",""time""
""blur"",""1"",""5988""
","""event"",""trial"",""time""
""focus"",""1"",""7785""
","""event"",""trial"",""time""
""fullscreenenter"",""1"",""8688""
","
","","","","","","1220.6000001430511","images/train6.png","","","learning","2","0","0","0","train","vehicles","2","0","","bad","[-5]"
"html-keyboard-response","162","591806","0.0-9.0-2.0-0.45","3898","2","22","Male","approach_avoid_spark_v1","""event"",""trial"",""time""
""blur"",""1"",""5988""
""focus"",""1"",""7785""
""fullscreenenter"",""1"",""8688""
","""event"",""trial"",""time""
""blur"",""1"",""5988""
","""event"",""trial"",""time""
""focus"",""1"",""7785""
","""event"",""trial"",""time""
""fullscreenenter"",""1"",""8688""
","
","","","","","","null","<div style=""font-size:60px;"">+</div>","null","","fixation","","","","","","","","","","",""
"aa-learning-trial","163","594816","0.0-9.0-2.0-1.45","3898","2","22","Male","approach_avoid_spark_v1","""event"",""trial"",""time""
""blur"",""1"",""5988""
""focus"",""1"",""7785""
""fullscreenenter"",""1"",""8688""
","""event"",""trial"",""time""
""blur"",""1"",""5988""
","""event"",""trial"",""time""
""focus"",""1"",""7785""
","""event"",""trial"",""time""
""fullscreenenter"",""1"",""8688""
","
","","","","","","1121.8999998569489","images/train8.png","","","learning","-5","-5","1","1","train","vehicles","2","0","","bad","[-5]"
"html-keyboard-response","164","595319","0.0-9.0-2.0-0.46","3898","2","22","Male","approach_avoid_spark_v1","""event"",""trial"",""time""
""blur"",""1"",""5988""
""focus"",""1"",""7785""
""fullscreenenter"",""1"",""8688""
","""event"",""trial"",""time""
""blur"",""1"",""5988""
","""event"",""trial"",""time""
""focus"",""1"",""7785""
","""event"",""trial"",""time""
""fullscreenenter"",""1"",""8688""
","
","","","","","","null","<div style=""font-size:60px;"">+</div>","null","","fixation","","","","","","","","","","",""
"aa-learning-trial","165","598328","0.0-9.0-2.0-1.46","3898","2","22","Male","approach_avoid_spark_v1","""event"",""trial"",""time""
""blur"",""1"",""5988""
""focus"",""1"",""7785""
""fullscreenenter"",""1"",""8688""
","""event"",""trial"",""time""
""blur"",""1"",""5988""
","""event"",""trial"",""time""
""focus"",""1"",""7785""
","""event"",""trial"",""time""
""fullscreenenter"",""1"",""8688""
","
","","","","","","1067.2000000476837","images/boat5.png","","","learning","7","7","1","1","boat","vehicles","2","0","","good","[4]"
"html-keyboard-response","166","598831","0.0-9.0-2.0-0.47","3898","2","22","Male","approach_avoid_spark_v1","""event"",""trial"",""time""
""blur"",""1"",""5988""
""focus"",""1"",""7785""
""fullscreenenter"",""1"",""8688""
","""event"",""trial"",""time""
""blur"",""1"",""5988""
","""event"",""trial"",""time""
""focus"",""1"",""7785""
","""event"",""trial"",""time""
""fullscreenenter"",""1"",""8688""
","
","","","","","","null","<div style=""font-size:60px;"">+</div>","null","","fixation","","","","","","","","","","",""
"aa-learning-trial","167","601839","0.0-9.0-2.0-1.47","3898","2","22","Male","approach_avoid_spark_v1","""event"",""trial"",""time""
""blur"",""1"",""5988""
""focus"",""1"",""7785""
""fullscreenenter"",""1"",""8688""
","""event"",""trial"",""time""
""blur"",""1"",""5988""
","""event"",""trial"",""time""
""focus"",""1"",""7785""
","""event"",""trial"",""time""
""fullscreenenter"",""1"",""8688""
","
","","","","","","675.0999999046326","images/boat3.png","","","learning","-4","0","0","0","boat","vehicles","2","0","","good","[4]"
"html-keyboard-response","168","602343","0.0-9.0-2.0-0.48","3898","2","22","Male","approach_avoid_spark_v1","""event"",""trial"",""time""
""blur"",""1"",""5988""
""focus"",""1"",""7785""
""fullscreenenter"",""1"",""8688""
","""event"",""trial"",""time""
""blur"",""1"",""5988""
","""event"",""trial"",""time""
""focus"",""1"",""7785""
","""event"",""trial"",""time""
""fullscreenenter"",""1"",""8688""
","
","","","","","","null","<div style=""font-size:60px;"">+</div>","null","","fixation","","","","","","","","","","",""
"aa-learning-trial","169","605351","0.0-9.0-2.0-1.48","3898","2","22","Male","approach_avoid_spark_v1","""event"",""trial"",""time""
""blur"",""1"",""5988""
""focus"",""1"",""7785""
""fullscreenenter"",""1"",""8688""
","""event"",""trial"",""time""
""blur"",""1"",""5988""
","""event"",""trial"",""time""
""focus"",""1"",""7785""
","""event"",""trial"",""time""
""fullscreenenter"",""1"",""8688""
","
","","","","","","1375.3999998569489","images/plane1.png","","","learning","5","0","0","0","plane","vehicles","2","0","","neutral","0"
"html-keyboard-response","170","605855","0.0-9.0-2.0-0.49","3898","2","22","Male","approach_avoid_spark_v1","""event"",""trial"",""time""
""blur"",""1"",""5988""
""focus"",""1"",""7785""
""fullscreenenter"",""1"",""8688""
","""event"",""trial"",""time""
""blur"",""1"",""5988""
","""event"",""trial"",""time""
""focus"",""1"",""7785""
","""event"",""trial"",""time""
""fullscreenenter"",""1"",""8688""
","
","","","","","","null","<div style=""font-size:60px;"">+</div>","null","","fixation","","","","","","","","","","",""
"aa-learning-trial","171","608863","0.0-9.0-2.0-1.49","3898","2","22","Male","approach_avoid_spark_v1","""event"",""trial"",""time""
""blur"",""1"",""5988""
""focus"",""1"",""7785""
""fullscreenenter"",""1"",""8688""
","""event"",""trial"",""time""
""blur"",""1"",""5988""
","""event"",""trial"",""time""
""focus"",""1"",""7785""
","""event"",""trial"",""time""
""fullscreenenter"",""1"",""8688""
","
","","","","","","1051","images/train7.png","","","learning","3","3","1","1","train","vehicles","2","0","","bad","[-5]"
