"trial_type","trial_index","time_elapsed","internal_node_id","subject_id","task_condition","age","gender","task_version","interactions","blur_events","focus_events","fullscreenenter_events","fullscreenexit_events","success","timeout","failed_images","failed_audio","failed_video","rt","stimulus","response","button_pressed","task_part","approach_reward","points","key_press","option_selected","stim_cat","task_block","block_condition","block_number","correct","cat_type","mean_cat_reward"
"pavlovia","0","3","0.0-0.0","4084","2","24","Female","approach_avoid_spark_v1","""event"",""trial"",""time""
""fullscreenenter"",""1"",""1739""
","
","
","""event"",""trial"",""time""
""fullscreenenter"",""1"",""1739""
","
","","","","","","","","","","","","","","","","","","","","",""
"fullscreen","1","2731","0.0-1.0","4084","2","24","Female","approach_avoid_spark_v1","""event"",""trial"",""time""
""fullscreenenter"",""1"",""1739""
","
","
","""event"",""trial"",""time""
""fullscreenenter"",""1"",""1739""
","
","true","","","","","","","","","","","","","","","","","","","",""
"preload","2","36369","0.0-2.0","4084","2","24","Female","approach_avoid_spark_v1","""event"",""trial"",""time""
""fullscreenenter"",""1"",""1739""
""blur"",""3"",""40350""
""focus"",""3"",""43376""
","""event"",""trial"",""time""
""blur"",""3"",""40350""
","""event"",""trial"",""time""
""focus"",""3"",""43376""
","""event"",""trial"",""time""
""fullscreenenter"",""1"",""1739""
","
","true","false","[]","[]","[]","","","","","","","","","","","","","","","",""
"audio-keyboard-response","3","44482","0.0-3.0","4084","2","24","Female","approach_avoid_spark_v1","""event"",""trial"",""time""
""fullscreenenter"",""1"",""1739""
""blur"",""3"",""40350""
""focus"",""3"",""43376""
","""event"",""trial"",""time""
""blur"",""3"",""40350""
","""event"",""trial"",""time""
""focus"",""3"",""43376""
","""event"",""trial"",""time""
""fullscreenenter"",""1"",""1739""
","
","","","","","","8119.999999999997","audio/beep_loop.wav"," ","","","","","","","","","","","","",""
"audio-button-response","4","46435","0.0-4.0","4084","2","24","Female","approach_avoid_spark_v1","""event"",""trial"",""time""
""fullscreenenter"",""1"",""1739""
""blur"",""3"",""40350""
""focus"",""3"",""43376""
","""event"",""trial"",""time""
""blur"",""3"",""40350""
","""event"",""trial"",""time""
""focus"",""3"",""43376""
","""event"",""trial"",""time""
""fullscreenenter"",""1"",""1739""
","
","","","","","","1949","audio/shark.wav","4","","","","","","","","","","","","",""
"audio-button-response","5","48385","0.0-5.0","4084","2","24","Female","approach_avoid_spark_v1","""event"",""trial"",""time""
""fullscreenenter"",""1"",""1739""
""blur"",""3"",""40350""
""focus"",""3"",""43376""
","""event"",""trial"",""time""
""blur"",""3"",""40350""
","""event"",""trial"",""time""
""focus"",""3"",""43376""
","""event"",""trial"",""time""
""fullscreenenter"",""1"",""1739""
","
","","","","","","941","audio/turtle.wav","1","","","","","","","","","","","","",""
"preload","6","62473","0.0-6.0","4084","2","24","Female","approach_avoid_spark_v1","""event"",""trial"",""time""
""fullscreenenter"",""1"",""1739""
""blur"",""3"",""40350""
""focus"",""3"",""43376""
","""event"",""trial"",""time""
""blur"",""3"",""40350""
","""event"",""trial"",""time""
""focus"",""3"",""43376""
","""event"",""trial"",""time""
""fullscreenenter"",""1"",""1739""
","
","true","false","[]","[]","[]","","","","","","","","","","","","","","","",""
"html-keyboard-response","7","65040","0.0-7.0","4084","2","24","Female","approach_avoid_spark_v1","""event"",""trial"",""time""
""fullscreenenter"",""1"",""1739""
""blur"",""3"",""40350""
""focus"",""3"",""43376""
","""event"",""trial"",""time""
""blur"",""3"",""40350""
","""event"",""trial"",""time""
""focus"",""3"",""43376""
","""event"",""trial"",""time""
""fullscreenenter"",""1"",""1739""
","
","","","","","","2565.7000000476837","Welcome to the experiment. Press any key to begin and to advance the instructions."," ","","","","","","","","","","","","",""
"learning-instructions","8","73015","0.0-8.0-0.0-0.0","4084","2","24","Female","approach_avoid_spark_v1","""event"",""trial"",""time""
""fullscreenenter"",""1"",""1739""
""blur"",""3"",""40350""
""focus"",""3"",""43376""
","""event"",""trial"",""time""
""blur"",""3"",""40350""
","""event"",""trial"",""time""
""focus"",""3"",""43376""
","""event"",""trial"",""time""
""fullscreenenter"",""1"",""1739""
","
","","","","","","1016.2000000476837","<p> Welcome! Today you are going to play 6 different rounds of a decision-making game. </p><p> Use the mouse to click next to continue. </p>","","0","instructions","","","","","","","","","","",""
"learning-instructions","9","76825","0.0-8.0-0.0-0.1","4084","2","24","Female","approach_avoid_spark_v1","""event"",""trial"",""time""
""fullscreenenter"",""1"",""1739""
""blur"",""3"",""40350""
""focus"",""3"",""43376""
","""event"",""trial"",""time""
""blur"",""3"",""40350""
","""event"",""trial"",""time""
""focus"",""3"",""43376""
","""event"",""trial"",""time""
""fullscreenenter"",""1"",""1739""
","
","","","","","","1066.5999999046326","<p> You will start with a practice round to learn the rules. </p>","","0","instructions","","","","","","","","","","",""
"learning-instructions","10","80741","0.0-8.0-0.0-0.2","4084","2","24","Female","approach_avoid_spark_v1","""event"",""trial"",""time""
""fullscreenenter"",""1"",""1739""
""blur"",""3"",""40350""
""focus"",""3"",""43376""
","""event"",""trial"",""time""
""blur"",""3"",""40350""
","""event"",""trial"",""time""
""focus"",""3"",""43376""
","""event"",""trial"",""time""
""fullscreenenter"",""1"",""1739""
","
","","","","","","463.2000000476837","<p> Your goal in this round is to give out sports equipment to kids. </p></div>","","0","instructions","","","","","","","","","","",""
"learning-instructions","11","91007","0.0-8.0-0.0-0.3","4084","2","24","Female","approach_avoid_spark_v1","""event"",""trial"",""time""
""fullscreenenter"",""1"",""1739""
""blur"",""3"",""40350""
""focus"",""3"",""43376""
","""event"",""trial"",""time""
""blur"",""3"",""40350""
","""event"",""trial"",""time""
""focus"",""3"",""43376""
","""event"",""trial"",""time""
""fullscreenenter"",""1"",""1739""
","
","","","","","","2718.600000023842","<p> The kids only like some of the equipment.  </p><p> On each turn, you will see a piece of sports equipment.   </p><p> You need to decide whether to give it to the kids or not.  </p>","","0","instructions","","","","","","","","","","",""
"learning-instructions","12","97805","0.0-8.0-0.0-0.4","4084","2","24","Female","approach_avoid_spark_v1","""event"",""trial"",""time""
""fullscreenenter"",""1"",""1739""
""blur"",""3"",""40350""
""focus"",""3"",""43376""
","""event"",""trial"",""time""
""blur"",""3"",""40350""
","""event"",""trial"",""time""
""focus"",""3"",""43376""
","""event"",""trial"",""time""
""fullscreenenter"",""1"",""1739""
","
","","","","","","2037.1000000238419","<p> You can give them the equipment by pressing 1 and choose not to give it to them by pressing 0. </p><br><div class=""choice-instructions-grid""> <div class=""choice-option""><img src=""images/approach.png"" class=""choice-option-img"" stage=""instructions"" position=""0"" ><div class=""choice-option-text""> Press ""1."" </div></div><div class=""choice-option""><img src=""images/avoid.png"" class=""choice-option-img"" stage=""instructions"" position=""1"" ><div class=""choice-option-text""> Press ""0."" </div></div>","","0","instructions","","","","","","","","","","",""
"learning-instructions","13","105932","0.0-8.0-0.0-0.5","4084","2","24","Female","approach_avoid_spark_v1","""event"",""trial"",""time""
""fullscreenenter"",""1"",""1739""
""blur"",""3"",""40350""
""focus"",""3"",""43376""
","""event"",""trial"",""time""
""blur"",""3"",""40350""
","""event"",""trial"",""time""
""focus"",""3"",""43376""
","""event"",""trial"",""time""
""fullscreenenter"",""1"",""1739""
","
","","","","","","753.3999999761581","<p> If you give them a piece of equipment they like, they will be happy! </p><p> But if you give them a piece of equipment they do not like, they will be sad. </p>","","0","instructions","","","","","","","","","","",""
"learning-instructions","14","117241","0.0-8.0-0.0-0.6","4084","2","24","Female","approach_avoid_spark_v1","""event"",""trial"",""time""
""fullscreenenter"",""1"",""1739""
""blur"",""3"",""40350""
""focus"",""3"",""43376""
","""event"",""trial"",""time""
""blur"",""3"",""40350""
","""event"",""trial"",""time""
""focus"",""3"",""43376""
","""event"",""trial"",""time""
""fullscreenenter"",""1"",""1739""
","
","","","","","","802.6000000238419","<p> You will earn points based on how you make kids feel. </p><p> If you make them happy, you will WIN anywhere from 1 - 9 points, </p><p> but if you make them sad, you will LOSE anywhere from 1 - 9 points. </p>","","0","instructions","","","","","","","","","","",""
"learning-instructions","15","127538","0.0-8.0-0.0-0.7","4084","2","24","Female","approach_avoid_spark_v1","""event"",""trial"",""time""
""fullscreenenter"",""1"",""1739""
""blur"",""3"",""40350""
""focus"",""3"",""43376""
""blur"",""16"",""134213""
""focus"",""16"",""137014""
","""event"",""trial"",""time""
""blur"",""3"",""40350""
""blur"",""16"",""134213""
","""event"",""trial"",""time""
""focus"",""3"",""43376""
""focus"",""16"",""137014""
","""event"",""trial"",""time""
""fullscreenenter"",""1"",""1739""
","
","","","","","","738.6999999284744","<p> You will see how many points you won or lost in the center of the screen. </p><p> Here is what you would see if you won 6 points: </p><p style=""color:green;font-size:50px;font-weight:bolder"">6</p><p style=""color:green"">The text is GREEN because you WON points.</p>","","0","instructions","","","","","","","","","","",""
"learning-instructions","16","139901","0.0-8.0-0.0-0.8","4084","2","24","Female","approach_avoid_spark_v1","""event"",""trial"",""time""
""fullscreenenter"",""1"",""1739""
""blur"",""3"",""40350""
""focus"",""3"",""43376""
""blur"",""16"",""134213""
""focus"",""16"",""137014""
","""event"",""trial"",""time""
""blur"",""3"",""40350""
""blur"",""16"",""134213""
","""event"",""trial"",""time""
""focus"",""3"",""43376""
""focus"",""16"",""137014""
","""event"",""trial"",""time""
""fullscreenenter"",""1"",""1739""
","
","","","","","","6862","<p> And here is what you would see if you lost 4 points: </p><p style=""color:red;font-size:50px;font-weight:bolder"">-4</p><p style=""color:red"">The text is RED because you LOST points. </p>","","0","instructions","","","","","","","","","","",""
"learning-instructions","17","155555","0.0-8.0-0.0-0.9","4084","2","24","Female","approach_avoid_spark_v1","""event"",""trial"",""time""
""fullscreenenter"",""1"",""1739""
""blur"",""3"",""40350""
""focus"",""3"",""43376""
""blur"",""16"",""134213""
""focus"",""16"",""137014""
","""event"",""trial"",""time""
""blur"",""3"",""40350""
""blur"",""16"",""134213""
","""event"",""trial"",""time""
""focus"",""3"",""43376""
""focus"",""16"",""137014""
","""event"",""trial"",""time""
""fullscreenenter"",""1"",""1739""
","
","","","","","","946.2000000476837","<p> Some of the equipment will make the kids VERY happy or sad. </p><p> These pieces of equipment will make you win or lose LOTS of points. </p><p> Other pieces of equipment will only make the kids a little happy or sad. </p><p> These pieces of equipment will make you win or lose small amounts of points. </p>","","0","instructions","","","","","","","","","","",""
"learning-instructions","18","167557","0.0-8.0-0.0-0.10","4084","2","24","Female","approach_avoid_spark_v1","""event"",""trial"",""time""
""fullscreenenter"",""1"",""1739""
""blur"",""3"",""40350""
""focus"",""3"",""43376""
""blur"",""16"",""134213""
""focus"",""16"",""137014""
","""event"",""trial"",""time""
""blur"",""3"",""40350""
""blur"",""16"",""134213""
","""event"",""trial"",""time""
""focus"",""3"",""43376""
""focus"",""16"",""137014""
","""event"",""trial"",""time""
""fullscreenenter"",""1"",""1739""
","
","","","","","","1378.5","<p> If you choose not to give them the equipment, you will not win or lose any points. </p><p>  However, in the center of the screen, you will see the number of points you WOULD HAVE won or lost if you had given them the equipment. </p>","","0","instructions","","","","","","","","","","",""
"learning-instructions","19","210944","0.0-8.0-0.0-0.11","4084","2","24","Female","approach_avoid_spark_v1","""event"",""trial"",""time""
""fullscreenenter"",""1"",""1739""
""blur"",""3"",""40350""
""focus"",""3"",""43376""
""blur"",""16"",""134213""
""focus"",""16"",""137014""
","""event"",""trial"",""time""
""blur"",""3"",""40350""
""blur"",""16"",""134213""
","""event"",""trial"",""time""
""focus"",""3"",""43376""
""focus"",""16"",""137014""
","""event"",""trial"",""time""
""fullscreenenter"",""1"",""1739""
","
","","","","","","21854.700000047684","<p> Here is what you might see if you did not give the equipment to the kids but it would have made them happy: </p><p style=""color:grey; font-size:50px; display: inline-block; border-spacing: 15px; border-width:3px; border-style:solid; border-color:red"">  &nbsp; 7 &nbsp; </p><p> Remember, in this case, you would not win or lose ANY points because you did not give them the equipment.  </p><p style=""color:grey"">The text is GREY because you earned ZERO points. </p><p style=""color:red"">However, choosing to give the kids the equipment would have made you win points. The box around the text is RED because you chose the worse option. </p>","","0","instructions","","","","","","","","","","",""
"learning-instructions","20","232951","0.0-8.0-0.0-0.12","4084","2","24","Female","approach_avoid_spark_v1","""event"",""trial"",""time""
""fullscreenenter"",""1"",""1739""
""blur"",""3"",""40350""
""focus"",""3"",""43376""
""blur"",""16"",""134213""
""focus"",""16"",""137014""
","""event"",""trial"",""time""
""blur"",""3"",""40350""
""blur"",""16"",""134213""
","""event"",""trial"",""time""
""focus"",""3"",""43376""
""focus"",""16"",""137014""
","""event"",""trial"",""time""
""fullscreenenter"",""1"",""1739""
","
","","","","","","932.5","<p> Here is what you might see if you did not give the equipment to the kids but it would have made them sad: </p><p style=""color:grey;font-size:50px; display: inline-block; border-spacing: 15px; border-width:3px; border-style:solid; border-color:green"">  &nbsp; -8 &nbsp; </p><p> Remember, in this case, you would not win or lose ANY points because you did not give them the equipment.  </p><p style=""color:grey"">The text is GREY because you earned ZERO points. </p><p  style=""color:green""> Choosing to give the kids the equipment would have made you lose points. The box around the text is GREEN because you chose the better option.</p>","","0","instructions","","","","","","","","","","",""
"learning-instructions","21","247672","0.0-8.0-0.0-0.13","4084","2","24","Female","approach_avoid_spark_v1","""event"",""trial"",""time""
""fullscreenenter"",""1"",""1739""
""blur"",""3"",""40350""
""focus"",""3"",""43376""
""blur"",""16"",""134213""
""focus"",""16"",""137014""
","""event"",""trial"",""time""
""blur"",""3"",""40350""
""blur"",""16"",""134213""
","""event"",""trial"",""time""
""focus"",""3"",""43376""
""focus"",""16"",""137014""
","""event"",""trial"",""time""
""fullscreenenter"",""1"",""1739""
","
","","","","","","3383.4000000953674","<p> You will have 3 seconds to make each choice. Try to respond before time runs out! </p><p> You will lose 5 points each time you do not make a response. </p>","","0","instructions","","","","","","","","","","",""
"learning-instructions","22","254491","0.0-8.0-0.0-0.14","4084","2","24","Female","approach_avoid_spark_v1","""event"",""trial"",""time""
""fullscreenenter"",""1"",""1739""
""blur"",""3"",""40350""
""focus"",""3"",""43376""
""blur"",""16"",""134213""
""focus"",""16"",""137014""
","""event"",""trial"",""time""
""blur"",""3"",""40350""
""blur"",""16"",""134213""
","""event"",""trial"",""time""
""focus"",""3"",""43376""
""focus"",""16"",""137014""
","""event"",""trial"",""time""
""fullscreenenter"",""1"",""1739""
","
","","","","","","1402.3999999761581","<p> This is just a practice round, but in the real game, your bonus payment will depend on your total number of points.","","0","instructions","","","","","","","","","","",""
"learning-instructions","23","261233","0.0-8.0-0.0-0.15","4084","2","24","Female","approach_avoid_spark_v1","""event"",""trial"",""time""
""fullscreenenter"",""1"",""1739""
""blur"",""3"",""40350""
""focus"",""3"",""43376""
""blur"",""16"",""134213""
""focus"",""16"",""137014""
","""event"",""trial"",""time""
""blur"",""3"",""40350""
""blur"",""16"",""134213""
","""event"",""trial"",""time""
""focus"",""3"",""43376""
""focus"",""16"",""137014""
","""event"",""trial"",""time""
""fullscreenenter"",""1"",""1739""
","
","","","","","","984.8999999761581","<p> Remember, you can give them the equipment by pressing 1 and choose not to give it to them by pressing 0. </p><br><div class=""choice-instructions-grid""> <div class=""choice-option""><img src=""images/approach.png"" class=""choice-option-img"" stage=""instructions"" position=""0"" ><div class=""choice-option-text""> Press ""1."" </div></div><div class=""choice-option""><img src=""images/avoid.png"" class=""choice-option-img"" stage=""instructions"" position=""1"" ><div class=""choice-option-text""> Press ""0."" </div></div>","","0","instructions","","","","","","","","","","",""
"html-button-response","24","263164","0.0-8.0-1.0","4084","2","24","Female","approach_avoid_spark_v1","""event"",""trial"",""time""
""fullscreenenter"",""1"",""1739""
""blur"",""3"",""40350""
""focus"",""3"",""43376""
""blur"",""16"",""134213""
""focus"",""16"",""137014""
","""event"",""trial"",""time""
""blur"",""3"",""40350""
""blur"",""16"",""134213""
","""event"",""trial"",""time""
""focus"",""3"",""43376""
""focus"",""16"",""137014""
","""event"",""trial"",""time""
""fullscreenenter"",""1"",""1739""
","
","","","","","","1810.7999999523163","<p> Ready to practice? </p>","0","","","","","","","","","","","","",""
"html-keyboard-response","25","263770","0.0-8.0-2.0-0.0","4084","2","24","Female","approach_avoid_spark_v1","""event"",""trial"",""time""
""fullscreenenter"",""1"",""1739""
""blur"",""3"",""40350""
""focus"",""3"",""43376""
""blur"",""16"",""134213""
""focus"",""16"",""137014""
","""event"",""trial"",""time""
""blur"",""3"",""40350""
""blur"",""16"",""134213""
","""event"",""trial"",""time""
""focus"",""3"",""43376""
""focus"",""16"",""137014""
","""event"",""trial"",""time""
""fullscreenenter"",""1"",""1739""
","
","","","","","","null","<div style=""font-size:60px;"">+</div>","null","","fixation","","","","","","","","","","",""
"aa-learning-trial","26","266786","0.0-8.0-2.0-1.0","4084","2","24","Female","approach_avoid_spark_v1","""event"",""trial"",""time""
""fullscreenenter"",""1"",""1739""
""blur"",""3"",""40350""
""focus"",""3"",""43376""
""blur"",""16"",""134213""
""focus"",""16"",""137014""
","""event"",""trial"",""time""
""blur"",""3"",""40350""
""blur"",""16"",""134213""
","""event"",""trial"",""time""
""focus"",""3"",""43376""
""focus"",""16"",""137014""
","""event"",""trial"",""time""
""fullscreenenter"",""1"",""1739""
","
","","","","","","2402.4000000953674","images/racket3.png","","","learning","4","4","1","1","practice","practice","practice","-1","","",""
"html-keyboard-response","27","267294","0.0-8.0-2.0-0.1","4084","2","24","Female","approach_avoid_spark_v1","""event"",""trial"",""time""
""fullscreenenter"",""1"",""1739""
""blur"",""3"",""40350""
""focus"",""3"",""43376""
""blur"",""16"",""134213""
""focus"",""16"",""137014""
","""event"",""trial"",""time""
""blur"",""3"",""40350""
""blur"",""16"",""134213""
","""event"",""trial"",""time""
""focus"",""3"",""43376""
""focus"",""16"",""137014""
","""event"",""trial"",""time""
""fullscreenenter"",""1"",""1739""
","
","","","","","","null","<div style=""font-size:60px;"">+</div>","null","","fixation","","","","","","","","","","",""
"aa-learning-trial","28","270306","0.0-8.0-2.0-1.1","4084","2","24","Female","approach_avoid_spark_v1","""event"",""trial"",""time""
""fullscreenenter"",""1"",""1739""
""blur"",""3"",""40350""
""focus"",""3"",""43376""
""blur"",""16"",""134213""
""focus"",""16"",""137014""
","""event"",""trial"",""time""
""blur"",""3"",""40350""
""blur"",""16"",""134213""
","""event"",""trial"",""time""
""focus"",""3"",""43376""
""focus"",""16"",""137014""
","""event"",""trial"",""time""
""fullscreenenter"",""1"",""1739""
","
","","","","","","1540.2000000476837","images/racket3.png","","","learning","5","5","1","1","practice","practice","practice","-1","","",""
"html-keyboard-response","29","270814","0.0-8.0-2.0-0.2","4084","2","24","Female","approach_avoid_spark_v1","""event"",""trial"",""time""
""fullscreenenter"",""1"",""1739""
""blur"",""3"",""40350""
""focus"",""3"",""43376""
""blur"",""16"",""134213""
""focus"",""16"",""137014""
","""event"",""trial"",""time""
""blur"",""3"",""40350""
""blur"",""16"",""134213""
","""event"",""trial"",""time""
""focus"",""3"",""43376""
""focus"",""16"",""137014""
","""event"",""trial"",""time""
""fullscreenenter"",""1"",""1739""
","
","","","","","","null","<div style=""font-size:60px;"">+</div>","null","","fixation","","","","","","","","","","",""
"aa-learning-trial","30","273831","0.0-8.0-2.0-1.2","4084","2","24","Female","approach_avoid_spark_v1","""event"",""trial"",""time""
""fullscreenenter"",""1"",""1739""
""blur"",""3"",""40350""
""focus"",""3"",""43376""
""blur"",""16"",""134213""
""focus"",""16"",""137014""
","""event"",""trial"",""time""
""blur"",""3"",""40350""
""blur"",""16"",""134213""
","""event"",""trial"",""time""
""focus"",""3"",""43376""
""focus"",""16"",""137014""
","""event"",""trial"",""time""
""fullscreenenter"",""1"",""1739""
","
","","","","","","981.8000000715256","images/racket1.png","","","learning","-8","0","0","0","practice","practice","practice","-1","","",""
"html-keyboard-response","31","274341","0.0-8.0-2.0-0.3","4084","2","24","Female","approach_avoid_spark_v1","""event"",""trial"",""time""
""fullscreenenter"",""1"",""1739""
""blur"",""3"",""40350""
""focus"",""3"",""43376""
""blur"",""16"",""134213""
""focus"",""16"",""137014""
","""event"",""trial"",""time""
""blur"",""3"",""40350""
""blur"",""16"",""134213""
","""event"",""trial"",""time""
""focus"",""3"",""43376""
""focus"",""16"",""137014""
","""event"",""trial"",""time""
""fullscreenenter"",""1"",""1739""
","
","","","","","","null","<div style=""font-size:60px;"">+</div>","null","","fixation","","","","","","","","","","",""
"aa-learning-trial","32","277345","0.0-8.0-2.0-1.3","4084","2","24","Female","approach_avoid_spark_v1","""event"",""trial"",""time""
""fullscreenenter"",""1"",""1739""
""blur"",""3"",""40350""
""focus"",""3"",""43376""
""blur"",""16"",""134213""
""focus"",""16"",""137014""
","""event"",""trial"",""time""
""blur"",""3"",""40350""
""blur"",""16"",""134213""
","""event"",""trial"",""time""
""focus"",""3"",""43376""
""focus"",""16"",""137014""
","""event"",""trial"",""time""
""fullscreenenter"",""1"",""1739""
","
","","","","","","2534.399999976158","images/ball1.png","","","learning","8","0","0","0","practice","practice","practice","-1","","",""
"html-keyboard-response","33","277851","0.0-8.0-2.0-0.4","4084","2","24","Female","approach_avoid_spark_v1","""event"",""trial"",""time""
""fullscreenenter"",""1"",""1739""
""blur"",""3"",""40350""
""focus"",""3"",""43376""
""blur"",""16"",""134213""
""focus"",""16"",""137014""
","""event"",""trial"",""time""
""blur"",""3"",""40350""
""blur"",""16"",""134213""
","""event"",""trial"",""time""
""focus"",""3"",""43376""
""focus"",""16"",""137014""
","""event"",""trial"",""time""
""fullscreenenter"",""1"",""1739""
","
","","","","","","null","<div style=""font-size:60px;"">+</div>","null","","fixation","","","","","","","","","","",""
"aa-learning-trial","34","280860","0.0-8.0-2.0-1.4","4084","2","24","Female","approach_avoid_spark_v1","""event"",""trial"",""time""
""fullscreenenter"",""1"",""1739""
""blur"",""3"",""40350""
""focus"",""3"",""43376""
""blur"",""16"",""134213""
""focus"",""16"",""137014""
","""event"",""trial"",""time""
""blur"",""3"",""40350""
""blur"",""16"",""134213""
","""event"",""trial"",""time""
""focus"",""3"",""43376""
""focus"",""16"",""137014""
","""event"",""trial"",""time""
""fullscreenenter"",""1"",""1739""
","
","","","","","","1657.5","images/ball4.png","","","learning","-4","0","0","0","practice","practice","practice","-1","","",""
"html-keyboard-response","35","281368","0.0-8.0-2.0-0.5","4084","2","24","Female","approach_avoid_spark_v1","""event"",""trial"",""time""
""fullscreenenter"",""1"",""1739""
""blur"",""3"",""40350""
""focus"",""3"",""43376""
""blur"",""16"",""134213""
""focus"",""16"",""137014""
","""event"",""trial"",""time""
""blur"",""3"",""40350""
""blur"",""16"",""134213""
","""event"",""trial"",""time""
""focus"",""3"",""43376""
""focus"",""16"",""137014""
","""event"",""trial"",""time""
""fullscreenenter"",""1"",""1739""
","
","","","","","","null","<div style=""font-size:60px;"">+</div>","null","","fixation","","","","","","","","","","",""
"aa-learning-trial","36","284373","0.0-8.0-2.0-1.5","4084","2","24","Female","approach_avoid_spark_v1","""event"",""trial"",""time""
""fullscreenenter"",""1"",""1739""
""blur"",""3"",""40350""
""focus"",""3"",""43376""
""blur"",""16"",""134213""
""focus"",""16"",""137014""
","""event"",""trial"",""time""
""blur"",""3"",""40350""
""blur"",""16"",""134213""
","""event"",""trial"",""time""
""focus"",""3"",""43376""
""focus"",""16"",""137014""
","""event"",""trial"",""time""
""fullscreenenter"",""1"",""1739""
","
","","","","","","1265.5","images/ball4.png","","","learning","-9","0","0","0","practice","practice","practice","-1","","",""
"html-keyboard-response","37","284885","0.0-8.0-2.0-0.6","4084","2","24","Female","approach_avoid_spark_v1","""event"",""trial"",""time""
""fullscreenenter"",""1"",""1739""
""blur"",""3"",""40350""
""focus"",""3"",""43376""
""blur"",""16"",""134213""
""focus"",""16"",""137014""
","""event"",""trial"",""time""
""blur"",""3"",""40350""
""blur"",""16"",""134213""
","""event"",""trial"",""time""
""focus"",""3"",""43376""
""focus"",""16"",""137014""
","""event"",""trial"",""time""
""fullscreenenter"",""1"",""1739""
","
","","","","","","null","<div style=""font-size:60px;"">+</div>","null","","fixation","","","","","","","","","","",""
"aa-learning-trial","38","287897","0.0-8.0-2.0-1.6","4084","2","24","Female","approach_avoid_spark_v1","""event"",""trial"",""time""
""fullscreenenter"",""1"",""1739""
""blur"",""3"",""40350""
""focus"",""3"",""43376""
""blur"",""16"",""134213""
""focus"",""16"",""137014""
","""event"",""trial"",""time""
""blur"",""3"",""40350""
""blur"",""16"",""134213""
","""event"",""trial"",""time""
""focus"",""3"",""43376""
""focus"",""16"",""137014""
","""event"",""trial"",""time""
""fullscreenenter"",""1"",""1739""
","
","","","","","","1576.9000000953674","images/racket2.png","","","learning","9","9","1","1","practice","practice","practice","-1","","",""
"html-keyboard-response","39","288406","0.0-8.0-2.0-0.7","4084","2","24","Female","approach_avoid_spark_v1","""event"",""trial"",""time""
""fullscreenenter"",""1"",""1739""
""blur"",""3"",""40350""
""focus"",""3"",""43376""
""blur"",""16"",""134213""
""focus"",""16"",""137014""
","""event"",""trial"",""time""
""blur"",""3"",""40350""
""blur"",""16"",""134213""
","""event"",""trial"",""time""
""focus"",""3"",""43376""
""focus"",""16"",""137014""
","""event"",""trial"",""time""
""fullscreenenter"",""1"",""1739""
","
","","","","","","null","<div style=""font-size:60px;"">+</div>","null","","fixation","","","","","","","","","","",""
"aa-learning-trial","40","291411","0.0-8.0-2.0-1.7","4084","2","24","Female","approach_avoid_spark_v1","""event"",""trial"",""time""
""fullscreenenter"",""1"",""1739""
""blur"",""3"",""40350""
""focus"",""3"",""43376""
""blur"",""16"",""134213""
""focus"",""16"",""137014""
","""event"",""trial"",""time""
""blur"",""3"",""40350""
""blur"",""16"",""134213""
","""event"",""trial"",""time""
""focus"",""3"",""43376""
""focus"",""16"",""137014""
","""event"",""trial"",""time""
""fullscreenenter"",""1"",""1739""
","
","","","","","","807.2000000476837","images/racket2.png","","","learning","-8","-8","1","1","practice","practice","practice","-1","","",""
"html-keyboard-response","41","291915","0.0-8.0-2.0-0.8","4084","2","24","Female","approach_avoid_spark_v1","""event"",""trial"",""time""
""fullscreenenter"",""1"",""1739""
""blur"",""3"",""40350""
""focus"",""3"",""43376""
""blur"",""16"",""134213""
""focus"",""16"",""137014""
","""event"",""trial"",""time""
""blur"",""3"",""40350""
""blur"",""16"",""134213""
","""event"",""trial"",""time""
""focus"",""3"",""43376""
""focus"",""16"",""137014""
","""event"",""trial"",""time""
""fullscreenenter"",""1"",""1739""
","
","","","","","","null","<div style=""font-size:60px;"">+</div>","null","","fixation","","","","","","","","","","",""
"aa-learning-trial","42","294923","0.0-8.0-2.0-1.8","4084","2","24","Female","approach_avoid_spark_v1","""event"",""trial"",""time""
""fullscreenenter"",""1"",""1739""
""blur"",""3"",""40350""
""focus"",""3"",""43376""
""blur"",""16"",""134213""
""focus"",""16"",""137014""
","""event"",""trial"",""time""
""blur"",""3"",""40350""
""blur"",""16"",""134213""
","""event"",""trial"",""time""
""focus"",""3"",""43376""
""focus"",""16"",""137014""
","""event"",""trial"",""time""
""fullscreenenter"",""1"",""1739""
","
","","","","","","1390.3999999761581","images/racket1.png","","","learning","-9","-9","1","1","practice","practice","practice","-1","","",""
"html-keyboard-response","43","295426","0.0-8.0-2.0-0.9","4084","2","24","Female","approach_avoid_spark_v1","""event"",""trial"",""time""
""fullscreenenter"",""1"",""1739""
""blur"",""3"",""40350""
""focus"",""3"",""43376""
""blur"",""16"",""134213""
""focus"",""16"",""137014""
","""event"",""trial"",""time""
""blur"",""3"",""40350""
""blur"",""16"",""134213""
","""event"",""trial"",""time""
""focus"",""3"",""43376""
""focus"",""16"",""137014""
","""event"",""trial"",""time""
""fullscreenenter"",""1"",""1739""
","
","","","","","","null","<div style=""font-size:60px;"">+</div>","null","","fixation","","","","","","","","","","",""
"aa-learning-trial","44","298434","0.0-8.0-2.0-1.9","4084","2","24","Female","approach_avoid_spark_v1","""event"",""trial"",""time""
""fullscreenenter"",""1"",""1739""
""blur"",""3"",""40350""
""focus"",""3"",""43376""
""blur"",""16"",""134213""
""focus"",""16"",""137014""
","""event"",""trial"",""time""
""blur"",""3"",""40350""
""blur"",""16"",""134213""
","""event"",""trial"",""time""
""focus"",""3"",""43376""
""focus"",""16"",""137014""
","""event"",""trial"",""time""
""fullscreenenter"",""1"",""1739""
","
","","","","","","1279.5","images/ball1.png","","","learning","-6","0","0","0","practice","practice","practice","-1","","",""
"html-keyboard-response","45","298938","0.0-8.0-2.0-0.10","4084","2","24","Female","approach_avoid_spark_v1","""event"",""trial"",""time""
""fullscreenenter"",""1"",""1739""
""blur"",""3"",""40350""
""focus"",""3"",""43376""
""blur"",""16"",""134213""
""focus"",""16"",""137014""
","""event"",""trial"",""time""
""blur"",""3"",""40350""
""blur"",""16"",""134213""
","""event"",""trial"",""time""
""focus"",""3"",""43376""
""focus"",""16"",""137014""
","""event"",""trial"",""time""
""fullscreenenter"",""1"",""1739""
","
","","","","","","null","<div style=""font-size:60px;"">+</div>","null","","fixation","","","","","","","","","","",""
"aa-learning-trial","46","301947","0.0-8.0-2.0-1.10","4084","2","24","Female","approach_avoid_spark_v1","""event"",""trial"",""time""
""fullscreenenter"",""1"",""1739""
""blur"",""3"",""40350""
""focus"",""3"",""43376""
""blur"",""16"",""134213""
""focus"",""16"",""137014""
","""event"",""trial"",""time""
""blur"",""3"",""40350""
""blur"",""16"",""134213""
","""event"",""trial"",""time""
""focus"",""3"",""43376""
""focus"",""16"",""137014""
","""event"",""trial"",""time""
""fullscreenenter"",""1"",""1739""
","
","","","","","","2081.899999976158","images/racket3.png","","","learning","2","0","0","0","practice","practice","practice","-1","","",""
"html-keyboard-response","47","302451","0.0-8.0-2.0-0.11","4084","2","24","Female","approach_avoid_spark_v1","""event"",""trial"",""time""
""fullscreenenter"",""1"",""1739""
""blur"",""3"",""40350""
""focus"",""3"",""43376""
""blur"",""16"",""134213""
""focus"",""16"",""137014""
","""event"",""trial"",""time""
""blur"",""3"",""40350""
""blur"",""16"",""134213""
","""event"",""trial"",""time""
""focus"",""3"",""43376""
""focus"",""16"",""137014""
","""event"",""trial"",""time""
""fullscreenenter"",""1"",""1739""
","
","","","","","","null","<div style=""font-size:60px;"">+</div>","null","","fixation","","","","","","","","","","",""
"aa-learning-trial","48","305458","0.0-8.0-2.0-1.11","4084","2","24","Female","approach_avoid_spark_v1","""event"",""trial"",""time""
""fullscreenenter"",""1"",""1739""
""blur"",""3"",""40350""
""focus"",""3"",""43376""
""blur"",""16"",""134213""
""focus"",""16"",""137014""
","""event"",""trial"",""time""
""blur"",""3"",""40350""
""blur"",""16"",""134213""
","""event"",""trial"",""time""
""focus"",""3"",""43376""
""focus"",""16"",""137014""
","""event"",""trial"",""time""
""fullscreenenter"",""1"",""1739""
","
","","","","","","null","images/ball1.png","","","learning","-9","-5","","null","practice","practice","practice","-1","","",""
"html-button-response","49","307417","0.0-8.0-3.0","4084","2","24","Female","approach_avoid_spark_v1","""event"",""trial"",""time""
""fullscreenenter"",""1"",""1739""
""blur"",""3"",""40350""
""focus"",""3"",""43376""
""blur"",""16"",""134213""
""focus"",""16"",""137014""
","""event"",""trial"",""time""
""blur"",""3"",""40350""
""blur"",""16"",""134213""
","""event"",""trial"",""time""
""focus"",""3"",""43376""
""focus"",""16"",""137014""
","""event"",""trial"",""time""
""fullscreenenter"",""1"",""1739""
","
","","","","","","1957.2000000476837","<p> You earned -4 points in the practice round! </p>","0","","break","","","","","","","","","","",""
"learning-instructions","50","315177","0.0-8.0-4.0-0.0","4084","2","24","Female","approach_avoid_spark_v1","""event"",""trial"",""time""
""fullscreenenter"",""1"",""1739""
""blur"",""3"",""40350""
""focus"",""3"",""43376""
""blur"",""16"",""134213""
""focus"",""16"",""137014""
","""event"",""trial"",""time""
""blur"",""3"",""40350""
""blur"",""16"",""134213""
","""event"",""trial"",""time""
""focus"",""3"",""43376""
""focus"",""16"",""137014""
","""event"",""trial"",""time""
""fullscreenenter"",""1"",""1739""
","
","","","","","","1382","<p> It's almost time to start the real game. </p><p> Before you start, we're going to ask you a few questions about how the game works. </p>","","0","instructions","","","","","","","","","","",""
"preload","51","317770","0.0-8.0-5.0","4084","2","24","Female","approach_avoid_spark_v1","""event"",""trial"",""time""
""fullscreenenter"",""1"",""1739""
""blur"",""3"",""40350""
""focus"",""3"",""43376""
""blur"",""16"",""134213""
""focus"",""16"",""137014""
","""event"",""trial"",""time""
""blur"",""3"",""40350""
""blur"",""16"",""134213""
","""event"",""trial"",""time""
""focus"",""3"",""43376""
""focus"",""16"",""137014""
","""event"",""trial"",""time""
""fullscreenenter"",""1"",""1739""
","
","true","false","[]","[]","[]","","","","","","","","","","","","","","","",""
"comp-q","52","324414","0.0-8.0-6.0-0.0","4084","2","24","Female","approach_avoid_spark_v1","""event"",""trial"",""time""
""fullscreenenter"",""1"",""1739""
""blur"",""3"",""40350""
""focus"",""3"",""43376""
""blur"",""16"",""134213""
""focus"",""16"",""137014""
","""event"",""trial"",""time""
""blur"",""3"",""40350""
""blur"",""16"",""134213""
","""event"",""trial"",""time""
""focus"",""3"",""43376""
""focus"",""16"",""137014""
","""event"",""trial"",""time""
""fullscreenenter"",""1"",""1739""
","
","","","","","","1649.2999999523163","<p> <b> True or False? </b> </p><p> If you see a number in GREY, that means you earned that many points. </p>","","1","comp_question","","","","","","","","","true","",""
"comp-q","53","340952","0.0-8.0-6.0-1.0","4084","2","24","Female","approach_avoid_spark_v1","""event"",""trial"",""time""
""fullscreenenter"",""1"",""1739""
""blur"",""3"",""40350""
""focus"",""3"",""43376""
""blur"",""16"",""134213""
""focus"",""16"",""137014""
","""event"",""trial"",""time""
""blur"",""3"",""40350""
""blur"",""16"",""134213""
","""event"",""trial"",""time""
""focus"",""3"",""43376""
""focus"",""16"",""137014""
","""event"",""trial"",""time""
""fullscreenenter"",""1"",""1739""
","
","","","","","","8176.600000023842","<p><b> That's right! </b> If you see a grey number, it means you earned ZERO points. <br> The grey numbers show the points you WOULD HAVE earned if you had made the other choice. </p>","","0","comp_answer","","","","","","","","","","",""
"comp-q","54","346410","0.0-8.0-7.0-0.0","4084","2","24","Female","approach_avoid_spark_v1","""event"",""trial"",""time""
""fullscreenenter"",""1"",""1739""
""blur"",""3"",""40350""
""focus"",""3"",""43376""
""blur"",""16"",""134213""
""focus"",""16"",""137014""
","""event"",""trial"",""time""
""blur"",""3"",""40350""
""blur"",""16"",""134213""
","""event"",""trial"",""time""
""focus"",""3"",""43376""
""focus"",""16"",""137014""
","""event"",""trial"",""time""
""fullscreenenter"",""1"",""1739""
","
","","","","","","765","<p> <b> True or False? </b> </p><p> You will have as much time as you want to make each choice. </p>","","1","comp_question","","","","","","","","","true","",""
"comp-q","55","351554","0.0-8.0-7.0-1.0","4084","2","24","Female","approach_avoid_spark_v1","""event"",""trial"",""time""
""fullscreenenter"",""1"",""1739""
""blur"",""3"",""40350""
""focus"",""3"",""43376""
""blur"",""16"",""134213""
""focus"",""16"",""137014""
","""event"",""trial"",""time""
""blur"",""3"",""40350""
""blur"",""16"",""134213""
","""event"",""trial"",""time""
""focus"",""3"",""43376""
""focus"",""16"",""137014""
","""event"",""trial"",""time""
""fullscreenenter"",""1"",""1739""
","
","","","","","","1098.8000000715256","<p> <b> That's right! </b> You will only have 3 seconds to make each choice. </p>","","0","comp_answer","","","","","","","","","","",""
"comp-q","56","357401","0.0-8.0-8.0-0.0","4084","2","24","Female","approach_avoid_spark_v1","""event"",""trial"",""time""
""fullscreenenter"",""1"",""1739""
""blur"",""3"",""40350""
""focus"",""3"",""43376""
""blur"",""16"",""134213""
""focus"",""16"",""137014""
""blur"",""57"",""361569""
""focus"",""57"",""375767""
","""event"",""trial"",""time""
""blur"",""3"",""40350""
""blur"",""16"",""134213""
""blur"",""57"",""361569""
","""event"",""trial"",""time""
""focus"",""3"",""43376""
""focus"",""16"",""137014""
""focus"",""57"",""375767""
","""event"",""trial"",""time""
""fullscreenenter"",""1"",""1739""
","
","","","","","","1185.8999999761581","<p> <b> True or False? </b> </p><p> You should use the '1' and '0' keys to make your choices. </p>","","0","comp_question","","","","","","","","","true","",""
"comp-q","57","375982","0.0-8.0-8.0-1.0","4084","2","24","Female","approach_avoid_spark_v1","""event"",""trial"",""time""
""fullscreenenter"",""1"",""1739""
""blur"",""3"",""40350""
""focus"",""3"",""43376""
""blur"",""16"",""134213""
""focus"",""16"",""137014""
""blur"",""57"",""361569""
""focus"",""57"",""375767""
","""event"",""trial"",""time""
""blur"",""3"",""40350""
""blur"",""16"",""134213""
""blur"",""57"",""361569""
","""event"",""trial"",""time""
""focus"",""3"",""43376""
""focus"",""16"",""137014""
""focus"",""57"",""375767""
","""event"",""trial"",""time""
""fullscreenenter"",""1"",""1739""
","
","","","","","","13966.200000047684","<p> <b> That's right! </b> You should use the '1' and '0' keys to make each choice. </p>","","0","comp_answer","","","","","","","","","","",""
"learning-instructions","58","383876","0.0-8.0-9.0-0.0","4084","2","24","Female","approach_avoid_spark_v1","""event"",""trial"",""time""
""fullscreenenter"",""1"",""1739""
""blur"",""3"",""40350""
""focus"",""3"",""43376""
""blur"",""16"",""134213""
""focus"",""16"",""137014""
""blur"",""57"",""361569""
""focus"",""57"",""375767""
","""event"",""trial"",""time""
""blur"",""3"",""40350""
""blur"",""16"",""134213""
""blur"",""57"",""361569""
","""event"",""trial"",""time""
""focus"",""3"",""43376""
""focus"",""16"",""137014""
""focus"",""57"",""375767""
","""event"",""trial"",""time""
""fullscreenenter"",""1"",""1739""
","
","","","","","","1630.7999999523163","<p> It's now time to start the real game. </p>Do your best, because the points you earn in the next rounds will influence your bonus payment. </p>","","0","instructions","","","","","","","","","","",""
"preload","59","383990","0.0-9.0-0.0","4084","2","24","Female","approach_avoid_spark_v1","""event"",""trial"",""time""
""fullscreenenter"",""1"",""1739""
""blur"",""3"",""40350""
""focus"",""3"",""43376""
""blur"",""16"",""134213""
""focus"",""16"",""137014""
""blur"",""57"",""361569""
""focus"",""57"",""375767""
","""event"",""trial"",""time""
""blur"",""3"",""40350""
""blur"",""16"",""134213""
""blur"",""57"",""361569""
","""event"",""trial"",""time""
""focus"",""3"",""43376""
""focus"",""16"",""137014""
""focus"",""57"",""375767""
","""event"",""trial"",""time""
""fullscreenenter"",""1"",""1739""
","
","true","false","[]","[]","[]","","","","","","","","","","","","","","","",""
"learning-instructions","60","391230","0.0-9.0-1.0-0.0","4084","2","24","Female","approach_avoid_spark_v1","""event"",""trial"",""time""
""fullscreenenter"",""1"",""1739""
""blur"",""3"",""40350""
""focus"",""3"",""43376""
""blur"",""16"",""134213""
""focus"",""16"",""137014""
""blur"",""57"",""361569""
""focus"",""57"",""375767""
","""event"",""trial"",""time""
""blur"",""3"",""40350""
""blur"",""16"",""134213""
""blur"",""57"",""361569""
","""event"",""trial"",""time""
""focus"",""3"",""43376""
""focus"",""16"",""137014""
""focus"",""57"",""375767""
","""event"",""trial"",""time""
""fullscreenenter"",""1"",""1739""
","
","","","","","","2954.8000000715256","<p> Your goal in this round is to take care of lots of farm animals. </p></div>","","0","instructions","","","","","","","","","","",""
"learning-instructions","61","403375","0.0-9.0-1.0-0.1","4084","2","24","Female","approach_avoid_spark_v1","""event"",""trial"",""time""
""fullscreenenter"",""1"",""1739""
""blur"",""3"",""40350""
""focus"",""3"",""43376""
""blur"",""16"",""134213""
""focus"",""16"",""137014""
""blur"",""57"",""361569""
""focus"",""57"",""375767""
","""event"",""trial"",""time""
""blur"",""3"",""40350""
""blur"",""16"",""134213""
""blur"",""57"",""361569""
","""event"",""trial"",""time""
""focus"",""3"",""43376""
""focus"",""16"",""137014""
""focus"",""57"",""375767""
","""event"",""trial"",""time""
""fullscreenenter"",""1"",""1739""
","
","","","","","","2199.7000000476837","<p> Some farm animals are hungry, while other farm animals are already full.  </p><p> On each turn, you will see a farm animal.   </p><p> You need to decide whether to feed it or not.  </p>","","0","instructions","","","","","","","","","","",""
"learning-instructions","62","410403","0.0-9.0-1.0-0.2","4084","2","24","Female","approach_avoid_spark_v1","""event"",""trial"",""time""
""fullscreenenter"",""1"",""1739""
""blur"",""3"",""40350""
""focus"",""3"",""43376""
""blur"",""16"",""134213""
""focus"",""16"",""137014""
""blur"",""57"",""361569""
""focus"",""57"",""375767""
","""event"",""trial"",""time""
""blur"",""3"",""40350""
""blur"",""16"",""134213""
""blur"",""57"",""361569""
","""event"",""trial"",""time""
""focus"",""3"",""43376""
""focus"",""16"",""137014""
""focus"",""57"",""375767""
","""event"",""trial"",""time""
""fullscreenenter"",""1"",""1739""
","
","","","","","","1087.6999999284744","<p> You can feed the farm animal by pressing 1 and leave the farm animal alone by pressing 0. </p><br><div class=""choice-instructions-grid""> <div class=""choice-option""><img src=""images/approach.png"" class=""choice-option-img"" stage=""instructions"" position=""0"" ><div class=""choice-option-text""> Press ""1."" </div></div><div class=""choice-option""><img src=""images/avoid.png"" class=""choice-option-img"" stage=""instructions"" position=""1"" ><div class=""choice-option-text""> Press ""0."" </div></div>","","0","instructions","","","","","","","","","","",""
"learning-instructions","63","421865","0.0-9.0-1.0-0.3","4084","2","24","Female","approach_avoid_spark_v1","""event"",""trial"",""time""
""fullscreenenter"",""1"",""1739""
""blur"",""3"",""40350""
""focus"",""3"",""43376""
""blur"",""16"",""134213""
""focus"",""16"",""137014""
""blur"",""57"",""361569""
""focus"",""57"",""375767""
","""event"",""trial"",""time""
""blur"",""3"",""40350""
""blur"",""16"",""134213""
""blur"",""57"",""361569""
","""event"",""trial"",""time""
""focus"",""3"",""43376""
""focus"",""16"",""137014""
""focus"",""57"",""375767""
","""event"",""trial"",""time""
""fullscreenenter"",""1"",""1739""
","
","","","","","","1907.7999999523163","<p> If you feed a hungry farm animal, you will make it feel satisfied! </p><p> But if you feed the farm animal and it was already full, you will make it feel sick. </p>","","0","instructions","","","","","","","","","","",""
"learning-instructions","64","435465","0.0-9.0-1.0-0.4","4084","2","24","Female","approach_avoid_spark_v1","""event"",""trial"",""time""
""fullscreenenter"",""1"",""1739""
""blur"",""3"",""40350""
""focus"",""3"",""43376""
""blur"",""16"",""134213""
""focus"",""16"",""137014""
""blur"",""57"",""361569""
""focus"",""57"",""375767""
","""event"",""trial"",""time""
""blur"",""3"",""40350""
""blur"",""16"",""134213""
""blur"",""57"",""361569""
","""event"",""trial"",""time""
""focus"",""3"",""43376""
""focus"",""16"",""137014""
""focus"",""57"",""375767""
","""event"",""trial"",""time""
""fullscreenenter"",""1"",""1739""
","
","","","","","","1280","<p> You will earn points based on how you made the farm animal feel. </p><p> If you made it satisfied, you will WIN anywhere from 1 - 9 points, </p><p> but if you made it sick, you will LOSE anywhere from 1 - 9 points. </p>","","0","instructions","","","","","","","","","","",""
"learning-instructions","65","445035","0.0-9.0-1.0-0.5","4084","2","24","Female","approach_avoid_spark_v1","""event"",""trial"",""time""
""fullscreenenter"",""1"",""1739""
""blur"",""3"",""40350""
""focus"",""3"",""43376""
""blur"",""16"",""134213""
""focus"",""16"",""137014""
""blur"",""57"",""361569""
""focus"",""57"",""375767""
","""event"",""trial"",""time""
""blur"",""3"",""40350""
""blur"",""16"",""134213""
""blur"",""57"",""361569""
","""event"",""trial"",""time""
""focus"",""3"",""43376""
""focus"",""16"",""137014""
""focus"",""57"",""375767""
","""event"",""trial"",""time""
""fullscreenenter"",""1"",""1739""
","
","","","","","","1989.2999999523163","<p> You will see how many points you won or lost in the center of the screen. </p><p> Here is what you would see if you won 5 points: </p><p style=""color:green;font-size:50px;font-weight:bolder"">5</p>","","0","instructions","","","","","","","","","","",""
"learning-instructions","66","449252","0.0-9.0-1.0-0.6","4084","2","24","Female","approach_avoid_spark_v1","""event"",""trial"",""time""
""fullscreenenter"",""1"",""1739""
""blur"",""3"",""40350""
""focus"",""3"",""43376""
""blur"",""16"",""134213""
""focus"",""16"",""137014""
""blur"",""57"",""361569""
""focus"",""57"",""375767""
","""event"",""trial"",""time""
""blur"",""3"",""40350""
""blur"",""16"",""134213""
""blur"",""57"",""361569""
","""event"",""trial"",""time""
""focus"",""3"",""43376""
""focus"",""16"",""137014""
""focus"",""57"",""375767""
","""event"",""trial"",""time""
""fullscreenenter"",""1"",""1739""
","
","","","","","","835.7999999523163","<p> And here is what you would see if you lost 3 points: </p><p style=""color:red;font-size:50px;font-weight:bolder"">-3</p>","","0","instructions","","","","","","","","","","",""
"learning-instructions","67","465675","0.0-9.0-1.0-0.7","4084","2","24","Female","approach_avoid_spark_v1","""event"",""trial"",""time""
""fullscreenenter"",""1"",""1739""
""blur"",""3"",""40350""
""focus"",""3"",""43376""
""blur"",""16"",""134213""
""focus"",""16"",""137014""
""blur"",""57"",""361569""
""focus"",""57"",""375767""
","""event"",""trial"",""time""
""blur"",""3"",""40350""
""blur"",""16"",""134213""
""blur"",""57"",""361569""
","""event"",""trial"",""time""
""focus"",""3"",""43376""
""focus"",""16"",""137014""
""focus"",""57"",""375767""
","""event"",""trial"",""time""
""fullscreenenter"",""1"",""1739""
","
","","","","","","848.8999999761581","<p> Some farm animals will become very satisfied or very sick. </p><p> These farm animals will make you win or lose LOTS of points. </p><p> Other farm animals have less strong feelings. </p><p> These farm animals will make you win or lose small amounts of points. </p>","","0","instructions","","","","","","","","","","",""
"learning-instructions","68","478742","0.0-9.0-1.0-0.8","4084","2","24","Female","approach_avoid_spark_v1","""event"",""trial"",""time""
""fullscreenenter"",""1"",""1739""
""blur"",""3"",""40350""
""focus"",""3"",""43376""
""blur"",""16"",""134213""
""focus"",""16"",""137014""
""blur"",""57"",""361569""
""focus"",""57"",""375767""
","""event"",""trial"",""time""
""blur"",""3"",""40350""
""blur"",""16"",""134213""
""blur"",""57"",""361569""
","""event"",""trial"",""time""
""focus"",""3"",""43376""
""focus"",""16"",""137014""
""focus"",""57"",""375767""
","""event"",""trial"",""time""
""fullscreenenter"",""1"",""1739""
","
","","","","","","675.5","<p> If you choose to leave the farm animal alone, you will not win or lose any points. </p><p>  However, in the center of the screen, you will see the number of points you WOULD HAVE won or lost if you had fed the farm animal. </p>","","0","instructions","","","","","","","","","","",""
"learning-instructions","69","494028","0.0-9.0-1.0-0.9","4084","2","24","Female","approach_avoid_spark_v1","""event"",""trial"",""time""
""fullscreenenter"",""1"",""1739""
""blur"",""3"",""40350""
""focus"",""3"",""43376""
""blur"",""16"",""134213""
""focus"",""16"",""137014""
""blur"",""57"",""361569""
""focus"",""57"",""375767""
","""event"",""trial"",""time""
""blur"",""3"",""40350""
""blur"",""16"",""134213""
""blur"",""57"",""361569""
","""event"",""trial"",""time""
""focus"",""3"",""43376""
""focus"",""16"",""137014""
""focus"",""57"",""375767""
","""event"",""trial"",""time""
""fullscreenenter"",""1"",""1739""
","
","","","","","","3512.2000000476837","<p> Here is what you might see if you did not feed the farm animal but the animal was hungry: </p><p style=""color:grey; font-size:50px; display: inline-block; border-spacing: 15px; border-width:3px; border-style:solid; border-color:red"">  &nbsp; 6 &nbsp; </p><p> Remember, in this case, you would not win or lose ANY points because you did not feed the farm animal.  </p>","","0","instructions","","","","","","","","","","",""
"learning-instructions","70","502635","0.0-9.0-1.0-0.10","4084","2","24","Female","approach_avoid_spark_v1","""event"",""trial"",""time""
""fullscreenenter"",""1"",""1739""
""blur"",""3"",""40350""
""focus"",""3"",""43376""
""blur"",""16"",""134213""
""focus"",""16"",""137014""
""blur"",""57"",""361569""
""focus"",""57"",""375767""
","""event"",""trial"",""time""
""blur"",""3"",""40350""
""blur"",""16"",""134213""
""blur"",""57"",""361569""
","""event"",""trial"",""time""
""focus"",""3"",""43376""
""focus"",""16"",""137014""
""focus"",""57"",""375767""
","""event"",""trial"",""time""
""fullscreenenter"",""1"",""1739""
","
","","","","","","668.8000000715256","<p> Try to make the best choice for each farm animal because </p><p> at the end of the game, you will earn bonus money based on how many points you earned. </p>","","0","instructions","","","","","","","","","","",""
"learning-instructions","71","514423","0.0-9.0-1.0-0.11","4084","2","24","Female","approach_avoid_spark_v1","""event"",""trial"",""time""
""fullscreenenter"",""1"",""1739""
""blur"",""3"",""40350""
""focus"",""3"",""43376""
""blur"",""16"",""134213""
""focus"",""16"",""137014""
""blur"",""57"",""361569""
""focus"",""57"",""375767""
","""event"",""trial"",""time""
""blur"",""3"",""40350""
""blur"",""16"",""134213""
""blur"",""57"",""361569""
","""event"",""trial"",""time""
""focus"",""3"",""43376""
""focus"",""16"",""137014""
""focus"",""57"",""375767""
","""event"",""trial"",""time""
""fullscreenenter"",""1"",""1739""
","
","","","","","","3586.399999976158","<p> You will have 3 seconds to make each choice. Try to respond before time runs out! </p><p> You will lose 5 points each time you do not make a response. </p>","","0","instructions","","","","","","","","","","",""
"html-keyboard-response","72","515040","0.0-9.0-2.0-0.0","4084","2","24","Female","approach_avoid_spark_v1","""event"",""trial"",""time""
""fullscreenenter"",""1"",""1739""
""blur"",""3"",""40350""
""focus"",""3"",""43376""
""blur"",""16"",""134213""
""focus"",""16"",""137014""
""blur"",""57"",""361569""
""focus"",""57"",""375767""
","""event"",""trial"",""time""
""blur"",""3"",""40350""
""blur"",""16"",""134213""
""blur"",""57"",""361569""
","""event"",""trial"",""time""
""focus"",""3"",""43376""
""focus"",""16"",""137014""
""focus"",""57"",""375767""
","""event"",""trial"",""time""
""fullscreenenter"",""1"",""1739""
","
","","","","","","null","<div style=""font-size:60px;"">+</div>","null","","fixation","","","","","","","","","","",""
"aa-learning-trial","73","518058","0.0-9.0-2.0-1.0","4084","2","24","Female","approach_avoid_spark_v1","""event"",""trial"",""time""
""fullscreenenter"",""1"",""1739""
""blur"",""3"",""40350""
""focus"",""3"",""43376""
""blur"",""16"",""134213""
""focus"",""16"",""137014""
""blur"",""57"",""361569""
""focus"",""57"",""375767""
","""event"",""trial"",""time""
""blur"",""3"",""40350""
""blur"",""16"",""134213""
""blur"",""57"",""361569""
","""event"",""trial"",""time""
""focus"",""3"",""43376""
""focus"",""16"",""137014""
""focus"",""57"",""375767""
","""event"",""trial"",""time""
""fullscreenenter"",""1"",""1739""
","
","","","","","","1167.3999999761581","images/horse7.png","","","learning","-1","-1","1","1","horse","animals","2","0","","neutral","0"
"html-keyboard-response","74","518570","0.0-9.0-2.0-0.1","4084","2","24","Female","approach_avoid_spark_v1","""event"",""trial"",""time""
""fullscreenenter"",""1"",""1739""
""blur"",""3"",""40350""
""focus"",""3"",""43376""
""blur"",""16"",""134213""
""focus"",""16"",""137014""
""blur"",""57"",""361569""
""focus"",""57"",""375767""
","""event"",""trial"",""time""
""blur"",""3"",""40350""
""blur"",""16"",""134213""
""blur"",""57"",""361569""
","""event"",""trial"",""time""
""focus"",""3"",""43376""
""focus"",""16"",""137014""
""focus"",""57"",""375767""
","""event"",""trial"",""time""
""fullscreenenter"",""1"",""1739""
","
","","","","","","null","<div style=""font-size:60px;"">+</div>","null","","fixation","","","","","","","","","","",""
"aa-learning-trial","75","521580","0.0-9.0-2.0-1.1","4084","2","24","Female","approach_avoid_spark_v1","""event"",""trial"",""time""
""fullscreenenter"",""1"",""1739""
""blur"",""3"",""40350""
""focus"",""3"",""43376""
""blur"",""16"",""134213""
""focus"",""16"",""137014""
""blur"",""57"",""361569""
""focus"",""57"",""375767""
","""event"",""trial"",""time""
""blur"",""3"",""40350""
""blur"",""16"",""134213""
""blur"",""57"",""361569""
","""event"",""trial"",""time""
""focus"",""3"",""43376""
""focus"",""16"",""137014""
""focus"",""57"",""375767""
","""event"",""trial"",""time""
""fullscreenenter"",""1"",""1739""
","
","","","","","","836.1000000238419","images/goat6.png","","","learning","3","3","1","1","goat","animals","2","0","","bad","[-4]"
"html-keyboard-response","76","522089","0.0-9.0-2.0-0.2","4084","2","24","Female","approach_avoid_spark_v1","""event"",""trial"",""time""
""fullscreenenter"",""1"",""1739""
""blur"",""3"",""40350""
""focus"",""3"",""43376""
""blur"",""16"",""134213""
""focus"",""16"",""137014""
""blur"",""57"",""361569""
""focus"",""57"",""375767""
","""event"",""trial"",""time""
""blur"",""3"",""40350""
""blur"",""16"",""134213""
""blur"",""57"",""361569""
","""event"",""trial"",""time""
""focus"",""3"",""43376""
""focus"",""16"",""137014""
""focus"",""57"",""375767""
","""event"",""trial"",""time""
""fullscreenenter"",""1"",""1739""
","
","","","","","","null","<div style=""font-size:60px;"">+</div>","null","","fixation","","","","","","","","","","",""
"aa-learning-trial","77","525107","0.0-9.0-2.0-1.2","4084","2","24","Female","approach_avoid_spark_v1","""event"",""trial"",""time""
""fullscreenenter"",""1"",""1739""
""blur"",""3"",""40350""
""focus"",""3"",""43376""
""blur"",""16"",""134213""
""focus"",""16"",""137014""
""blur"",""57"",""361569""
""focus"",""57"",""375767""
","""event"",""trial"",""time""
""blur"",""3"",""40350""
""blur"",""16"",""134213""
""blur"",""57"",""361569""
","""event"",""trial"",""time""
""focus"",""3"",""43376""
""focus"",""16"",""137014""
""focus"",""57"",""375767""
","""event"",""trial"",""time""
""fullscreenenter"",""1"",""1739""
","
","","","","","","1230.8000000715256","images/goat4.png","","","learning","6","6","1","1","goat","animals","2","0","","bad","[-4]"
"html-keyboard-response","78","525617","0.0-9.0-2.0-0.3","4084","2","24","Female","approach_avoid_spark_v1","""event"",""trial"",""time""
""fullscreenenter"",""1"",""1739""
""blur"",""3"",""40350""
""focus"",""3"",""43376""
""blur"",""16"",""134213""
""focus"",""16"",""137014""
""blur"",""57"",""361569""
""focus"",""57"",""375767""
","""event"",""trial"",""time""
""blur"",""3"",""40350""
""blur"",""16"",""134213""
""blur"",""57"",""361569""
","""event"",""trial"",""time""
""focus"",""3"",""43376""
""focus"",""16"",""137014""
""focus"",""57"",""375767""
","""event"",""trial"",""time""
""fullscreenenter"",""1"",""1739""
","
","","","","","","null","<div style=""font-size:60px;"">+</div>","null","","fixation","","","","","","","","","","",""
"aa-learning-trial","79","528630","0.0-9.0-2.0-1.3","4084","2","24","Female","approach_avoid_spark_v1","""event"",""trial"",""time""
""fullscreenenter"",""1"",""1739""
""blur"",""3"",""40350""
""focus"",""3"",""43376""
""blur"",""16"",""134213""
""focus"",""16"",""137014""
""blur"",""57"",""361569""
""focus"",""57"",""375767""
","""event"",""trial"",""time""
""blur"",""3"",""40350""
""blur"",""16"",""134213""
""blur"",""57"",""361569""
","""event"",""trial"",""time""
""focus"",""3"",""43376""
""focus"",""16"",""137014""
""focus"",""57"",""375767""
","""event"",""trial"",""time""
""fullscreenenter"",""1"",""1739""
","
","","","","","","1426.1000000238419","images/goat7.png","","","learning","1","0","0","0","goat","animals","2","0","","bad","[-4]"
"html-keyboard-response","80","529142","0.0-9.0-2.0-0.4","4084","2","24","Female","approach_avoid_spark_v1","""event"",""trial"",""time""
""fullscreenenter"",""1"",""1739""
""blur"",""3"",""40350""
""focus"",""3"",""43376""
""blur"",""16"",""134213""
""focus"",""16"",""137014""
""blur"",""57"",""361569""
""focus"",""57"",""375767""
","""event"",""trial"",""time""
""blur"",""3"",""40350""
""blur"",""16"",""134213""
""blur"",""57"",""361569""
","""event"",""trial"",""time""
""focus"",""3"",""43376""
""focus"",""16"",""137014""
""focus"",""57"",""375767""
","""event"",""trial"",""time""
""fullscreenenter"",""1"",""1739""
","
","","","","","","null","<div style=""font-size:60px;"">+</div>","null","","fixation","","","","","","","","","","",""
"aa-learning-trial","81","532148","0.0-9.0-2.0-1.4","4084","2","24","Female","approach_avoid_spark_v1","""event"",""trial"",""time""
""fullscreenenter"",""1"",""1739""
""blur"",""3"",""40350""
""focus"",""3"",""43376""
""blur"",""16"",""134213""
""focus"",""16"",""137014""
""blur"",""57"",""361569""
""focus"",""57"",""375767""
","""event"",""trial"",""time""
""blur"",""3"",""40350""
""blur"",""16"",""134213""
""blur"",""57"",""361569""
","""event"",""trial"",""time""
""focus"",""3"",""43376""
""focus"",""16"",""137014""
""focus"",""57"",""375767""
","""event"",""trial"",""time""
""fullscreenenter"",""1"",""1739""
","
","","","","","","1192.7000000476837","images/goat4.png","","","learning","6","6","1","1","goat","animals","2","0","","bad","[-4]"
"html-keyboard-response","82","532659","0.0-9.0-2.0-0.5","4084","2","24","Female","approach_avoid_spark_v1","""event"",""trial"",""time""
""fullscreenenter"",""1"",""1739""
""blur"",""3"",""40350""
""focus"",""3"",""43376""
""blur"",""16"",""134213""
""focus"",""16"",""137014""
""blur"",""57"",""361569""
""focus"",""57"",""375767""
","""event"",""trial"",""time""
""blur"",""3"",""40350""
""blur"",""16"",""134213""
""blur"",""57"",""361569""
","""event"",""trial"",""time""
""focus"",""3"",""43376""
""focus"",""16"",""137014""
""focus"",""57"",""375767""
","""event"",""trial"",""time""
""fullscreenenter"",""1"",""1739""
","
","","","","","","null","<div style=""font-size:60px;"">+</div>","null","","fixation","","","","","","","","","","",""
"aa-learning-trial","83","535676","0.0-9.0-2.0-1.5","4084","2","24","Female","approach_avoid_spark_v1","""event"",""trial"",""time""
""fullscreenenter"",""1"",""1739""
""blur"",""3"",""40350""
""focus"",""3"",""43376""
""blur"",""16"",""134213""
""focus"",""16"",""137014""
""blur"",""57"",""361569""
""focus"",""57"",""375767""
","""event"",""trial"",""time""
""blur"",""3"",""40350""
""blur"",""16"",""134213""
""blur"",""57"",""361569""
","""event"",""trial"",""time""
""focus"",""3"",""43376""
""focus"",""16"",""137014""
""focus"",""57"",""375767""
","""event"",""trial"",""time""
""fullscreenenter"",""1"",""1739""
","
","","","","","","856.5999999046326","images/sheep1.png","","","learning","5","5","1","1","sheep","animals","2","0","","good","[6]"
"html-keyboard-response","84","536186","0.0-9.0-2.0-0.6","4084","2","24","Female","approach_avoid_spark_v1","""event"",""trial"",""time""
""fullscreenenter"",""1"",""1739""
""blur"",""3"",""40350""
""focus"",""3"",""43376""
""blur"",""16"",""134213""
""focus"",""16"",""137014""
""blur"",""57"",""361569""
""focus"",""57"",""375767""
","""event"",""trial"",""time""
""blur"",""3"",""40350""
""blur"",""16"",""134213""
""blur"",""57"",""361569""
","""event"",""trial"",""time""
""focus"",""3"",""43376""
""focus"",""16"",""137014""
""focus"",""57"",""375767""
","""event"",""trial"",""time""
""fullscreenenter"",""1"",""1739""
","
","","","","","","null","<div style=""font-size:60px;"">+</div>","null","","fixation","","","","","","","","","","",""
"aa-learning-trial","85","539188","0.0-9.0-2.0-1.6","4084","2","24","Female","approach_avoid_spark_v1","""event"",""trial"",""time""
""fullscreenenter"",""1"",""1739""
""blur"",""3"",""40350""
""focus"",""3"",""43376""
""blur"",""16"",""134213""
""focus"",""16"",""137014""
""blur"",""57"",""361569""
""focus"",""57"",""375767""
","""event"",""trial"",""time""
""blur"",""3"",""40350""
""blur"",""16"",""134213""
""blur"",""57"",""361569""
","""event"",""trial"",""time""
""focus"",""3"",""43376""
""focus"",""16"",""137014""
""focus"",""57"",""375767""
","""event"",""trial"",""time""
""fullscreenenter"",""1"",""1739""
","
","","","","","","894.1000000238419","images/goat7.png","","","learning","1","1","1","1","goat","animals","2","0","","bad","[-4]"
"html-keyboard-response","86","539703","0.0-9.0-2.0-0.7","4084","2","24","Female","approach_avoid_spark_v1","""event"",""trial"",""time""
""fullscreenenter"",""1"",""1739""
""blur"",""3"",""40350""
""focus"",""3"",""43376""
""blur"",""16"",""134213""
""focus"",""16"",""137014""
""blur"",""57"",""361569""
""focus"",""57"",""375767""
","""event"",""trial"",""time""
""blur"",""3"",""40350""
""blur"",""16"",""134213""
""blur"",""57"",""361569""
","""event"",""trial"",""time""
""focus"",""3"",""43376""
""focus"",""16"",""137014""
""focus"",""57"",""375767""
","""event"",""trial"",""time""
""fullscreenenter"",""1"",""1739""
","
","","","","","","null","<div style=""font-size:60px;"">+</div>","null","","fixation","","","","","","","","","","",""
"aa-learning-trial","87","542708","0.0-9.0-2.0-1.7","4084","2","24","Female","approach_avoid_spark_v1","""event"",""trial"",""time""
""fullscreenenter"",""1"",""1739""
""blur"",""3"",""40350""
""focus"",""3"",""43376""
""blur"",""16"",""134213""
""focus"",""16"",""137014""
""blur"",""57"",""361569""
""focus"",""57"",""375767""
","""event"",""trial"",""time""
""blur"",""3"",""40350""
""blur"",""16"",""134213""
""blur"",""57"",""361569""
","""event"",""trial"",""time""
""focus"",""3"",""43376""
""focus"",""16"",""137014""
""focus"",""57"",""375767""
","""event"",""trial"",""time""
""fullscreenenter"",""1"",""1739""
","
","","","","","","870.1999999284744","images/sheep7.png","","","learning","2","2","1","1","sheep","animals","2","0","","good","[6]"
"html-keyboard-response","88","543212","0.0-9.0-2.0-0.8","4084","2","24","Female","approach_avoid_spark_v1","""event"",""trial"",""time""
""fullscreenenter"",""1"",""1739""
""blur"",""3"",""40350""
""focus"",""3"",""43376""
""blur"",""16"",""134213""
""focus"",""16"",""137014""
""blur"",""57"",""361569""
""focus"",""57"",""375767""
","""event"",""trial"",""time""
""blur"",""3"",""40350""
""blur"",""16"",""134213""
""blur"",""57"",""361569""
","""event"",""trial"",""time""
""focus"",""3"",""43376""
""focus"",""16"",""137014""
""focus"",""57"",""375767""
","""event"",""trial"",""time""
""fullscreenenter"",""1"",""1739""
","
","","","","","","null","<div style=""font-size:60px;"">+</div>","null","","fixation","","","","","","","","","","",""
"aa-learning-trial","89","546220","0.0-9.0-2.0-1.8","4084","2","24","Female","approach_avoid_spark_v1","""event"",""trial"",""time""
""fullscreenenter"",""1"",""1739""
""blur"",""3"",""40350""
""focus"",""3"",""43376""
""blur"",""16"",""134213""
""focus"",""16"",""137014""
""blur"",""57"",""361569""
""focus"",""57"",""375767""
","""event"",""trial"",""time""
""blur"",""3"",""40350""
""blur"",""16"",""134213""
""blur"",""57"",""361569""
","""event"",""trial"",""time""
""focus"",""3"",""43376""
""focus"",""16"",""137014""
""focus"",""57"",""375767""
","""event"",""trial"",""time""
""fullscreenenter"",""1"",""1739""
","
","","","","","","698.9000000953674","images/sheep1.png","","","learning","5","5","1","1","sheep","animals","2","0","","good","[6]"
"html-keyboard-response","90","546723","0.0-9.0-2.0-0.9","4084","2","24","Female","approach_avoid_spark_v1","""event"",""trial"",""time""
""fullscreenenter"",""1"",""1739""
""blur"",""3"",""40350""
""focus"",""3"",""43376""
""blur"",""16"",""134213""
""focus"",""16"",""137014""
""blur"",""57"",""361569""
""focus"",""57"",""375767""
","""event"",""trial"",""time""
""blur"",""3"",""40350""
""blur"",""16"",""134213""
""blur"",""57"",""361569""
","""event"",""trial"",""time""
""focus"",""3"",""43376""
""focus"",""16"",""137014""
""focus"",""57"",""375767""
","""event"",""trial"",""time""
""fullscreenenter"",""1"",""1739""
","
","","","","","","null","<div style=""font-size:60px;"">+</div>","null","","fixation","","","","","","","","","","",""
"aa-learning-trial","91","549737","0.0-9.0-2.0-1.9","4084","2","24","Female","approach_avoid_spark_v1","""event"",""trial"",""time""
""fullscreenenter"",""1"",""1739""
""blur"",""3"",""40350""
""focus"",""3"",""43376""
""blur"",""16"",""134213""
""focus"",""16"",""137014""
""blur"",""57"",""361569""
""focus"",""57"",""375767""
","""event"",""trial"",""time""
""blur"",""3"",""40350""
""blur"",""16"",""134213""
""blur"",""57"",""361569""
","""event"",""trial"",""time""
""focus"",""3"",""43376""
""focus"",""16"",""137014""
""focus"",""57"",""375767""
","""event"",""trial"",""time""
""fullscreenenter"",""1"",""1739""
","
","","","","","","720.7000000476837","images/sheep6.png","","","learning","-7","-7","1","1","sheep","animals","2","0","","good","[6]"
"html-keyboard-response","92","550247","0.0-9.0-2.0-0.10","4084","2","24","Female","approach_avoid_spark_v1","""event"",""trial"",""time""
""fullscreenenter"",""1"",""1739""
""blur"",""3"",""40350""
""focus"",""3"",""43376""
""blur"",""16"",""134213""
""focus"",""16"",""137014""
""blur"",""57"",""361569""
""focus"",""57"",""375767""
","""event"",""trial"",""time""
""blur"",""3"",""40350""
""blur"",""16"",""134213""
""blur"",""57"",""361569""
","""event"",""trial"",""time""
""focus"",""3"",""43376""
""focus"",""16"",""137014""
""focus"",""57"",""375767""
","""event"",""trial"",""time""
""fullscreenenter"",""1"",""1739""
","
","","","","","","null","<div style=""font-size:60px;"">+</div>","null","","fixation","","","","","","","","","","",""
"aa-learning-trial","93","553252","0.0-9.0-2.0-1.10","4084","2","24","Female","approach_avoid_spark_v1","""event"",""trial"",""time""
""fullscreenenter"",""1"",""1739""
""blur"",""3"",""40350""
""focus"",""3"",""43376""
""blur"",""16"",""134213""
""focus"",""16"",""137014""
""blur"",""57"",""361569""
""focus"",""57"",""375767""
","""event"",""trial"",""time""
""blur"",""3"",""40350""
""blur"",""16"",""134213""
""blur"",""57"",""361569""
","""event"",""trial"",""time""
""focus"",""3"",""43376""
""focus"",""16"",""137014""
""focus"",""57"",""375767""
","""event"",""trial"",""time""
""fullscreenenter"",""1"",""1739""
","
","","","","","","1001","images/horse4.png","","","learning","4","0","0","0","horse","animals","2","0","","neutral","0"
"html-keyboard-response","94","553755","0.0-9.0-2.0-0.11","4084","2","24","Female","approach_avoid_spark_v1","""event"",""trial"",""time""
""fullscreenenter"",""1"",""1739""
""blur"",""3"",""40350""
""focus"",""3"",""43376""
""blur"",""16"",""134213""
""focus"",""16"",""137014""
""blur"",""57"",""361569""
""focus"",""57"",""375767""
","""event"",""trial"",""time""
""blur"",""3"",""40350""
""blur"",""16"",""134213""
""blur"",""57"",""361569""
","""event"",""trial"",""time""
""focus"",""3"",""43376""
""focus"",""16"",""137014""
""focus"",""57"",""375767""
","""event"",""trial"",""time""
""fullscreenenter"",""1"",""1739""
","
","","","","","","null","<div style=""font-size:60px;"">+</div>","null","","fixation","","","","","","","","","","",""
"aa-learning-trial","95","556778","0.0-9.0-2.0-1.11","4084","2","24","Female","approach_avoid_spark_v1","""event"",""trial"",""time""
""fullscreenenter"",""1"",""1739""
""blur"",""3"",""40350""
""focus"",""3"",""43376""
""blur"",""16"",""134213""
""focus"",""16"",""137014""
""blur"",""57"",""361569""
""focus"",""57"",""375767""
","""event"",""trial"",""time""
""blur"",""3"",""40350""
""blur"",""16"",""134213""
""blur"",""57"",""361569""
","""event"",""trial"",""time""
""focus"",""3"",""43376""
""focus"",""16"",""137014""
""focus"",""57"",""375767""
","""event"",""trial"",""time""
""fullscreenenter"",""1"",""1739""
","
","","","","","","960.2999999523163","images/horse5.png","","","learning","-8","-8","1","1","horse","animals","2","0","","neutral","0"
"html-keyboard-response","96","557283","0.0-9.0-2.0-0.12","4084","2","24","Female","approach_avoid_spark_v1","""event"",""trial"",""time""
""fullscreenenter"",""1"",""1739""
""blur"",""3"",""40350""
""focus"",""3"",""43376""
""blur"",""16"",""134213""
""focus"",""16"",""137014""
""blur"",""57"",""361569""
""focus"",""57"",""375767""
","""event"",""trial"",""time""
""blur"",""3"",""40350""
""blur"",""16"",""134213""
""blur"",""57"",""361569""
","""event"",""trial"",""time""
""focus"",""3"",""43376""
""focus"",""16"",""137014""
""focus"",""57"",""375767""
","""event"",""trial"",""time""
""fullscreenenter"",""1"",""1739""
","
","","","","","","null","<div style=""font-size:60px;"">+</div>","null","","fixation","","","","","","","","","","",""
"aa-learning-trial","97","560292","0.0-9.0-2.0-1.12","4084","2","24","Female","approach_avoid_spark_v1","""event"",""trial"",""time""
""fullscreenenter"",""1"",""1739""
""blur"",""3"",""40350""
""focus"",""3"",""43376""
""blur"",""16"",""134213""
""focus"",""16"",""137014""
""blur"",""57"",""361569""
""focus"",""57"",""375767""
","""event"",""trial"",""time""
""blur"",""3"",""40350""
""blur"",""16"",""134213""
""blur"",""57"",""361569""
","""event"",""trial"",""time""
""focus"",""3"",""43376""
""focus"",""16"",""137014""
""focus"",""57"",""375767""
","""event"",""trial"",""time""
""fullscreenenter"",""1"",""1739""
","
","","","","","","579.3000000715256","images/sheep7.png","","","learning","2","2","1","1","sheep","animals","2","0","","good","[6]"
"html-keyboard-response","98","560795","0.0-9.0-2.0-0.13","4084","2","24","Female","approach_avoid_spark_v1","""event"",""trial"",""time""
""fullscreenenter"",""1"",""1739""
""blur"",""3"",""40350""
""focus"",""3"",""43376""
""blur"",""16"",""134213""
""focus"",""16"",""137014""
""blur"",""57"",""361569""
""focus"",""57"",""375767""
","""event"",""trial"",""time""
""blur"",""3"",""40350""
""blur"",""16"",""134213""
""blur"",""57"",""361569""
","""event"",""trial"",""time""
""focus"",""3"",""43376""
""focus"",""16"",""137014""
""focus"",""57"",""375767""
","""event"",""trial"",""time""
""fullscreenenter"",""1"",""1739""
","
","","","","","","null","<div style=""font-size:60px;"">+</div>","null","","fixation","","","","","","","","","","",""
"aa-learning-trial","99","563804","0.0-9.0-2.0-1.13","4084","2","24","Female","approach_avoid_spark_v1","""event"",""trial"",""time""
""fullscreenenter"",""1"",""1739""
""blur"",""3"",""40350""
""focus"",""3"",""43376""
""blur"",""16"",""134213""
""focus"",""16"",""137014""
""blur"",""57"",""361569""
""focus"",""57"",""375767""
","""event"",""trial"",""time""
""blur"",""3"",""40350""
""blur"",""16"",""134213""
""blur"",""57"",""361569""
","""event"",""trial"",""time""
""focus"",""3"",""43376""
""focus"",""16"",""137014""
""focus"",""57"",""375767""
","""event"",""trial"",""time""
""fullscreenenter"",""1"",""1739""
","
","","","","","","1689.6999999284744","images/horse5.png","","","learning","-8","-8","1","1","horse","animals","2","0","","neutral","0"
"html-keyboard-response","100","564309","0.0-9.0-2.0-0.14","4084","2","24","Female","approach_avoid_spark_v1","""event"",""trial"",""time""
""fullscreenenter"",""1"",""1739""
""blur"",""3"",""40350""
""focus"",""3"",""43376""
""blur"",""16"",""134213""
""focus"",""16"",""137014""
""blur"",""57"",""361569""
""focus"",""57"",""375767""
","""event"",""trial"",""time""
""blur"",""3"",""40350""
""blur"",""16"",""134213""
""blur"",""57"",""361569""
","""event"",""trial"",""time""
""focus"",""3"",""43376""
""focus"",""16"",""137014""
""focus"",""57"",""375767""
","""event"",""trial"",""time""
""fullscreenenter"",""1"",""1739""
","
","","","","","","null","<div style=""font-size:60px;"">+</div>","null","","fixation","","","","","","","","","","",""
"aa-learning-trial","101","567316","0.0-9.0-2.0-1.14","4084","2","24","Female","approach_avoid_spark_v1","""event"",""trial"",""time""
""fullscreenenter"",""1"",""1739""
""blur"",""3"",""40350""
""focus"",""3"",""43376""
""blur"",""16"",""134213""
""focus"",""16"",""137014""
""blur"",""57"",""361569""
""focus"",""57"",""375767""
","""event"",""trial"",""time""
""blur"",""3"",""40350""
""blur"",""16"",""134213""
""blur"",""57"",""361569""
","""event"",""trial"",""time""
""focus"",""3"",""43376""
""focus"",""16"",""137014""
""focus"",""57"",""375767""
","""event"",""trial"",""time""
""fullscreenenter"",""1"",""1739""
","
","","","","","","967.8000000715256","images/horse4.png","","","learning","4","4","1","1","horse","animals","2","0","","neutral","0"
"html-keyboard-response","102","567824","0.0-9.0-2.0-0.15","4084","2","24","Female","approach_avoid_spark_v1","""event"",""trial"",""time""
""fullscreenenter"",""1"",""1739""
""blur"",""3"",""40350""
""focus"",""3"",""43376""
""blur"",""16"",""134213""
""focus"",""16"",""137014""
""blur"",""57"",""361569""
""focus"",""57"",""375767""
","""event"",""trial"",""time""
""blur"",""3"",""40350""
""blur"",""16"",""134213""
""blur"",""57"",""361569""
","""event"",""trial"",""time""
""focus"",""3"",""43376""
""focus"",""16"",""137014""
""focus"",""57"",""375767""
","""event"",""trial"",""time""
""fullscreenenter"",""1"",""1739""
","
","","","","","","null","<div style=""font-size:60px;"">+</div>","null","","fixation","","","","","","","","","","",""
"aa-learning-trial","103","570828","0.0-9.0-2.0-1.15","4084","2","24","Female","approach_avoid_spark_v1","""event"",""trial"",""time""
""fullscreenenter"",""1"",""1739""
""blur"",""3"",""40350""
""focus"",""3"",""43376""
""blur"",""16"",""134213""
""focus"",""16"",""137014""
""blur"",""57"",""361569""
""focus"",""57"",""375767""
","""event"",""trial"",""time""
""blur"",""3"",""40350""
""blur"",""16"",""134213""
""blur"",""57"",""361569""
","""event"",""trial"",""time""
""focus"",""3"",""43376""
""focus"",""16"",""137014""
""focus"",""57"",""375767""
","""event"",""trial"",""time""
""fullscreenenter"",""1"",""1739""
","
","","","","","","798","images/sheep1.png","","","learning","5","5","1","1","sheep","animals","2","0","","good","[6]"
"html-keyboard-response","104","571332","0.0-9.0-2.0-0.16","4084","2","24","Female","approach_avoid_spark_v1","""event"",""trial"",""time""
""fullscreenenter"",""1"",""1739""
""blur"",""3"",""40350""
""focus"",""3"",""43376""
""blur"",""16"",""134213""
""focus"",""16"",""137014""
""blur"",""57"",""361569""
""focus"",""57"",""375767""
","""event"",""trial"",""time""
""blur"",""3"",""40350""
""blur"",""16"",""134213""
""blur"",""57"",""361569""
","""event"",""trial"",""time""
""focus"",""3"",""43376""
""focus"",""16"",""137014""
""focus"",""57"",""375767""
","""event"",""trial"",""time""
""fullscreenenter"",""1"",""1739""
","
","","","","","","null","<div style=""font-size:60px;"">+</div>","null","","fixation","","","","","","","","","","",""
"aa-learning-trial","105","574354","0.0-9.0-2.0-1.16","4084","2","24","Female","approach_avoid_spark_v1","""event"",""trial"",""time""
""fullscreenenter"",""1"",""1739""
""blur"",""3"",""40350""
""focus"",""3"",""43376""
""blur"",""16"",""134213""
""focus"",""16"",""137014""
""blur"",""57"",""361569""
""focus"",""57"",""375767""
","""event"",""trial"",""time""
""blur"",""3"",""40350""
""blur"",""16"",""134213""
""blur"",""57"",""361569""
","""event"",""trial"",""time""
""focus"",""3"",""43376""
""focus"",""16"",""137014""
""focus"",""57"",""375767""
","""event"",""trial"",""time""
""fullscreenenter"",""1"",""1739""
","
","","","","","","582.1000000238419","images/goat7.png","","","learning","1","1","1","1","goat","animals","2","0","","bad","[-4]"
"html-keyboard-response","106","574860","0.0-9.0-2.0-0.17","4084","2","24","Female","approach_avoid_spark_v1","""event"",""trial"",""time""
""fullscreenenter"",""1"",""1739""
""blur"",""3"",""40350""
""focus"",""3"",""43376""
""blur"",""16"",""134213""
""focus"",""16"",""137014""
""blur"",""57"",""361569""
""focus"",""57"",""375767""
","""event"",""trial"",""time""
""blur"",""3"",""40350""
""blur"",""16"",""134213""
""blur"",""57"",""361569""
","""event"",""trial"",""time""
""focus"",""3"",""43376""
""focus"",""16"",""137014""
""focus"",""57"",""375767""
","""event"",""trial"",""time""
""fullscreenenter"",""1"",""1739""
","
","","","","","","null","<div style=""font-size:60px;"">+</div>","null","","fixation","","","","","","","","","","",""
"aa-learning-trial","107","577869","0.0-9.0-2.0-1.17","4084","2","24","Female","approach_avoid_spark_v1","""event"",""trial"",""time""
""fullscreenenter"",""1"",""1739""
""blur"",""3"",""40350""
""focus"",""3"",""43376""
""blur"",""16"",""134213""
""focus"",""16"",""137014""
""blur"",""57"",""361569""
""focus"",""57"",""375767""
","""event"",""trial"",""time""
""blur"",""3"",""40350""
""blur"",""16"",""134213""
""blur"",""57"",""361569""
","""event"",""trial"",""time""
""focus"",""3"",""43376""
""focus"",""16"",""137014""
""focus"",""57"",""375767""
","""event"",""trial"",""time""
""fullscreenenter"",""1"",""1739""
","
","","","","","","902.3999999761581","images/goat4.png","","","learning","6","6","1","1","goat","animals","2","0","","bad","[-4]"
"html-keyboard-response","108","578371","0.0-9.0-2.0-0.18","4084","2","24","Female","approach_avoid_spark_v1","""event"",""trial"",""time""
""fullscreenenter"",""1"",""1739""
""blur"",""3"",""40350""
""focus"",""3"",""43376""
""blur"",""16"",""134213""
""focus"",""16"",""137014""
""blur"",""57"",""361569""
""focus"",""57"",""375767""
","""event"",""trial"",""time""
""blur"",""3"",""40350""
""blur"",""16"",""134213""
""blur"",""57"",""361569""
","""event"",""trial"",""time""
""focus"",""3"",""43376""
""focus"",""16"",""137014""
""focus"",""57"",""375767""
","""event"",""trial"",""time""
""fullscreenenter"",""1"",""1739""
","
","","","","","","null","<div style=""font-size:60px;"">+</div>","null","","fixation","","","","","","","","","","",""
"aa-learning-trial","109","581381","0.0-9.0-2.0-1.18","4084","2","24","Female","approach_avoid_spark_v1","""event"",""trial"",""time""
""fullscreenenter"",""1"",""1739""
""blur"",""3"",""40350""
""focus"",""3"",""43376""
""blur"",""16"",""134213""
""focus"",""16"",""137014""
""blur"",""57"",""361569""
""focus"",""57"",""375767""
","""event"",""trial"",""time""
""blur"",""3"",""40350""
""blur"",""16"",""134213""
""blur"",""57"",""361569""
","""event"",""trial"",""time""
""focus"",""3"",""43376""
""focus"",""16"",""137014""
""focus"",""57"",""375767""
","""event"",""trial"",""time""
""fullscreenenter"",""1"",""1739""
","
","","","","","","786","images/goat7.png","","","learning","1","1","1","1","goat","animals","2","0","","bad","[-4]"
"html-keyboard-response","110","581896","0.0-9.0-2.0-0.19","4084","2","24","Female","approach_avoid_spark_v1","""event"",""trial"",""time""
""fullscreenenter"",""1"",""1739""
""blur"",""3"",""40350""
""focus"",""3"",""43376""
""blur"",""16"",""134213""
""focus"",""16"",""137014""
""blur"",""57"",""361569""
""focus"",""57"",""375767""
","""event"",""trial"",""time""
""blur"",""3"",""40350""
""blur"",""16"",""134213""
""blur"",""57"",""361569""
","""event"",""trial"",""time""
""focus"",""3"",""43376""
""focus"",""16"",""137014""
""focus"",""57"",""375767""
","""event"",""trial"",""time""
""fullscreenenter"",""1"",""1739""
","
","","","","","","null","<div style=""font-size:60px;"">+</div>","null","","fixation","","","","","","","","","","",""
"aa-learning-trial","111","584900","0.0-9.0-2.0-1.19","4084","2","24","Female","approach_avoid_spark_v1","""event"",""trial"",""time""
""fullscreenenter"",""1"",""1739""
""blur"",""3"",""40350""
""focus"",""3"",""43376""
""blur"",""16"",""134213""
""focus"",""16"",""137014""
""blur"",""57"",""361569""
""focus"",""57"",""375767""
","""event"",""trial"",""time""
""blur"",""3"",""40350""
""blur"",""16"",""134213""
""blur"",""57"",""361569""
","""event"",""trial"",""time""
""focus"",""3"",""43376""
""focus"",""16"",""137014""
""focus"",""57"",""375767""
","""event"",""trial"",""time""
""fullscreenenter"",""1"",""1739""
","
","","","","","","654.6000000238419","images/sheep1.png","","","learning","5","5","1","1","sheep","animals","2","0","","good","[6]"
"html-keyboard-response","112","585404","0.0-9.0-2.0-0.20","4084","2","24","Female","approach_avoid_spark_v1","""event"",""trial"",""time""
""fullscreenenter"",""1"",""1739""
""blur"",""3"",""40350""
""focus"",""3"",""43376""
""blur"",""16"",""134213""
""focus"",""16"",""137014""
""blur"",""57"",""361569""
""focus"",""57"",""375767""
","""event"",""trial"",""time""
""blur"",""3"",""40350""
""blur"",""16"",""134213""
""blur"",""57"",""361569""
","""event"",""trial"",""time""
""focus"",""3"",""43376""
""focus"",""16"",""137014""
""focus"",""57"",""375767""
","""event"",""trial"",""time""
""fullscreenenter"",""1"",""1739""
","
","","","","","","null","<div style=""font-size:60px;"">+</div>","null","","fixation","","","","","","","","","","",""
"aa-learning-trial","113","588416","0.0-9.0-2.0-1.20","4084","2","24","Female","approach_avoid_spark_v1","""event"",""trial"",""time""
""fullscreenenter"",""1"",""1739""
""blur"",""3"",""40350""
""focus"",""3"",""43376""
""blur"",""16"",""134213""
""focus"",""16"",""137014""
""blur"",""57"",""361569""
""focus"",""57"",""375767""
","""event"",""trial"",""time""
""blur"",""3"",""40350""
""blur"",""16"",""134213""
""blur"",""57"",""361569""
","""event"",""trial"",""time""
""focus"",""3"",""43376""
""focus"",""16"",""137014""
""focus"",""57"",""375767""
","""event"",""trial"",""time""
""fullscreenenter"",""1"",""1739""
","
","","","","","","1002","images/sheep6.png","","","learning","-7","-7","1","1","sheep","animals","2","0","","good","[6]"
"html-keyboard-response","114","588925","0.0-9.0-2.0-0.21","4084","2","24","Female","approach_avoid_spark_v1","""event"",""trial"",""time""
""fullscreenenter"",""1"",""1739""
""blur"",""3"",""40350""
""focus"",""3"",""43376""
""blur"",""16"",""134213""
""focus"",""16"",""137014""
""blur"",""57"",""361569""
""focus"",""57"",""375767""
","""event"",""trial"",""time""
""blur"",""3"",""40350""
""blur"",""16"",""134213""
""blur"",""57"",""361569""
","""event"",""trial"",""time""
""focus"",""3"",""43376""
""focus"",""16"",""137014""
""focus"",""57"",""375767""
","""event"",""trial"",""time""
""fullscreenenter"",""1"",""1739""
","
","","","","","","null","<div style=""font-size:60px;"">+</div>","null","","fixation","","","","","","","","","","",""
"aa-learning-trial","115","591932","0.0-9.0-2.0-1.21","4084","2","24","Female","approach_avoid_spark_v1","""event"",""trial"",""time""
""fullscreenenter"",""1"",""1739""
""blur"",""3"",""40350""
""focus"",""3"",""43376""
""blur"",""16"",""134213""
""focus"",""16"",""137014""
""blur"",""57"",""361569""
""focus"",""57"",""375767""
","""event"",""trial"",""time""
""blur"",""3"",""40350""
""blur"",""16"",""134213""
""blur"",""57"",""361569""
","""event"",""trial"",""time""
""focus"",""3"",""43376""
""focus"",""16"",""137014""
""focus"",""57"",""375767""
","""event"",""trial"",""time""
""fullscreenenter"",""1"",""1739""
","
","","","","","","693.3000000715256","images/goat7.png","","","learning","1","1","1","1","goat","animals","2","0","","bad","[-4]"
"html-keyboard-response","116","592436","0.0-9.0-2.0-0.22","4084","2","24","Female","approach_avoid_spark_v1","""event"",""trial"",""time""
""fullscreenenter"",""1"",""1739""
""blur"",""3"",""40350""
""focus"",""3"",""43376""
""blur"",""16"",""134213""
""focus"",""16"",""137014""
""blur"",""57"",""361569""
""focus"",""57"",""375767""
","""event"",""trial"",""time""
""blur"",""3"",""40350""
""blur"",""16"",""134213""
""blur"",""57"",""361569""
","""event"",""trial"",""time""
""focus"",""3"",""43376""
""focus"",""16"",""137014""
""focus"",""57"",""375767""
","""event"",""trial"",""time""
""fullscreenenter"",""1"",""1739""
","
","","","","","","null","<div style=""font-size:60px;"">+</div>","null","","fixation","","","","","","","","","","",""
"aa-learning-trial","117","595444","0.0-9.0-2.0-1.22","4084","2","24","Female","approach_avoid_spark_v1","""event"",""trial"",""time""
""fullscreenenter"",""1"",""1739""
""blur"",""3"",""40350""
""focus"",""3"",""43376""
""blur"",""16"",""134213""
""focus"",""16"",""137014""
""blur"",""57"",""361569""
""focus"",""57"",""375767""
","""event"",""trial"",""time""
""blur"",""3"",""40350""
""blur"",""16"",""134213""
""blur"",""57"",""361569""
","""event"",""trial"",""time""
""focus"",""3"",""43376""
""focus"",""16"",""137014""
""focus"",""57"",""375767""
","""event"",""trial"",""time""
""fullscreenenter"",""1"",""1739""
","
","","","","","","603","images/sheep7.png","","","learning","2","2","1","1","sheep","animals","2","0","","good","[6]"
"html-keyboard-response","118","595959","0.0-9.0-2.0-0.23","4084","2","24","Female","approach_avoid_spark_v1","""event"",""trial"",""time""
""fullscreenenter"",""1"",""1739""
""blur"",""3"",""40350""
""focus"",""3"",""43376""
""blur"",""16"",""134213""
""focus"",""16"",""137014""
""blur"",""57"",""361569""
""focus"",""57"",""375767""
","""event"",""trial"",""time""
""blur"",""3"",""40350""
""blur"",""16"",""134213""
""blur"",""57"",""361569""
","""event"",""trial"",""time""
""focus"",""3"",""43376""
""focus"",""16"",""137014""
""focus"",""57"",""375767""
","""event"",""trial"",""time""
""fullscreenenter"",""1"",""1739""
","
","","","","","","null","<div style=""font-size:60px;"">+</div>","null","","fixation","","","","","","","","","","",""
"aa-learning-trial","119","598964","0.0-9.0-2.0-1.23","4084","2","24","Female","approach_avoid_spark_v1","""event"",""trial"",""time""
""fullscreenenter"",""1"",""1739""
""blur"",""3"",""40350""
""focus"",""3"",""43376""
""blur"",""16"",""134213""
""focus"",""16"",""137014""
""blur"",""57"",""361569""
""focus"",""57"",""375767""
","""event"",""trial"",""time""
""blur"",""3"",""40350""
""blur"",""16"",""134213""
""blur"",""57"",""361569""
","""event"",""trial"",""time""
""focus"",""3"",""43376""
""focus"",""16"",""137014""
""focus"",""57"",""375767""
","""event"",""trial"",""time""
""fullscreenenter"",""1"",""1739""
","
","","","","","","1212.3999999761581","images/horse4.png","","","learning","4","0","0","0","horse","animals","2","0","","neutral","0"
"html-keyboard-response","120","599467","0.0-9.0-2.0-0.24","4084","2","24","Female","approach_avoid_spark_v1","""event"",""trial"",""time""
""fullscreenenter"",""1"",""1739""
""blur"",""3"",""40350""
""focus"",""3"",""43376""
""blur"",""16"",""134213""
""focus"",""16"",""137014""
""blur"",""57"",""361569""
""focus"",""57"",""375767""
","""event"",""trial"",""time""
""blur"",""3"",""40350""
""blur"",""16"",""134213""
""blur"",""57"",""361569""
","""event"",""trial"",""time""
""focus"",""3"",""43376""
""focus"",""16"",""137014""
""focus"",""57"",""375767""
","""event"",""trial"",""time""
""fullscreenenter"",""1"",""1739""
","
","","","","","","null","<div style=""font-size:60px;"">+</div>","null","","fixation","","","","","","","","","","",""
"aa-learning-trial","121","602477","0.0-9.0-2.0-1.24","4084","2","24","Female","approach_avoid_spark_v1","""event"",""trial"",""time""
""fullscreenenter"",""1"",""1739""
""blur"",""3"",""40350""
""focus"",""3"",""43376""
""blur"",""16"",""134213""
""focus"",""16"",""137014""
""blur"",""57"",""361569""
""focus"",""57"",""375767""
","""event"",""trial"",""time""
""blur"",""3"",""40350""
""blur"",""16"",""134213""
""blur"",""57"",""361569""
","""event"",""trial"",""time""
""focus"",""3"",""43376""
""focus"",""16"",""137014""
""focus"",""57"",""375767""
","""event"",""trial"",""time""
""fullscreenenter"",""1"",""1739""
","
","","","","","","776.7999999523163","images/sheep1.png","","","learning","5","5","1","1","sheep","animals","2","0","","good","[6]"
"html-keyboard-response","122","602980","0.0-9.0-2.0-0.25","4084","2","24","Female","approach_avoid_spark_v1","""event"",""trial"",""time""
""fullscreenenter"",""1"",""1739""
""blur"",""3"",""40350""
""focus"",""3"",""43376""
""blur"",""16"",""134213""
""focus"",""16"",""137014""
""blur"",""57"",""361569""
""focus"",""57"",""375767""
","""event"",""trial"",""time""
""blur"",""3"",""40350""
""blur"",""16"",""134213""
""blur"",""57"",""361569""
","""event"",""trial"",""time""
""focus"",""3"",""43376""
""focus"",""16"",""137014""
""focus"",""57"",""375767""
","""event"",""trial"",""time""
""fullscreenenter"",""1"",""1739""
","
","","","","","","null","<div style=""font-size:60px;"">+</div>","null","","fixation","","","","","","","","","","",""
"aa-learning-trial","123","605988","0.0-9.0-2.0-1.25","4084","2","24","Female","approach_avoid_spark_v1","""event"",""trial"",""time""
""fullscreenenter"",""1"",""1739""
""blur"",""3"",""40350""
""focus"",""3"",""43376""
""blur"",""16"",""134213""
""focus"",""16"",""137014""
""blur"",""57"",""361569""
""focus"",""57"",""375767""
","""event"",""trial"",""time""
""blur"",""3"",""40350""
""blur"",""16"",""134213""
""blur"",""57"",""361569""
","""event"",""trial"",""time""
""focus"",""3"",""43376""
""focus"",""16"",""137014""
""focus"",""57"",""375767""
","""event"",""trial"",""time""
""fullscreenenter"",""1"",""1739""
","
","","","","","","634.2999999523163","images/goat7.png","","","learning","1","1","1","1","goat","animals","2","0","","bad","[-4]"
"html-keyboard-response","124","606493","0.0-9.0-2.0-0.26","4084","2","24","Female","approach_avoid_spark_v1","""event"",""trial"",""time""
""fullscreenenter"",""1"",""1739""
""blur"",""3"",""40350""
""focus"",""3"",""43376""
""blur"",""16"",""134213""
""focus"",""16"",""137014""
""blur"",""57"",""361569""
""focus"",""57"",""375767""
","""event"",""trial"",""time""
""blur"",""3"",""40350""
""blur"",""16"",""134213""
""blur"",""57"",""361569""
","""event"",""trial"",""time""
""focus"",""3"",""43376""
""focus"",""16"",""137014""
""focus"",""57"",""375767""
","""event"",""trial"",""time""
""fullscreenenter"",""1"",""1739""
","
","","","","","","null","<div style=""font-size:60px;"">+</div>","null","","fixation","","","","","","","","","","",""
"aa-learning-trial","125","609500","0.0-9.0-2.0-1.26","4084","2","24","Female","approach_avoid_spark_v1","""event"",""trial"",""time""
""fullscreenenter"",""1"",""1739""
""blur"",""3"",""40350""
""focus"",""3"",""43376""
""blur"",""16"",""134213""
""focus"",""16"",""137014""
""blur"",""57"",""361569""
""focus"",""57"",""375767""
","""event"",""trial"",""time""
""blur"",""3"",""40350""
""blur"",""16"",""134213""
""blur"",""57"",""361569""
","""event"",""trial"",""time""
""focus"",""3"",""43376""
""focus"",""16"",""137014""
""focus"",""57"",""375767""
","""event"",""trial"",""time""
""fullscreenenter"",""1"",""1739""
","
","","","","","","952.5","images/sheep1.png","","","learning","5","5","1","1","sheep","animals","2","0","","good","[6]"
"html-keyboard-response","126","610004","0.0-9.0-2.0-0.27","4084","2","24","Female","approach_avoid_spark_v1","""event"",""trial"",""time""
""fullscreenenter"",""1"",""1739""
""blur"",""3"",""40350""
""focus"",""3"",""43376""
""blur"",""16"",""134213""
""focus"",""16"",""137014""
""blur"",""57"",""361569""
""focus"",""57"",""375767""
","""event"",""trial"",""time""
""blur"",""3"",""40350""
""blur"",""16"",""134213""
""blur"",""57"",""361569""
","""event"",""trial"",""time""
""focus"",""3"",""43376""
""focus"",""16"",""137014""
""focus"",""57"",""375767""
","""event"",""trial"",""time""
""fullscreenenter"",""1"",""1739""
","
","","","","","","null","<div style=""font-size:60px;"">+</div>","null","","fixation","","","","","","","","","","",""
"aa-learning-trial","127","613011","0.0-9.0-2.0-1.27","4084","2","24","Female","approach_avoid_spark_v1","""event"",""trial"",""time""
""fullscreenenter"",""1"",""1739""
""blur"",""3"",""40350""
""focus"",""3"",""43376""
""blur"",""16"",""134213""
""focus"",""16"",""137014""
""blur"",""57"",""361569""
""focus"",""57"",""375767""
","""event"",""trial"",""time""
""blur"",""3"",""40350""
""blur"",""16"",""134213""
""blur"",""57"",""361569""
","""event"",""trial"",""time""
""focus"",""3"",""43376""
""focus"",""16"",""137014""
""focus"",""57"",""375767""
","""event"",""trial"",""time""
""fullscreenenter"",""1"",""1739""
","
","","","","","","1105.7000000476837","images/sheep3.png","","","learning","-5","0","0","0","sheep","animals","2","0","","good","[6]"
"html-keyboard-response","128","613516","0.0-9.0-2.0-0.28","4084","2","24","Female","approach_avoid_spark_v1","""event"",""trial"",""time""
""fullscreenenter"",""1"",""1739""
""blur"",""3"",""40350""
""focus"",""3"",""43376""
""blur"",""16"",""134213""
""focus"",""16"",""137014""
""blur"",""57"",""361569""
""focus"",""57"",""375767""
","""event"",""trial"",""time""
""blur"",""3"",""40350""
""blur"",""16"",""134213""
""blur"",""57"",""361569""
","""event"",""trial"",""time""
""focus"",""3"",""43376""
""focus"",""16"",""137014""
""focus"",""57"",""375767""
","""event"",""trial"",""time""
""fullscreenenter"",""1"",""1739""
","
","","","","","","null","<div style=""font-size:60px;"">+</div>","null","","fixation","","","","","","","","","","",""
"aa-learning-trial","129","616523","0.0-9.0-2.0-1.28","4084","2","24","Female","approach_avoid_spark_v1","""event"",""trial"",""time""
""fullscreenenter"",""1"",""1739""
""blur"",""3"",""40350""
""focus"",""3"",""43376""
""blur"",""16"",""134213""
""focus"",""16"",""137014""
""blur"",""57"",""361569""
""focus"",""57"",""375767""
","""event"",""trial"",""time""
""blur"",""3"",""40350""
""blur"",""16"",""134213""
""blur"",""57"",""361569""
","""event"",""trial"",""time""
""focus"",""3"",""43376""
""focus"",""16"",""137014""
""focus"",""57"",""375767""
","""event"",""trial"",""time""
""fullscreenenter"",""1"",""1739""
","
","","","","","","2208.100000023842","images/horse5.png","","","learning","-8","-8","1","1","horse","animals","2","0","","neutral","0"
"html-keyboard-response","130","617029","0.0-9.0-2.0-0.29","4084","2","24","Female","approach_avoid_spark_v1","""event"",""trial"",""time""
""fullscreenenter"",""1"",""1739""
""blur"",""3"",""40350""
""focus"",""3"",""43376""
""blur"",""16"",""134213""
""focus"",""16"",""137014""
""blur"",""57"",""361569""
""focus"",""57"",""375767""
","""event"",""trial"",""time""
""blur"",""3"",""40350""
""blur"",""16"",""134213""
""blur"",""57"",""361569""
","""event"",""trial"",""time""
""focus"",""3"",""43376""
""focus"",""16"",""137014""
""focus"",""57"",""375767""
","""event"",""trial"",""time""
""fullscreenenter"",""1"",""1739""
","
","","","","","","null","<div style=""font-size:60px;"">+</div>","null","","fixation","","","","","","","","","","",""
"aa-learning-trial","131","620035","0.0-9.0-2.0-1.29","4084","2","24","Female","approach_avoid_spark_v1","""event"",""trial"",""time""
""fullscreenenter"",""1"",""1739""
""blur"",""3"",""40350""
""focus"",""3"",""43376""
