"trial_type","trial_index","time_elapsed","internal_node_id","subject_id","task_condition","age","gender","task_version","interactions","blur_events","focus_events","fullscreenenter_events","fullscreenexit_events","success","timeout","failed_images","failed_audio","failed_video","rt","stimulus","response","button_pressed","task_part","approach_reward","points","key_press","option_selected","stim_cat","task_block","block_condition","block_number","correct","cat_type","mean_cat_reward"
"pavlovia","0","50","0.0-0.0","5814","1","14","Female","approach_avoid_spark_v1","""event"",""trial"",""time""
""focus"",""0"",""2""
""fullscreenenter"",""1"",""3578""
","
","""event"",""trial"",""time""
""focus"",""0"",""2""
","""event"",""trial"",""time""
""fullscreenenter"",""1"",""3578""
","
","","","","","","","","","","","","","","","","","","","","",""
"fullscreen","1","4344","0.0-1.0","5814","1","14","Female","approach_avoid_spark_v1","""event"",""trial"",""time""
""focus"",""0"",""2""
""fullscreenenter"",""1"",""3578""
","
","""event"",""trial"",""time""
""focus"",""0"",""2""
","""event"",""trial"",""time""
""fullscreenenter"",""1"",""3578""
","
","true","","","","","","","","","","","","","","","","","","","",""
"preload","2","12091","0.0-2.0","5814","1","14","Female","approach_avoid_spark_v1","""event"",""trial"",""time""
""focus"",""0"",""2""
""fullscreenenter"",""1"",""3578""
","
","""event"",""trial"",""time""
""focus"",""0"",""2""
","""event"",""trial"",""time""
""fullscreenenter"",""1"",""3578""
","
","true","false","[]","[]","[]","","","","","","","","","","","","","","","",""
"audio-keyboard-response","3","14770","0.0-3.0","5814","1","14","Female","approach_avoid_spark_v1","""event"",""trial"",""time""
""focus"",""0"",""2""
""fullscreenenter"",""1"",""3578""
","
","""event"",""trial"",""time""
""focus"",""0"",""2""
","""event"",""trial"",""time""
""fullscreenenter"",""1"",""3578""
","
","","","","","","2679.9999999999995","audio/beep_loop.wav"," ","","","","","","","","","","","","",""
"audio-button-response","4","16855","0.0-4.0","5814","1","14","Female","approach_avoid_spark_v1","""event"",""trial"",""time""
""focus"",""0"",""2""
""fullscreenenter"",""1"",""3578""
","
","""event"",""trial"",""time""
""focus"",""0"",""2""
","""event"",""trial"",""time""
""fullscreenenter"",""1"",""3578""
","
","","","","","","2091","audio/shark.wav","4","","","","","","","","","","","","",""
"audio-button-response","5","19343","0.0-5.0","5814","1","14","Female","approach_avoid_spark_v1","""event"",""trial"",""time""
""focus"",""0"",""2""
""fullscreenenter"",""1"",""3578""
","
","""event"",""trial"",""time""
""focus"",""0"",""2""
","""event"",""trial"",""time""
""fullscreenenter"",""1"",""3578""
","
","","","","","","1469","audio/turtle.wav","1","","","","","","","","","","","","",""
"preload","6","23236","0.0-6.0","5814","1","14","Female","approach_avoid_spark_v1","""event"",""trial"",""time""
""focus"",""0"",""2""
""fullscreenenter"",""1"",""3578""
","
","""event"",""trial"",""time""
""focus"",""0"",""2""
","""event"",""trial"",""time""
""fullscreenenter"",""1"",""3578""
","
","true","false","[]","[]","[]","","","","","","","","","","","","","","","",""
"html-keyboard-response","7","24765","0.0-7.0","5814","1","14","Female","approach_avoid_spark_v1","""event"",""trial"",""time""
""focus"",""0"",""2""
""fullscreenenter"",""1"",""3578""
","
","""event"",""trial"",""time""
""focus"",""0"",""2""
","""event"",""trial"",""time""
""fullscreenenter"",""1"",""3578""
","
","","","","","","1526","Welcome to the experiment. Press any key to begin and to advance the instructions."," ","","","","","","","","","","","","",""
"learning-instructions","8","33111","0.0-8.0-0.0-0.0","5814","1","14","Female","approach_avoid_spark_v1","""event"",""trial"",""time""
""focus"",""0"",""2""
""fullscreenenter"",""1"",""3578""
","
","""event"",""trial"",""time""
""focus"",""0"",""2""
","""event"",""trial"",""time""
""fullscreenenter"",""1"",""3578""
","
","","","","","","1379","<p> Welcome! Today you are going to play 6 different rounds of a decision-making game. </p><p> Use the mouse to click next to continue. </p>","","0","instructions","","","","","","","","","","",""
"learning-instructions","9","36627","0.0-8.0-0.0-0.1","5814","1","14","Female","approach_avoid_spark_v1","""event"",""trial"",""time""
""focus"",""0"",""2""
""fullscreenenter"",""1"",""3578""
","
","""event"",""trial"",""time""
""focus"",""0"",""2""
","""event"",""trial"",""time""
""fullscreenenter"",""1"",""3578""
","
","","","","","","775","<p> You will start with a practice round to learn the rules. </p>","","0","instructions","","","","","","","","","","",""
"learning-instructions","10","40656","0.0-8.0-0.0-0.2","5814","1","14","Female","approach_avoid_spark_v1","""event"",""trial"",""time""
""focus"",""0"",""2""
""fullscreenenter"",""1"",""3578""
","
","""event"",""trial"",""time""
""focus"",""0"",""2""
","""event"",""trial"",""time""
""fullscreenenter"",""1"",""3578""
","
","","","","","","564","<p> Your goal in this round is to give out sports equipment to kids. </p></div>","","0","instructions","","","","","","","","","","",""
"learning-instructions","11","49122","0.0-8.0-0.0-0.3","5814","1","14","Female","approach_avoid_spark_v1","""event"",""trial"",""time""
""focus"",""0"",""2""
""fullscreenenter"",""1"",""3578""
","
","""event"",""trial"",""time""
""focus"",""0"",""2""
","""event"",""trial"",""time""
""fullscreenenter"",""1"",""3578""
","
","","","","","","901","<p> The kids only like some of the equipment.  </p><p> On each turn, you will see a piece of sports equipment.   </p><p> You need to decide whether to give it to the kids or not.  </p>","","0","instructions","","","","","","","","","","",""
"learning-instructions","12","54179","0.0-8.0-0.0-0.4","5814","1","14","Female","approach_avoid_spark_v1","""event"",""trial"",""time""
""focus"",""0"",""2""
""fullscreenenter"",""1"",""3578""
","
","""event"",""trial"",""time""
""focus"",""0"",""2""
","""event"",""trial"",""time""
""fullscreenenter"",""1"",""3578""
","
","","","","","","288","<p> You can give them the equipment by pressing 1 and choose not to give it to them by pressing 0. </p><br><div class=""choice-instructions-grid""> <div class=""choice-option""><img src=""images/approach.png"" class=""choice-option-img"" stage=""instructions"" position=""0"" ><div class=""choice-option-text""> Press ""1."" </div></div><div class=""choice-option""><img src=""images/avoid.png"" class=""choice-option-img"" stage=""instructions"" position=""1"" ><div class=""choice-option-text""> Press ""0."" </div></div>","","0","instructions","","","","","","","","","","",""
"learning-instructions","13","62120","0.0-8.0-0.0-0.5","5814","1","14","Female","approach_avoid_spark_v1","""event"",""trial"",""time""
""focus"",""0"",""2""
""fullscreenenter"",""1"",""3578""
","
","""event"",""trial"",""time""
""focus"",""0"",""2""
","""event"",""trial"",""time""
""fullscreenenter"",""1"",""3578""
","
","","","","","","550","<p> If you give them a piece of equipment they like, they will be happy! </p><p> But if you give them a piece of equipment they do not like, they will be sad. </p>","","0","instructions","","","","","","","","","","",""
"learning-instructions","14","72933","0.0-8.0-0.0-0.6","5814","1","14","Female","approach_avoid_spark_v1","""event"",""trial"",""time""
""focus"",""0"",""2""
""fullscreenenter"",""1"",""3578""
","
","""event"",""trial"",""time""
""focus"",""0"",""2""
","""event"",""trial"",""time""
""fullscreenenter"",""1"",""3578""
","
","","","","","","283","<p> You will earn points based on how you make kids feel. </p><p> If you make them happy, you will WIN anywhere from 1 - 9 points, </p><p> but if you make them sad, you will LOSE anywhere from 1 - 9 points. </p>","","0","instructions","","","","","","","","","","",""
"learning-instructions","15","82930","0.0-8.0-0.0-0.7","5814","1","14","Female","approach_avoid_spark_v1","""event"",""trial"",""time""
""focus"",""0"",""2""
""fullscreenenter"",""1"",""3578""
","
","""event"",""trial"",""time""
""focus"",""0"",""2""
","""event"",""trial"",""time""
""fullscreenenter"",""1"",""3578""
","
","","","","","","427","<p> You will see how many points you won or lost in the center of the screen. </p><p> Here is what you would see if you won 6 points: </p><p style=""color:green;font-size:50px;font-weight:bolder"">6</p><p style=""color:green"">The text is GREEN because you WON points.</p>","","0","instructions","","","","","","","","","","",""
"learning-instructions","16","88886","0.0-8.0-0.0-0.8","5814","1","14","Female","approach_avoid_spark_v1","""event"",""trial"",""time""
""focus"",""0"",""2""
""fullscreenenter"",""1"",""3578""
","
","""event"",""trial"",""time""
""focus"",""0"",""2""
","""event"",""trial"",""time""
""fullscreenenter"",""1"",""3578""
","
","","","","","","445","<p> And here is what you would see if you lost 4 points: </p><p style=""color:red;font-size:50px;font-weight:bolder"">-4</p><p style=""color:red"">The text is RED because you LOST points. </p>","","0","instructions","","","","","","","","","","",""
"learning-instructions","17","104548","0.0-8.0-0.0-0.9","5814","1","14","Female","approach_avoid_spark_v1","""event"",""trial"",""time""
""focus"",""0"",""2""
""fullscreenenter"",""1"",""3578""
","
","""event"",""trial"",""time""
""focus"",""0"",""2""
","""event"",""trial"",""time""
""fullscreenenter"",""1"",""3578""
","
","","","","","","939","<p> Some of the equipment will make the kids VERY happy or sad. </p><p> These pieces of equipment will make you win or lose LOTS of points. </p><p> Other pieces of equipment will only make the kids a little happy or sad. </p><p> These pieces of equipment will make you win or lose small amounts of points. </p>","","0","instructions","","","","","","","","","","",""
"learning-instructions","18","116151","0.0-8.0-0.0-0.10","5814","1","14","Female","approach_avoid_spark_v1","""event"",""trial"",""time""
""focus"",""0"",""2""
""fullscreenenter"",""1"",""3578""
","
","""event"",""trial"",""time""
""focus"",""0"",""2""
","""event"",""trial"",""time""
""fullscreenenter"",""1"",""3578""
","
","","","","","","961","<p> If you choose not to give them the equipment, you will not win or lose any points. </p><p>  However, in the center of the screen, you will see the number of points you WOULD HAVE won or lost if you had given them the equipment. </p>","","0","instructions","","","","","","","","","","",""
"learning-instructions","19","138237","0.0-8.0-0.0-0.11","5814","1","14","Female","approach_avoid_spark_v1","""event"",""trial"",""time""
""focus"",""0"",""2""
""fullscreenenter"",""1"",""3578""
","
","""event"",""trial"",""time""
""focus"",""0"",""2""
","""event"",""trial"",""time""
""fullscreenenter"",""1"",""3578""
","
","","","","","","536","<p> Here is what you might see if you did not give the equipment to the kids but it would have made them happy: </p><p style=""color:grey; font-size:50px; display: inline-block; border-spacing: 15px; border-width:3px; border-style:solid; border-color:red"">  &nbsp; 7 &nbsp; </p><p> Remember, in this case, you would not win or lose ANY points because you did not give them the equipment.  </p><p style=""color:grey"">The text is GREY because you earned ZERO points. </p><p style=""color:red"">However, choosing to give the kids the equipment would have made you win points. The box around the text is RED because you chose the worse option. </p>","","0","instructions","","","","","","","","","","",""
"learning-instructions","20","169931","0.0-8.0-0.0-0.12","5814","1","14","Female","approach_avoid_spark_v1","""event"",""trial"",""time""
""focus"",""0"",""2""
""fullscreenenter"",""1"",""3578""
","
","""event"",""trial"",""time""
""focus"",""0"",""2""
","""event"",""trial"",""time""
""fullscreenenter"",""1"",""3578""
","
","","","","","","10532","<p> Here is what you might see if you did not give the equipment to the kids but it would have made them sad: </p><p style=""color:grey;font-size:50px; display: inline-block; border-spacing: 15px; border-width:3px; border-style:solid; border-color:green"">  &nbsp; -8 &nbsp; </p><p> Remember, in this case, you would not win or lose ANY points because you did not give them the equipment.  </p><p style=""color:grey"">The text is GREY because you earned ZERO points. </p><p  style=""color:green""> Choosing to give the kids the equipment would have made you lose points. The box around the text is GREEN because you chose the better option.</p>","","0","instructions","","","","","","","","","","",""
"learning-instructions","21","179738","0.0-8.0-0.0-0.13","5814","1","14","Female","approach_avoid_spark_v1","""event"",""trial"",""time""
""focus"",""0"",""2""
""fullscreenenter"",""1"",""3578""
","
","""event"",""trial"",""time""
""focus"",""0"",""2""
","""event"",""trial"",""time""
""fullscreenenter"",""1"",""3578""
","
","","","","","","588","<p> You will have 3 seconds to make each choice. Try to respond before time runs out! </p><p> You will lose 5 points each time you do not make a response. </p>","","0","instructions","","","","","","","","","","",""
"learning-instructions","22","185735","0.0-8.0-0.0-0.14","5814","1","14","Female","approach_avoid_spark_v1","""event"",""trial"",""time""
""focus"",""0"",""2""
""fullscreenenter"",""1"",""3578""
","
","""event"",""trial"",""time""
""focus"",""0"",""2""
","""event"",""trial"",""time""
""fullscreenenter"",""1"",""3578""
","
","","","","","","574","<p> This is just a practice round, but in the real game, your bonus payment will depend on your total number of points.","","0","instructions","","","","","","","","","","",""
"learning-instructions","23","192137","0.0-8.0-0.0-0.15","5814","1","14","Female","approach_avoid_spark_v1","""event"",""trial"",""time""
""focus"",""0"",""2""
""fullscreenenter"",""1"",""3578""
","
","""event"",""trial"",""time""
""focus"",""0"",""2""
","""event"",""trial"",""time""
""fullscreenenter"",""1"",""3578""
","
","","","","","","596","<p> Remember, you can give them the equipment by pressing 1 and choose not to give it to them by pressing 0. </p><br><div class=""choice-instructions-grid""> <div class=""choice-option""><img src=""images/approach.png"" class=""choice-option-img"" stage=""instructions"" position=""0"" ><div class=""choice-option-text""> Press ""1."" </div></div><div class=""choice-option""><img src=""images/avoid.png"" class=""choice-option-img"" stage=""instructions"" position=""1"" ><div class=""choice-option-text""> Press ""0."" </div></div>","","0","instructions","","","","","","","","","","",""
"html-button-response","24","194569","0.0-8.0-1.0","5814","1","14","Female","approach_avoid_spark_v1","""event"",""trial"",""time""
""focus"",""0"",""2""
""fullscreenenter"",""1"",""3578""
","
","""event"",""trial"",""time""
""focus"",""0"",""2""
","""event"",""trial"",""time""
""fullscreenenter"",""1"",""3578""
","
","","","","","","2322","<p> Ready to practice? </p>","0","","","","","","","","","","","","",""
"html-keyboard-response","25","195186","0.0-8.0-2.0-0.0","5814","1","14","Female","approach_avoid_spark_v1","""event"",""trial"",""time""
""focus"",""0"",""2""
""fullscreenenter"",""1"",""3578""
","
","""event"",""trial"",""time""
""focus"",""0"",""2""
","""event"",""trial"",""time""
""fullscreenenter"",""1"",""3578""
","
","","","","","","null","<div style=""font-size:60px;"">+</div>","null","","fixation","","","","","","","","","","",""
"aa-learning-trial","26","198207","0.0-8.0-2.0-1.0","5814","1","14","Female","approach_avoid_spark_v1","""event"",""trial"",""time""
""focus"",""0"",""2""
""fullscreenenter"",""1"",""3578""
","
","""event"",""trial"",""time""
""focus"",""0"",""2""
","""event"",""trial"",""time""
""fullscreenenter"",""1"",""3578""
","
","","","","","","1437","images/ball1.png","","","learning","-4","-4","1","1","practice","practice","practice","-1","","",""
"html-keyboard-response","27","198728","0.0-8.0-2.0-0.1","5814","1","14","Female","approach_avoid_spark_v1","""event"",""trial"",""time""
""focus"",""0"",""2""
""fullscreenenter"",""1"",""3578""
","
","""event"",""trial"",""time""
""focus"",""0"",""2""
","""event"",""trial"",""time""
""fullscreenenter"",""1"",""3578""
","
","","","","","","null","<div style=""font-size:60px;"">+</div>","null","","fixation","","","","","","","","","","",""
"aa-learning-trial","28","201738","0.0-8.0-2.0-1.1","5814","1","14","Female","approach_avoid_spark_v1","""event"",""trial"",""time""
""focus"",""0"",""2""
""fullscreenenter"",""1"",""3578""
","
","""event"",""trial"",""time""
""focus"",""0"",""2""
","""event"",""trial"",""time""
""fullscreenenter"",""1"",""3578""
","
","","","","","","826","images/racket3.png","","","learning","-5","-5","1","1","practice","practice","practice","-1","","",""
"html-keyboard-response","29","202258","0.0-8.0-2.0-0.2","5814","1","14","Female","approach_avoid_spark_v1","""event"",""trial"",""time""
""focus"",""0"",""2""
""fullscreenenter"",""1"",""3578""
","
","""event"",""trial"",""time""
""focus"",""0"",""2""
","""event"",""trial"",""time""
""fullscreenenter"",""1"",""3578""
","
","","","","","","null","<div style=""font-size:60px;"">+</div>","null","","fixation","","","","","","","","","","",""
"aa-learning-trial","30","205262","0.0-8.0-2.0-1.2","5814","1","14","Female","approach_avoid_spark_v1","""event"",""trial"",""time""
""focus"",""0"",""2""
""fullscreenenter"",""1"",""3578""
","
","""event"",""trial"",""time""
""focus"",""0"",""2""
","""event"",""trial"",""time""
""fullscreenenter"",""1"",""3578""
","
","","","","","","772","images/racket3.png","","","learning","2","0","0","0","practice","practice","practice","-1","","",""
"html-keyboard-response","31","205769","0.0-8.0-2.0-0.3","5814","1","14","Female","approach_avoid_spark_v1","""event"",""trial"",""time""
""focus"",""0"",""2""
""fullscreenenter"",""1"",""3578""
","
","""event"",""trial"",""time""
""focus"",""0"",""2""
","""event"",""trial"",""time""
""fullscreenenter"",""1"",""3578""
","
","","","","","","null","<div style=""font-size:60px;"">+</div>","null","","fixation","","","","","","","","","","",""
"aa-learning-trial","32","208772","0.0-8.0-2.0-1.3","5814","1","14","Female","approach_avoid_spark_v1","""event"",""trial"",""time""
""focus"",""0"",""2""
""fullscreenenter"",""1"",""3578""
","
","""event"",""trial"",""time""
""focus"",""0"",""2""
","""event"",""trial"",""time""
""fullscreenenter"",""1"",""3578""
","
","","","","","","1524","images/ball4.png","","","learning","-6","-6","1","1","practice","practice","practice","-1","","",""
"html-keyboard-response","33","209274","0.0-8.0-2.0-0.4","5814","1","14","Female","approach_avoid_spark_v1","""event"",""trial"",""time""
""focus"",""0"",""2""
""fullscreenenter"",""1"",""3578""
","
","""event"",""trial"",""time""
""focus"",""0"",""2""
","""event"",""trial"",""time""
""fullscreenenter"",""1"",""3578""
","
","","","","","","null","<div style=""font-size:60px;"">+</div>","null","","fixation","","","","","","","","","","",""
"aa-learning-trial","34","212276","0.0-8.0-2.0-1.4","5814","1","14","Female","approach_avoid_spark_v1","""event"",""trial"",""time""
""focus"",""0"",""2""
""fullscreenenter"",""1"",""3578""
","
","""event"",""trial"",""time""
""focus"",""0"",""2""
","""event"",""trial"",""time""
""fullscreenenter"",""1"",""3578""
","
","","","","","","1568","images/ball1.png","","","learning","7","0","0","0","practice","practice","practice","-1","","",""
"html-keyboard-response","35","212788","0.0-8.0-2.0-0.5","5814","1","14","Female","approach_avoid_spark_v1","""event"",""trial"",""time""
""focus"",""0"",""2""
""fullscreenenter"",""1"",""3578""
","
","""event"",""trial"",""time""
""focus"",""0"",""2""
","""event"",""trial"",""time""
""fullscreenenter"",""1"",""3578""
","
","","","","","","null","<div style=""font-size:60px;"">+</div>","null","","fixation","","","","","","","","","","",""
"aa-learning-trial","36","215796","0.0-8.0-2.0-1.5","5814","1","14","Female","approach_avoid_spark_v1","""event"",""trial"",""time""
""focus"",""0"",""2""
""fullscreenenter"",""1"",""3578""
","
","""event"",""trial"",""time""
""focus"",""0"",""2""
","""event"",""trial"",""time""
""fullscreenenter"",""1"",""3578""
","
","","","","","","953","images/ball3.png","","","learning","2","0","0","0","practice","practice","practice","-1","","",""
"html-keyboard-response","37","216302","0.0-8.0-2.0-0.6","5814","1","14","Female","approach_avoid_spark_v1","""event"",""trial"",""time""
""focus"",""0"",""2""
""fullscreenenter"",""1"",""3578""
","
","""event"",""trial"",""time""
""focus"",""0"",""2""
","""event"",""trial"",""time""
""fullscreenenter"",""1"",""3578""
","
","","","","","","null","<div style=""font-size:60px;"">+</div>","null","","fixation","","","","","","","","","","",""
"aa-learning-trial","38","219310","0.0-8.0-2.0-1.6","5814","1","14","Female","approach_avoid_spark_v1","""event"",""trial"",""time""
""focus"",""0"",""2""
""fullscreenenter"",""1"",""3578""
","
","""event"",""trial"",""time""
""focus"",""0"",""2""
","""event"",""trial"",""time""
""fullscreenenter"",""1"",""3578""
","
","","","","","","949","images/racket1.png","","","learning","-7","-7","1","1","practice","practice","practice","-1","","",""
"html-keyboard-response","39","219819","0.0-8.0-2.0-0.7","5814","1","14","Female","approach_avoid_spark_v1","""event"",""trial"",""time""
""focus"",""0"",""2""
""fullscreenenter"",""1"",""3578""
","
","""event"",""trial"",""time""
""focus"",""0"",""2""
","""event"",""trial"",""time""
""fullscreenenter"",""1"",""3578""
","
","","","","","","null","<div style=""font-size:60px;"">+</div>","null","","fixation","","","","","","","","","","",""
"aa-learning-trial","40","222833","0.0-8.0-2.0-1.7","5814","1","14","Female","approach_avoid_spark_v1","""event"",""trial"",""time""
""focus"",""0"",""2""
""fullscreenenter"",""1"",""3578""
","
","""event"",""trial"",""time""
""focus"",""0"",""2""
","""event"",""trial"",""time""
""fullscreenenter"",""1"",""3578""
","
","","","","","","1662","images/racket3.png","","","learning","-8","0","0","0","practice","practice","practice","-1","","",""
"html-keyboard-response","41","223349","0.0-8.0-2.0-0.8","5814","1","14","Female","approach_avoid_spark_v1","""event"",""trial"",""time""
""focus"",""0"",""2""
""fullscreenenter"",""1"",""3578""
","
","""event"",""trial"",""time""
""focus"",""0"",""2""
","""event"",""trial"",""time""
""fullscreenenter"",""1"",""3578""
","
","","","","","","null","<div style=""font-size:60px;"">+</div>","null","","fixation","","","","","","","","","","",""
"aa-learning-trial","42","226364","0.0-8.0-2.0-1.8","5814","1","14","Female","approach_avoid_spark_v1","""event"",""trial"",""time""
""focus"",""0"",""2""
""fullscreenenter"",""1"",""3578""
","
","""event"",""trial"",""time""
""focus"",""0"",""2""
","""event"",""trial"",""time""
""fullscreenenter"",""1"",""3578""
","
","","","","","","1633","images/ball3.png","","","learning","-4","0","0","0","practice","practice","practice","-1","","",""
"html-keyboard-response","43","226871","0.0-8.0-2.0-0.9","5814","1","14","Female","approach_avoid_spark_v1","""event"",""trial"",""time""
""focus"",""0"",""2""
""fullscreenenter"",""1"",""3578""
","
","""event"",""trial"",""time""
""focus"",""0"",""2""
","""event"",""trial"",""time""
""fullscreenenter"",""1"",""3578""
","
","","","","","","null","<div style=""font-size:60px;"">+</div>","null","","fixation","","","","","","","","","","",""
"aa-learning-trial","44","229875","0.0-8.0-2.0-1.9","5814","1","14","Female","approach_avoid_spark_v1","""event"",""trial"",""time""
""focus"",""0"",""2""
""fullscreenenter"",""1"",""3578""
","
","""event"",""trial"",""time""
""focus"",""0"",""2""
","""event"",""trial"",""time""
""fullscreenenter"",""1"",""3578""
","
","","","","","","1617","images/ball4.png","","","learning","-5","-5","1","1","practice","practice","practice","-1","","",""
"html-keyboard-response","45","230383","0.0-8.0-2.0-0.10","5814","1","14","Female","approach_avoid_spark_v1","""event"",""trial"",""time""
""focus"",""0"",""2""
""fullscreenenter"",""1"",""3578""
","
","""event"",""trial"",""time""
""focus"",""0"",""2""
","""event"",""trial"",""time""
""fullscreenenter"",""1"",""3578""
","
","","","","","","null","<div style=""font-size:60px;"">+</div>","null","","fixation","","","","","","","","","","",""
"aa-learning-trial","46","233396","0.0-8.0-2.0-1.10","5814","1","14","Female","approach_avoid_spark_v1","""event"",""trial"",""time""
""focus"",""0"",""2""
""fullscreenenter"",""1"",""3578""
","
","""event"",""trial"",""time""
""focus"",""0"",""2""
","""event"",""trial"",""time""
""fullscreenenter"",""1"",""3578""
","
","","","","","","1040","images/racket2.png","","","learning","2","0","0","0","practice","practice","practice","-1","","",""
"html-keyboard-response","47","233907","0.0-8.0-2.0-0.11","5814","1","14","Female","approach_avoid_spark_v1","""event"",""trial"",""time""
""focus"",""0"",""2""
""fullscreenenter"",""1"",""3578""
","
","""event"",""trial"",""time""
""focus"",""0"",""2""
","""event"",""trial"",""time""
""fullscreenenter"",""1"",""3578""
","
","","","","","","null","<div style=""font-size:60px;"">+</div>","null","","fixation","","","","","","","","","","",""
"aa-learning-trial","48","236923","0.0-8.0-2.0-1.11","5814","1","14","Female","approach_avoid_spark_v1","""event"",""trial"",""time""
""focus"",""0"",""2""
""fullscreenenter"",""1"",""3578""
","
","""event"",""trial"",""time""
""focus"",""0"",""2""
","""event"",""trial"",""time""
""fullscreenenter"",""1"",""3578""
","
","","","","","","404","images/ball1.png","","","learning","5","0","0","0","practice","practice","practice","-1","","",""
"html-button-response","49","239381","0.0-8.0-3.0","5814","1","14","Female","approach_avoid_spark_v1","""event"",""trial"",""time""
""focus"",""0"",""2""
""fullscreenenter"",""1"",""3578""
","
","""event"",""trial"",""time""
""focus"",""0"",""2""
","""event"",""trial"",""time""
""fullscreenenter"",""1"",""3578""
","
","","","","","","2456","<p> You earned -27 points in the practice round! </p>","0","","break","","","","","","","","","","",""
"learning-instructions","50","246692","0.0-8.0-4.0-0.0","5814","1","14","Female","approach_avoid_spark_v1","""event"",""trial"",""time""
""focus"",""0"",""2""
""fullscreenenter"",""1"",""3578""
","
","""event"",""trial"",""time""
""focus"",""0"",""2""
","""event"",""trial"",""time""
""fullscreenenter"",""1"",""3578""
","
","","","","","","1342","<p> It's almost time to start the real game. </p><p> Before you start, we're going to ask you a few questions about how the game works. </p>","","0","instructions","","","","","","","","","","",""
"preload","51","248463","0.0-8.0-5.0","5814","1","14","Female","approach_avoid_spark_v1","""event"",""trial"",""time""
""focus"",""0"",""2""
""fullscreenenter"",""1"",""3578""
","
","""event"",""trial"",""time""
""focus"",""0"",""2""
","""event"",""trial"",""time""
""fullscreenenter"",""1"",""3578""
","
","true","false","[]","[]","[]","","","","","","","","","","","","","","","",""
"comp-q","52","254594","0.0-8.0-6.0-0.0","5814","1","14","Female","approach_avoid_spark_v1","""event"",""trial"",""time""
""focus"",""0"",""2""
""fullscreenenter"",""1"",""3578""
","
","""event"",""trial"",""time""
""focus"",""0"",""2""
","""event"",""trial"",""time""
""fullscreenenter"",""1"",""3578""
","
","","","","","","1124","<p> <b> True or False? </b> </p><p> If you see a number in GREY, that means you earned that many points. </p>","","1","comp_question","","","","","","","","","true","",""
"comp-q","53","264771","0.0-8.0-6.0-1.0","5814","1","14","Female","approach_avoid_spark_v1","""event"",""trial"",""time""
""focus"",""0"",""2""
""fullscreenenter"",""1"",""3578""
","
","""event"",""trial"",""time""
""focus"",""0"",""2""
","""event"",""trial"",""time""
""fullscreenenter"",""1"",""3578""
","
","","","","","","1801","<p><b> That's right! </b> If you see a grey number, it means you earned ZERO points. <br> The grey numbers show the points you WOULD HAVE earned if you had made the other choice. </p>","","0","comp_answer","","","","","","","","","","",""
"comp-q","54","270217","0.0-8.0-7.0-0.0","5814","1","14","Female","approach_avoid_spark_v1","""event"",""trial"",""time""
""focus"",""0"",""2""
""fullscreenenter"",""1"",""3578""
","
","""event"",""trial"",""time""
""focus"",""0"",""2""
","""event"",""trial"",""time""
""fullscreenenter"",""1"",""3578""
","
","","","","","","738","<p> <b> True or False? </b> </p><p> You will have as much time as you want to make each choice. </p>","","1","comp_question","","","","","","","","","true","",""
"comp-q","55","275258","0.0-8.0-7.0-1.0","5814","1","14","Female","approach_avoid_spark_v1","""event"",""trial"",""time""
""focus"",""0"",""2""
""fullscreenenter"",""1"",""3578""
","
","""event"",""trial"",""time""
""focus"",""0"",""2""
","""event"",""trial"",""time""
""fullscreenenter"",""1"",""3578""
","
","","","","","","977","<p> <b> That's right! </b> You will only have 3 seconds to make each choice. </p>","","0","comp_answer","","","","","","","","","","",""
"comp-q","56","280933","0.0-8.0-8.0-0.0","5814","1","14","Female","approach_avoid_spark_v1","""event"",""trial"",""time""
""focus"",""0"",""2""
""fullscreenenter"",""1"",""3578""
","
","""event"",""trial"",""time""
""focus"",""0"",""2""
","""event"",""trial"",""time""
""fullscreenenter"",""1"",""3578""
","
","","","","","","1003","<p> <b> True or False? </b> </p><p> You should use the '1' and '0' keys to make your choices. </p>","","0","comp_question","","","","","","","","","true","",""
"comp-q","57","286643","0.0-8.0-8.0-1.0","5814","1","14","Female","approach_avoid_spark_v1","""event"",""trial"",""time""
""focus"",""0"",""2""
""fullscreenenter"",""1"",""3578""
","
","""event"",""trial"",""time""
""focus"",""0"",""2""
","""event"",""trial"",""time""
""fullscreenenter"",""1"",""3578""
","
","","","","","","1083","<p> <b> That's right! </b> You should use the '1' and '0' keys to make each choice. </p>","","0","comp_answer","","","","","","","","","","",""
"learning-instructions","58","294072","0.0-8.0-9.0-0.0","5814","1","14","Female","approach_avoid_spark_v1","""event"",""trial"",""time""
""focus"",""0"",""2""
""fullscreenenter"",""1"",""3578""
","
","""event"",""trial"",""time""
""focus"",""0"",""2""
","""event"",""trial"",""time""
""fullscreenenter"",""1"",""3578""
","
","","","","","","1142","<p> It's now time to start the real game. </p>Do your best, because the points you earn in the next rounds will influence your bonus payment. </p>","","0","instructions","","","","","","","","","","",""
"preload","59","294252","0.0-9.0-0.0","5814","1","14","Female","approach_avoid_spark_v1","""event"",""trial"",""time""
""focus"",""0"",""2""
""fullscreenenter"",""1"",""3578""
","
","""event"",""trial"",""time""
""focus"",""0"",""2""
","""event"",""trial"",""time""
""fullscreenenter"",""1"",""3578""
","
","true","false","[]","[]","[]","","","","","","","","","","","","","","","",""
"learning-instructions","60","299049","0.0-9.0-1.0-0.0","5814","1","14","Female","approach_avoid_spark_v1","""event"",""trial"",""time""
""focus"",""0"",""2""
""fullscreenenter"",""1"",""3578""
","
","""event"",""trial"",""time""
""focus"",""0"",""2""
","""event"",""trial"",""time""
""fullscreenenter"",""1"",""3578""
","
","","","","","","911","<p> Your goal in this round is to take care of lots of animals. </p></div>","","0","instructions","","","","","","","","","","",""
"learning-instructions","61","310844","0.0-9.0-1.0-0.1","5814","1","14","Female","approach_avoid_spark_v1","""event"",""trial"",""time""
""focus"",""0"",""2""
""fullscreenenter"",""1"",""3578""
","
","""event"",""trial"",""time""
""focus"",""0"",""2""
","""event"",""trial"",""time""
""fullscreenenter"",""1"",""3578""
","
","","","","","","2234","<p> Some animals want to be pet, while other animals want to be left alone.  </p><p> On each turn, you will see an animal.   </p><p> You need to decide whether to pet it or not.  </p>","","0","instructions","","","","","","","","","","",""
"learning-instructions","62","316586","0.0-9.0-1.0-0.2","5814","1","14","Female","approach_avoid_spark_v1","""event"",""trial"",""time""
""focus"",""0"",""2""
""fullscreenenter"",""1"",""3578""
","
","""event"",""trial"",""time""
""focus"",""0"",""2""
","""event"",""trial"",""time""
""fullscreenenter"",""1"",""3578""
","
","","","","","","624","<p> You can pet the animal by pressing 1 and leave the animal alone by pressing 0. </p><br><div class=""choice-instructions-grid""> <div class=""choice-option""><img src=""images/approach.png"" class=""choice-option-img"" stage=""instructions"" position=""0"" ><div class=""choice-option-text""> Press ""1."" </div></div><div class=""choice-option""><img src=""images/avoid.png"" class=""choice-option-img"" stage=""instructions"" position=""1"" ><div class=""choice-option-text""> Press ""0."" </div></div>","","0","instructions","","","","","","","","","","",""
"learning-instructions","63","326127","0.0-9.0-1.0-0.3","5814","1","14","Female","approach_avoid_spark_v1","""event"",""trial"",""time""
""focus"",""0"",""2""
""fullscreenenter"",""1"",""3578""
","
","""event"",""trial"",""time""
""focus"",""0"",""2""
","""event"",""trial"",""time""
""fullscreenenter"",""1"",""3578""
","
","","","","","","727","<p> If you pet an animal that wants to be pet, you will make it feel happy! </p><p> But if you pet an animal that wants to be left alone, you will make it feel angry. </p>","","0","instructions","","","","","","","","","","",""
"learning-instructions","64","338954","0.0-9.0-1.0-0.4","5814","1","14","Female","approach_avoid_spark_v1","""event"",""trial"",""time""
""focus"",""0"",""2""
""fullscreenenter"",""1"",""3578""
","
","""event"",""trial"",""time""
""focus"",""0"",""2""
","""event"",""trial"",""time""
""fullscreenenter"",""1"",""3578""
","
","","","","","","484","<p> You will earn points based on how you made the animal feel. </p><p> If you made it feel happy, you will WIN anywhere from 1 - 9 points, </p><p> but if you made it feel angry, you will LOSE anywhere from 1 - 9 points. </p>","","0","instructions","","","","","","","","","","",""
"learning-instructions","65","346875","0.0-9.0-1.0-0.5","5814","1","14","Female","approach_avoid_spark_v1","""event"",""trial"",""time""
""focus"",""0"",""2""
""fullscreenenter"",""1"",""3578""
","
","""event"",""trial"",""time""
""focus"",""0"",""2""
","""event"",""trial"",""time""
""fullscreenenter"",""1"",""3578""
","
","","","","","","305","<p> You will see how many points you won or lost in the center of the screen. </p><p> Here is what you would see if you won 5 points: </p><p style=""color:green;font-size:50px;font-weight:bolder"">5</p>","","0","instructions","","","","","","","","","","",""
"learning-instructions","66","350976","0.0-9.0-1.0-0.6","5814","1","14","Female","approach_avoid_spark_v1","""event"",""trial"",""time""
""focus"",""0"",""2""
""fullscreenenter"",""1"",""3578""
","
","""event"",""trial"",""time""
""focus"",""0"",""2""
","""event"",""trial"",""time""
""fullscreenenter"",""1"",""3578""
","
","","","","","","546","<p> And here is what you would see if you lost 3 points: </p><p style=""color:red;font-size:50px;font-weight:bolder"">-3</p>","","0","instructions","","","","","","","","","","",""
"learning-instructions","67","365350","0.0-9.0-1.0-0.7","5814","1","14","Female","approach_avoid_spark_v1","""event"",""trial"",""time""
""focus"",""0"",""2""
""fullscreenenter"",""1"",""3578""
","
","""event"",""trial"",""time""
""focus"",""0"",""2""
","""event"",""trial"",""time""
""fullscreenenter"",""1"",""3578""
","
","","","","","","580","<p> Some animals will become very happy or very angry. </p><p> These animals will make you win or lose LOTS of points. </p><p> Other animals have less strong feelings. </p><p> These animals will make you win or lose small amounts of points. </p>","","0","instructions","","","","","","","","","","",""
"learning-instructions","68","377166","0.0-9.0-1.0-0.8","5814","1","14","Female","approach_avoid_spark_v1","""event"",""trial"",""time""
""focus"",""0"",""2""
""fullscreenenter"",""1"",""3578""
","
","""event"",""trial"",""time""
""focus"",""0"",""2""
","""event"",""trial"",""time""
""fullscreenenter"",""1"",""3578""
","
","","","","","","556","<p> If you choose to leave the animal alone, you will not win or lose any points. </p><p>  However, in the center of the screen, you will see the number of points you WOULD HAVE won or lost if you had pet the animal. </p>","","0","instructions","","","","","","","","","","",""
"learning-instructions","69","393251","0.0-9.0-1.0-0.9","5814","1","14","Female","approach_avoid_spark_v1","""event"",""trial"",""time""
""focus"",""0"",""2""
""fullscreenenter"",""1"",""3578""
","
","""event"",""trial"",""time""
""focus"",""0"",""2""
","""event"",""trial"",""time""
""fullscreenenter"",""1"",""3578""
","
","","","","","","4389","<p> Here is what you might see if you did not pet the animal but the animal wanted to be pet: </p><p style=""color:grey; font-size:50px; display: inline-block; border-spacing: 15px; border-width:3px; border-style:solid; border-color:red"">  &nbsp; 6 &nbsp; </p><p> Remember, in this case, you would not win or lose ANY points because you did not pet the animal.  </p>","","0","instructions","","","","","","","","","","",""
"learning-instructions","70","400600","0.0-9.0-1.0-0.10","5814","1","14","Female","approach_avoid_spark_v1","""event"",""trial"",""time""
""focus"",""0"",""2""
""fullscreenenter"",""1"",""3578""
","
","""event"",""trial"",""time""
""focus"",""0"",""2""
","""event"",""trial"",""time""
""fullscreenenter"",""1"",""3578""
","
","","","","","","261","<p> Try to make the best choice for each animal because </p><p> at the end of the game, you will earn bonus money based on how many points you earned. </p>","","0","instructions","","","","","","","","","","",""
"learning-instructions","71","409346","0.0-9.0-1.0-0.11","5814","1","14","Female","approach_avoid_spark_v1","""event"",""trial"",""time""
""focus"",""0"",""2""
""fullscreenenter"",""1"",""3578""
","
","""event"",""trial"",""time""
""focus"",""0"",""2""
","""event"",""trial"",""time""
""fullscreenenter"",""1"",""3578""
","
","","","","","","545","<p> You will have 3 seconds to make each choice. Try to respond before time runs out! </p><p> You will lose 5 points each time you do not make a response. </p>","","0","instructions","","","","","","","","","","",""
"html-keyboard-response","72","409965","0.0-9.0-2.0-0.0","5814","1","14","Female","approach_avoid_spark_v1","""event"",""trial"",""time""
""focus"",""0"",""2""
""fullscreenenter"",""1"",""3578""
","
","""event"",""trial"",""time""
""focus"",""0"",""2""
","""event"",""trial"",""time""
""fullscreenenter"",""1"",""3578""
","
","","","","","","null","<div style=""font-size:60px;"">+</div>","null","","fixation","","","","","","","","","","",""
"aa-learning-trial","73","412979","0.0-9.0-2.0-1.0","5814","1","14","Female","approach_avoid_spark_v1","""event"",""trial"",""time""
""focus"",""0"",""2""
""fullscreenenter"",""1"",""3578""
","
","""event"",""trial"",""time""
""focus"",""0"",""2""
","""event"",""trial"",""time""
""fullscreenenter"",""1"",""3578""
","
","","","","","","1278","images/cat5.png","","","learning","-4","-4","1","1","cat","pets","1","0","","bad","[-6]"
"html-keyboard-response","74","413483","0.0-9.0-2.0-0.1","5814","1","14","Female","approach_avoid_spark_v1","""event"",""trial"",""time""
""focus"",""0"",""2""
""fullscreenenter"",""1"",""3578""
","
","""event"",""trial"",""time""
""focus"",""0"",""2""
","""event"",""trial"",""time""
""fullscreenenter"",""1"",""3578""
","
","","","","","","null","<div style=""font-size:60px;"">+</div>","null","","fixation","","","","","","","","","","",""
"aa-learning-trial","75","416501","0.0-9.0-2.0-1.1","5814","1","14","Female","approach_avoid_spark_v1","""event"",""trial"",""time""
""focus"",""0"",""2""
""fullscreenenter"",""1"",""3578""
","
","""event"",""trial"",""time""
""focus"",""0"",""2""
","""event"",""trial"",""time""
""fullscreenenter"",""1"",""3578""
","
","","","","","","1180","images/cat7.png","","","learning","-8","-8","1","1","cat","pets","1","0","","bad","[-6]"
"html-keyboard-response","76","417007","0.0-9.0-2.0-0.2","5814","1","14","Female","approach_avoid_spark_v1","""event"",""trial"",""time""
""focus"",""0"",""2""
""fullscreenenter"",""1"",""3578""
","
","""event"",""trial"",""time""
""focus"",""0"",""2""
","""event"",""trial"",""time""
""fullscreenenter"",""1"",""3578""
","
","","","","","","null","<div style=""font-size:60px;"">+</div>","null","","fixation","","","","","","","","","","",""
"aa-learning-trial","77","420018","0.0-9.0-2.0-1.2","5814","1","14","Female","approach_avoid_spark_v1","""event"",""trial"",""time""
""focus"",""0"",""2""
""fullscreenenter"",""1"",""3578""
","
","""event"",""trial"",""time""
""focus"",""0"",""2""
","""event"",""trial"",""time""
""fullscreenenter"",""1"",""3578""
","
","","","","","","769","images/cat5.png","","","learning","-4","0","0","0","cat","pets","1","0","","bad","[-6]"
"html-keyboard-response","78","420527","0.0-9.0-2.0-0.3","5814","1","14","Female","approach_avoid_spark_v1","""event"",""trial"",""time""
""focus"",""0"",""2""
""fullscreenenter"",""1"",""3578""
","
","""event"",""trial"",""time""
""focus"",""0"",""2""
","""event"",""trial"",""time""
""fullscreenenter"",""1"",""3578""
","
","","","","","","null","<div style=""font-size:60px;"">+</div>","null","","fixation","","","","","","","","","","",""
"aa-learning-trial","79","423540","0.0-9.0-2.0-1.3","5814","1","14","Female","approach_avoid_spark_v1","""event"",""trial"",""time""
""focus"",""0"",""2""
""fullscreenenter"",""1"",""3578""
","
","""event"",""trial"",""time""
""focus"",""0"",""2""
","""event"",""trial"",""time""
""fullscreenenter"",""1"",""3578""
","
","","","","","","1894","images/dog4.png","","","learning","4","4","1","1","dog","pets","1","0","","good","[5]"
"html-keyboard-response","80","424052","0.0-9.0-2.0-0.4","5814","1","14","Female","approach_avoid_spark_v1","""event"",""trial"",""time""
""focus"",""0"",""2""
""fullscreenenter"",""1"",""3578""
","
","""event"",""trial"",""time""
""focus"",""0"",""2""
","""event"",""trial"",""time""
""fullscreenenter"",""1"",""3578""
","
","","","","","","null","<div style=""font-size:60px;"">+</div>","null","","fixation","","","","","","","","","","",""
"aa-learning-trial","81","427068","0.0-9.0-2.0-1.4","5814","1","14","Female","approach_avoid_spark_v1","""event"",""trial"",""time""
""focus"",""0"",""2""
""fullscreenenter"",""1"",""3578""
","
","""event"",""trial"",""time""
""focus"",""0"",""2""
","""event"",""trial"",""time""
""fullscreenenter"",""1"",""3578""
","
","","","","","","868","images/rabbit7.png","","","learning","3","3","1","1","rabbit","pets","1","0","","neutral","0"
"html-keyboard-response","82","427579","0.0-9.0-2.0-0.5","5814","1","14","Female","approach_avoid_spark_v1","""event"",""trial"",""time""
""focus"",""0"",""2""
""fullscreenenter"",""1"",""3578""
","
","""event"",""trial"",""time""
""focus"",""0"",""2""
","""event"",""trial"",""time""
""fullscreenenter"",""1"",""3578""
","
","","","","","","null","<div style=""font-size:60px;"">+</div>","null","","fixation","","","","","","","","","","",""
"aa-learning-trial","83","430599","0.0-9.0-2.0-1.5","5814","1","14","Female","approach_avoid_spark_v1","""event"",""trial"",""time""
""focus"",""0"",""2""
""fullscreenenter"",""1"",""3578""
","
","""event"",""trial"",""time""
""focus"",""0"",""2""
","""event"",""trial"",""time""
""fullscreenenter"",""1"",""3578""
","
","","","","","","581","images/dog8.png","","","learning","6","6","1","1","dog","pets","1","0","","good","[5]"
"html-keyboard-response","84","431113","0.0-9.0-2.0-0.6","5814","1","14","Female","approach_avoid_spark_v1","""event"",""trial"",""time""
""focus"",""0"",""2""
""fullscreenenter"",""1"",""3578""
","
","""event"",""trial"",""time""
""focus"",""0"",""2""
","""event"",""trial"",""time""
""fullscreenenter"",""1"",""3578""
","
","","","","","","null","<div style=""font-size:60px;"">+</div>","null","","fixation","","","","","","","","","","",""
"aa-learning-trial","85","434128","0.0-9.0-2.0-1.6","5814","1","14","Female","approach_avoid_spark_v1","""event"",""trial"",""time""
""focus"",""0"",""2""
""fullscreenenter"",""1"",""3578""
","
","""event"",""trial"",""time""
""focus"",""0"",""2""
","""event"",""trial"",""time""
""fullscreenenter"",""1"",""3578""
","
","","","","","","1034","images/rabbit4.png","","","learning","-1","0","0","0","rabbit","pets","1","0","","neutral","0"
"html-keyboard-response","86","434632","0.0-9.0-2.0-0.7","5814","1","14","Female","approach_avoid_spark_v1","""event"",""trial"",""time""
""focus"",""0"",""2""
""fullscreenenter"",""1"",""3578""
","
","""event"",""trial"",""time""
""focus"",""0"",""2""
","""event"",""trial"",""time""
""fullscreenenter"",""1"",""3578""
","
","","","","","","null","<div style=""font-size:60px;"">+</div>","null","","fixation","","","","","","","","","","",""
"aa-learning-trial","87","437638","0.0-9.0-2.0-1.7","5814","1","14","Female","approach_avoid_spark_v1","""event"",""trial"",""time""
""focus"",""0"",""2""
""fullscreenenter"",""1"",""3578""
","
","""event"",""trial"",""time""
""focus"",""0"",""2""
","""event"",""trial"",""time""
""fullscreenenter"",""1"",""3578""
","
","","","","","","652","images/rabbit3.png","","","learning","-1","0","0","0","rabbit","pets","1","0","","neutral","0"
"html-keyboard-response","88","438152","0.0-9.0-2.0-0.8","5814","1","14","Female","approach_avoid_spark_v1","""event"",""trial"",""time""
""focus"",""0"",""2""
""fullscreenenter"",""1"",""3578""
","
","""event"",""trial"",""time""
""focus"",""0"",""2""
","""event"",""trial"",""time""
""fullscreenenter"",""1"",""3578""
","
","","","","","","null","<div style=""font-size:60px;"">+</div>","null","","fixation","","","","","","","","","","",""
"aa-learning-trial","89","441159","0.0-9.0-2.0-1.8","5814","1","14","Female","approach_avoid_spark_v1","""event"",""trial"",""time""
""focus"",""0"",""2""
""fullscreenenter"",""1"",""3578""
","
","""event"",""trial"",""time""
""focus"",""0"",""2""
","""event"",""trial"",""time""
""fullscreenenter"",""1"",""3578""
","
","","","","","","795","images/cat7.png","","","learning","-9","0","0","0","cat","pets","1","0","","bad","[-6]"
"html-keyboard-response","90","441672","0.0-9.0-2.0-0.9","5814","1","14","Female","approach_avoid_spark_v1","""event"",""trial"",""time""
""focus"",""0"",""2""
""fullscreenenter"",""1"",""3578""
","
","""event"",""trial"",""time""
""focus"",""0"",""2""
","""event"",""trial"",""time""
""fullscreenenter"",""1"",""3578""
","
","","","","","","null","<div style=""font-size:60px;"">+</div>","null","","fixation","","","","","","","","","","",""
"aa-learning-trial","91","444688","0.0-9.0-2.0-1.9","5814","1","14","Female","approach_avoid_spark_v1","""event"",""trial"",""time""
""focus"",""0"",""2""
""fullscreenenter"",""1"",""3578""
","
","""event"",""trial"",""time""
""focus"",""0"",""2""
","""event"",""trial"",""time""
""fullscreenenter"",""1"",""3578""
","
","","","","","","580","images/rabbit7.png","","","learning","-2","0","0","0","rabbit","pets","1","0","","neutral","0"
"html-keyboard-response","92","445202","0.0-9.0-2.0-0.10","5814","1","14","Female","approach_avoid_spark_v1","""event"",""trial"",""time""
""focus"",""0"",""2""
""fullscreenenter"",""1"",""3578""
","
","""event"",""trial"",""time""
""focus"",""0"",""2""
","""event"",""trial"",""time""
""fullscreenenter"",""1"",""3578""
","
","","","","","","null","<div style=""font-size:60px;"">+</div>","null","","fixation","","","","","","","","","","",""
"aa-learning-trial","93","448213","0.0-9.0-2.0-1.10","5814","1","14","Female","approach_avoid_spark_v1","""event"",""trial"",""time""
""focus"",""0"",""2""
""fullscreenenter"",""1"",""3578""
","
","""event"",""trial"",""time""
""focus"",""0"",""2""
","""event"",""trial"",""time""
""fullscreenenter"",""1"",""3578""
","
","","","","","","582","images/dog6.png","","","learning","4","4","1","1","dog","pets","1","0","","good","[5]"
"html-keyboard-response","94","448722","0.0-9.0-2.0-0.11","5814","1","14","Female","approach_avoid_spark_v1","""event"",""trial"",""time""
""focus"",""0"",""2""
""fullscreenenter"",""1"",""3578""
","
","""event"",""trial"",""time""
""focus"",""0"",""2""
","""event"",""trial"",""time""
""fullscreenenter"",""1"",""3578""
","
","","","","","","null","<div style=""font-size:60px;"">+</div>","null","","fixation","","","","","","","","","","",""
"aa-learning-trial","95","451728","0.0-9.0-2.0-1.11","5814","1","14","Female","approach_avoid_spark_v1","""event"",""trial"",""time""
""focus"",""0"",""2""
""fullscreenenter"",""1"",""3578""
","
","""event"",""trial"",""time""
""focus"",""0"",""2""
","""event"",""trial"",""time""
""fullscreenenter"",""1"",""3578""
","
","","","","","","542","images/dog4.png","","","learning","5","5","1","1","dog","pets","1","0","","good","[5]"
"html-keyboard-response","96","452242","0.0-9.0-2.0-0.12","5814","1","14","Female","approach_avoid_spark_v1","""event"",""trial"",""time""
""focus"",""0"",""2""
""fullscreenenter"",""1"",""3578""
","
","""event"",""trial"",""time""
""focus"",""0"",""2""
","""event"",""trial"",""time""
""fullscreenenter"",""1"",""3578""
","
","","","","","","null","<div style=""font-size:60px;"">+</div>","null","","fixation","","","","","","","","","","",""
"aa-learning-trial","97","455248","0.0-9.0-2.0-1.12","5814","1","14","Female","approach_avoid_spark_v1","""event"",""trial"",""time""
""focus"",""0"",""2""
""fullscreenenter"",""1"",""3578""
","
","""event"",""trial"",""time""
""focus"",""0"",""2""
","""event"",""trial"",""time""
""fullscreenenter"",""1"",""3578""
","
","","","","","","810","images/cat1.png","","","learning","-7","0","0","0","cat","pets","1","0","","bad","[-6]"
"html-keyboard-response","98","455752","0.0-9.0-2.0-0.13","5814","1","14","Female","approach_avoid_spark_v1","""event"",""trial"",""time""
""focus"",""0"",""2""
""fullscreenenter"",""1"",""3578""
","
","""event"",""trial"",""time""
""focus"",""0"",""2""
","""event"",""trial"",""time""
""fullscreenenter"",""1"",""3578""
","
","","","","","","null","<div style=""font-size:60px;"">+</div>","null","","fixation","","","","","","","","","","",""
"aa-learning-trial","99","458765","0.0-9.0-2.0-1.13","5814","1","14","Female","approach_avoid_spark_v1","""event"",""trial"",""time""
""focus"",""0"",""2""
""fullscreenenter"",""1"",""3578""
","
","""event"",""trial"",""time""
""focus"",""0"",""2""
","""event"",""trial"",""time""
""fullscreenenter"",""1"",""3578""
","
","","","","","","566","images/dog6.png","","","learning","9","9","1","1","dog","pets","1","0","","good","[5]"
"html-keyboard-response","100","459274","0.0-9.0-2.0-0.14","5814","1","14","Female","approach_avoid_spark_v1","""event"",""trial"",""time""
""focus"",""0"",""2""
""fullscreenenter"",""1"",""3578""
","
","""event"",""trial"",""time""
""focus"",""0"",""2""
","""event"",""trial"",""time""
""fullscreenenter"",""1"",""3578""
","
","","","","","","null","<div style=""font-size:60px;"">+</div>","null","","fixation","","","","","","","","","","",""
"aa-learning-trial","101","462280","0.0-9.0-2.0-1.14","5814","1","14","Female","approach_avoid_spark_v1","""event"",""trial"",""time""
""focus"",""0"",""2""
""fullscreenenter"",""1"",""3578""
","
","""event"",""trial"",""time""
""focus"",""0"",""2""
","""event"",""trial"",""time""
""fullscreenenter"",""1"",""3578""
","
","","","","","","799","images/rabbit3.png","","","learning","1","0","0","0","rabbit","pets","1","0","","neutral","0"
"html-keyboard-response","102","462795","0.0-9.0-2.0-0.15","5814","1","14","Female","approach_avoid_spark_v1","""event"",""trial"",""time""
""focus"",""0"",""2""
""fullscreenenter"",""1"",""3578""
","
","""event"",""trial"",""time""
""focus"",""0"",""2""
","""event"",""trial"",""time""
""fullscreenenter"",""1"",""3578""
","
","","","","","","null","<div style=""font-size:60px;"">+</div>","null","","fixation","","","","","","","","","","",""
"aa-learning-trial","103","465805","0.0-9.0-2.0-1.15","5814","1","14","Female","approach_avoid_spark_v1","""event"",""trial"",""time""
""focus"",""0"",""2""
""fullscreenenter"",""1"",""3578""
","
","""event"",""trial"",""time""
""focus"",""0"",""2""
","""event"",""trial"",""time""
""fullscreenenter"",""1"",""3578""
","
","","","","","","1020","images/rabbit3.png","","","learning","2","0","0","0","rabbit","pets","1","0","","neutral","0"
"html-keyboard-response","104","466321","0.0-9.0-2.0-0.16","5814","1","14","Female","approach_avoid_spark_v1","""event"",""trial"",""time""
""focus"",""0"",""2""
""fullscreenenter"",""1"",""3578""
","
","""event"",""trial"",""time""
""focus"",""0"",""2""
","""event"",""trial"",""time""
""fullscreenenter"",""1"",""3578""
","
","","","","","","null","<div style=""font-size:60px;"">+</div>","null","","fixation","","","","","","","","","","",""
"aa-learning-trial","105","469330","0.0-9.0-2.0-1.16","5814","1","14","Female","approach_avoid_spark_v1","""event"",""trial"",""time""
""focus"",""0"",""2""
""fullscreenenter"",""1"",""3578""
","
","""event"",""trial"",""time""
""focus"",""0"",""2""
","""event"",""trial"",""time""
""fullscreenenter"",""1"",""3578""
","
","","","","","","762","images/cat2.png","","","learning","-7","0","0","0","cat","pets","1","0","","bad","[-6]"
"html-keyboard-response","106","469837","0.0-9.0-2.0-0.17","5814","1","14","Female","approach_avoid_spark_v1","""event"",""trial"",""time""
""focus"",""0"",""2""
""fullscreenenter"",""1"",""3578""
","
","""event"",""trial"",""time""
""focus"",""0"",""2""
","""event"",""trial"",""time""
""fullscreenenter"",""1"",""3578""
","
","","","","","","null","<div style=""font-size:60px;"">+</div>","null","","fixation","","","","","","","","","","",""
"aa-learning-trial","107","472853","0.0-9.0-2.0-1.17","5814","1","14","Female","approach_avoid_spark_v1","""event"",""trial"",""time""
""focus"",""0"",""2""
""fullscreenenter"",""1"",""3578""
","
","""event"",""trial"",""time""
""focus"",""0"",""2""
","""event"",""trial"",""time""
""fullscreenenter"",""1"",""3578""
","
","","","","","","1160","images/cat6.png","","","learning","-6","0","0","0","cat","pets","1","0","","bad","[-6]"
"html-keyboard-response","108","473359","0.0-9.0-2.0-0.18","5814","1","14","Female","approach_avoid_spark_v1","""event"",""trial"",""time""
""focus"",""0"",""2""
""fullscreenenter"",""1"",""3578""
","
","""event"",""trial"",""time""
""focus"",""0"",""2""
","""event"",""trial"",""time""
""fullscreenenter"",""1"",""3578""
","
","","","","","","null","<div style=""font-size:60px;"">+</div>","null","","fixation","","","","","","","","","","",""
"aa-learning-trial","109","476369","0.0-9.0-2.0-1.18","5814","1","14","Female","approach_avoid_spark_v1","""event"",""trial"",""time""
""focus"",""0"",""2""
""fullscreenenter"",""1"",""3578""
","
","""event"",""trial"",""time""
""focus"",""0"",""2""
","""event"",""trial"",""time""
""fullscreenenter"",""1"",""3578""
","
","","","","","","870","images/cat7.png","","","learning","-4","0","0","0","cat","pets","1","0","","bad","[-6]"
"html-keyboard-response","110","476879","0.0-9.0-2.0-0.19","5814","1","14","Female","approach_avoid_spark_v1","""event"",""trial"",""time""
""focus"",""0"",""2""
""fullscreenenter"",""1"",""3578""
","
","""event"",""trial"",""time""
""focus"",""0"",""2""
","""event"",""trial"",""time""
""fullscreenenter"",""1"",""3578""
","
","","","","","","null","<div style=""font-size:60px;"">+</div>","null","","fixation","","","","","","","","","","",""
"aa-learning-trial","111","479899","0.0-9.0-2.0-1.19","5814","1","14","Female","approach_avoid_spark_v1","""event"",""trial"",""time""
""focus"",""0"",""2""
""fullscreenenter"",""1"",""3578""
","
","""event"",""trial"",""time""
""focus"",""0"",""2""
","""event"",""trial"",""time""
""fullscreenenter"",""1"",""3578""
","
","","","","","","664","images/cat5.png","","","learning","-5","0","0","0","cat","pets","1","0","","bad","[-6]"
"html-keyboard-response","112","480404","0.0-9.0-2.0-0.20","5814","1","14","Female","approach_avoid_spark_v1","""event"",""trial"",""time""
""focus"",""0"",""2""
""fullscreenenter"",""1"",""3578""
","
","""event"",""trial"",""time""
""focus"",""0"",""2""
","""event"",""trial"",""time""
""fullscreenenter"",""1"",""3578""
","
","","","","","","null","<div style=""font-size:60px;"">+</div>","null","","fixation","","","","","","","","","","",""
"aa-learning-trial","113","483410","0.0-9.0-2.0-1.20","5814","1","14","Female","approach_avoid_spark_v1","""event"",""trial"",""time""
""focus"",""0"",""2""
""fullscreenenter"",""1"",""3578""
","
","""event"",""trial"",""time""
""focus"",""0"",""2""
","""event"",""trial"",""time""
""fullscreenenter"",""1"",""3578""
","
","","","","","","582","images/dog6.png","","","learning","3","3","1","1","dog","pets","1","0","","good","[5]"
"html-keyboard-response","114","483921","0.0-9.0-2.0-0.21","5814","1","14","Female","approach_avoid_spark_v1","""event"",""trial"",""time""
""focus"",""0"",""2""
""fullscreenenter"",""1"",""3578""
","
","""event"",""trial"",""time""
""focus"",""0"",""2""
","""event"",""trial"",""time""
""fullscreenenter"",""1"",""3578""
","
","","","","","","null","<div style=""font-size:60px;"">+</div>","null","","fixation","","","","","","","","","","",""
"aa-learning-trial","115","486937","0.0-9.0-2.0-1.21","5814","1","14","Female","approach_avoid_spark_v1","""event"",""trial"",""time""
""focus"",""0"",""2""
""fullscreenenter"",""1"",""3578""
","
","""event"",""trial"",""time""
""focus"",""0"",""2""
","""event"",""trial"",""time""
""fullscreenenter"",""1"",""3578""
","
","","","","","","622","images/cat5.png","","","learning","-6","0","0","0","cat","pets","1","0","","bad","[-6]"
"html-keyboard-response","116","487449","0.0-9.0-2.0-0.22","5814","1","14","Female","approach_avoid_spark_v1","""event"",""trial"",""time""
""focus"",""0"",""2""
""fullscreenenter"",""1"",""3578""
","
","""event"",""trial"",""time""
""focus"",""0"",""2""
","""event"",""trial"",""time""
""fullscreenenter"",""1"",""3578""
","
","","","","","","null","<div style=""font-size:60px;"">+</div>","null","","fixation","","","","","","","","","","",""
"aa-learning-trial","117","490464","0.0-9.0-2.0-1.22","5814","1","14","Female","approach_avoid_spark_v1","""event"",""trial"",""time""
""focus"",""0"",""2""
""fullscreenenter"",""1"",""3578""
","
","""event"",""trial"",""time""
""focus"",""0"",""2""
","""event"",""trial"",""time""
""fullscreenenter"",""1"",""3578""
","
","","","","","","490","images/dog4.png","","","learning","6","6","1","1","dog","pets","1","0","","good","[5]"
"html-keyboard-response","118","490977","0.0-9.0-2.0-0.23","5814","1","14","Female","approach_avoid_spark_v1","""event"",""trial"",""time""
""focus"",""0"",""2""
""fullscreenenter"",""1"",""3578""
","
","""event"",""trial"",""time""
""focus"",""0"",""2""
","""event"",""trial"",""time""
""fullscreenenter"",""1"",""3578""
","
","","","","","","null","<div style=""font-size:60px;"">+</div>","null","","fixation","","","","","","","","","","",""
"aa-learning-trial","119","493986","0.0-9.0-2.0-1.23","5814","1","14","Female","approach_avoid_spark_v1","""event"",""trial"",""time""
""focus"",""0"",""2""
""fullscreenenter"",""1"",""3578""
","
","""event"",""trial"",""time""
""focus"",""0"",""2""
","""event"",""trial"",""time""
""fullscreenenter"",""1"",""3578""
","
","","","","","","929","images/rabbit7.png","","","learning","1","0","0","0","rabbit","pets","1","0","","neutral","0"
"html-keyboard-response","120","494492","0.0-9.0-2.0-0.24","5814","1","14","Female","approach_avoid_spark_v1","""event"",""trial"",""time""
""focus"",""0"",""2""
""fullscreenenter"",""1"",""3578""
","
","""event"",""trial"",""time""
""focus"",""0"",""2""
","""event"",""trial"",""time""
""fullscreenenter"",""1"",""3578""
","
","","","","","","null","<div style=""font-size:60px;"">+</div>","null","","fixation","","","","","","","","","","",""
"aa-learning-trial","121","497497","0.0-9.0-2.0-1.24","5814","1","14","Female","approach_avoid_spark_v1","""event"",""trial"",""time""
""focus"",""0"",""2""
""fullscreenenter"",""1"",""3578""
","
","""event"",""trial"",""time""
""focus"",""0"",""2""
","""event"",""trial"",""time""
""fullscreenenter"",""1"",""3578""
","
","","","","","","960","images/rabbit3.png","","","learning","-1","-1","1","1","rabbit","pets","1","0","","neutral","0"
"html-keyboard-response","122","498007","0.0-9.0-2.0-0.25","5814","1","14","Female","approach_avoid_spark_v1","""event"",""trial"",""time""
""focus"",""0"",""2""
""fullscreenenter"",""1"",""3578""
","
","""event"",""trial"",""time""
""focus"",""0"",""2""
","""event"",""trial"",""time""
""fullscreenenter"",""1"",""3578""
","
","","","","","","null","<div style=""font-size:60px;"">+</div>","null","","fixation","","","","","","","","","","",""
"aa-learning-trial","123","501017","0.0-9.0-2.0-1.25","5814","1","14","Female","approach_avoid_spark_v1","""event"",""trial"",""time""
""focus"",""0"",""2""
""fullscreenenter"",""1"",""3578""
","
","""event"",""trial"",""time""
""focus"",""0"",""2""
","""event"",""trial"",""time""
""fullscreenenter"",""1"",""3578""
","
","","","","","","685","images/dog8.png","","","learning","3","3","1","1","dog","pets","1","0","","good","[5]"
"html-keyboard-response","124","501527","0.0-9.0-2.0-0.26","5814","1","14","Female","approach_avoid_spark_v1","""event"",""trial"",""time""
""focus"",""0"",""2""
""fullscreenenter"",""1"",""3578""
","
","""event"",""trial"",""time""
""focus"",""0"",""2""
","""event"",""trial"",""time""
""fullscreenenter"",""1"",""3578""
","
","","","","","","null","<div style=""font-size:60px;"">+</div>","null","","fixation","","","","","","","","","","",""
"aa-learning-trial","125","504533","0.0-9.0-2.0-1.26","5814","1","14","Female","approach_avoid_spark_v1","""event"",""trial"",""time""
""focus"",""0"",""2""
""fullscreenenter"",""1"",""3578""
","
","""event"",""trial"",""time""
""focus"",""0"",""2""
","""event"",""trial"",""time""
""fullscreenenter"",""1"",""3578""
","
","","","","","","501","images/dog6.png","","","learning","6","6","1","1","dog","pets","1","0","","good","[5]"
"html-keyboard-response","126","505047","0.0-9.0-2.0-0.27","5814","1","14","Female","approach_avoid_spark_v1","""event"",""trial"",""time""
""focus"",""0"",""2""
""fullscreenenter"",""1"",""3578""
","
","""event"",""trial"",""time""
""focus"",""0"",""2""
","""event"",""trial"",""time""
""fullscreenenter"",""1"",""3578""
","
","","","","","","null","<div style=""font-size:60px;"">+</div>","null","","fixation","","","","","","","","","","",""
"aa-learning-trial","127","508058","0.0-9.0-2.0-1.27","5814","1","14","Female","approach_avoid_spark_v1","""event"",""trial"",""time""
""focus"",""0"",""2""
""fullscreenenter"",""1"",""3578""
","
","""event"",""trial"",""time""
""focus"",""0"",""2""
","""event"",""trial"",""time""
""fullscreenenter"",""1"",""3578""
","
","","","","","","592","images/cat7.png","","","learning","-5","0","0","0","cat","pets","1","0","","bad","[-6]"
"html-keyboard-response","128","508567","0.0-9.0-2.0-0.28","5814","1","14","Female","approach_avoid_spark_v1","""event"",""trial"",""time""
""focus"",""0"",""2""
""fullscreenenter"",""1"",""3578""
","
","""event"",""trial"",""time""
""focus"",""0"",""2""
","""event"",""trial"",""time""
""fullscreenenter"",""1"",""3578""
","
","","","","","","null","<div style=""font-size:60px;"">+</div>","null","","fixation","","","","","","","","","","",""
"aa-learning-trial","129","511583","0.0-9.0-2.0-1.28","5814","1","14","Female","approach_avoid_spark_v1","""event"",""trial"",""time""
""focus"",""0"",""2""
""fullscreenenter"",""1"",""3578""
","
","""event"",""trial"",""time""
""focus"",""0"",""2""
","""event"",""trial"",""time""
""fullscreenenter"",""1"",""3578""
","
","","","","","","569","images/cat1.png","","","learning","-7","0","0","0","cat","pets","1","0","","bad","[-6]"
"html-keyboard-response","130","512086","0.0-9.0-2.0-0.29","5814","1","14","Female","approach_avoid_spark_v1","""event"",""trial"",""time""
""focus"",""0"",""2""
""fullscreenenter"",""1"",""3578""
","
","""event"",""trial"",""time""
""focus"",""0"",""2""
","""event"",""trial"",""time""
""fullscreenenter"",""1"",""3578""
","
","","","","","","null","<div style=""font-size:60px;"">+</div>","null","","fixation","","","","","","","","","","",""
"aa-learning-trial","131","515103","0.0-9.0-2.0-1.29","5814","1","14","Female","approach_avoid_spark_v1","""event"",""trial"",""time""
""focus"",""0"",""2""
""fullscreenenter"",""1"",""3578""
","
","""event"",""trial"",""time""
""focus"",""0"",""2""
","""event"",""trial"",""time""
""fullscreenenter"",""1"",""3578""
","
","","","","","","702","images/rabbit4.png","","","learning","1","0","0","0","rabbit","pets","1","0","","neutral","0"
"html-keyboard-response","132","515618","0.0-9.0-2.0-0.30","5814","1","14","Female","approach_avoid_spark_v1","""event"",""trial"",""time""
""focus"",""0"",""2""
""fullscreenenter"",""1"",""3578""
","
","""event"",""trial"",""time""
""focus"",""0"",""2""
","""event"",""trial"",""time""
""fullscreenenter"",""1"",""3578""
","
","","","","","","null","<div style=""font-size:60px;"">+</div>","null","","fixation","","","","","","","","","","",""
"aa-learning-trial","133","518627","0.0-9.0-2.0-1.30","5814","1","14","Female","approach_avoid_spark_v1","""event"",""trial"",""time""
""focus"",""0"",""2""
""fullscreenenter"",""1"",""3578""
","
","""event"",""trial"",""time""
""focus"",""0"",""2""
","""event"",""trial"",""time""
""fullscreenenter"",""1"",""3578""
","
","","","","","","561","images/dog4.png","","","learning","5","5","1","1","dog","pets","1","0","","good","[5]"
"html-keyboard-response","134","519136","0.0-9.0-2.0-0.31","5814","1","14","Female","approach_avoid_spark_v1","""event"",""trial"",""time""
""focus"",""0"",""2""
""fullscreenenter"",""1"",""3578""
","
","""event"",""trial"",""time""
""focus"",""0"",""2""
","""event"",""trial"",""time""
""fullscreenenter"",""1"",""3578""
","
","","","","","","null","<div style=""font-size:60px;"">+</div>","null","","fixation","","","","","","","","","","",""
"aa-learning-trial","135","522154","0.0-9.0-2.0-1.31","5814","1","14","Female","approach_avoid_spark_v1","""event"",""trial"",""time""
""focus"",""0"",""2""
""fullscreenenter"",""1"",""3578""
","
","""event"",""trial"",""time""
""focus"",""0"",""2""
","""event"",""trial"",""time""
""fullscreenenter"",""1"",""3578""
","
","","","","","","484","images/dog8.png","","","learning","8","8","1","1","dog","pets","1","0","","good","[5]"
"html-keyboard-response","136","522670","0.0-9.0-2.0-0.32","5814","1","14","Female","approach_avoid_spark_v1","""event"",""trial"",""time""
""focus"",""0"",""2""
""fullscreenenter"",""1"",""3578""
","
","""event"",""trial"",""time""
""focus"",""0"",""2""
","""event"",""trial"",""time""
""fullscreenenter"",""1"",""3578""
","
","","","","","","null","<div style=""font-size:60px;"">+</div>","null","","fixation","","","","","","","","","","",""
"aa-learning-trial","137","525688","0.0-9.0-2.0-1.32","5814","1","14","Female","approach_avoid_spark_v1","""event"",""trial"",""time""
""focus"",""0"",""2""
""fullscreenenter"",""1"",""3578""
","
","""event"",""trial"",""time""
""focus"",""0"",""2""
","""event"",""trial"",""time""
""fullscreenenter"",""1"",""3578""
","
","","","","","","672","images/dog5.png","","","learning","4","4","1","1","dog","pets","1","0","","good","[5]"
"html-keyboard-response","138","526197","0.0-9.0-2.0-0.33","5814","1","14","Female","approach_avoid_spark_v1","""event"",""trial"",""time""
""focus"",""0"",""2""
""fullscreenenter"",""1"",""3578""
","
","""event"",""trial"",""time""
""focus"",""0"",""2""
","""event"",""trial"",""time""
""fullscreenenter"",""1"",""3578""
","
","","","","","","null","<div style=""font-size:60px;"">+</div>","null","","fixation","","","","","","","","","","",""
"aa-learning-trial","139","529204","0.0-9.0-2.0-1.33","5814","1","14","Female","approach_avoid_spark_v1","""event"",""trial"",""time""
""focus"",""0"",""2""
""fullscreenenter"",""1"",""3578""
","
","""event"",""trial"",""time""
""focus"",""0"",""2""
","""event"",""trial"",""time""
""fullscreenenter"",""1"",""3578""
","
","","","","","","546","images/cat5.png","","","learning","-5","0","0","0","cat","pets","1","0","","bad","[-6]"
"html-keyboard-response","140","529717","0.0-9.0-2.0-0.34","5814","1","14","Female","approach_avoid_spark_v1","""event"",""trial"",""time""
""focus"",""0"",""2""
""fullscreenenter"",""1"",""3578""
","
","""event"",""trial"",""time""
""focus"",""0"",""2""
","""event"",""trial"",""time""
""fullscreenenter"",""1"",""3578""
","
","","","","","","null","<div style=""font-size:60px;"">+</div>","null","","fixation","","","","","","","","","","",""
"aa-learning-trial","141","532728","0.0-9.0-2.0-1.34","5814","1","14","Female","approach_avoid_spark_v1","""event"",""trial"",""time""
""focus"",""0"",""2""
""fullscreenenter"",""1"",""3578""
","
","""event"",""trial"",""time""
""focus"",""0"",""2""
","""event"",""trial"",""time""
""fullscreenenter"",""1"",""3578""
","
","","","","","","746","images/rabbit7.png","","","learning","-1","0","0","0","rabbit","pets","1","0","","neutral","0"
"html-keyboard-response","142","533239","0.0-9.0-2.0-0.35","5814","1","14","Female","approach_avoid_spark_v1","""event"",""trial"",""time""
""focus"",""0"",""2""
""fullscreenenter"",""1"",""3578""
","
","""event"",""trial"",""time""
""focus"",""0"",""2""
","""event"",""trial"",""time""
""fullscreenenter"",""1"",""3578""
","
","","","","","","null","<div style=""font-size:60px;"">+</div>","null","","fixation","","","","","","","","","","",""
"aa-learning-trial","143","536249","0.0-9.0-2.0-1.35","5814","1","14","Female","approach_avoid_spark_v1","""event"",""trial"",""time""
""focus"",""0"",""2""
""fullscreenenter"",""1"",""3578""
","
","""event"",""trial"",""time""
""focus"",""0"",""2""
","""event"",""trial"",""time""
""fullscreenenter"",""1"",""3578""
","
","","","","","","639","images/dog1.png","","","learning","7","7","1","1","dog","pets","1","0","","good","[5]"
"html-keyboard-response","144","536762","0.0-9.0-2.0-0.36","5814","1","14","Female","approach_avoid_spark_v1","""event"",""trial"",""time""
""focus"",""0"",""2""
""fullscreenenter"",""1"",""3578""
","
","""event"",""trial"",""time""
""focus"",""0"",""2""
","""event"",""trial"",""time""
""fullscreenenter"",""1"",""3578""
","
","","","","","","null","<div style=""font-size:60px;"">+</div>","null","","fixation","","","","","","","","","","",""
"aa-learning-trial","145","539768","0.0-9.0-2.0-1.36","5814","1","14","Female","approach_avoid_spark_v1","""event"",""trial"",""time""
""focus"",""0"",""2""
""fullscreenenter"",""1"",""3578""
","
","""event"",""trial"",""time""
""focus"",""0"",""2""
","""event"",""trial"",""time""
""fullscreenenter"",""1"",""3578""
","
","","","","","","628","images/cat7.png","","","learning","-7","0","0","0","cat","pets","1","0","","bad","[-6]"
"html-keyboard-response","146","540272","0.0-9.0-2.0-0.37","5814","1","14","Female","approach_avoid_spark_v1","""event"",""trial"",""time""
""focus"",""0"",""2""
""fullscreenenter"",""1"",""3578""
","
","""event"",""trial"",""time""
""focus"",""0"",""2""
","""event"",""trial"",""time""
""fullscreenenter"",""1"",""3578""
","
","","","","","","null","<div style=""font-size:60px;"">+</div>","null","","fixation","","","","","","","","","","",""
"aa-learning-trial","147","543279","0.0-9.0-2.0-1.37","5814","1","14","Female","approach_avoid_spark_v1","""event"",""trial"",""time""
""focus"",""0"",""2""
""fullscreenenter"",""1"",""3578""
","
","""event"",""trial"",""time""
""focus"",""0"",""2""
","""event"",""trial"",""time""
""fullscreenenter"",""1"",""3578""
","
","","","","","","706","images/rabbit3.png","","","learning","2","0","0","0","rabbit","pets","1","0","","neutral","0"
"html-keyboard-response","148","543789","0.0-9.0-2.0-0.38","5814","1","14","Female","approach_avoid_spark_v1","""event"",""trial"",""time""
""focus"",""0"",""2""
""fullscreenenter"",""1"",""3578""
","
","""event"",""trial"",""time""
""focus"",""0"",""2""
","""event"",""trial"",""time""
""fullscreenenter"",""1"",""3578""
","
","","","","","","null","<div style=""font-size:60px;"">+</div>","null","","fixation","","","","","","","","","","",""
"aa-learning-trial","149","546809","0.0-9.0-2.0-1.38","5814","1","14","Female","approach_avoid_spark_v1","""event"",""trial"",""time""
""focus"",""0"",""2""
""fullscreenenter"",""1"",""3578""
","
","""event"",""trial"",""time""
""focus"",""0"",""2""
","""event"",""trial"",""time""
""fullscreenenter"",""1"",""3578""
","
","","","","","","824","images/rabbit1.png","","","learning","1","0","0","0","rabbit","pets","1","0","","neutral","0"
"html-keyboard-response","150","547322","0.0-9.0-2.0-0.39","5814","1","14","Female","approach_avoid_spark_v1","""event"",""trial"",""time""
""focus"",""0"",""2""
""fullscreenenter"",""1"",""3578""
","
","""event"",""trial"",""time""
""focus"",""0"",""2""
","""event"",""trial"",""time""
""fullscreenenter"",""1"",""3578""
","
","","","","","","null","<div style=""font-size:60px;"">+</div>","null","","fixation","","","","","","","","","","",""
"aa-learning-trial","151","550337","0.0-9.0-2.0-1.39","5814","1","14","Female","approach_avoid_spark_v1","""event"",""trial"",""time""
""focus"",""0"",""2""
""fullscreenenter"",""1"",""3578""
","
","""event"",""trial"",""time""
""focus"",""0"",""2""
","""event"",""trial"",""time""
""fullscreenenter"",""1"",""3578""
","
","","","","","","538","images/rabbit4.png","","","learning","-1","0","0","0","rabbit","pets","1","0","","neutral","0"
"html-keyboard-response","152","550852","0.0-9.0-2.0-0.40","5814","1","14","Female","approach_avoid_spark_v1","""event"",""trial"",""time""
""focus"",""0"",""2""
""fullscreenenter"",""1"",""3578""
","
","""event"",""trial"",""time""
""focus"",""0"",""2""
","""event"",""trial"",""time""
""fullscreenenter"",""1"",""3578""
","
","","","","","","null","<div style=""font-size:60px;"">+</div>","null","","fixation","","","","","","","","","","",""
"aa-learning-trial","153","553868","0.0-9.0-2.0-1.40","5814","1","14","Female","approach_avoid_spark_v1","""event"",""trial"",""time""
""focus"",""0"",""2""
""fullscreenenter"",""1"",""3578""
","
","""event"",""trial"",""time""
""focus"",""0"",""2""
","""event"",""trial"",""time""
""fullscreenenter"",""1"",""3578""
","
","","","","","","869","images/cat7.png","","","learning","-7","0","0","0","cat","pets","1","0","","bad","[-6]"
"html-keyboard-response","154","554382","0.0-9.0-2.0-0.41","5814","1","14","Female","approach_avoid_spark_v1","""event"",""trial"",""time""
""focus"",""0"",""2""
""fullscreenenter"",""1"",""3578""
","
","""event"",""trial"",""time""
""focus"",""0"",""2""
","""event"",""trial"",""time""
""fullscreenenter"",""1"",""3578""
","
","","","","","","null","<div style=""font-size:60px;"">+</div>","null","","fixation","","","","","","","","","","",""
"aa-learning-trial","155","557393","0.0-9.0-2.0-1.41","5814","1","14","Female","approach_avoid_spark_v1","""event"",""trial"",""time""
""focus"",""0"",""2""
""fullscreenenter"",""1"",""3578""
","
","""event"",""trial"",""time""
""focus"",""0"",""2""
","""event"",""trial"",""time""
""fullscreenenter"",""1"",""3578""
","
","","","","","","705","images/rabbit7.png","","","learning","[-1]","0","0","0","rabbit","pets","1","0","","neutral","0"
"html-keyboard-response","156","557897","0.0-9.0-2.0-0.42","5814","1","14","Female","approach_avoid_spark_v1","""event"",""trial"",""time""
""focus"",""0"",""2""
""fullscreenenter"",""1"",""3578""
","
","""event"",""trial"",""time""
""focus"",""0"",""2""
","""event"",""trial"",""time""
""fullscreenenter"",""1"",""3578""
","
","","","","","","null","<div style=""font-size:60px;"">+</div>","null","","fixation","","","","","","","","","","",""
"aa-learning-trial","157","560913","0.0-9.0-2.0-1.42","5814","1","14","Female","approach_avoid_spark_v1","""event"",""trial"",""time""
""focus"",""0"",""2""
""fullscreenenter"",""1"",""3578""
","
","""event"",""trial"",""time""
""focus"",""0"",""2""
","""event"",""trial"",""time""
""fullscreenenter"",""1"",""3578""
","
","","","","","","737","images/dog4.png","","","learning","6","6","1","1","dog","pets","1","0","","good","[5]"
"html-keyboard-response","158","561424","0.0-9.0-2.0-0.43","5814","1","14","Female","approach_avoid_spark_v1","""event"",""trial"",""time""
""focus"",""0"",""2""
""fullscreenenter"",""1"",""3578""
","
","""event"",""trial"",""time""
""focus"",""0"",""2""
","""event"",""trial"",""time""
""fullscreenenter"",""1"",""3578""
","
","","","","","","null","<div style=""font-size:60px;"">+</div>","null","","fixation","","","","","","","","","","",""
"aa-learning-trial","159","564441","0.0-9.0-2.0-1.43","5814","1","14","Female","approach_avoid_spark_v1","""event"",""trial"",""time""
""focus"",""0"",""2""
""fullscreenenter"",""1"",""3578""
","
","""event"",""trial"",""time""
""focus"",""0"",""2""
","""event"",""trial"",""time""
""fullscreenenter"",""1"",""3578""
","
","","","","","","444","images/dog6.png","","","learning","3","3","1","1","dog","pets","1","0","","good","[5]"
"html-keyboard-response","160","564953","0.0-9.0-2.0-0.44","5814","1","14","Female","approach_avoid_spark_v1","""event"",""trial"",""time""
""focus"",""0"",""2""
""fullscreenenter"",""1"",""3578""
","
","""event"",""trial"",""time""
""focus"",""0"",""2""
","""event"",""trial"",""time""
""fullscreenenter"",""1"",""3578""
","
","","","","","","null","<div style=""font-size:60px;"">+</div>","null","","fixation","","","","","","","","","","",""
"aa-learning-trial","161","567959","0.0-9.0-2.0-1.44","5814","1","14","Female","approach_avoid_spark_v1","""event"",""trial"",""time""
""focus"",""0"",""2""
""fullscreenenter"",""1"",""3578""
","
","""event"",""trial"",""time""
""focus"",""0"",""2""
","""event"",""trial"",""time""
""fullscreenenter"",""1"",""3578""
","
","","","","","","700","images/rabbit2.png","","","learning","1","0","0","0","rabbit","pets","1","0","","neutral","0"
"html-keyboard-response","162","568463","0.0-9.0-2.0-0.45","5814","1","14","Female","approach_avoid_spark_v1","""event"",""trial"",""time""
""focus"",""0"",""2""
""fullscreenenter"",""1"",""3578""
","
","""event"",""trial"",""time""
""focus"",""0"",""2""
","""event"",""trial"",""time""
""fullscreenenter"",""1"",""3578""
","
","","","","","","null","<div style=""font-size:60px;"">+</div>","null","","fixation","","","","","","","","","","",""
"aa-learning-trial","163","571474","0.0-9.0-2.0-1.45","5814","1","14","Female","approach_avoid_spark_v1","""event"",""trial"",""time""
""focus"",""0"",""2""
""fullscreenenter"",""1"",""3578""
","
","""event"",""trial"",""time""
""focus"",""0"",""2""
","""event"",""trial"",""time""
""fullscreenenter"",""1"",""3578""
","
","","","","","","516","images/dog4.png","","","learning","4","4","1","1","dog","pets","1","0","","good","[5]"
"html-keyboard-response","164","571984","0.0-9.0-2.0-0.46","5814","1","14","Female","approach_avoid_spark_v1","""event"",""trial"",""time""
""focus"",""0"",""2""
""fullscreenenter"",""1"",""3578""
","
","""event"",""trial"",""time""
""focus"",""0"",""2""
","""event"",""trial"",""time""
""fullscreenenter"",""1"",""3578""
","
","","","","","","null","<div style=""font-size:60px;"">+</div>","null","","fixation","","","","","","","","","","",""
"aa-learning-trial","165","575004","0.0-9.0-2.0-1.46","5814","1","14","Female","approach_avoid_spark_v1","""event"",""trial"",""time""
""focus"",""0"",""2""
""fullscreenenter"",""1"",""3578""
","
","""event"",""trial"",""time""
""focus"",""0"",""2""
","""event"",""trial"",""time""
""fullscreenenter"",""1"",""3578""
","
","","","","","","490","images/cat5.png","","","learning","-6","0","0","0","cat","pets","1","0","","bad","[-6]"
"html-keyboard-response","166","575520","0.0-9.0-2.0-0.47","5814","1","14","Female","approach_avoid_spark_v1","""event"",""trial"",""time""
""focus"",""0"",""2""
""fullscreenenter"",""1"",""3578""
","
","""event"",""trial"",""time""
""focus"",""0"",""2""
","""event"",""trial"",""time""
""fullscreenenter"",""1"",""3578""
","
","","","","","","null","<div style=""font-size:60px;"">+</div>","null","","fixation","","","","","","","","","","",""
"aa-learning-trial","167","578536","0.0-9.0-2.0-1.47","5814","1","14","Female","approach_avoid_spark_v1","""event"",""trial"",""time""
""focus"",""0"",""2""
""fullscreenenter"",""1"",""3578""
","
","""event"",""trial"",""time""
""focus"",""0"",""2""
","""event"",""trial"",""time""
""fullscreenenter"",""1"",""3578""
","
","","","","","","558","images/dog6.png","","","learning","7","7","1","1","dog","pets","1","0","","good","[5]"
"html-keyboard-response","168","579044","0.0-9.0-2.0-0.48","5814","1","14","Female","approach_avoid_spark_v1","""event"",""trial"",""time""
""focus"",""0"",""2""
""fullscreenenter"",""1"",""3578""
","
","""event"",""trial"",""time""
""focus"",""0"",""2""
","""event"",""trial"",""time""
""fullscreenenter"",""1"",""3578""
","
","","","","","","null","<div style=""font-size:60px;"">+</div>","null","","fixation","","","","","","","","","","",""
"aa-learning-trial","169","582050","0.0-9.0-2.0-1.48","5814","1","14","Female","approach_avoid_spark_v1","""event"",""trial"",""time""
""focus"",""0"",""2""
""fullscreenenter"",""1"",""3578""
","
","""event"",""trial"",""time""
""focus"",""0"",""2""
","""event"",""trial"",""time""
""fullscreenenter"",""1"",""3578""
","
","","","","","","644","images/cat1.png","","","learning","-7","0","0","0","cat","pets","1","0","","bad","[-6]"
"html-keyboard-response","170","582561","0.0-9.0-2.0-0.49","5814","1","14","Female","approach_avoid_spark_v1","""event"",""trial"",""time""
""focus"",""0"",""2""
""fullscreenenter"",""1"",""3578""
","
","""event"",""trial"",""time""
""focus"",""0"",""2""
","""event"",""trial"",""time""
""fullscreenenter"",""1"",""3578""
","
","","","","","","null","<div style=""font-size:60px;"">+</div>","null","","fixation","","","","","","","","","","",""
"aa-learning-trial","171","585568","0.0-9.0-2.0-1.49","5814","1","14","Female","approach_avoid_spark_v1","""event"",""trial"",""time""
""focus"",""0"",""2""
""fullscreenenter"",""1"",""3578""
","
","""event"",""trial"",""time""
""focus"",""0"",""2""
","""event"",""trial"",""time""
""fullscreenenter"",""1"",""3578""
","
","","","","","","675","images/rabbit3.png","","","learning","-2","0","0","0","rabbit","pets","1","0","","neutral","0"
"html-keyboard-response","172","586080","0.0-9.0-2.0-0.50","5814","1","14","Female","approach_avoid_spark_v1","""event"",""trial"",""time""
""focus"",""0"",""2""
""fullscreenenter"",""1"",""3578""
","
","""event"",""trial"",""time""
""focus"",""0"",""2""
","""event"",""trial"",""time""
""fullscreenenter"",""1"",""3578""
","
","","","","","","null","<div style=""font-size:60px;"">+</div>","null","","fixation","","","","","","","","","","",""
"aa-learning-trial","173","589096","0.0-9.0-2.0-1.50","5814","1","14","Female","approach_avoid_spark_v1","""event"",""trial"",""time""
""focus"",""0"",""2""
""fullscreenenter"",""1"",""3578""
","
","""event"",""trial"",""time""
""focus"",""0"",""2""
","""event"",""trial"",""time""
""fullscreenenter"",""1"",""3578""
","
","","","","","","459","images/rabbit7.png","","","learning","2","0","0","0","rabbit","pets","1","0","","neutral","0"
"html-button-response","174","591401","0.0-9.0-3.0","5814","1","14","Female","approach_avoid_spark_v1","""event"",""trial"",""time""
""focus"",""0"",""2""
""fullscreenenter"",""1"",""3578""
","
","""event"",""trial"",""time""
""focus"",""0"",""2""
","""event"",""trial"",""time""
""fullscreenenter"",""1"",""3578""
","
","","","","","","2301","<p> You have completed the round! <p> In this round, you earned 80 points! </p>","0","","break","","","","","","","","","","",""
"html-button-response","175","592830","0.0-10.0","5814","1","14","Female","approach_avoid_spark_v1","""event"",""trial"",""time""
""focus"",""0"",""2""
""fullscreenenter"",""1"",""3578""
","
","""event"",""trial"",""time""
""focus"",""0"",""2""
","""event"",""trial"",""time""
""fullscreenenter"",""1"",""3578""
","
","","","","","","1427","<p> Now it's time to play another round. </p>","0","","transition_screen","","","","","","","","","","",""
"preload","176","592975","0.0-11.0-0.0","5814","1","14","Female","approach_avoid_spark_v1","""event"",""trial"",""time""
""focus"",""0"",""2""
""fullscreenenter"",""1"",""3578""
","
","""event"",""trial"",""time""
""focus"",""0"",""2""
","""event"",""trial"",""time""
""fullscreenenter"",""1"",""3578""
","
","true","false","[]","[]","[]","","","","","","","","","","","","","","","",""
"learning-instructions","177","600490","0.0-11.0-1.0-0.0","5814","1","14","Female","approach_avoid_spark_v1","""event"",""trial"",""time""
""focus"",""0"",""2""
""fullscreenenter"",""1"",""3578""
","
","""event"",""trial"",""time""
""focus"",""0"",""2""
","""event"",""trial"",""time""
""fullscreenenter"",""1"",""3578""
","
","","","","","","1760","<p> Your goal in this round is to take your friend for rides in different vehicles. </p></div>","","0","instructions","","","","","","","","","","",""
"learning-instructions","178","611491","0.0-11.0-1.0-0.1","5814","1","14","Female","approach_avoid_spark_v1","""event"",""trial"",""time""
""focus"",""0"",""2""
""fullscreenenter"",""1"",""3578""
","
","""event"",""trial"",""time""
""focus"",""0"",""2""
","""event"",""trial"",""time""
""fullscreenenter"",""1"",""3578""
","
","","","","","","760","<p> Your friend enjoys riding in some vehicles but not in others.  </p><p> On each turn, you will see a vehicle.   </p><p> You need to decide whether to take your friend for a ride or not.  </p>","","0","instructions","","","","","","","","","","",""
"learning-instructions","179","618666","0.0-11.0-1.0-0.2","5814","1","14","Female","approach_avoid_spark_v1","""event"",""trial"",""time""
""focus"",""0"",""2""
""fullscreenenter"",""1"",""3578""
","
","""event"",""trial"",""time""
""focus"",""0"",""2""
","""event"",""trial"",""time""
""fullscreenenter"",""1"",""3578""
","
","","","","","","445","<p> You can take your friend for a ride in the vehicle by pressing 1 and skip the ride by pressing 0. </p><br><div class=""choice-instructions-grid""> <div class=""choice-option""><img src=""images/approach.png"" class=""choice-option-img"" stage=""instructions"" position=""0"" ><div class=""choice-option-text""> Press ""1."" </div></div><div class=""choice-option""><img src=""images/avoid.png"" class=""choice-option-img"" stage=""instructions"" position=""1"" ><div class=""choice-option-text""> Press ""0."" </div></div>","","0","instructions","","","","","","","","","","",""
"learning-instructions","180","628203","0.0-11.0-1.0-0.3","5814","1","14","Female","approach_avoid_spark_v1","""event"",""trial"",""time""
""focus"",""0"",""2""
""fullscreenenter"",""1"",""3578""
","
","""event"",""trial"",""time""
""focus"",""0"",""2""
","""event"",""trial"",""time""
""fullscreenenter"",""1"",""3578""
","
","","","","","","493","<p> If you take them for a ride in a vehicle they like, they will be thrilled! </p><p> But if you take them for a ride in a vehicle they do not like, they will be upset. </p>","","0","instructions","","","","","","","","","","",""
"learning-instructions","181","641127","0.0-11.0-1.0-0.4","5814","1","14","Female","approach_avoid_spark_v1","""event"",""trial"",""time""
""focus"",""0"",""2""
""fullscreenenter"",""1"",""3578""
","
","""event"",""trial"",""time""
""focus"",""0"",""2""
","""event"",""trial"",""time""
""fullscreenenter"",""1"",""3578""
","
","","","","","","857","<p> You will earn points based on how you made your friend feel. </p><p> If you made him thrilled, you will WIN anywhere from 1 - 9 points, </p><p> but if you made him upset, you will LOSE anywhere from 1 - 9 points. </p>","","0","instructions","","","","","","","","","","",""
"learning-instructions","182","649717","0.0-11.0-1.0-0.5","5814","1","14","Female","approach_avoid_spark_v1","""event"",""trial"",""time""
""focus"",""0"",""2""
""fullscreenenter"",""1"",""3578""
","
","""event"",""trial"",""time""
""focus"",""0"",""2""
","""event"",""trial"",""time""
""fullscreenenter"",""1"",""3578""
","
","","","","","","1916","<p> You will see how many points you won or lost in the center of the screen. </p><p> Here is what you would see if you won 5 points: </p><p style=""color:green;font-size:50px;font-weight:bolder"">5</p>","","0","instructions","","","","","","","","","","",""
"learning-instructions","183","655437","0.0-11.0-1.0-0.6","5814","1","14","Female","approach_avoid_spark_v1","""event"",""trial"",""time""
""focus"",""0"",""2""
""fullscreenenter"",""1"",""3578""
","
","""event"",""trial"",""time""
""focus"",""0"",""2""
","""event"",""trial"",""time""
""fullscreenenter"",""1"",""3578""
","
","","","","","","2877","<p> And here is what you would see if you lost 3 points: </p><p style=""color:red;font-size:50px;font-weight:bolder"">-3</p>","","0","instructions","","","","","","","","","","",""
"learning-instructions","184","671623","0.0-11.0-1.0-0.7","5814","1","14","Female","approach_avoid_spark_v1","""event"",""trial"",""time""
""focus"",""0"",""2""
""fullscreenenter"",""1"",""3578""
","
","""event"",""trial"",""time""
""focus"",""0"",""2""
","""event"",""trial"",""time""
""fullscreenenter"",""1"",""3578""
","
","","","","","","532","<p> Some vehicles will make your friend REALLY thrilled or upset. </p><p> These vehicles will make you win or lose LOTS of points. </p><p> Other vehicles will only make him feel a little thrilled or upset. </p><p> These vehicles will make you win or lose small amounts of points. </p>","","0","instructions","","","","","","","","","","",""
"learning-instructions","185","684537","0.0-11.0-1.0-0.8","5814","1","14","Female","approach_avoid_spark_v1","""event"",""trial"",""time""
""focus"",""0"",""2""
""fullscreenenter"",""1"",""3578""
","
","""event"",""trial"",""time""
""focus"",""0"",""2""
","""event"",""trial"",""time""
""fullscreenenter"",""1"",""3578""
","
","","","","","","767","<p> If you choose to skip the ride, you will not win or lose any points. </p><p>  However, in the center of the screen, you will see the number of points you WOULD HAVE won or lost if you had taken your friend for a ride. </p>","","0","instructions","","","","","","","","","","",""
"learning-instructions","186","696551","0.0-11.0-1.0-0.9","5814","1","14","Female","approach_avoid_spark_v1","""event"",""trial"",""time""
""focus"",""0"",""2""
""fullscreenenter"",""1"",""3578""
","
","""event"",""trial"",""time""
""focus"",""0"",""2""
","""event"",""trial"",""time""
""fullscreenenter"",""1"",""3578""
","
","","","","","","911","<p> Here is what you might see if you did not take your friend for a ride but he would have enjoyed it: </p><p style=""color:grey; font-size:50px; display: inline-block; border-spacing: 15px; border-width:3px; border-style:solid; border-color:red"">  &nbsp; 6 &nbsp; </p><p> Remember, in this case, you would not win or lose ANY points because you skipped the ride.  </p>","","0","instructions","","","","","","","","","","",""
"learning-instructions","187","705064","0.0-11.0-1.0-0.10","5814","1","14","Female","approach_avoid_spark_v1","""event"",""trial"",""time""
""focus"",""0"",""2""
""fullscreenenter"",""1"",""3578""
","
","""event"",""trial"",""time""
""focus"",""0"",""2""
","""event"",""trial"",""time""
""fullscreenenter"",""1"",""3578""
","
","","","","","","654","<p> Try to make the best choice for each vehicle because </p><p> at the end of the game, you will earn bonus money based on how many points you earned. </p>","","0","instructions","","","","","","","","","","",""
"learning-instructions","188","714151","0.0-11.0-1.0-0.11","5814","1","14","Female","approach_avoid_spark_v1","""event"",""trial"",""time""
""focus"",""0"",""2""
""fullscreenenter"",""1"",""3578""
","
","""event"",""trial"",""time""
""focus"",""0"",""2""
","""event"",""trial"",""time""
""fullscreenenter"",""1"",""3578""
","
","","","","","","880","<p> You will have 3 seconds to make each choice. Try to respond before time runs out! </p><p> You will lose 5 points each time you do not make a response. </p>","","0","instructions","","","","","","","","","","",""
"html-keyboard-response","189","714776","0.0-11.0-2.0-0.0","5814","1","14","Female","approach_avoid_spark_v1","""event"",""trial"",""time""
""focus"",""0"",""2""
""fullscreenenter"",""1"",""3578""
","
","""event"",""trial"",""time""
""focus"",""0"",""2""
","""event"",""trial"",""time""
""fullscreenenter"",""1"",""3578""
","
","","","","","","null","<div style=""font-size:60px;"">+</div>","null","","fixation","","","","","","","","","","",""
"aa-learning-trial","190","717788","0.0-11.0-2.0-1.0","5814","1","14","Female","approach_avoid_spark_v1","""event"",""trial"",""time""
""focus"",""0"",""2""
""fullscreenenter"",""1"",""3578""
","
","""event"",""trial"",""time""
""focus"",""0"",""2""
","""event"",""trial"",""time""
""fullscreenenter"",""1"",""3578""
","
","","","","","","2181","images/truck5.png","","","learning","1","0","0","0","truck","vehicles","2","1","","neutral","0"
"html-keyboard-response","191","718296","0.0-11.0-2.0-0.1","5814","1","14","Female","approach_avoid_spark_v1","""event"",""trial"",""time""
""focus"",""0"",""2""
""fullscreenenter"",""1"",""3578""
","
","""event"",""trial"",""time""
""focus"",""0"",""2""
","""event"",""trial"",""time""
""fullscreenenter"",""1"",""3578""
","
","","","","","","null","<div style=""font-size:60px;"">+</div>","null","","fixation","","","","","","","","","","",""
"aa-learning-trial","192","721309","0.0-11.0-2.0-1.1","5814","1","14","Female","approach_avoid_spark_v1","""event"",""trial"",""time""
""focus"",""0"",""2""
""fullscreenenter"",""1"",""3578""
","
","""event"",""trial"",""time""
""focus"",""0"",""2""
","""event"",""trial"",""time""
""fullscreenenter"",""1"",""3578""
","
","","","","","","833","images/boat7.png","","","learning","-6","-6","1","1","boat","vehicles","2","1","","bad","[-5]"
"html-keyboard-response","193","721822","0.0-11.0-2.0-0.2","5814","1","14","Female","approach_avoid_spark_v1","""event"",""trial"",""time""
""focus"",""0"",""2""
""fullscreenenter"",""1"",""3578""
","
","""event"",""trial"",""time""
""focus"",""0"",""2""
","""event"",""trial"",""time""
""fullscreenenter"",""1"",""3578""
","
","","","","","","null","<div style=""font-size:60px;"">+</div>","null","","fixation","","","","","","","","","","",""
"aa-learning-trial","194","724834","0.0-11.0-2.0-1.2","5814","1","14","Female","approach_avoid_spark_v1","""event"",""trial"",""time""
""focus"",""0"",""2""
""fullscreenenter"",""1"",""3578""
","
","""event"",""trial"",""time""
""focus"",""0"",""2""
","""event"",""trial"",""time""
""fullscreenenter"",""1"",""3578""
","
","","","","","","707","images/boat3.png","","","learning","-1","0","0","0","boat","vehicles","2","1","","bad","[-5]"
"html-keyboard-response","195","725347","0.0-11.0-2.0-0.3","5814","1","14","Female","approach_avoid_spark_v1","""event"",""trial"",""time""
""focus"",""0"",""2""
""fullscreenenter"",""1"",""3578""
","
","""event"",""trial"",""time""
""focus"",""0"",""2""
","""event"",""trial"",""time""
""fullscreenenter"",""1"",""3578""
","
","","","","","","null","<div style=""font-size:60px;"">+</div>","null","","fixation","","","","","","","","","","",""
"aa-learning-trial","196","728359","0.0-11.0-2.0-1.3","5814","1","14","Female","approach_avoid_spark_v1","""event"",""trial"",""time""
""focus"",""0"",""2""
""fullscreenenter"",""1"",""3578""
","
","""event"",""trial"",""time""
""focus"",""0"",""2""
","""event"",""trial"",""time""
""fullscreenenter"",""1"",""3578""
","
","","","","","","1015","images/truck2.png","","","learning","-7","-7","1","1","truck","vehicles","2","1","","neutral","0"
"html-keyboard-response","197","728873","0.0-11.0-2.0-0.4","5814","1","14","Female","approach_avoid_spark_v1","""event"",""trial"",""time""
""focus"",""0"",""2""
""fullscreenenter"",""1"",""3578""
","
","""event"",""trial"",""time""
""focus"",""0"",""2""
","""event"",""trial"",""time""
""fullscreenenter"",""1"",""3578""
","
","","","","","","null","<div style=""font-size:60px;"">+</div>","null","","fixation","","","","","","","","","","",""
"aa-learning-trial","198","731884","0.0-11.0-2.0-1.4","5814","1","14","Female","approach_avoid_spark_v1","""event"",""trial"",""time""
""focus"",""0"",""2""
""fullscreenenter"",""1"",""3578""
","
","""event"",""trial"",""time""
""focus"",""0"",""2""
","""event"",""trial"",""time""
""fullscreenenter"",""1"",""3578""
","
","","","","","","944","images/train3.png","","","learning","2","2","1","1","train","vehicles","2","1","","good","[6]"
"html-keyboard-response","199","732392","0.0-11.0-2.0-0.5","5814","1","14","Female","approach_avoid_spark_v1","""event"",""trial"",""time""
""focus"",""0"",""2""
""fullscreenenter"",""1"",""3578""
","
","""event"",""trial"",""time""
""focus"",""0"",""2""
","""event"",""trial"",""time""
""fullscreenenter"",""1"",""3578""
","
","","","","","","null","<div style=""font-size:60px;"">+</div>","null","","fixation","","","","","","","","","","",""
"aa-learning-trial","200","735409","0.0-11.0-2.0-1.5","5814","1","14","Female","approach_avoid_spark_v1","""event"",""trial"",""time""
""focus"",""0"",""2""
""fullscreenenter"",""1"",""3578""
","
","""event"",""trial"",""time""
""focus"",""0"",""2""
","""event"",""trial"",""time""
""fullscreenenter"",""1"",""3578""
","
","","","","","","847","images/train4.png","","","learning","-8","-8","1","1","train","vehicles","2","1","","good","[6]"
"html-keyboard-response","201","735912","0.0-11.0-2.0-0.6","5814","1","14","Female","approach_avoid_spark_v1","""event"",""trial"",""time""
""focus"",""0"",""2""
""fullscreenenter"",""1"",""3578""
","
","""event"",""trial"",""time""
""focus"",""0"",""2""
","""event"",""trial"",""time""
""fullscreenenter"",""1"",""3578""
","
","","","","","","null","<div style=""font-size:60px;"">+</div>","null","","fixation","","","","","","","","","","",""
