"trial_type","trial_index","time_elapsed","internal_node_id","subject_id","task_condition","age","gender","task_version","interactions","blur_events","focus_events","fullscreenenter_events","fullscreenexit_events","success","timeout","failed_images","failed_audio","failed_video","rt","stimulus","response","button_pressed","task_part","approach_reward","points","key_press","option_selected","stim_cat","task_block","block_condition","block_number","correct","cat_type","mean_cat_reward"
"pavlovia","0","3","0.0-0.0","7647","2","13","Female","approach_avoid_spark_v1","""event"",""trial"",""time""
""fullscreenenter"",""1"",""15768""
","
","
","""event"",""trial"",""time""
""fullscreenenter"",""1"",""15768""
","
","","","","","","","","","","","","","","","","","","","","",""
"fullscreen","1","16761","0.0-1.0","7647","2","13","Female","approach_avoid_spark_v1","""event"",""trial"",""time""
""fullscreenenter"",""1"",""15768""
","
","
","""event"",""trial"",""time""
""fullscreenenter"",""1"",""15768""
","
","true","","","","","","","","","","","","","","","","","","","",""
"preload","2","23941","0.0-2.0","7647","2","13","Female","approach_avoid_spark_v1","""event"",""trial"",""time""
""fullscreenenter"",""1"",""15768""
","
","
","""event"",""trial"",""time""
""fullscreenenter"",""1"",""15768""
","
","true","false","[]","[]","[]","","","","","","","","","","","","","","","",""
"audio-keyboard-response","3","26953","0.0-3.0","7647","2","13","Female","approach_avoid_spark_v1","""event"",""trial"",""time""
""fullscreenenter"",""1"",""15768""
","
","
","""event"",""trial"",""time""
""fullscreenenter"",""1"",""15768""
","
","","","","","","3010.6666666666665","audio/beep_loop.wav"," ","","","","","","","","","","","","",""
"audio-button-response","4","28719","0.0-4.0","7647","2","13","Female","approach_avoid_spark_v1","""event"",""trial"",""time""
""fullscreenenter"",""1"",""15768""
","
","
","""event"",""trial"",""time""
""fullscreenenter"",""1"",""15768""
","
","","","","","","1760","audio/shark.wav","4","","","","","","","","","","","","",""
"audio-button-response","5","31927","0.0-5.0","7647","2","13","Female","approach_avoid_spark_v1","""event"",""trial"",""time""
""fullscreenenter"",""1"",""15768""
","
","
","""event"",""trial"",""time""
""fullscreenenter"",""1"",""15768""
","
","","","","","","2200","audio/turtle.wav","1","","","","","","","","","","","","",""
"preload","6","34751","0.0-6.0","7647","2","13","Female","approach_avoid_spark_v1","""event"",""trial"",""time""
""fullscreenenter"",""1"",""15768""
","
","
","""event"",""trial"",""time""
""fullscreenenter"",""1"",""15768""
","
","true","false","[]","[]","[]","","","","","","","","","","","","","","","",""
"html-keyboard-response","7","36394","0.0-7.0","7647","2","13","Female","approach_avoid_spark_v1","""event"",""trial"",""time""
""fullscreenenter"",""1"",""15768""
","
","
","""event"",""trial"",""time""
""fullscreenenter"",""1"",""15768""
","
","","","","","","1641.800000011921","Welcome to the experiment. Press any key to begin and to advance the instructions."," ","","","","","","","","","","","","",""
"learning-instructions","8","44465","0.0-8.0-0.0-0.0","7647","2","13","Female","approach_avoid_spark_v1","""event"",""trial"",""time""
""fullscreenenter"",""1"",""15768""
","
","
","""event"",""trial"",""time""
""fullscreenenter"",""1"",""15768""
","
","","","","","","1109.5999999642372","<p> Welcome! Today you are going to play 6 different rounds of a decision-making game. </p><p> Use the mouse to click next to continue. </p>","","0","instructions","","","","","","","","","","",""
"learning-instructions","9","47881","0.0-8.0-0.0-0.1","7647","2","13","Female","approach_avoid_spark_v1","""event"",""trial"",""time""
""fullscreenenter"",""1"",""15768""
","
","
","""event"",""trial"",""time""
""fullscreenenter"",""1"",""15768""
","
","","","","","","686.3999999761581","<p> You will start with a practice round to learn the rules. </p>","","0","instructions","","","","","","","","","","",""
"learning-instructions","10","51779","0.0-8.0-0.0-0.2","7647","2","13","Female","approach_avoid_spark_v1","""event"",""trial"",""time""
""fullscreenenter"",""1"",""15768""
","
","
","""event"",""trial"",""time""
""fullscreenenter"",""1"",""15768""
","
","","","","","","443.60000002384186","<p> Your goal in this round is to give out sports equipment to kids. </p></div>","","0","instructions","","","","","","","","","","",""
"learning-instructions","11","59797","0.0-8.0-0.0-0.3","7647","2","13","Female","approach_avoid_spark_v1","""event"",""trial"",""time""
""fullscreenenter"",""1"",""15768""
","
","
","""event"",""trial"",""time""
""fullscreenenter"",""1"",""15768""
","
","","","","","","451.80000001192093","<p> The kids only like some of the equipment.  </p><p> On each turn, you will see a piece of sports equipment.   </p><p> You need to decide whether to give it to the kids or not.  </p>","","0","instructions","","","","","","","","","","",""
"learning-instructions","12","67001","0.0-8.0-0.0-0.4","7647","2","13","Female","approach_avoid_spark_v1","""event"",""trial"",""time""
""fullscreenenter"",""1"",""15768""
","
","
","""event"",""trial"",""time""
""fullscreenenter"",""1"",""15768""
","
","","","","","","2445.399999976158","<p> You can give them the equipment by pressing 1 and choose not to give it to them by pressing 0. </p><br><div class=""choice-instructions-grid""> <div class=""choice-option""><img src=""images/approach.png"" class=""choice-option-img"" stage=""instructions"" position=""0"" ><div class=""choice-option-text""> Press ""1."" </div></div><div class=""choice-option""><img src=""images/avoid.png"" class=""choice-option-img"" stage=""instructions"" position=""1"" ><div class=""choice-option-text""> Press ""0."" </div></div>","","0","instructions","","","","","","","","","","",""
"learning-instructions","13","75685","0.0-8.0-0.0-0.5","7647","2","13","Female","approach_avoid_spark_v1","""event"",""trial"",""time""
""fullscreenenter"",""1"",""15768""
","
","
","""event"",""trial"",""time""
""fullscreenenter"",""1"",""15768""
","
","","","","","","1300.5","<p> If you give them a piece of equipment they like, they will be happy! </p><p> But if you give them a piece of equipment they do not like, they will be sad. </p>","","0","instructions","","","","","","","","","","",""
"learning-instructions","14","86859","0.0-8.0-0.0-0.6","7647","2","13","Female","approach_avoid_spark_v1","""event"",""trial"",""time""
""fullscreenenter"",""1"",""15768""
","
","
","""event"",""trial"",""time""
""fullscreenenter"",""1"",""15768""
","
","","","","","","664.9000000357628","<p> You will earn points based on how you make kids feel. </p><p> If you make them happy, you will WIN anywhere from 1 - 9 points, </p><p> but if you make them sad, you will LOSE anywhere from 1 - 9 points. </p>","","0","instructions","","","","","","","","","","",""
"learning-instructions","15","96850","0.0-8.0-0.0-0.7","7647","2","13","Female","approach_avoid_spark_v1","""event"",""trial"",""time""
""fullscreenenter"",""1"",""15768""
","
","
","""event"",""trial"",""time""
""fullscreenenter"",""1"",""15768""
","
","","","","","","423.89999997615814","<p> You will see how many points you won or lost in the center of the screen. </p><p> Here is what you would see if you won 6 points: </p><p style=""color:green;font-size:50px;font-weight:bolder"">6</p><p style=""color:green"">The text is GREEN because you WON points.</p>","","0","instructions","","","","","","","","","","",""
"learning-instructions","16","102769","0.0-8.0-0.0-0.8","7647","2","13","Female","approach_avoid_spark_v1","""event"",""trial"",""time""
""fullscreenenter"",""1"",""15768""
","
","
","""event"",""trial"",""time""
""fullscreenenter"",""1"",""15768""
","
","","","","","","413.89999997615814","<p> And here is what you would see if you lost 4 points: </p><p style=""color:red;font-size:50px;font-weight:bolder"">-4</p><p style=""color:red"">The text is RED because you LOST points. </p>","","0","instructions","","","","","","","","","","",""
"learning-instructions","17","118189","0.0-8.0-0.0-0.9","7647","2","13","Female","approach_avoid_spark_v1","""event"",""trial"",""time""
""fullscreenenter"",""1"",""15768""
","
","
","""event"",""trial"",""time""
""fullscreenenter"",""1"",""15768""
","
","","","","","","704.6999999880791","<p> Some of the equipment will make the kids VERY happy or sad. </p><p> These pieces of equipment will make you win or lose LOTS of points. </p><p> Other pieces of equipment will only make the kids a little happy or sad. </p><p> These pieces of equipment will make you win or lose small amounts of points. </p>","","0","instructions","","","","","","","","","","",""
"learning-instructions","18","129653","0.0-8.0-0.0-0.10","7647","2","13","Female","approach_avoid_spark_v1","""event"",""trial"",""time""
""fullscreenenter"",""1"",""15768""
","
","
","""event"",""trial"",""time""
""fullscreenenter"",""1"",""15768""
","
","","","","","","838.1000000238419","<p> If you choose not to give them the equipment, you will not win or lose any points. </p><p>  However, in the center of the screen, you will see the number of points you WOULD HAVE won or lost if you had given them the equipment. </p>","","0","instructions","","","","","","","","","","",""
"learning-instructions","19","151983","0.0-8.0-0.0-0.11","7647","2","13","Female","approach_avoid_spark_v1","""event"",""trial"",""time""
""fullscreenenter"",""1"",""15768""
","
","
","""event"",""trial"",""time""
""fullscreenenter"",""1"",""15768""
","
","","","","","","798.3999999761581","<p> Here is what you might see if you did not give the equipment to the kids but it would have made them happy: </p><p style=""color:grey; font-size:50px; display: inline-block; border-spacing: 15px; border-width:3px; border-style:solid; border-color:red"">  &nbsp; 7 &nbsp; </p><p> Remember, in this case, you would not win or lose ANY points because you did not give them the equipment.  </p><p style=""color:grey"">The text is GREY because you earned ZERO points. </p><p style=""color:red"">However, choosing to give the kids the equipment would have made you win points. The box around the text is RED because you chose the worse option. </p>","","0","instructions","","","","","","","","","","",""
"learning-instructions","20","173710","0.0-8.0-0.0-0.12","7647","2","13","Female","approach_avoid_spark_v1","""event"",""trial"",""time""
""fullscreenenter"",""1"",""15768""
","
","
","""event"",""trial"",""time""
""fullscreenenter"",""1"",""15768""
","
","","","","","","655.8999999761581","<p> Here is what you might see if you did not give the equipment to the kids but it would have made them sad: </p><p style=""color:grey;font-size:50px; display: inline-block; border-spacing: 15px; border-width:3px; border-style:solid; border-color:green"">  &nbsp; -8 &nbsp; </p><p> Remember, in this case, you would not win or lose ANY points because you did not give them the equipment.  </p><p style=""color:grey"">The text is GREY because you earned ZERO points. </p><p  style=""color:green""> Choosing to give the kids the equipment would have made you lose points. The box around the text is GREEN because you chose the better option.</p>","","0","instructions","","","","","","","","","","",""
"learning-instructions","21","183495","0.0-8.0-0.0-0.13","7647","2","13","Female","approach_avoid_spark_v1","""event"",""trial"",""time""
""fullscreenenter"",""1"",""15768""
","
","
","""event"",""trial"",""time""
""fullscreenenter"",""1"",""15768""
","
","","","","","","599.8000000119209","<p> You will have 3 seconds to make each choice. Try to respond before time runs out! </p><p> You will lose 5 points each time you do not make a response. </p>","","0","instructions","","","","","","","","","","",""
"learning-instructions","22","189477","0.0-8.0-0.0-0.14","7647","2","13","Female","approach_avoid_spark_v1","""event"",""trial"",""time""
""fullscreenenter"",""1"",""15768""
","
","
","""event"",""trial"",""time""
""fullscreenenter"",""1"",""15768""
","
","","","","","","561.9000000357628","<p> This is just a practice round, but in the real game, your bonus payment will depend on your total number of points.","","0","instructions","","","","","","","","","","",""
"learning-instructions","23","196069","0.0-8.0-0.0-0.15","7647","2","13","Female","approach_avoid_spark_v1","""event"",""trial"",""time""
""fullscreenenter"",""1"",""15768""
","
","
","""event"",""trial"",""time""
""fullscreenenter"",""1"",""15768""
","
","","","","","","824.3000000119209","<p> Remember, you can give them the equipment by pressing 1 and choose not to give it to them by pressing 0. </p><br><div class=""choice-instructions-grid""> <div class=""choice-option""><img src=""images/approach.png"" class=""choice-option-img"" stage=""instructions"" position=""0"" ><div class=""choice-option-text""> Press ""1."" </div></div><div class=""choice-option""><img src=""images/avoid.png"" class=""choice-option-img"" stage=""instructions"" position=""1"" ><div class=""choice-option-text""> Press ""0."" </div></div>","","0","instructions","","","","","","","","","","",""
"html-button-response","24","197797","0.0-8.0-1.0","7647","2","13","Female","approach_avoid_spark_v1","""event"",""trial"",""time""
""fullscreenenter"",""1"",""15768""
","
","
","""event"",""trial"",""time""
""fullscreenenter"",""1"",""15768""
","
","","","","","","1626.3999999761581","<p> Ready to practice? </p>","0","","","","","","","","","","","","",""
"html-keyboard-response","25","198408","0.0-8.0-2.0-0.0","7647","2","13","Female","approach_avoid_spark_v1","""event"",""trial"",""time""
""fullscreenenter"",""1"",""15768""
","
","
","""event"",""trial"",""time""
""fullscreenenter"",""1"",""15768""
","
","","","","","","null","<div style=""font-size:60px;"">+</div>","null","","fixation","","","","","","","","","","",""
"aa-learning-trial","26","201410","0.0-8.0-2.0-1.0","7647","2","13","Female","approach_avoid_spark_v1","""event"",""trial"",""time""
""fullscreenenter"",""1"",""15768""
","
","
","""event"",""trial"",""time""
""fullscreenenter"",""1"",""15768""
","
","","","","","","1368","images/racket4.png","","","learning","7","7","1","1","practice","practice","practice","-1","","",""
"html-keyboard-response","27","201919","0.0-8.0-2.0-0.1","7647","2","13","Female","approach_avoid_spark_v1","""event"",""trial"",""time""
""fullscreenenter"",""1"",""15768""
","
","
","""event"",""trial"",""time""
""fullscreenenter"",""1"",""15768""
","
","","","","","","null","<div style=""font-size:60px;"">+</div>","null","","fixation","","","","","","","","","","",""
"aa-learning-trial","28","204927","0.0-8.0-2.0-1.1","7647","2","13","Female","approach_avoid_spark_v1","""event"",""trial"",""time""
""fullscreenenter"",""1"",""15768""
","
","
","""event"",""trial"",""time""
""fullscreenenter"",""1"",""15768""
","
","","","","","","968.9000000357628","images/ball4.png","","","learning","5","5","1","1","practice","practice","practice","-1","","",""
"html-keyboard-response","29","205430","0.0-8.0-2.0-0.2","7647","2","13","Female","approach_avoid_spark_v1","""event"",""trial"",""time""
""fullscreenenter"",""1"",""15768""
","
","
","""event"",""trial"",""time""
""fullscreenenter"",""1"",""15768""
","
","","","","","","null","<div style=""font-size:60px;"">+</div>","null","","fixation","","","","","","","","","","",""
"aa-learning-trial","30","208438","0.0-8.0-2.0-1.2","7647","2","13","Female","approach_avoid_spark_v1","""event"",""trial"",""time""
""fullscreenenter"",""1"",""15768""
","
","
","""event"",""trial"",""time""
""fullscreenenter"",""1"",""15768""
","
","","","","","","960.8000000119209","images/racket2.png","","","learning","9","0","0","0","practice","practice","practice","-1","","",""
"html-keyboard-response","31","208950","0.0-8.0-2.0-0.3","7647","2","13","Female","approach_avoid_spark_v1","""event"",""trial"",""time""
""fullscreenenter"",""1"",""15768""
","
","
","""event"",""trial"",""time""
""fullscreenenter"",""1"",""15768""
","
","","","","","","null","<div style=""font-size:60px;"">+</div>","null","","fixation","","","","","","","","","","",""
"aa-learning-trial","32","211967","0.0-8.0-2.0-1.3","7647","2","13","Female","approach_avoid_spark_v1","""event"",""trial"",""time""
""fullscreenenter"",""1"",""15768""
","
","
","""event"",""trial"",""time""
""fullscreenenter"",""1"",""15768""
","
","","","","","","1161","images/racket1.png","","","learning","6","0","0","0","practice","practice","practice","-1","","",""
"html-keyboard-response","33","212476","0.0-8.0-2.0-0.4","7647","2","13","Female","approach_avoid_spark_v1","""event"",""trial"",""time""
""fullscreenenter"",""1"",""15768""
","
","
","""event"",""trial"",""time""
""fullscreenenter"",""1"",""15768""
","
","","","","","","null","<div style=""font-size:60px;"">+</div>","null","","fixation","","","","","","","","","","",""
"aa-learning-trial","34","215489","0.0-8.0-2.0-1.4","7647","2","13","Female","approach_avoid_spark_v1","""event"",""trial"",""time""
""fullscreenenter"",""1"",""15768""
","
","
","""event"",""trial"",""time""
""fullscreenenter"",""1"",""15768""
","
","","","","","","1315.6000000238419","images/ball3.png","","","learning","-8","-8","1","1","practice","practice","practice","-1","","",""
"html-keyboard-response","35","215999","0.0-8.0-2.0-0.5","7647","2","13","Female","approach_avoid_spark_v1","""event"",""trial"",""time""
""fullscreenenter"",""1"",""15768""
","
","
","""event"",""trial"",""time""
""fullscreenenter"",""1"",""15768""
","
","","","","","","null","<div style=""font-size:60px;"">+</div>","null","","fixation","","","","","","","","","","",""
"aa-learning-trial","36","219001","0.0-8.0-2.0-1.5","7647","2","13","Female","approach_avoid_spark_v1","""event"",""trial"",""time""
""fullscreenenter"",""1"",""15768""
","
","
","""event"",""trial"",""time""
""fullscreenenter"",""1"",""15768""
","
","","","","","","864.6999999880791","images/ball3.png","","","learning","-2","0","0","0","practice","practice","practice","-1","","",""
"html-keyboard-response","37","219504","0.0-8.0-2.0-0.6","7647","2","13","Female","approach_avoid_spark_v1","""event"",""trial"",""time""
""fullscreenenter"",""1"",""15768""
","
","
","""event"",""trial"",""time""
""fullscreenenter"",""1"",""15768""
","
","","","","","","null","<div style=""font-size:60px;"">+</div>","null","","fixation","","","","","","","","","","",""
"aa-learning-trial","38","222511","0.0-8.0-2.0-1.6","7647","2","13","Female","approach_avoid_spark_v1","""event"",""trial"",""time""
""fullscreenenter"",""1"",""15768""
","
","
","""event"",""trial"",""time""
""fullscreenenter"",""1"",""15768""
","
","","","","","","2111","images/racket3.png","","","learning","-7","-7","1","1","practice","practice","practice","-1","","",""
"html-keyboard-response","39","223014","0.0-8.0-2.0-0.7","7647","2","13","Female","approach_avoid_spark_v1","""event"",""trial"",""time""
""fullscreenenter"",""1"",""15768""
","
","
","""event"",""trial"",""time""
""fullscreenenter"",""1"",""15768""
","
","","","","","","null","<div style=""font-size:60px;"">+</div>","null","","fixation","","","","","","","","","","",""
"aa-learning-trial","40","226017","0.0-8.0-2.0-1.7","7647","2","13","Female","approach_avoid_spark_v1","""event"",""trial"",""time""
""fullscreenenter"",""1"",""15768""
","
","
","""event"",""trial"",""time""
""fullscreenenter"",""1"",""15768""
","
","","","","","","872.5","images/ball4.png","","","learning","3","3","1","1","practice","practice","practice","-1","","",""
"html-keyboard-response","41","226519","0.0-8.0-2.0-0.8","7647","2","13","Female","approach_avoid_spark_v1","""event"",""trial"",""time""
""fullscreenenter"",""1"",""15768""
","
","
","""event"",""trial"",""time""
""fullscreenenter"",""1"",""15768""
","
","","","","","","null","<div style=""font-size:60px;"">+</div>","null","","fixation","","","","","","","","","","",""
"aa-learning-trial","42","229521","0.0-8.0-2.0-1.8","7647","2","13","Female","approach_avoid_spark_v1","""event"",""trial"",""time""
""fullscreenenter"",""1"",""15768""
","
","
","""event"",""trial"",""time""
""fullscreenenter"",""1"",""15768""
","
","","","","","","872.6000000238419","images/ball2.png","","","learning","2","2","1","1","practice","practice","practice","-1","","",""
"html-keyboard-response","43","230022","0.0-8.0-2.0-0.9","7647","2","13","Female","approach_avoid_spark_v1","""event"",""trial"",""time""
""fullscreenenter"",""1"",""15768""
","
","
","""event"",""trial"",""time""
""fullscreenenter"",""1"",""15768""
","
","","","","","","null","<div style=""font-size:60px;"">+</div>","null","","fixation","","","","","","","","","","",""
"aa-learning-trial","44","233024","0.0-8.0-2.0-1.9","7647","2","13","Female","approach_avoid_spark_v1","""event"",""trial"",""time""
""fullscreenenter"",""1"",""15768""
","
","
","""event"",""trial"",""time""
""fullscreenenter"",""1"",""15768""
","
","","","","","","1153.699999988079","images/ball1.png","","","learning","9","9","1","1","practice","practice","practice","-1","","",""
"html-keyboard-response","45","233527","0.0-8.0-2.0-0.10","7647","2","13","Female","approach_avoid_spark_v1","""event"",""trial"",""time""
""fullscreenenter"",""1"",""15768""
","
","
","""event"",""trial"",""time""
""fullscreenenter"",""1"",""15768""
","
","","","","","","null","<div style=""font-size:60px;"">+</div>","null","","fixation","","","","","","","","","","",""
"aa-learning-trial","46","236529","0.0-8.0-2.0-1.10","7647","2","13","Female","approach_avoid_spark_v1","""event"",""trial"",""time""
""fullscreenenter"",""1"",""15768""
","
","
","""event"",""trial"",""time""
""fullscreenenter"",""1"",""15768""
","
","","","","","","1320.7000000476837","images/racket1.png","","","learning","-4","0","0","0","practice","practice","practice","-1","","",""
"html-keyboard-response","47","237030","0.0-8.0-2.0-0.11","7647","2","13","Female","approach_avoid_spark_v1","""event"",""trial"",""time""
""fullscreenenter"",""1"",""15768""
","
","
","""event"",""trial"",""time""
""fullscreenenter"",""1"",""15768""
","
","","","","","","null","<div style=""font-size:60px;"">+</div>","null","","fixation","","","","","","","","","","",""
"aa-learning-trial","48","240033","0.0-8.0-2.0-1.11","7647","2","13","Female","approach_avoid_spark_v1","""event"",""trial"",""time""
""fullscreenenter"",""1"",""15768""
","
","
","""event"",""trial"",""time""
""fullscreenenter"",""1"",""15768""
","
","","","","","","1184.199999988079","images/racket2.png","","","learning","-1","-1","1","1","practice","practice","practice","-1","","",""
"html-button-response","49","242105","0.0-8.0-3.0","7647","2","13","Female","approach_avoid_spark_v1","""event"",""trial"",""time""
""fullscreenenter"",""1"",""15768""
","
","
","""event"",""trial"",""time""
""fullscreenenter"",""1"",""15768""
","
","","","","","","2070.199999988079","<p> You earned 10 points in the practice round! </p>","0","","break","","","","","","","","","","",""
"learning-instructions","50","248853","0.0-8.0-4.0-0.0","7647","2","13","Female","approach_avoid_spark_v1","""event"",""trial"",""time""
""fullscreenenter"",""1"",""15768""
","
","
","""event"",""trial"",""time""
""fullscreenenter"",""1"",""15768""
","
","","","","","","788.3999999761581","<p> It's almost time to start the real game. </p><p> Before you start, we're going to ask you a few questions about how the game works. </p>","","0","instructions","","","","","","","","","","",""
"preload","51","250814","0.0-8.0-5.0","7647","2","13","Female","approach_avoid_spark_v1","""event"",""trial"",""time""
""fullscreenenter"",""1"",""15768""
","
","
","""event"",""trial"",""time""
""fullscreenenter"",""1"",""15768""
","
","true","false","[]","[]","[]","","","","","","","","","","","","","","","",""
"comp-q","52","256593","0.0-8.0-6.0-0.0","7647","2","13","Female","approach_avoid_spark_v1","""event"",""trial"",""time""
""fullscreenenter"",""1"",""15768""
","
","
","""event"",""trial"",""time""
""fullscreenenter"",""1"",""15768""
","
","","","","","","778.5","<p> <b> True or False? </b> </p><p> If you see a number in GREY, that means you earned that many points. </p>","","1","comp_question","","","","","","","","","true","",""
"comp-q","53","265981","0.0-8.0-6.0-1.0","7647","2","13","Female","approach_avoid_spark_v1","""event"",""trial"",""time""
""fullscreenenter"",""1"",""15768""
","
","
","""event"",""trial"",""time""
""fullscreenenter"",""1"",""15768""
","
","","","","","","1016.0999999642372","<p><b> That's right! </b> If you see a grey number, it means you earned ZERO points. <br> The grey numbers show the points you WOULD HAVE earned if you had made the other choice. </p>","","0","comp_answer","","","","","","","","","","",""
"comp-q","54","271107","0.0-8.0-7.0-0.0","7647","2","13","Female","approach_avoid_spark_v1","""event"",""trial"",""time""
""fullscreenenter"",""1"",""15768""
","
","
","""event"",""trial"",""time""
""fullscreenenter"",""1"",""15768""
","
","","","","","","422.10000002384186","<p> <b> True or False? </b> </p><p> You will have as much time as you want to make each choice. </p>","","1","comp_question","","","","","","","","","true","",""
"comp-q","55","275911","0.0-8.0-7.0-1.0","7647","2","13","Female","approach_avoid_spark_v1","""event"",""trial"",""time""
""fullscreenenter"",""1"",""15768""
","
","
","""event"",""trial"",""time""
""fullscreenenter"",""1"",""15768""
","
","","","","","","766.8000000119209","<p> <b> That's right! </b> You will only have 3 seconds to make each choice. </p>","","0","comp_answer","","","","","","","","","","",""
"comp-q","56","281747","0.0-8.0-8.0-0.0","7647","2","13","Female","approach_avoid_spark_v1","""event"",""trial"",""time""
""fullscreenenter"",""1"",""15768""
","
","
","""event"",""trial"",""time""
""fullscreenenter"",""1"",""15768""
","
","","","","","","1182.5","<p> <b> True or False? </b> </p><p> You should use the '1' and '0' keys to make your choices. </p>","","0","comp_question","","","","","","","","","true","",""
"comp-q","57","287207","0.0-8.0-8.0-1.0","7647","2","13","Female","approach_avoid_spark_v1","""event"",""trial"",""time""
""fullscreenenter"",""1"",""15768""
","
","
","""event"",""trial"",""time""
""fullscreenenter"",""1"",""15768""
","
","","","","","","842.5","<p> <b> That's right! </b> You should use the '1' and '0' keys to make each choice. </p>","","0","comp_answer","","","","","","","","","","",""
"learning-instructions","58","295429","0.0-8.0-9.0-0.0","7647","2","13","Female","approach_avoid_spark_v1","""event"",""trial"",""time""
""fullscreenenter"",""1"",""15768""
","
","
","""event"",""trial"",""time""
""fullscreenenter"",""1"",""15768""
","
","","","","","","1943.8999999761581","<p> It's now time to start the real game. </p>Do your best, because the points you earn in the next rounds will influence your bonus payment. </p>","","0","instructions","","","","","","","","","","",""
"preload","59","295551","0.0-9.0-0.0","7647","2","13","Female","approach_avoid_spark_v1","""event"",""trial"",""time""
""fullscreenenter"",""1"",""15768""
","
","
","""event"",""trial"",""time""
""fullscreenenter"",""1"",""15768""
","
","true","false","[]","[]","[]","","","","","","","","","","","","","","","",""
"learning-instructions","60","299935","0.0-9.0-1.0-0.0","7647","2","13","Female","approach_avoid_spark_v1","""event"",""trial"",""time""
""fullscreenenter"",""1"",""15768""
","
","
","""event"",""trial"",""time""
""fullscreenenter"",""1"",""15768""
","
","","","","","","629.9000000357628","<p> Your goal in this round is to take care of lots of animals. </p></div>","","0","instructions","","","","","","","","","","",""
"learning-instructions","61","309715","0.0-9.0-1.0-0.1","7647","2","13","Female","approach_avoid_spark_v1","""event"",""trial"",""time""
""fullscreenenter"",""1"",""15768""
","
","
","""event"",""trial"",""time""
""fullscreenenter"",""1"",""15768""
","
","","","","","","451","<p> Some animals want to be pet, while other animals want to be left alone.  </p><p> On each turn, you will see an animal.   </p><p> You need to decide whether to pet it or not.  </p>","","0","instructions","","","","","","","","","","",""
"learning-instructions","62","315205","0.0-9.0-1.0-0.2","7647","2","13","Female","approach_avoid_spark_v1","""event"",""trial"",""time""
""fullscreenenter"",""1"",""15768""
","
","
","""event"",""trial"",""time""
""fullscreenenter"",""1"",""15768""
","
","","","","","","400.4000000357628","<p> You can pet the animal by pressing 1 and leave the animal alone by pressing 0. </p><br><div class=""choice-instructions-grid""> <div class=""choice-option""><img src=""images/approach.png"" class=""choice-option-img"" stage=""instructions"" position=""0"" ><div class=""choice-option-text""> Press ""1."" </div></div><div class=""choice-option""><img src=""images/avoid.png"" class=""choice-option-img"" stage=""instructions"" position=""1"" ><div class=""choice-option-text""> Press ""0."" </div></div>","","0","instructions","","","","","","","","","","",""
"learning-instructions","63","324299","0.0-9.0-1.0-0.3","7647","2","13","Female","approach_avoid_spark_v1","""event"",""trial"",""time""
""fullscreenenter"",""1"",""15768""
","
","
","""event"",""trial"",""time""
""fullscreenenter"",""1"",""15768""
","
","","","","","","464.80000001192093","<p> If you pet an animal that wants to be pet, you will make it feel happy! </p><p> But if you pet an animal that wants to be left alone, you will make it feel angry. </p>","","0","instructions","","","","","","","","","","",""
"learning-instructions","64","337224","0.0-9.0-1.0-0.4","7647","2","13","Female","approach_avoid_spark_v1","""event"",""trial"",""time""
""fullscreenenter"",""1"",""15768""
","
","
","""event"",""trial"",""time""
""fullscreenenter"",""1"",""15768""
","
","","","","","","739.9000000357628","<p> You will earn points based on how you made the animal feel. </p><p> If you made it feel happy, you will WIN anywhere from 1 - 9 points, </p><p> but if you made it feel angry, you will LOSE anywhere from 1 - 9 points. </p>","","0","instructions","","","","","","","","","","",""
"learning-instructions","65","345299","0.0-9.0-1.0-0.5","7647","2","13","Female","approach_avoid_spark_v1","""event"",""trial"",""time""
""fullscreenenter"",""1"",""15768""
","
","
","""event"",""trial"",""time""
""fullscreenenter"",""1"",""15768""
","
","","","","","","584.0999999642372","<p> You will see how many points you won or lost in the center of the screen. </p><p> Here is what you would see if you won 5 points: </p><p style=""color:green;font-size:50px;font-weight:bolder"">5</p>","","0","instructions","","","","","","","","","","",""
"learning-instructions","66","349062","0.0-9.0-1.0-0.6","7647","2","13","Female","approach_avoid_spark_v1","""event"",""trial"",""time""
""fullscreenenter"",""1"",""15768""
","
","
","""event"",""trial"",""time""
""fullscreenenter"",""1"",""15768""
","
","","","","","","337.69999998807907","<p> And here is what you would see if you lost 3 points: </p><p style=""color:red;font-size:50px;font-weight:bolder"">-3</p>","","0","instructions","","","","","","","","","","",""
"learning-instructions","67","363081","0.0-9.0-1.0-0.7","7647","2","13","Female","approach_avoid_spark_v1","""event"",""trial"",""time""
""fullscreenenter"",""1"",""15768""
","
","
","""event"",""trial"",""time""
""fullscreenenter"",""1"",""15768""
","
","","","","","","356.10000002384186","<p> Some animals will become very happy or very angry. </p><p> These animals will make you win or lose LOTS of points. </p><p> Other animals have less strong feelings. </p><p> These animals will make you win or lose small amounts of points. </p>","","0","instructions","","","","","","","","","","",""
"learning-instructions","68","376067","0.0-9.0-1.0-0.8","7647","2","13","Female","approach_avoid_spark_v1","""event"",""trial"",""time""
""fullscreenenter"",""1"",""15768""
","
","
","""event"",""trial"",""time""
""fullscreenenter"",""1"",""15768""
","
","","","","","","1922.300000011921","<p> If you choose to leave the animal alone, you will not win or lose any points. </p><p>  However, in the center of the screen, you will see the number of points you WOULD HAVE won or lost if you had pet the animal. </p>","","0","instructions","","","","","","","","","","",""
"learning-instructions","69","389059","0.0-9.0-1.0-0.9","7647","2","13","Female","approach_avoid_spark_v1","""event"",""trial"",""time""
""fullscreenenter"",""1"",""15768""
","
","
","""event"",""trial"",""time""
""fullscreenenter"",""1"",""15768""
","
","","","","","","1524.6000000238419","<p> Here is what you might see if you did not pet the animal but the animal wanted to be pet: </p><p style=""color:grey; font-size:50px; display: inline-block; border-spacing: 15px; border-width:3px; border-style:solid; border-color:red"">  &nbsp; 6 &nbsp; </p><p> Remember, in this case, you would not win or lose ANY points because you did not pet the animal.  </p>","","0","instructions","","","","","","","","","","",""
"learning-instructions","70","405325","0.0-9.0-1.0-0.10","7647","2","13","Female","approach_avoid_spark_v1","""event"",""trial"",""time""
""fullscreenenter"",""1"",""15768""
","
","
","""event"",""trial"",""time""
""fullscreenenter"",""1"",""15768""
","
","","","","","","9310.899999976158","<p> Try to make the best choice for each animal because </p><p> at the end of the game, you will earn bonus money based on how many points you earned. </p>","","0","instructions","","","","","","","","","","",""
"learning-instructions","71","414045","0.0-9.0-1.0-0.11","7647","2","13","Female","approach_avoid_spark_v1","""event"",""trial"",""time""
""fullscreenenter"",""1"",""15768""
","
","
","""event"",""trial"",""time""
""fullscreenenter"",""1"",""15768""
","
","","","","","","519.8999999761581","<p> You will have 3 seconds to make each choice. Try to respond before time runs out! </p><p> You will lose 5 points each time you do not make a response. </p>","","0","instructions","","","","","","","","","","",""
"html-keyboard-response","72","414671","0.0-9.0-2.0-0.0","7647","2","13","Female","approach_avoid_spark_v1","""event"",""trial"",""time""
""fullscreenenter"",""1"",""15768""
","
","
","""event"",""trial"",""time""
""fullscreenenter"",""1"",""15768""
","
","","","","","","null","<div style=""font-size:60px;"">+</div>","null","","fixation","","","","","","","","","","",""
"aa-learning-trial","73","417684","0.0-9.0-2.0-1.0","7647","2","13","Female","approach_avoid_spark_v1","""event"",""trial"",""time""
""fullscreenenter"",""1"",""15768""
","
","
","""event"",""trial"",""time""
""fullscreenenter"",""1"",""15768""
","
","","","","","","1455.5","images/rabbit8.png","","","learning","-9","-9","1","1","rabbit","pets","2","0","","good","[6]"
"html-keyboard-response","74","418199","0.0-9.0-2.0-0.1","7647","2","13","Female","approach_avoid_spark_v1","""event"",""trial"",""time""
""fullscreenenter"",""1"",""15768""
","
","
","""event"",""trial"",""time""
""fullscreenenter"",""1"",""15768""
","
","","","","","","null","<div style=""font-size:60px;"">+</div>","null","","fixation","","","","","","","","","","",""
"aa-learning-trial","75","421212","0.0-9.0-2.0-1.1","7647","2","13","Female","approach_avoid_spark_v1","""event"",""trial"",""time""
""fullscreenenter"",""1"",""15768""
","
","
","""event"",""trial"",""time""
""fullscreenenter"",""1"",""15768""
","
","","","","","","648","images/dog4.png","","","learning","6","6","1","1","dog","pets","2","0","","neutral","0"
"html-keyboard-response","76","421724","0.0-9.0-2.0-0.2","7647","2","13","Female","approach_avoid_spark_v1","""event"",""trial"",""time""
""fullscreenenter"",""1"",""15768""
","
","
","""event"",""trial"",""time""
""fullscreenenter"",""1"",""15768""
","
","","","","","","null","<div style=""font-size:60px;"">+</div>","null","","fixation","","","","","","","","","","",""
"aa-learning-trial","77","424738","0.0-9.0-2.0-1.2","7647","2","13","Female","approach_avoid_spark_v1","""event"",""trial"",""time""
""fullscreenenter"",""1"",""15768""
","
","
","""event"",""trial"",""time""
""fullscreenenter"",""1"",""15768""
","
","","","","","","906.8999999761581","images/rabbit2.png","","","learning","-2","0","0","0","rabbit","pets","2","0","","good","[6]"
"html-keyboard-response","78","425249","0.0-9.0-2.0-0.3","7647","2","13","Female","approach_avoid_spark_v1","""event"",""trial"",""time""
""fullscreenenter"",""1"",""15768""
","
","
","""event"",""trial"",""time""
""fullscreenenter"",""1"",""15768""
","
","","","","","","null","<div style=""font-size:60px;"">+</div>","null","","fixation","","","","","","","","","","",""
"aa-learning-trial","79","428253","0.0-9.0-2.0-1.3","7647","2","13","Female","approach_avoid_spark_v1","""event"",""trial"",""time""
""fullscreenenter"",""1"",""15768""
","
","
","""event"",""trial"",""time""
""fullscreenenter"",""1"",""15768""
","
","","","","","","1053","images/dog3.png","","","learning","5","5","1","1","dog","pets","2","0","","neutral","0"
"html-keyboard-response","80","428769","0.0-9.0-2.0-0.4","7647","2","13","Female","approach_avoid_spark_v1","""event"",""trial"",""time""
""fullscreenenter"",""1"",""15768""
","
","
","""event"",""trial"",""time""
""fullscreenenter"",""1"",""15768""
","
","","","","","","null","<div style=""font-size:60px;"">+</div>","null","","fixation","","","","","","","","","","",""
"aa-learning-trial","81","431781","0.0-9.0-2.0-1.4","7647","2","13","Female","approach_avoid_spark_v1","""event"",""trial"",""time""
""fullscreenenter"",""1"",""15768""
","
","
","""event"",""trial"",""time""
""fullscreenenter"",""1"",""15768""
","
","","","","","","685.1999999880791","images/rabbit7.png","","","learning","4","0","0","0","rabbit","pets","2","0","","good","[6]"
"html-keyboard-response","82","432294","0.0-9.0-2.0-0.5","7647","2","13","Female","approach_avoid_spark_v1","""event"",""trial"",""time""
""fullscreenenter"",""1"",""15768""
","
","
","""event"",""trial"",""time""
""fullscreenenter"",""1"",""15768""
","
","","","","","","null","<div style=""font-size:60px;"">+</div>","null","","fixation","","","","","","","","","","",""
"aa-learning-trial","83","435302","0.0-9.0-2.0-1.5","7647","2","13","Female","approach_avoid_spark_v1","""event"",""trial"",""time""
""fullscreenenter"",""1"",""15768""
","
","
","""event"",""trial"",""time""
""fullscreenenter"",""1"",""15768""
","
","","","","","","728.7000000476837","images/rodent6.png","","","learning","8","8","1","1","rodent","pets","2","0","","bad","[-6]"
"html-keyboard-response","84","435803","0.0-9.0-2.0-0.6","7647","2","13","Female","approach_avoid_spark_v1","""event"",""trial"",""time""
""fullscreenenter"",""1"",""15768""
","
","
","""event"",""trial"",""time""
""fullscreenenter"",""1"",""15768""
","
","","","","","","null","<div style=""font-size:60px;"">+</div>","null","","fixation","","","","","","","","","","",""
"aa-learning-trial","85","438814","0.0-9.0-2.0-1.6","7647","2","13","Female","approach_avoid_spark_v1","""event"",""trial"",""time""
""fullscreenenter"",""1"",""15768""
","
","
","""event"",""trial"",""time""
""fullscreenenter"",""1"",""15768""
","
","","","","","","811.1000000238419","images/rodent2.png","","","learning","1","1","1","1","rodent","pets","2","0","","bad","[-6]"
"html-keyboard-response","86","439326","0.0-9.0-2.0-0.7","7647","2","13","Female","approach_avoid_spark_v1","""event"",""trial"",""time""
""fullscreenenter"",""1"",""15768""
","
","
","""event"",""trial"",""time""
""fullscreenenter"",""1"",""15768""
","
","","","","","","null","<div style=""font-size:60px;"">+</div>","null","","fixation","","","","","","","","","","",""
"aa-learning-trial","87","442337","0.0-9.0-2.0-1.7","7647","2","13","Female","approach_avoid_spark_v1","""event"",""trial"",""time""
""fullscreenenter"",""1"",""15768""
","
","
","""event"",""trial"",""time""
""fullscreenenter"",""1"",""15768""
","
","","","","","","784.5","images/dog2.png","","","learning","-5","-5","1","1","dog","pets","2","0","","neutral","0"
"html-keyboard-response","88","442850","0.0-9.0-2.0-0.8","7647","2","13","Female","approach_avoid_spark_v1","""event"",""trial"",""time""
""fullscreenenter"",""1"",""15768""
","
","
","""event"",""trial"",""time""
""fullscreenenter"",""1"",""15768""
","
","","","","","","null","<div style=""font-size:60px;"">+</div>","null","","fixation","","","","","","","","","","",""
"aa-learning-trial","89","445853","0.0-9.0-2.0-1.8","7647","2","13","Female","approach_avoid_spark_v1","""event"",""trial"",""time""
""fullscreenenter"",""1"",""15768""
","
","
","""event"",""trial"",""time""
""fullscreenenter"",""1"",""15768""
","
","","","","","","1083.7000000476837","images/rabbit2.png","","","learning","-2","0","0","0","rabbit","pets","2","0","","good","[6]"
"html-keyboard-response","90","446355","0.0-9.0-2.0-0.9","7647","2","13","Female","approach_avoid_spark_v1","""event"",""trial"",""time""
""fullscreenenter"",""1"",""15768""
","
","
","""event"",""trial"",""time""
""fullscreenenter"",""1"",""15768""
","
","","","","","","null","<div style=""font-size:60px;"">+</div>","null","","fixation","","","","","","","","","","",""
"aa-learning-trial","91","449358","0.0-9.0-2.0-1.9","7647","2","13","Female","approach_avoid_spark_v1","""event"",""trial"",""time""
""fullscreenenter"",""1"",""15768""
","
","
","""event"",""trial"",""time""
""fullscreenenter"",""1"",""15768""
","
","","","","","","1084.0999999642372","images/dog3.png","","","learning","5","5","1","1","dog","pets","2","0","","neutral","0"
"html-keyboard-response","92","449859","0.0-9.0-2.0-0.10","7647","2","13","Female","approach_avoid_spark_v1","""event"",""trial"",""time""
""fullscreenenter"",""1"",""15768""
","
","
","""event"",""trial"",""time""
""fullscreenenter"",""1"",""15768""
","
","","","","","","null","<div style=""font-size:60px;"">+</div>","null","","fixation","","","","","","","","","","",""
"aa-learning-trial","93","452862","0.0-9.0-2.0-1.10","7647","2","13","Female","approach_avoid_spark_v1","""event"",""trial"",""time""
""fullscreenenter"",""1"",""15768""
","
","
","""event"",""trial"",""time""
""fullscreenenter"",""1"",""15768""
","
","","","","","","1067.199999988079","images/rabbit8.png","","","learning","-9","0","0","0","rabbit","pets","2","0","","good","[6]"
"html-keyboard-response","94","453363","0.0-9.0-2.0-0.11","7647","2","13","Female","approach_avoid_spark_v1","""event"",""trial"",""time""
""fullscreenenter"",""1"",""15768""
","
","
","""event"",""trial"",""time""
""fullscreenenter"",""1"",""15768""
","
","","","","","","null","<div style=""font-size:60px;"">+</div>","null","","fixation","","","","","","","","","","",""
"aa-learning-trial","95","456366","0.0-9.0-2.0-1.11","7647","2","13","Female","approach_avoid_spark_v1","""event"",""trial"",""time""
""fullscreenenter"",""1"",""15768""
","
","
","""event"",""trial"",""time""
""fullscreenenter"",""1"",""15768""
","
","","","","","","731.0999999642372","images/dog4.png","","","learning","6","6","1","1","dog","pets","2","0","","neutral","0"
"html-keyboard-response","96","456868","0.0-9.0-2.0-0.12","7647","2","13","Female","approach_avoid_spark_v1","""event"",""trial"",""time""
""fullscreenenter"",""1"",""15768""
","
","
","""event"",""trial"",""time""
""fullscreenenter"",""1"",""15768""
","
","","","","","","null","<div style=""font-size:60px;"">+</div>","null","","fixation","","","","","","","","","","",""
"aa-learning-trial","97","459870","0.0-9.0-2.0-1.12","7647","2","13","Female","approach_avoid_spark_v1","""event"",""trial"",""time""
""fullscreenenter"",""1"",""15768""
","
","
","""event"",""trial"",""time""
""fullscreenenter"",""1"",""15768""
","
","","","","","","1402.8999999761581","images/rodent8.png","","","learning","-6","-6","1","1","rodent","pets","2","0","","bad","[-6]"
"html-keyboard-response","98","460371","0.0-9.0-2.0-0.13","7647","2","13","Female","approach_avoid_spark_v1","""event"",""trial"",""time""
""fullscreenenter"",""1"",""15768""
","
","
","""event"",""trial"",""time""
""fullscreenenter"",""1"",""15768""
","
","","","","","","null","<div style=""font-size:60px;"">+</div>","null","","fixation","","","","","","","","","","",""
"aa-learning-trial","99","463374","0.0-9.0-2.0-1.13","7647","2","13","Female","approach_avoid_spark_v1","""event"",""trial"",""time""
""fullscreenenter"",""1"",""15768""
","
","
","""event"",""trial"",""time""
""fullscreenenter"",""1"",""15768""
","
","","","","","","859.7999999523163","images/rodent2.png","","","learning","1","1","1","1","rodent","pets","2","0","","bad","[-6]"
"html-keyboard-response","100","463875","0.0-9.0-2.0-0.14","7647","2","13","Female","approach_avoid_spark_v1","""event"",""trial"",""time""
""fullscreenenter"",""1"",""15768""
","
","
","""event"",""trial"",""time""
""fullscreenenter"",""1"",""15768""
","
","","","","","","null","<div style=""font-size:60px;"">+</div>","null","","fixation","","","","","","","","","","",""
"aa-learning-trial","101","466878","0.0-9.0-2.0-1.14","7647","2","13","Female","approach_avoid_spark_v1","""event"",""trial"",""time""
""fullscreenenter"",""1"",""15768""
","
","
","""event"",""trial"",""time""
""fullscreenenter"",""1"",""15768""
","
","","","","","","1043.2000000476837","images/rodent6.png","","","learning","8","0","0","0","rodent","pets","2","0","","bad","[-6]"
"html-keyboard-response","102","467379","0.0-9.0-2.0-0.15","7647","2","13","Female","approach_avoid_spark_v1","""event"",""trial"",""time""
""fullscreenenter"",""1"",""15768""
","
","
","""event"",""trial"",""time""
""fullscreenenter"",""1"",""15768""
","
","","","","","","null","<div style=""font-size:60px;"">+</div>","null","","fixation","","","","","","","","","","",""
"aa-learning-trial","103","470382","0.0-9.0-2.0-1.15","7647","2","13","Female","approach_avoid_spark_v1","""event"",""trial"",""time""
""fullscreenenter"",""1"",""15768""
","
","
","""event"",""trial"",""time""
""fullscreenenter"",""1"",""15768""
","
","","","","","","714.5","images/dog4.png","","","learning","6","6","1","1","dog","pets","2","0","","neutral","0"
"html-keyboard-response","104","470883","0.0-9.0-2.0-0.16","7647","2","13","Female","approach_avoid_spark_v1","""event"",""trial"",""time""
""fullscreenenter"",""1"",""15768""
","
","
","""event"",""trial"",""time""
""fullscreenenter"",""1"",""15768""
","
","","","","","","null","<div style=""font-size:60px;"">+</div>","null","","fixation","","","","","","","","","","",""
"aa-learning-trial","105","473886","0.0-9.0-2.0-1.16","7647","2","13","Female","approach_avoid_spark_v1","""event"",""trial"",""time""
""fullscreenenter"",""1"",""15768""
","
","
","""event"",""trial"",""time""
""fullscreenenter"",""1"",""15768""
","
","","","","","","1227.300000011921","images/rodent2.png","","","learning","1","1","1","1","rodent","pets","2","0","","bad","[-6]"
"html-keyboard-response","106","474387","0.0-9.0-2.0-0.17","7647","2","13","Female","approach_avoid_spark_v1","""event"",""trial"",""time""
""fullscreenenter"",""1"",""15768""
","
","
","""event"",""trial"",""time""
""fullscreenenter"",""1"",""15768""
","
","","","","","","null","<div style=""font-size:60px;"">+</div>","null","","fixation","","","","","","","","","","",""
"aa-learning-trial","107","477390","0.0-9.0-2.0-1.17","7647","2","13","Female","approach_avoid_spark_v1","""event"",""trial"",""time""
""fullscreenenter"",""1"",""15768""
","
","
","""event"",""trial"",""time""
""fullscreenenter"",""1"",""15768""
","
","","","","","","1156","images/rodent5.png","","","learning","3","3","1","1","rodent","pets","2","0","","bad","[-6]"
"html-keyboard-response","108","477890","0.0-9.0-2.0-0.18","7647","2","13","Female","approach_avoid_spark_v1","""event"",""trial"",""time""
""fullscreenenter"",""1"",""15768""
","
","
","""event"",""trial"",""time""
""fullscreenenter"",""1"",""15768""
","
","","","","","","null","<div style=""font-size:60px;"">+</div>","null","","fixation","","","","","","","","","","",""
"aa-learning-trial","109","480893","0.0-9.0-2.0-1.18","7647","2","13","Female","approach_avoid_spark_v1","""event"",""trial"",""time""
""fullscreenenter"",""1"",""15768""
","
","
","""event"",""trial"",""time""
""fullscreenenter"",""1"",""15768""
","
","","","","","","843.3999999761581","images/rodent2.png","","","learning","1","1","1","1","rodent","pets","2","0","","bad","[-6]"
"html-keyboard-response","110","481395","0.0-9.0-2.0-0.19","7647","2","13","Female","approach_avoid_spark_v1","""event"",""trial"",""time""
""fullscreenenter"",""1"",""15768""
","
","
","""event"",""trial"",""time""
""fullscreenenter"",""1"",""15768""
","
","","","","","","null","<div style=""font-size:60px;"">+</div>","null","","fixation","","","","","","","","","","",""
"aa-learning-trial","111","484398","0.0-9.0-2.0-1.19","7647","2","13","Female","approach_avoid_spark_v1","""event"",""trial"",""time""
""fullscreenenter"",""1"",""15768""
","
","
","""event"",""trial"",""time""
""fullscreenenter"",""1"",""15768""
","
","","","","","","1867.3999999761581","images/dog3.png","","","learning","5","5","1","1","dog","pets","2","0","","neutral","0"
"html-keyboard-response","112","484900","0.0-9.0-2.0-0.20","7647","2","13","Female","approach_avoid_spark_v1","""event"",""trial"",""time""
""fullscreenenter"",""1"",""15768""
","
","
","""event"",""trial"",""time""
""fullscreenenter"",""1"",""15768""
","
","","","","","","null","<div style=""font-size:60px;"">+</div>","null","","fixation","","","","","","","","","","",""
"aa-learning-trial","113","487903","0.0-9.0-2.0-1.20","7647","2","13","Female","approach_avoid_spark_v1","""event"",""trial"",""time""
""fullscreenenter"",""1"",""15768""
","
","
","""event"",""trial"",""time""
""fullscreenenter"",""1"",""15768""
","
","","","","","","955","images/rabbit5.png","","","learning","-3","-3","1","1","rabbit","pets","2","0","","good","[6]"
"html-keyboard-response","114","488406","0.0-9.0-2.0-0.21","7647","2","13","Female","approach_avoid_spark_v1","""event"",""trial"",""time""
""fullscreenenter"",""1"",""15768""
","
","
","""event"",""trial"",""time""
""fullscreenenter"",""1"",""15768""
","
","","","","","","null","<div style=""font-size:60px;"">+</div>","null","","fixation","","","","","","","","","","",""
"aa-learning-trial","115","491408","0.0-9.0-2.0-1.21","7647","2","13","Female","approach_avoid_spark_v1","""event"",""trial"",""time""
""fullscreenenter"",""1"",""15768""
","
","
","""event"",""trial"",""time""
""fullscreenenter"",""1"",""15768""
","
","","","","","","1049","images/rabbit2.png","","","learning","-2","0","0","0","rabbit","pets","2","0","","good","[6]"
"html-keyboard-response","116","491909","0.0-9.0-2.0-0.22","7647","2","13","Female","approach_avoid_spark_v1","""event"",""trial"",""time""
""fullscreenenter"",""1"",""15768""
","
","
","""event"",""trial"",""time""
""fullscreenenter"",""1"",""15768""
","
","","","","","","null","<div style=""font-size:60px;"">+</div>","null","","fixation","","","","","","","","","","",""
"aa-learning-trial","117","494912","0.0-9.0-2.0-1.22","7647","2","13","Female","approach_avoid_spark_v1","""event"",""trial"",""time""
""fullscreenenter"",""1"",""15768""
","
","
","""event"",""trial"",""time""
""fullscreenenter"",""1"",""15768""
","
","","","","","","969.2999999523163","images/rabbit8.png","","","learning","-9","0","0","0","rabbit","pets","2","0","","good","[6]"
"html-keyboard-response","118","495414","0.0-9.0-2.0-0.23","7647","2","13","Female","approach_avoid_spark_v1","""event"",""trial"",""time""
""fullscreenenter"",""1"",""15768""
","
","
","""event"",""trial"",""time""
""fullscreenenter"",""1"",""15768""
","
","","","","","","null","<div style=""font-size:60px;"">+</div>","null","","fixation","","","","","","","","","","",""
"aa-learning-trial","119","498416","0.0-9.0-2.0-1.23","7647","2","13","Female","approach_avoid_spark_v1","""event"",""trial"",""time""
""fullscreenenter"",""1"",""15768""
","
","
","""event"",""trial"",""time""
""fullscreenenter"",""1"",""15768""
","
","","","","","","720.5999999642372","images/rabbit8.png","","","learning","-9","0","0","0","rabbit","pets","2","0","","good","[6]"
"html-keyboard-response","120","498917","0.0-9.0-2.0-0.24","7647","2","13","Female","approach_avoid_spark_v1","""event"",""trial"",""time""
""fullscreenenter"",""1"",""15768""
","
","
","""event"",""trial"",""time""
""fullscreenenter"",""1"",""15768""
","
","","","","","","null","<div style=""font-size:60px;"">+</div>","null","","fixation","","","","","","","","","","",""
"aa-learning-trial","121","501920","0.0-9.0-2.0-1.24","7647","2","13","Female","approach_avoid_spark_v1","""event"",""trial"",""time""
""fullscreenenter"",""1"",""15768""
","
","
","""event"",""trial"",""time""
""fullscreenenter"",""1"",""15768""
","
","","","","","","1409.699999988079","images/dog1.png","","","learning","-1","-1","1","1","dog","pets","2","0","","neutral","0"
"html-keyboard-response","122","502421","0.0-9.0-2.0-0.25","7647","2","13","Female","approach_avoid_spark_v1","""event"",""trial"",""time""
""fullscreenenter"",""1"",""15768""
","
","
","""event"",""trial"",""time""
""fullscreenenter"",""1"",""15768""
","
","","","","","","null","<div style=""font-size:60px;"">+</div>","null","","fixation","","","","","","","","","","",""
"aa-learning-trial","123","505423","0.0-9.0-2.0-1.25","7647","2","13","Female","approach_avoid_spark_v1","""event"",""trial"",""time""
""fullscreenenter"",""1"",""15768""
","
","
","""event"",""trial"",""time""
""fullscreenenter"",""1"",""15768""
","
","","","","","","946.1999999880791","images/dog3.png","","","learning","5","5","1","1","dog","pets","2","0","","neutral","0"
"html-keyboard-response","124","505937","0.0-9.0-2.0-0.26","7647","2","13","Female","approach_avoid_spark_v1","""event"",""trial"",""time""
""fullscreenenter"",""1"",""15768""
","
","
","""event"",""trial"",""time""
""fullscreenenter"",""1"",""15768""
","
","","","","","","null","<div style=""font-size:60px;"">+</div>","null","","fixation","","","","","","","","","","",""
"aa-learning-trial","125","508940","0.0-9.0-2.0-1.26","7647","2","13","Female","approach_avoid_spark_v1","""event"",""trial"",""time""
""fullscreenenter"",""1"",""15768""
","
","
","""event"",""trial"",""time""
""fullscreenenter"",""1"",""15768""
","
","","","","","","813.6999999880791","images/rodent6.png","","","learning","8","0","0","0","rodent","pets","2","0","","bad","[-6]"
"html-keyboard-response","126","509442","0.0-9.0-2.0-0.27","7647","2","13","Female","approach_avoid_spark_v1","""event"",""trial"",""time""
""fullscreenenter"",""1"",""15768""
","
","
","""event"",""trial"",""time""
""fullscreenenter"",""1"",""15768""
","
","","","","","","null","<div style=""font-size:60px;"">+</div>","null","","fixation","","","","","","","","","","",""
"aa-learning-trial","127","512444","0.0-9.0-2.0-1.27","7647","2","13","Female","approach_avoid_spark_v1","""event"",""trial"",""time""
""fullscreenenter"",""1"",""15768""
","
","
","""event"",""trial"",""time""
""fullscreenenter"",""1"",""15768""
","
","","","","","","789.1999999880791","images/rabbit8.png","","","learning","-9","0","0","0","rabbit","pets","2","0","","good","[6]"
"html-keyboard-response","128","512945","0.0-9.0-2.0-0.28","7647","2","13","Female","approach_avoid_spark_v1","""event"",""trial"",""time""
""fullscreenenter"",""1"",""15768""
","
","
","""event"",""trial"",""time""
""fullscreenenter"",""1"",""15768""
","
","","","","","","null","<div style=""font-size:60px;"">+</div>","null","","fixation","","","","","","","","","","",""
"aa-learning-trial","129","515948","0.0-9.0-2.0-1.28","7647","2","13","Female","approach_avoid_spark_v1","""event"",""trial"",""time""
""fullscreenenter"",""1"",""15768""
","
","
","""event"",""trial"",""time""
""fullscreenenter"",""1"",""15768""
","
","","","","","","702","images/dog4.png","","","learning","6","6","1","1","dog","pets","2","0","","neutral","0"
"html-keyboard-response","130","516449","0.0-9.0-2.0-0.29","7647","2","13","Female","approach_avoid_spark_v1","""event"",""trial"",""time""
""fullscreenenter"",""1"",""15768""
","
","
","""event"",""trial"",""time""
""fullscreenenter"",""1"",""15768""
","
","","","","","","null","<div style=""font-size:60px;"">+</div>","null","","fixation","","","","","","","","","","",""
"aa-learning-trial","131","519451","0.0-9.0-2.0-1.29","7647","2","13","Female","approach_avoid_spark_v1","""event"",""trial"",""time""
""fullscreenenter"",""1"",""15768""
","
","
","""event"",""trial"",""time""
""fullscreenenter"",""1"",""15768""
","
","","","","","","998.7000000476837","images/dog2.png","","","learning","-5","0","0","0","dog","pets","2","0","","neutral","0"
"html-keyboard-response","132","519952","0.0-9.0-2.0-0.30","7647","2","13","Female","approach_avoid_spark_v1","""event"",""trial"",""time""
""fullscreenenter"",""1"",""15768""
","
","
","""event"",""trial"",""time""
""fullscreenenter"",""1"",""15768""
","
","","","","","","null","<div style=""font-size:60px;"">+</div>","null","","fixation","","","","","","","","","","",""
"aa-learning-trial","133","522955","0.0-9.0-2.0-1.30","7647","2","13","Female","approach_avoid_spark_v1","""event"",""trial"",""time""
""fullscreenenter"",""1"",""15768""
","
","
","""event"",""trial"",""time""
""fullscreenenter"",""1"",""15768""
","
","","","","","","1078.5","images/rabbit2.png","","","learning","-2","0","0","0","rabbit","pets","2","0","","good","[6]"
"html-keyboard-response","134","523457","0.0-9.0-2.0-0.31","7647","2","13","Female","approach_avoid_spark_v1","""event"",""trial"",""time""
""fullscreenenter"",""1"",""15768""
","
","
","""event"",""trial"",""time""
""fullscreenenter"",""1"",""15768""
","
","","","","","","null","<div style=""font-size:60px;"">+</div>","null","","fixation","","","","","","","","","","",""
"aa-learning-trial","135","526460","0.0-9.0-2.0-1.31","7647","2","13","Female","approach_avoid_spark_v1","""event"",""trial"",""time""
""fullscreenenter"",""1"",""15768""
","
","
","""event"",""trial"",""time""
""fullscreenenter"",""1"",""15768""
","
","","","","","","1213.4000000357628","images/rodent8.png","","","learning","-6","0","0","0","rodent","pets","2","0","","bad","[-6]"
"html-keyboard-response","136","526962","0.0-9.0-2.0-0.32","7647","2","13","Female","approach_avoid_spark_v1","""event"",""trial"",""time""
""fullscreenenter"",""1"",""15768""
","
","
","""event"",""trial"",""time""
""fullscreenenter"",""1"",""15768""
","
","","","","","","null","<div style=""font-size:60px;"">+</div>","null","","fixation","","","","","","","","","","",""
"aa-learning-trial","137","529965","0.0-9.0-2.0-1.32","7647","2","13","Female","approach_avoid_spark_v1","""event"",""trial"",""time""
""fullscreenenter"",""1"",""15768""
","
","
","""event"",""trial"",""time""
""fullscreenenter"",""1"",""15768""
","
","","","","","","1269.300000011921","images/rodent2.png","","","learning","1","1","1","1","rodent","pets","2","0","","bad","[-6]"
"html-keyboard-response","138","530466","0.0-9.0-2.0-0.33","7647","2","13","Female","approach_avoid_spark_v1","""event"",""trial"",""time""
""fullscreenenter"",""1"",""15768""
","
","
","""event"",""trial"",""time""
""fullscreenenter"",""1"",""15768""
","
","","","","","","null","<div style=""font-size:60px;"">+</div>","null","","fixation","","","","","","","","","","",""
"aa-learning-trial","139","533468","0.0-9.0-2.0-1.33","7647","2","13","Female","approach_avoid_spark_v1","""event"",""trial"",""time""
""fullscreenenter"",""1"",""15768""
","
","
","""event"",""trial"",""time""
""fullscreenenter"",""1"",""15768""
","
","","","","","","957.1999999880791","images/rodent3.png","","","learning","-4","0","0","0","rodent","pets","2","0","","bad","[-6]"
"html-keyboard-response","140","533970","0.0-9.0-2.0-0.34","7647","2","13","Female","approach_avoid_spark_v1","""event"",""trial"",""time""
""fullscreenenter"",""1"",""15768""
","
","
","""event"",""trial"",""time""
""fullscreenenter"",""1"",""15768""
","
","","","","","","null","<div style=""font-size:60px;"">+</div>","null","","fixation","","","","","","","","","","",""
"aa-learning-trial","141","536973","0.0-9.0-2.0-1.34","7647","2","13","Female","approach_avoid_spark_v1","""event"",""trial"",""time""
""fullscreenenter"",""1"",""15768""
","
","
","""event"",""trial"",""time""
""fullscreenenter"",""1"",""15768""
","
","","","","","","876.9000000357628","images/rodent2.png","","","learning","1","1","1","1","rodent","pets","2","0","","bad","[-6]"
"html-keyboard-response","142","537486","0.0-9.0-2.0-0.35","7647","2","13","Female","approach_avoid_spark_v1","""event"",""trial"",""time""
""fullscreenenter"",""1"",""15768""
","
","
","""event"",""trial"",""time""
""fullscreenenter"",""1"",""15768""
","
","","","","","","null","<div style=""font-size:60px;"">+</div>","null","","fixation","","","","","","","","","","",""
"aa-learning-trial","143","540488","0.0-9.0-2.0-1.35","7647","2","13","Female","approach_avoid_spark_v1","""event"",""trial"",""time""
""fullscreenenter"",""1"",""15768""
","
","
","""event"",""trial"",""time""
""fullscreenenter"",""1"",""15768""
","
","","","","","","801.3000000119209","images/dog3.png","","","learning","5","5","1","1","dog","pets","2","0","","neutral","0"
"html-keyboard-response","144","540991","0.0-9.0-2.0-0.36","7647","2","13","Female","approach_avoid_spark_v1","""event"",""trial"",""time""
""fullscreenenter"",""1"",""15768""
","
","
","""event"",""trial"",""time""
""fullscreenenter"",""1"",""15768""
","
","","","","","","null","<div style=""font-size:60px;"">+</div>","null","","fixation","","","","","","","","","","",""
"aa-learning-trial","145","543993","0.0-9.0-2.0-1.36","7647","2","13","Female","approach_avoid_spark_v1","""event"",""trial"",""time""
""fullscreenenter"",""1"",""15768""
","
","
","""event"",""trial"",""time""
""fullscreenenter"",""1"",""15768""
","
","","","","","","991.6999999880791","images/rabbit7.png","","","learning","4","0","0","0","rabbit","pets","2","0","","good","[6]"
"html-keyboard-response","146","544494","0.0-9.0-2.0-0.37","7647","2","13","Female","approach_avoid_spark_v1","""event"",""trial"",""time""
""fullscreenenter"",""1"",""15768""
","
","
","""event"",""trial"",""time""
""fullscreenenter"",""1"",""15768""
","
","","","","","","null","<div style=""font-size:60px;"">+</div>","null","","fixation","","","","","","","","","","",""
"aa-learning-trial","147","547506","0.0-9.0-2.0-1.37","7647","2","13","Female","approach_avoid_spark_v1","""event"",""trial"",""time""
""fullscreenenter"",""1"",""15768""
","
","
","""event"",""trial"",""time""
""fullscreenenter"",""1"",""15768""
","
","","","","","","800.8999999761581","images/rabbit2.png","","","learning","-2","0","0","0","rabbit","pets","2","0","","good","[6]"
"html-keyboard-response","148","548007","0.0-9.0-2.0-0.38","7647","2","13","Female","approach_avoid_spark_v1","""event"",""trial"",""time""
""fullscreenenter"",""1"",""15768""
","
","
","""event"",""trial"",""time""
""fullscreenenter"",""1"",""15768""
","
","","","","","","null","<div style=""font-size:60px;"">+</div>","null","","fixation","","","","","","","","","","",""
"aa-learning-trial","149","551010","0.0-9.0-2.0-1.38","7647","2","13","Female","approach_avoid_spark_v1","""event"",""trial"",""time""
""fullscreenenter"",""1"",""15768""
","
","
","""event"",""trial"",""time""
""fullscreenenter"",""1"",""15768""
","
","","","","","","887.9000000357628","images/dog8.png","","","learning","-8","-8","1","1","dog","pets","2","0","","neutral","0"
"html-keyboard-response","150","551511","0.0-9.0-2.0-0.39","7647","2","13","Female","approach_avoid_spark_v1","""event"",""trial"",""time""
""fullscreenenter"",""1"",""15768""
","
","
","""event"",""trial"",""time""
""fullscreenenter"",""1"",""15768""
","
","","","","","","null","<div style=""font-size:60px;"">+</div>","null","","fixation","","","","","","","","","","",""
"aa-learning-trial","151","554514","0.0-9.0-2.0-1.39","7647","2","13","Female","approach_avoid_spark_v1","""event"",""trial"",""time""
""fullscreenenter"",""1"",""15768""
","
","
","""event"",""trial"",""time""
""fullscreenenter"",""1"",""15768""
","
","","","","","","871.5","images/rodent8.png","","","learning","-6","0","0","0","rodent","pets","2","0","","bad","[-6]"
"html-keyboard-response","152","555015","0.0-9.0-2.0-0.40","7647","2","13","Female","approach_avoid_spark_v1","""event"",""trial"",""time""
""fullscreenenter"",""1"",""15768""
","
","
","""event"",""trial"",""time""
""fullscreenenter"",""1"",""15768""
","
","","","","","","null","<div style=""font-size:60px;"">+</div>","null","","fixation","","","","","","","","","","",""
"aa-learning-trial","153","558018","0.0-9.0-2.0-1.40","7647","2","13","Female","approach_avoid_spark_v1","""event"",""trial"",""time""
""fullscreenenter"",""1"",""15768""
","
","
","""event"",""trial"",""time""
""fullscreenenter"",""1"",""15768""
","
","","","","","","1231.5","images/rabbit7.png","","","learning","4","0","0","0","rabbit","pets","2","0","","good","[6]"
"html-keyboard-response","154","558519","0.0-9.0-2.0-0.41","7647","2","13","Female","approach_avoid_spark_v1","""event"",""trial"",""time""
""fullscreenenter"",""1"",""15768""
","
","
","""event"",""trial"",""time""
""fullscreenenter"",""1"",""15768""
","
","","","","","","null","<div style=""font-size:60px;"">+</div>","null","","fixation","","","","","","","","","","",""
"aa-learning-trial","155","561521","0.0-9.0-2.0-1.41","7647","2","13","Female","approach_avoid_spark_v1","""event"",""trial"",""time""
""fullscreenenter"",""1"",""15768""
","
","
","""event"",""trial"",""time""
""fullscreenenter"",""1"",""15768""
","
","","","","","","672.1999999880791","images/dog3.png","","","learning","5","5","1","1","dog","pets","2","0","","neutral","0"
"html-keyboard-response","156","562024","0.0-9.0-2.0-0.42","7647","2","13","Female","approach_avoid_spark_v1","""event"",""trial"",""time""
""fullscreenenter"",""1"",""15768""
","
","
","""event"",""trial"",""time""
""fullscreenenter"",""1"",""15768""
","
","","","","","","null","<div style=""font-size:60px;"">+</div>","null","","fixation","","","","","","","","","","",""
"aa-learning-trial","157","565026","0.0-9.0-2.0-1.42","7647","2","13","Female","approach_avoid_spark_v1","""event"",""trial"",""time""
""fullscreenenter"",""1"",""15768""
","
","
","""event"",""trial"",""time""
""fullscreenenter"",""1"",""15768""
","
","","","","","","751.6999999880791","images/rabbit6.png","","","learning","7","7","1","1","rabbit","pets","2","0","","good","[6]"
"html-keyboard-response","158","565528","0.0-9.0-2.0-0.43","7647","2","13","Female","approach_avoid_spark_v1","""event"",""trial"",""time""
""fullscreenenter"",""1"",""15768""
","
","
","""event"",""trial"",""time""
""fullscreenenter"",""1"",""15768""
","
","","","","","","null","<div style=""font-size:60px;"">+</div>","null","","fixation","","","","","","","","","","",""
"aa-learning-trial","159","568530","0.0-9.0-2.0-1.43","7647","2","13","Female","approach_avoid_spark_v1","""event"",""trial"",""time""
""fullscreenenter"",""1"",""15768""
","
","
","""event"",""trial"",""time""
""fullscreenenter"",""1"",""15768""
","
","","","","","","671.7999999523163","images/dog2.png","","","learning","-5","0","0","0","dog","pets","2","0","","neutral","0"
"html-keyboard-response","160","569031","0.0-9.0-2.0-0.44","7647","2","13","Female","approach_avoid_spark_v1","""event"",""trial"",""time""
""fullscreenenter"",""1"",""15768""
","
","
","""event"",""trial"",""time""
""fullscreenenter"",""1"",""15768""
","
","","","","","","null","<div style=""font-size:60px;"">+</div>","null","","fixation","","","","","","","","","","",""
"aa-learning-trial","161","572040","0.0-9.0-2.0-1.44","7647","2","13","Female","approach_avoid_spark_v1","""event"",""trial"",""time""
""fullscreenenter"",""1"",""15768""
","
","
","""event"",""trial"",""time""
""fullscreenenter"",""1"",""15768""
","
","","","","","","679.8000000119209","images/dog4.png","","","learning","6","6","1","1","dog","pets","2","0","","neutral","0"
"html-keyboard-response","162","572555","0.0-9.0-2.0-0.45","7647","2","13","Female","approach_avoid_spark_v1","""event"",""trial"",""time""
""fullscreenenter"",""1"",""15768""
","
","
","""event"",""trial"",""time""
""fullscreenenter"",""1"",""15768""
","
","","","","","","null","<div style=""font-size:60px;"">+</div>","null","","fixation","","","","","","","","","","",""
"aa-learning-trial","163","575557","0.0-9.0-2.0-1.45","7647","2","13","Female","approach_avoid_spark_v1","""event"",""trial"",""time""
""fullscreenenter"",""1"",""15768""
","
","
","""event"",""trial"",""time""
""fullscreenenter"",""1"",""15768""
","
","","","","","","1036.699999988079","images/rodent6.png","","","learning","8","8","1","1","rodent","pets","2","0","","bad","[-6]"
"html-keyboard-response","164","576057","0.0-9.0-2.0-0.46","7647","2","13","Female","approach_avoid_spark_v1","""event"",""trial"",""time""
""fullscreenenter"",""1"",""15768""
","
","
","""event"",""trial"",""time""
""fullscreenenter"",""1"",""15768""
","
","","","","","","null","<div style=""font-size:60px;"">+</div>","null","","fixation","","","","","","","","","","",""
"aa-learning-trial","165","579060","0.0-9.0-2.0-1.46","7647","2","13","Female","approach_avoid_spark_v1","""event"",""trial"",""time""
""fullscreenenter"",""1"",""15768""
","
","
","""event"",""trial"",""time""
""fullscreenenter"",""1"",""15768""
","
","","","","","","660.8999999761581","images/rabbit2.png","","","learning","-2","0","0","0","rabbit","pets","2","0","","good","[6]"
"html-keyboard-response","166","579561","0.0-9.0-2.0-0.47","7647","2","13","Female","approach_avoid_spark_v1","""event"",""trial"",""time""
""fullscreenenter"",""1"",""15768""
","
","
","""event"",""trial"",""time""
""fullscreenenter"",""1"",""15768""
","
","","","","","","null","<div style=""font-size:60px;"">+</div>","null","","fixation","","","","","","","","","","",""
"aa-learning-trial","167","582564","0.0-9.0-2.0-1.47","7647","2","13","Female","approach_avoid_spark_v1","""event"",""trial"",""time""
""fullscreenenter"",""1"",""15768""
","
","
","""event"",""trial"",""time""
""fullscreenenter"",""1"",""15768""
","
","","","","","","701.6000000238419","images/rabbit8.png","","","learning","-9","0","0","0","rabbit","pets","2","0","","good","[6]"
"html-keyboard-response","168","583066","0.0-9.0-2.0-0.48","7647","2","13","Female","approach_avoid_spark_v1","""event"",""trial"",""time""
""fullscreenenter"",""1"",""15768""
","
","
","""event"",""trial"",""time""
""fullscreenenter"",""1"",""15768""
","
","","","","","","null","<div style=""font-size:60px;"">+</div>","null","","fixation","","","","","","","","","","",""
"aa-learning-trial","169","586069","0.0-9.0-2.0-1.48","7647","2","13","Female","approach_avoid_spark_v1","""event"",""trial"",""time""
""fullscreenenter"",""1"",""15768""
","
","
","""event"",""trial"",""time""
""fullscreenenter"",""1"",""15768""
","
","","","","","","588.1000000238419","images/dog4.png","","","learning","6","6","1","1","dog","pets","2","0","","neutral","0"
"html-keyboard-response","170","586570","0.0-9.0-2.0-0.49","7647","2","13","Female","approach_avoid_spark_v1","""event"",""trial"",""time""
""fullscreenenter"",""1"",""15768""
","
","
","""event"",""trial"",""time""
""fullscreenenter"",""1"",""15768""
","
","","","","","","null","<div style=""font-size:60px;"">+</div>","null","","fixation","","","","","","","","","","",""
"aa-learning-trial","171","589572","0.0-9.0-2.0-1.49","7647","2","13","Female","approach_avoid_spark_v1","""event"",""trial"",""time""
""fullscreenenter"",""1"",""15768""
","
","
","""event"",""trial"",""time""
""fullscreenenter"",""1"",""15768""
","
","","","","","","1021.2000000476837","images/rodent6.png","","","learning","8","8","1","1","rodent","pets","2","0","","bad","[-6]"
"html-keyboard-response","172","590074","0.0-9.0-2.0-0.50","7647","2","13","Female","approach_avoid_spark_v1","""event"",""trial"",""time""
""fullscreenenter"",""1"",""15768""
","
","
","""event"",""trial"",""time""
""fullscreenenter"",""1"",""15768""
","
","","","","","","null","<div style=""font-size:60px;"">+</div>","null","","fixation","","","","","","","","","","",""
"aa-learning-trial","173","593076","0.0-9.0-2.0-1.50","7647","2","13","Female","approach_avoid_spark_v1","""event"",""trial"",""time""
""fullscreenenter"",""1"",""15768""
","
","
","""event"",""trial"",""time""
""fullscreenenter"",""1"",""15768""
","
","","","","","","629.1999999880791","images/rodent6.png","","","learning","8","8","1","1","rodent","pets","2","0","","bad","[-6]"
"html-button-response","174","596838","0.0-9.0-3.0","7647","2","13","Female","approach_avoid_spark_v1","""event"",""trial"",""time""
""fullscreenenter"",""1"",""15768""
","
","
","""event"",""trial"",""time""
""fullscreenenter"",""1"",""15768""
","
","","","","","","3760.599999964237","<p> You have completed the round! <p> In this round, you earned 82 points! </p>","0","","break","","","","","","","","","","",""
"html-button-response","175","598050","0.0-10.0","7647","2","13","Female","approach_avoid_spark_v1","""event"",""trial"",""time""
""fullscreenenter"",""1"",""15768""
","
","
","""event"",""trial"",""time""
""fullscreenenter"",""1"",""15768""
","
","","","","","","1211.300000011921","<p> Now it's time to play another round. </p>","0","","transition_screen","","","","","","","","","","",""
"preload","176","598164","0.0-11.0-0.0","7647","2","13","Female","approach_avoid_spark_v1","""event"",""trial"",""time""
""fullscreenenter"",""1"",""15768""
","
","
","""event"",""trial"",""time""
""fullscreenenter"",""1"",""15768""
","
","true","false","[]","[]","[]","","","","","","","","","","","","","","","",""
"learning-instructions","177","605192","0.0-11.0-1.0-0.0","7647","2","13","Female","approach_avoid_spark_v1","""event"",""trial"",""time""
""fullscreenenter"",""1"",""15768""
","
","
","""event"",""trial"",""time""
""fullscreenenter"",""1"",""15768""
","
","","","","","","2118.699999988079","<p> Your goal in this round is to decorate your friend's new house with furniture. </p></div>","","0","instructions","","","","","","","","","","",""
"learning-instructions","178","616844","0.0-11.0-1.0-0.1","7647","2","13","Female","approach_avoid_spark_v1","""event"",""trial"",""time""
""fullscreenenter"",""1"",""15768""
","
","
","""event"",""trial"",""time""
""fullscreenenter"",""1"",""15768""
","
","","","","","","1841.4000000357628","<p> Your friend likes some pieces of furniture but not others.  </p><p> On each turn, you will see a piece of furniture.   </p><p> You need to decide whether to put it in your friend's house or not.  </p>","","0","instructions","","","","","","","","","","",""
"learning-instructions","179","623624","0.0-11.0-1.0-0.2","7647","2","13","Female","approach_avoid_spark_v1","""event"",""trial"",""time""
""fullscreenenter"",""1"",""15768""
","
","
","""event"",""trial"",""time""
""fullscreenenter"",""1"",""15768""
","
","","","","","","1160.8999999761581","<p> You can put the furniture in her house by pressing 1 and deliver it elsewhere by pressing 0. </p><br><div class=""choice-instructions-grid""> <div class=""choice-option""><img src=""images/approach.png"" class=""choice-option-img"" stage=""instructions"" position=""0"" ><div class=""choice-option-text""> Press ""1."" </div></div><div class=""choice-option""><img src=""images/avoid.png"" class=""choice-option-img"" stage=""instructions"" position=""1"" ><div class=""choice-option-text""> Press ""0."" </div></div>","","0","instructions","","","","","","","","","","",""
"learning-instructions","180","633592","0.0-11.0-1.0-0.3","7647","2","13","Female","approach_avoid_spark_v1","""event"",""trial"",""time""
""fullscreenenter"",""1"",""15768""
","
","
","""event"",""trial"",""time""
""fullscreenenter"",""1"",""15768""
","
","","","","","","1219.300000011921","<p> If you decorate your friend's house with furniture she likes, she will be happy! </p><p> But if you give her furniture that she does not like, she will be annoyed. </p>","","0","instructions","","","","","","","","","","",""
"learning-instructions","181","647090","0.0-11.0-1.0-0.4","7647","2","13","Female","approach_avoid_spark_v1","""event"",""trial"",""time""
""fullscreenenter"",""1"",""15768""
","
","
","""event"",""trial"",""time""
""fullscreenenter"",""1"",""15768""
","
","","","","","","1377.199999988079","<p> You will earn points based on how you made your friend feel. </p><p> If you made her happy, you will WIN anywhere from 1 - 9 points, </p><p> but if you made her annoyed you will LOSE anywhere from 1 - 9 points. </p>","","0","instructions","","","","","","","","","","",""
"learning-instructions","182","655240","0.0-11.0-1.0-0.5","7647","2","13","Female","approach_avoid_spark_v1","""event"",""trial"",""time""
""fullscreenenter"",""1"",""15768""
","
","
","""event"",""trial"",""time""
""fullscreenenter"",""1"",""15768""
","
","","","","","","1487.5","<p> You will see how many points you won or lost in the center of the screen. </p><p> Here is what you would see if you won 5 points: </p><p style=""color:green;font-size:50px;font-weight:bolder"">5</p>","","0","instructions","","","","","","","","","","",""
"learning-instructions","183","659284","0.0-11.0-1.0-0.6","7647","2","13","Female","approach_avoid_spark_v1","""event"",""trial"",""time""
""fullscreenenter"",""1"",""15768""
","
","
","""event"",""trial"",""time""
""fullscreenenter"",""1"",""15768""
","
","","","","","","1221","<p> And here is what you would see if you lost 3 points: </p><p style=""color:red;font-size:50px;font-weight:bolder"">-3</p>","","0","instructions","","","","","","","","","","",""
"learning-instructions","184","678153","0.0-11.0-1.0-0.7","7647","2","13","Female","approach_avoid_spark_v1","""event"",""trial"",""time""
""fullscreenenter"",""1"",""15768""
","
","
","""event"",""trial"",""time""
""fullscreenenter"",""1"",""15768""
","
","","","","","","1651.199999988079","<p> Some pieces of furniture will make her feel very happy or very annoyed. </p><p> These pieces of furniture will make you win or lose LOTS of points. </p><p> Other pieces of furniture will only make her feel a little happy or a little annoyed. </p><p> These pieces of furniture will make you win or lose small amounts of points. </p>","","0","instructions","","","","","","","","","","",""
"learning-instructions","185","691839","0.0-11.0-1.0-0.8","7647","2","13","Female","approach_avoid_spark_v1","""event"",""trial"",""time""
""fullscreenenter"",""1"",""15768""
","
","
","""event"",""trial"",""time""
""fullscreenenter"",""1"",""15768""
","
","","","","","","1036.8999999761581","<p> If you choose to deliver a piece of furniture elsewhere, you will not win or lose any points. </p><p>  However, in the center of the screen, you will see the number of points you WOULD HAVE won or lost if you had given the furniture to your friend. </p>","","0","instructions","","","","","","","","","","",""
"learning-instructions","186","703836","0.0-11.0-1.0-0.9","7647","2","13","Female","approach_avoid_spark_v1","""event"",""trial"",""time""
""fullscreenenter"",""1"",""15768""
","
","
","""event"",""trial"",""time""
""fullscreenenter"",""1"",""15768""
","
","","","","","","653.4000000357628","<p> Here is what you might see if you did not give a piece of furniture to your friend that would have made her happy: </p><p style=""color:grey; font-size:50px; display: inline-block; border-spacing: 15px; border-width:3px; border-style:solid; border-color:red"">  &nbsp; 6 &nbsp; </p><p> Remember, in this case, you would not win or lose ANY points because you did not give her the furniture.  </p>","","0","instructions","","","","","","","","","","",""
"learning-instructions","187","712448","0.0-11.0-1.0-0.10","7647","2","13","Female","approach_avoid_spark_v1","""event"",""trial"",""time""
""fullscreenenter"",""1"",""15768""
","
","
","""event"",""trial"",""time""
""fullscreenenter"",""1"",""15768""
","
","","","","","","1096.4000000357628","<p> Try to make the best choice for each piece of furniture because </p><p> at the end of the game, you will earn bonus money based on how many points you earned. </p>","","0","instructions","","","","","","","","","","",""
"learning-instructions","188","721490","0.0-11.0-1.0-0.11","7647","2","13","Female","approach_avoid_spark_v1","""event"",""trial"",""time""
""fullscreenenter"",""1"",""15768""
","
","
","""event"",""trial"",""time""
""fullscreenenter"",""1"",""15768""
","
","","","","","","857.8000000119209","<p> You will have 3 seconds to make each choice. Try to respond before time runs out! </p><p> You will lose 5 points each time you do not make a response. </p>","","0","instructions","","","","","","","","","","",""
"html-keyboard-response","189","722096","0.0-11.0-2.0-0.0","7647","2","13","Female","approach_avoid_spark_v1","""event"",""trial"",""time""
""fullscreenenter"",""1"",""15768""
","
","
","""event"",""trial"",""time""
""fullscreenenter"",""1"",""15768""
","
","","","","","","null","<div style=""font-size:60px;"">+</div>","null","","fixation","","","","","","","","","","",""
"aa-learning-trial","190","725106","0.0-11.0-2.0-1.0","7647","2","13","Female","approach_avoid_spark_v1","""event"",""trial"",""time""
""fullscreenenter"",""1"",""15768""
","
","
","""event"",""trial"",""time""
""fullscreenenter"",""1"",""15768""
","
","","","","","","1012.3999999761581","images/table5.png","","","learning","-6","-6","1","1","table","furniture","1","1","","bad","[-5]"
"html-keyboard-response","191","725609","0.0-11.0-2.0-0.1","7647","2","13","Female","approach_avoid_spark_v1","""event"",""trial"",""time""
""fullscreenenter"",""1"",""15768""
","
","
","""event"",""trial"",""time""
""fullscreenenter"",""1"",""15768""
","
","","","","","","null","<div style=""font-size:60px;"">+</div>","null","","fixation","","","","","","","","","","",""
"aa-learning-trial","192","728614","0.0-11.0-2.0-1.1","7647","2","13","Female","approach_avoid_spark_v1","""event"",""trial"",""time""
""fullscreenenter"",""1"",""15768""
","
","
","""event"",""trial"",""time""
""fullscreenenter"",""1"",""15768""
","
","","","","","","581.3999999761581","images/table6.png","","","learning","-7","-7","1","1","table","furniture","1","1","","bad","[-5]"
"html-keyboard-response","193","729128","0.0-11.0-2.0-0.2","7647","2","13","Female","approach_avoid_spark_v1","""event"",""trial"",""time""
""fullscreenenter"",""1"",""15768""
","
","
","""event"",""trial"",""time""
""fullscreenenter"",""1"",""15768""
","
","","","","","","null","<div style=""font-size:60px;"">+</div>","null","","fixation","","","","","","","","","","",""
"aa-learning-trial","194","732137","0.0-11.0-2.0-1.2","7647","2","13","Female","approach_avoid_spark_v1","""event"",""trial"",""time""
""fullscreenenter"",""1"",""15768""
","
","
","""event"",""trial"",""time""
""fullscreenenter"",""1"",""15768""
","
","","","","","","717.3999999761581","images/sofa3.png","","","learning","2","2","1","1","sofa","furniture","1","1","","good","[4]"
"html-keyboard-response","195","732653","0.0-11.0-2.0-0.3","7647","2","13","Female","approach_avoid_spark_v1","""event"",""trial"",""time""
""fullscreenenter"",""1"",""15768""
","
","
","""event"",""trial"",""time""
""fullscreenenter"",""1"",""15768""
","
","","","","","","null","<div style=""font-size:60px;"">+</div>","null","","fixation","","","","","","","","","","",""
"aa-learning-trial","196","735661","0.0-11.0-2.0-1.3","7647","2","13","Female","approach_avoid_spark_v1","""event"",""trial"",""time""
""fullscreenenter"",""1"",""15768""
","
","
","""event"",""trial"",""time""
""fullscreenenter"",""1"",""15768""
","
","","","","","","848.9000000357628","images/table2.png","","","learning","-3","0","0","0","table","furniture","1","1","","bad","[-5]"
"html-keyboard-response","197","736164","0.0-11.0-2.0-0.4","7647","2","13","Female","approach_avoid_spark_v1","""event"",""trial"",""time""
""fullscreenenter"",""1"",""15768""
","
","
","""event"",""trial"",""time""
""fullscreenenter"",""1"",""15768""
","
","","","","","","null","<div style=""font-size:60px;"">+</div>","null","","fixation","","","","","","","","","","",""
"aa-learning-trial","198","739180","0.0-11.0-2.0-1.4","7647","2","13","Female","approach_avoid_spark_v1","""event"",""trial"",""time""
""fullscreenenter"",""1"",""15768""
","
","
","""event"",""trial"",""time""
""fullscreenenter"",""1"",""15768""
","
","","","","","","954.7000000476837","images/chair3.png","","","learning","-2","-2","1","1","chair","furniture","1","1","","neutral","0"
"html-keyboard-response","199","739696","0.0-11.0-2.0-0.5","7647","2","13","Female","approach_avoid_spark_v1","""event"",""trial"",""time""
""fullscreenenter"",""1"",""15768""
","
","
","""event"",""trial"",""time""
""fullscreenenter"",""1"",""15768""
","
","","","","","","null","<div style=""font-size:60px;"">+</div>","null","","fixation","","","","","","","","","","",""
"aa-learning-trial","200","742714","0.0-11.0-2.0-1.5","7647","2","13","Female","approach_avoid_spark_v1","""event"",""trial"",""time""
""fullscreenenter"",""1"",""15768""
","
","
","""event"",""trial"",""time""
""fullscreenenter"",""1"",""15768""
","
","","","","","","1278.4000000357628","images/chair4.png","","","learning","[-1]","-1","1","1","chair","furniture","1","1","","neutral","0"
"html-keyboard-response","201","743226","0.0-11.0-2.0-0.6","7647","2","13","Female","approach_avoid_spark_v1","""event"",""trial"",""time""
""fullscreenenter"",""1"",""15768""
","
","
","""event"",""trial"",""time""
""fullscreenenter"",""1"",""15768""
","
","","","","","","null","<div style=""font-size:60px;"">+</div>","null","","fixation","","","","","","","","","","",""
"aa-learning-trial","202","746241","0.0-11.0-2.0-1.6","7647","2","13","Female","approach_avoid_spark_v1","""event"",""trial"",""time""
""fullscreenenter"",""1"",""15768""
","
","
","""event"",""trial"",""time""
""fullscreenenter"",""1"",""15768""
","
","","","","","","740.6999999880791","images/sofa1.png","","","learning","2","2","1","1","sofa","furniture","1","1","","good","[4]"
"html-keyboard-response","203","746754","0.0-11.0-2.0-0.7","7647","2","13","Female","approach_avoid_spark_v1","""event"",""trial"",""time""
""fullscreenenter"",""1"",""15768""
","
","
","""event"",""trial"",""time""
""fullscreenenter"",""1"",""15768""
","
","","","","","","null","<div style=""font-size:60px;"">+</div>","null","","fixation","","","","","","","","","","",""
"aa-learning-trial","204","749763","0.0-11.0-2.0-1.7","7647","2","13","Female","approach_avoid_spark_v1","""event"",""trial"",""time""
""fullscreenenter"",""1"",""15768""
","
","
","""event"",""trial"",""time""
""fullscreenenter"",""1"",""15768""
","
","","","","","","595.7000000476837","images/sofa2.png","","","learning","2","2","1","1","sofa","furniture","1","1","","good","[4]"
"html-keyboard-response","205","750274","0.0-11.0-2.0-0.8","7647","2","13","Female","approach_avoid_spark_v1","""event"",""trial"",""time""
""fullscreenenter"",""1"",""15768""
","
","
","""event"",""trial"",""time""
""fullscreenenter"",""1"",""15768""
","
","","","","","","null","<div style=""font-size:60px;"">+</div>","null","","fixation","","","","","","","","","","",""
"aa-learning-trial","206","753276","0.0-11.0-2.0-1.8","7647","2","13","Female","approach_avoid_spark_v1","""event"",""trial"",""time""
""fullscreenenter"",""1"",""15768""
","
","
","""event"",""trial"",""time""
""fullscreenenter"",""1"",""15768""
","
","","","","","","667.8000000119209","images/table2.png","","","learning","-2","0","0","0","table","furniture","1","1","","bad","[-5]"
"html-keyboard-response","207","753778","0.0-11.0-2.0-0.9","7647","2","13","Female","approach_avoid_spark_v1","""event"",""trial"",""time""
""fullscreenenter"",""1"",""15768""
","
","
","""event"",""trial"",""time""
""fullscreenenter"",""1"",""15768""
","
","","","","","","null","<div style=""font-size:60px;"">+</div>","null","","fixation","","","","","","","","","","",""
"aa-learning-trial","208","756780","0.0-11.0-2.0-1.9","7647","2","13","Female","approach_avoid_spark_v1","""event"",""trial"",""time""
""fullscreenenter"",""1"",""15768""
","
","
","""event"",""trial"",""time""
""fullscreenenter"",""1"",""15768""
","
","","","","","","789.6000000238419","images/chair4.png","","","learning","1","0","0","0","chair","furniture","1","1","","neutral","0"
"html-keyboard-response","209","757281","0.0-11.0-2.0-0.10","7647","2","13","Female","approach_avoid_spark_v1","""event"",""trial"",""time""
""fullscreenenter"",""1"",""15768""
","
","
","""event"",""trial"",""time""
""fullscreenenter"",""1"",""15768""
","
","","","","","","null","<div style=""font-size:60px;"">+</div>","null","","fixation","","","","","","","","","","",""
"aa-learning-trial","210","760285","0.0-11.0-2.0-1.10","7647","2","13","Female","approach_avoid_spark_v1","""event"",""trial"",""time""
""fullscreenenter"",""1"",""15768""
","
","
","""event"",""trial"",""time""
""fullscreenenter"",""1"",""15768""
","
","","","","","","772.9000000357628","images/chair6.png","","","learning","2","2","1","1","chair","furniture","1","1","","neutral","0"
"html-keyboard-response","211","760786","0.0-11.0-2.0-0.11","7647","2","13","Female","approach_avoid_spark_v1","""event"",""trial"",""time""
""fullscreenenter"",""1"",""15768""
","
","
","""event"",""trial"",""time""
""fullscreenenter"",""1"",""15768""
","
","","","","","","null","<div style=""font-size:60px;"">+</div>","null","","fixation","","","","","","","","","","",""
"aa-learning-trial","212","763790","0.0-11.0-2.0-1.11","7647","2","13","Female","approach_avoid_spark_v1","""event"",""trial"",""time""
""fullscreenenter"",""1"",""15768""
","
","
","""event"",""trial"",""time""
""fullscreenenter"",""1"",""15768""
","
","","","","","","707.5999999642372","images/chair6.png","","","learning","1","1","1","1","chair","furniture","1","1","","neutral","0"
"html-keyboard-response","213","764291","0.0-11.0-2.0-0.12","7647","2","13","Female","approach_avoid_spark_v1","""event"",""trial"",""time""
""fullscreenenter"",""1"",""15768""
","
","
","""event"",""trial"",""time""
""fullscreenenter"",""1"",""15768""
","
","","","","","","null","<div style=""font-size:60px;"">+</div>","null","","fixation","","","","","","","","","","",""
"aa-learning-trial","214","767295","0.0-11.0-2.0-1.12","7647","2","13","Female","approach_avoid_spark_v1","""event"",""trial"",""time""
""fullscreenenter"",""1"",""15768""
","
","
","""event"",""trial"",""time""
""fullscreenenter"",""1"",""15768""
","
","","","","","","659.6999999880791","images/sofa2.png","","","learning","8","8","1","1","sofa","furniture","1","1","","good","[4]"
"html-keyboard-response","215","767796","0.0-11.0-2.0-0.13","7647","2","13","Female","approach_avoid_spark_v1","""event"",""trial"",""time""
""fullscreenenter"",""1"",""15768""
","
","
","""event"",""trial"",""time""
""fullscreenenter"",""1"",""15768""
","
","","","","","","null","<div style=""font-size:60px;"">+</div>","null","","fixation","","","","","","","","","","",""
"aa-learning-trial","216","770798","0.0-11.0-2.0-1.13","7647","2","13","Female","approach_avoid_spark_v1","""event"",""trial"",""time""
""fullscreenenter"",""1"",""15768""
","
","
","""event"",""trial"",""time""
""fullscreenenter"",""1"",""15768""
","
","","","","","","595.1000000238419","images/sofa1.png","","","learning","3","3","1","1","sofa","furniture","1","1","","good","[4]"
"html-keyboard-response","217","771300","0.0-11.0-2.0-0.14","7647","2","13","Female","approach_avoid_spark_v1","""event"",""trial"",""time""
""fullscreenenter"",""1"",""15768""
","
","
","""event"",""trial"",""time""
""fullscreenenter"",""1"",""15768""
","
","","","","","","null","<div style=""font-size:60px;"">+</div>","null","","fixation","","","","","","","","","","",""
"aa-learning-trial","218","774302","0.0-11.0-2.0-1.14","7647","2","13","Female","approach_avoid_spark_v1","""event"",""trial"",""time""
""fullscreenenter"",""1"",""15768""
","
","
","""event"",""trial"",""time""
""fullscreenenter"",""1"",""15768""
","
","","","","","","882.3000000119209","images/table6.png","","","learning","-6","0","0","0","table","furniture","1","1","","bad","[-5]"
"html-keyboard-response","219","774805","0.0-11.0-2.0-0.15","7647","2","13","Female","approach_avoid_spark_v1","""event"",""trial"",""time""
""fullscreenenter"",""1"",""15768""
","
","
","""event"",""trial"",""time""
""fullscreenenter"",""1"",""15768""
","
","","","","","","null","<div style=""font-size:60px;"">+</div>","null","","fixation","","","","","","","","","","",""
"aa-learning-trial","220","777808","0.0-11.0-2.0-1.15","7647","2","13","Female","approach_avoid_spark_v1","""event"",""trial"",""time""
""fullscreenenter"",""1"",""15768""
","
","
","""event"",""trial"",""time""
""fullscreenenter"",""1"",""15768""
","
","","","","","","1201.0999999642372","images/chair4.png","","","learning","1","1","1","1","chair","furniture","1","1","","neutral","0"
"html-keyboard-response","221","778309","0.0-11.0-2.0-0.16","7647","2","13","Female","approach_avoid_spark_v1","""event"",""trial"",""time""
""fullscreenenter"",""1"",""15768""
","
","
","""event"",""trial"",""time""
""fullscreenenter"",""1"",""15768""
","
","","","","","","null","<div style=""font-size:60px;"">+</div>","null","","fixation","","","","","","","","","","",""
"aa-learning-trial","222","781312","0.0-11.0-2.0-1.16","7647","2","13","Female","approach_avoid_spark_v1","""event"",""trial"",""time""
""fullscreenenter"",""1"",""15768""
","
","
","""event"",""trial"",""time""
""fullscreenenter"",""1"",""15768""
","
","","","","","","729.4000000357628","images/chair4.png","","","learning","1","1","1","1","chair","furniture","1","1","","neutral","0"
"html-keyboard-response","223","781813","0.0-11.0-2.0-0.17","7647","2","13","Female","approach_avoid_spark_v1","""event"",""trial"",""time""
""fullscreenenter"",""1"",""15768""
","
","
","""event"",""trial"",""time""
""fullscreenenter"",""1"",""15768""
","
","","","","","","null","<div style=""font-size:60px;"">+</div>","null","","fixation","","","","","","","","","","",""
"aa-learning-trial","224","784819","0.0-11.0-2.0-1.17","7647","2","13","Female","approach_avoid_spark_v1","""event"",""trial"",""time""
""fullscreenenter"",""1"",""15768""
","
","
","""event"",""trial"",""time""
""fullscreenenter"",""1"",""15768""
","
","","","","","","569.8000000119209","images/chair4.png","","","learning","[1]","1","1","1","chair","furniture","1","1","","neutral","0"
"html-keyboard-response","225","785321","0.0-11.0-2.0-0.18","7647","2","13","Female","approach_avoid_spark_v1","""event"",""trial"",""time""
""fullscreenenter"",""1"",""15768""
","
","
","""event"",""trial"",""time""
""fullscreenenter"",""1"",""15768""
","
","","","","","","null","<div style=""font-size:60px;"">+</div>","null","","fixation","","","","","","","","","","",""
"aa-learning-trial","226","788324","0.0-11.0-2.0-1.18","7647","2","13","Female","approach_avoid_spark_v1","""event"",""trial"",""time""
""fullscreenenter"",""1"",""15768""
","
","
","""event"",""trial"",""time""
""fullscreenenter"",""1"",""15768""
","
","","","","","","1717.300000011921","images/chair6.png","","","learning","1","1","1","1","chair","furniture","1","1","","neutral","0"
"html-keyboard-response","227","788826","0.0-11.0-2.0-0.19","7647","2","13","Female","approach_avoid_spark_v1","""event"",""trial"",""time""
""fullscreenenter"",""1"",""15768""
","
","
","""event"",""trial"",""time""
""fullscreenenter"",""1"",""15768""
","
","","","","","","null","<div style=""font-size:60px;"">+</div>","null","","fixation","","","","","","","","","","",""
"aa-learning-trial","228","791828","0.0-11.0-2.0-1.19","7647","2","13","Female","approach_avoid_spark_v1","""event"",""trial"",""time""
""fullscreenenter"",""1"",""15768""
","
","
","""event"",""trial"",""time""
""fullscreenenter"",""1"",""15768""
","
","","","","","","732","images/table8.png","","","learning","-4","-4","1","1","table","furniture","1","1","","bad","[-5]"
"html-keyboard-response","229","792330","0.0-11.0-2.0-0.20","7647","2","13","Female","approach_avoid_spark_v1","""event"",""trial"",""time""
""fullscreenenter"",""1"",""15768""
","
","
","""event"",""trial"",""time""
""fullscreenenter"",""1"",""15768""
","
","","","","","","null","<div style=""font-size:60px;"">+</div>","null","","fixation","","","","","","","","","","",""
"aa-learning-trial","230","795333","0.0-11.0-2.0-1.20","7647","2","13","Female","approach_avoid_spark_v1","""event"",""trial"",""time""
""fullscreenenter"",""1"",""15768""
","
","
","""event"",""trial"",""time""
""fullscreenenter"",""1"",""15768""
","
","","","","","","731.5","images/sofa3.png","","","learning","3","3","1","1","sofa","furniture","1","1","","good","[4]"
"html-keyboard-response","231","795835","0.0-11.0-2.0-0.21","7647","2","13","Female","approach_avoid_spark_v1","""event"",""trial"",""time""
""fullscreenenter"",""1"",""15768""
","
","
","""event"",""trial"",""time""
""fullscreenenter"",""1"",""15768""
","
","","","","","","null","<div style=""font-size:60px;"">+</div>","null","","fixation","","","","","","","","","","",""
"aa-learning-trial","232","798837","0.0-11.0-2.0-1.21","7647","2","13","Female","approach_avoid_spark_v1","""event"",""trial"",""time""
""fullscreenenter"",""1"",""15768""
","
","
","""event"",""trial"",""time""
""fullscreenenter"",""1"",""15768""
","
","","","","","","1396","images/sofa1.png","","","learning","5","0","0","0","sofa","furniture","1","1","","good","[4]"
"html-keyboard-response","233","799338","0.0-11.0-2.0-0.22","7647","2","13","Female","approach_avoid_spark_v1","""event"",""trial"",""time""
""fullscreenenter"",""1"",""15768""
","
","
","""event"",""trial"",""time""
""fullscreenenter"",""1"",""15768""
","
","","","","","","null","<div style=""font-size:60px;"">+</div>","null","","fixation","","","","","","","","","","",""
"aa-learning-trial","234","802341","0.0-11.0-2.0-1.22","7647","2","13","Female","approach_avoid_spark_v1","""event"",""trial"",""time""
""fullscreenenter"",""1"",""15768""
","
","
","""event"",""trial"",""time""
""fullscreenenter"",""1"",""15768""
","
","","","","","","884","images/table5.png","","","learning","-5","0","0","0","table","furniture","1","1","","bad","[-5]"
