"trial_type","trial_index","time_elapsed","internal_node_id","subject_id","task_condition","age","gender","task_version","interactions","blur_events","focus_events","fullscreenenter_events","fullscreenexit_events","success","timeout","failed_images","failed_audio","failed_video","rt","stimulus","response","button_pressed","task_part","approach_reward","points","key_press","option_selected","stim_cat","task_block","block_condition","block_number","correct","cat_type","mean_cat_reward"
"pavlovia","0","5","0.0-0.0","7240","2","25","Male","approach_avoid_spark_v1","""event"",""trial"",""time""
""fullscreenenter"",""1"",""1543""
","
","
","""event"",""trial"",""time""
""fullscreenenter"",""1"",""1543""
","
","","","","","","","","","","","","","","","","","","","","",""
"fullscreen","1","2542","0.0-1.0","7240","2","25","Male","approach_avoid_spark_v1","""event"",""trial"",""time""
""fullscreenenter"",""1"",""1543""
","
","
","""event"",""trial"",""time""
""fullscreenenter"",""1"",""1543""
","
","true","","","","","","","","","","","","","","","","","","","",""
"preload","2","6020","0.0-2.0","7240","2","25","Male","approach_avoid_spark_v1","""event"",""trial"",""time""
""fullscreenenter"",""1"",""1543""
","
","
","""event"",""trial"",""time""
""fullscreenenter"",""1"",""1543""
","
","true","false","[]","[]","[]","","","","","","","","","","","","","","","",""
"audio-keyboard-response","3","10494","0.0-3.0","7240","2","25","Male","approach_avoid_spark_v1","""event"",""trial"",""time""
""fullscreenenter"",""1"",""1543""
","
","
","""event"",""trial"",""time""
""fullscreenenter"",""1"",""1543""
","
","","","","","","4469.841269841271","audio/beep_loop.wav","n","","","","","","","","","","","","",""
"audio-button-response","4","14030","0.0-4.0","7240","2","25","Male","approach_avoid_spark_v1","""event"",""trial"",""time""
""fullscreenenter"",""1"",""1543""
","
","
","""event"",""trial"",""time""
""fullscreenenter"",""1"",""1543""
","
","","","","","","3529","audio/shark.wav","4","","","","","","","","","","","","",""
"audio-button-response","5","16465","0.0-5.0","7240","2","25","Male","approach_avoid_spark_v1","""event"",""trial"",""time""
""fullscreenenter"",""1"",""1543""
","
","
","""event"",""trial"",""time""
""fullscreenenter"",""1"",""1543""
","
","","","","","","1434","audio/turtle.wav","1","","","","","","","","","","","","",""
"preload","6","19371","0.0-6.0","7240","2","25","Male","approach_avoid_spark_v1","""event"",""trial"",""time""
""fullscreenenter"",""1"",""1543""
","
","
","""event"",""trial"",""time""
""fullscreenenter"",""1"",""1543""
","
","true","false","[]","[]","[]","","","","","","","","","","","","","","","",""
"html-keyboard-response","7","21158","0.0-7.0","7240","2","25","Male","approach_avoid_spark_v1","""event"",""trial"",""time""
""fullscreenenter"",""1"",""1543""
","
","
","""event"",""trial"",""time""
""fullscreenenter"",""1"",""1543""
","
","","","","","","1786.2000000476837","Welcome to the experiment. Press any key to begin and to advance the instructions."," ","","","","","","","","","","","","",""
"learning-instructions","8","29618","0.0-8.0-0.0-0.0","7240","2","25","Male","approach_avoid_spark_v1","""event"",""trial"",""time""
""fullscreenenter"",""1"",""1543""
","
","
","""event"",""trial"",""time""
""fullscreenenter"",""1"",""1543""
","
","","","","","","1503.2999999523163","<p> Welcome! Today you are going to play 6 different rounds of a decision-making game. </p><p> Use the mouse to click next to continue. </p>","","0","instructions","","","","","","","","","","",""
"learning-instructions","9","33161","0.0-8.0-0.0-0.1","7240","2","25","Male","approach_avoid_spark_v1","""event"",""trial"",""time""
""fullscreenenter"",""1"",""1543""
","
","
","""event"",""trial"",""time""
""fullscreenenter"",""1"",""1543""
","
","","","","","","728","<p> You will start with a practice round to learn the rules. </p>","","0","instructions","","","","","","","","","","",""
"learning-instructions","10","37290","0.0-8.0-0.0-0.2","7240","2","25","Male","approach_avoid_spark_v1","""event"",""trial"",""time""
""fullscreenenter"",""1"",""1543""
","
","
","""event"",""trial"",""time""
""fullscreenenter"",""1"",""1543""
","
","","","","","","687.8999999761581","<p> Your goal in this round is to give out sports equipment to kids. </p></div>","","0","instructions","","","","","","","","","","",""
"learning-instructions","11","45442","0.0-8.0-0.0-0.3","7240","2","25","Male","approach_avoid_spark_v1","""event"",""trial"",""time""
""fullscreenenter"",""1"",""1543""
","
","
","""event"",""trial"",""time""
""fullscreenenter"",""1"",""1543""
","
","","","","","","608.5","<p> The kids only like some of the equipment.  </p><p> On each turn, you will see a piece of sports equipment.   </p><p> You need to decide whether to give it to the kids or not.  </p>","","0","instructions","","","","","","","","","","",""
"learning-instructions","12","50704","0.0-8.0-0.0-0.4","7240","2","25","Male","approach_avoid_spark_v1","""event"",""trial"",""time""
""fullscreenenter"",""1"",""1543""
","
","
","""event"",""trial"",""time""
""fullscreenenter"",""1"",""1543""
","
","","","","","","505.5","<p> You can give them the equipment by pressing 1 and choose not to give it to them by pressing 0. </p><br><div class=""choice-instructions-grid""> <div class=""choice-option""><img src=""images/approach.png"" class=""choice-option-img"" stage=""instructions"" position=""0"" ><div class=""choice-option-text""> Press ""1."" </div></div><div class=""choice-option""><img src=""images/avoid.png"" class=""choice-option-img"" stage=""instructions"" position=""1"" ><div class=""choice-option-text""> Press ""0."" </div></div>","","0","instructions","","","","","","","","","","",""
"learning-instructions","13","58887","0.0-8.0-0.0-0.5","7240","2","25","Male","approach_avoid_spark_v1","""event"",""trial"",""time""
""fullscreenenter"",""1"",""1543""
","
","
","""event"",""trial"",""time""
""fullscreenenter"",""1"",""1543""
","
","","","","","","800.1000000238419","<p> If you give them a piece of equipment they like, they will be happy! </p><p> But if you give them a piece of equipment they do not like, they will be sad. </p>","","0","instructions","","","","","","","","","","",""
"learning-instructions","14","70348","0.0-8.0-0.0-0.6","7240","2","25","Male","approach_avoid_spark_v1","""event"",""trial"",""time""
""fullscreenenter"",""1"",""1543""
","
","
","""event"",""trial"",""time""
""fullscreenenter"",""1"",""1543""
","
","","","","","","952.3999999761581","<p> You will earn points based on how you make kids feel. </p><p> If you make them happy, you will WIN anywhere from 1 - 9 points, </p><p> but if you make them sad, you will LOSE anywhere from 1 - 9 points. </p>","","0","instructions","","","","","","","","","","",""
"learning-instructions","15","80731","0.0-8.0-0.0-0.7","7240","2","25","Male","approach_avoid_spark_v1","""event"",""trial"",""time""
""fullscreenenter"",""1"",""1543""
","
","
","""event"",""trial"",""time""
""fullscreenenter"",""1"",""1543""
","
","","","","","","822.5","<p> You will see how many points you won or lost in the center of the screen. </p><p> Here is what you would see if you won 6 points: </p><p style=""color:green;font-size:50px;font-weight:bolder"">6</p><p style=""color:green"">The text is GREEN because you WON points.</p>","","0","instructions","","","","","","","","","","",""
"learning-instructions","16","87061","0.0-8.0-0.0-0.8","7240","2","25","Male","approach_avoid_spark_v1","""event"",""trial"",""time""
""fullscreenenter"",""1"",""1543""
","
","
","""event"",""trial"",""time""
""fullscreenenter"",""1"",""1543""
","
","","","","","","825","<p> And here is what you would see if you lost 4 points: </p><p style=""color:red;font-size:50px;font-weight:bolder"">-4</p><p style=""color:red"">The text is RED because you LOST points. </p>","","0","instructions","","","","","","","","","","",""
"learning-instructions","17","104973","0.0-8.0-0.0-0.9","7240","2","25","Male","approach_avoid_spark_v1","""event"",""trial"",""time""
""fullscreenenter"",""1"",""1543""
","
","
","""event"",""trial"",""time""
""fullscreenenter"",""1"",""1543""
","
","","","","","","3196.600000023842","<p> Some of the equipment will make the kids VERY happy or sad. </p><p> These pieces of equipment will make you win or lose LOTS of points. </p><p> Other pieces of equipment will only make the kids a little happy or sad. </p><p> These pieces of equipment will make you win or lose small amounts of points. </p>","","0","instructions","","","","","","","","","","",""
"learning-instructions","18","141119","0.0-8.0-0.0-0.10","7240","2","25","Male","approach_avoid_spark_v1","""event"",""trial"",""time""
""fullscreenenter"",""1"",""1543""
","
","
","""event"",""trial"",""time""
""fullscreenenter"",""1"",""1543""
","
","","","","","","25513.700000047684","<p> If you choose not to give them the equipment, you will not win or lose any points. </p><p>  However, in the center of the screen, you will see the number of points you WOULD HAVE won or lost if you had given them the equipment. </p>","","0","instructions","","","","","","","","","","",""
"learning-instructions","19","165277","0.0-8.0-0.0-0.11","7240","2","25","Male","approach_avoid_spark_v1","""event"",""trial"",""time""
""fullscreenenter"",""1"",""1543""
","
","
","""event"",""trial"",""time""
""fullscreenenter"",""1"",""1543""
","
","","","","","","2627.7000000476837","<p> Here is what you might see if you did not give the equipment to the kids but it would have made them happy: </p><p style=""color:grey; font-size:50px; display: inline-block; border-spacing: 15px; border-width:3px; border-style:solid; border-color:red"">  &nbsp; 7 &nbsp; </p><p> Remember, in this case, you would not win or lose ANY points because you did not give them the equipment.  </p><p style=""color:grey"">The text is GREY because you earned ZERO points. </p><p style=""color:red"">However, choosing to give the kids the equipment would have made you win points. The box around the text is RED because you chose the worse option. </p>","","0","instructions","","","","","","","","","","",""
"learning-instructions","20","189135","0.0-8.0-0.0-0.12","7240","2","25","Male","approach_avoid_spark_v1","""event"",""trial"",""time""
""fullscreenenter"",""1"",""1543""
","
","
","""event"",""trial"",""time""
""fullscreenenter"",""1"",""1543""
","
","","","","","","2783.1999999284744","<p> Here is what you might see if you did not give the equipment to the kids but it would have made them sad: </p><p style=""color:grey;font-size:50px; display: inline-block; border-spacing: 15px; border-width:3px; border-style:solid; border-color:green"">  &nbsp; -8 &nbsp; </p><p> Remember, in this case, you would not win or lose ANY points because you did not give them the equipment.  </p><p style=""color:grey"">The text is GREY because you earned ZERO points. </p><p  style=""color:green""> Choosing to give the kids the equipment would have made you lose points. The box around the text is GREEN because you chose the better option.</p>","","0","instructions","","","","","","","","","","",""
"learning-instructions","21","203026","0.0-8.0-0.0-0.13","7240","2","25","Male","approach_avoid_spark_v1","""event"",""trial"",""time""
""fullscreenenter"",""1"",""1543""
","
","
","""event"",""trial"",""time""
""fullscreenenter"",""1"",""1543""
","
","","","","","","4459.700000047684","<p> You will have 3 seconds to make each choice. Try to respond before time runs out! </p><p> You will lose 5 points each time you do not make a response. </p>","","0","instructions","","","","","","","","","","",""
"learning-instructions","22","210909","0.0-8.0-0.0-0.14","7240","2","25","Male","approach_avoid_spark_v1","""event"",""trial"",""time""
""fullscreenenter"",""1"",""1543""
","
","
","""event"",""trial"",""time""
""fullscreenenter"",""1"",""1543""
","
","","","","","","2468.899999976158","<p> This is just a practice round, but in the real game, your bonus payment will depend on your total number of points.","","0","instructions","","","","","","","","","","",""
"learning-instructions","23","217837","0.0-8.0-0.0-0.15","7240","2","25","Male","approach_avoid_spark_v1","""event"",""trial"",""time""
""fullscreenenter"",""1"",""1543""
","
","
","""event"",""trial"",""time""
""fullscreenenter"",""1"",""1543""
","
","","","","","","1170.7999999523163","<p> Remember, you can give them the equipment by pressing 1 and choose not to give it to them by pressing 0. </p><br><div class=""choice-instructions-grid""> <div class=""choice-option""><img src=""images/approach.png"" class=""choice-option-img"" stage=""instructions"" position=""0"" ><div class=""choice-option-text""> Press ""1."" </div></div><div class=""choice-option""><img src=""images/avoid.png"" class=""choice-option-img"" stage=""instructions"" position=""1"" ><div class=""choice-option-text""> Press ""0."" </div></div>","","0","instructions","","","","","","","","","","",""
"html-button-response","24","224182","0.0-8.0-1.0","7240","2","25","Male","approach_avoid_spark_v1","""event"",""trial"",""time""
""fullscreenenter"",""1"",""1543""
","
","
","""event"",""trial"",""time""
""fullscreenenter"",""1"",""1543""
","
","","","","","","6238.700000047684","<p> Ready to practice? </p>","0","","","","","","","","","","","","",""
"html-keyboard-response","25","224798","0.0-8.0-2.0-0.0","7240","2","25","Male","approach_avoid_spark_v1","""event"",""trial"",""time""
""fullscreenenter"",""1"",""1543""
","
","
","""event"",""trial"",""time""
""fullscreenenter"",""1"",""1543""
","
","","","","","","null","<div style=""font-size:60px;"">+</div>","null","","fixation","","","","","","","","","","",""
"aa-learning-trial","26","227805","0.0-8.0-2.0-1.0","7240","2","25","Male","approach_avoid_spark_v1","""event"",""trial"",""time""
""fullscreenenter"",""1"",""1543""
","
","
","""event"",""trial"",""time""
""fullscreenenter"",""1"",""1543""
","
","","","","","","null","images/ball1.png","","","learning","-5","-5","","null","practice","practice","practice","-1","","",""
"html-keyboard-response","27","228310","0.0-8.0-2.0-0.1","7240","2","25","Male","approach_avoid_spark_v1","""event"",""trial"",""time""
""fullscreenenter"",""1"",""1543""
","
","
","""event"",""trial"",""time""
""fullscreenenter"",""1"",""1543""
","
","","","","","","null","<div style=""font-size:60px;"">+</div>","null","","fixation","","","","","","","","","","",""
"aa-learning-trial","28","231317","0.0-8.0-2.0-1.1","7240","2","25","Male","approach_avoid_spark_v1","""event"",""trial"",""time""
""fullscreenenter"",""1"",""1543""
","
","
","""event"",""trial"",""time""
""fullscreenenter"",""1"",""1543""
","
","","","","","","1239.3000000715256","images/racket3.png","","","learning","-9","-9","1","1","practice","practice","practice","-1","","",""
"html-keyboard-response","29","231822","0.0-8.0-2.0-0.2","7240","2","25","Male","approach_avoid_spark_v1","""event"",""trial"",""time""
""fullscreenenter"",""1"",""1543""
","
","
","""event"",""trial"",""time""
""fullscreenenter"",""1"",""1543""
","
","","","","","","null","<div style=""font-size:60px;"">+</div>","null","","fixation","","","","","","","","","","",""
"aa-learning-trial","30","234829","0.0-8.0-2.0-1.2","7240","2","25","Male","approach_avoid_spark_v1","""event"",""trial"",""time""
""fullscreenenter"",""1"",""1543""
","
","
","""event"",""trial"",""time""
""fullscreenenter"",""1"",""1543""
","
","","","","","","1054.6000000238419","images/ball4.png","","","learning","-3","0","0","0","practice","practice","practice","-1","","",""
"html-keyboard-response","31","235334","0.0-8.0-2.0-0.3","7240","2","25","Male","approach_avoid_spark_v1","""event"",""trial"",""time""
""fullscreenenter"",""1"",""1543""
","
","
","""event"",""trial"",""time""
""fullscreenenter"",""1"",""1543""
","
","","","","","","null","<div style=""font-size:60px;"">+</div>","null","","fixation","","","","","","","","","","",""
"aa-learning-trial","32","238341","0.0-8.0-2.0-1.3","7240","2","25","Male","approach_avoid_spark_v1","""event"",""trial"",""time""
""fullscreenenter"",""1"",""1543""
","
","
","""event"",""trial"",""time""
""fullscreenenter"",""1"",""1543""
","
","","","","","","487.5","images/racket1.png","","","learning","8","0","0","0","practice","practice","practice","-1","","",""
"html-keyboard-response","33","238846","0.0-8.0-2.0-0.4","7240","2","25","Male","approach_avoid_spark_v1","""event"",""trial"",""time""
""fullscreenenter"",""1"",""1543""
","
","
","""event"",""trial"",""time""
""fullscreenenter"",""1"",""1543""
","
","","","","","","null","<div style=""font-size:60px;"">+</div>","null","","fixation","","","","","","","","","","",""
"aa-learning-trial","34","241853","0.0-8.0-2.0-1.4","7240","2","25","Male","approach_avoid_spark_v1","""event"",""trial"",""time""
""fullscreenenter"",""1"",""1543""
","
","
","""event"",""trial"",""time""
""fullscreenenter"",""1"",""1543""
","
","","","","","","1131.7000000476837","images/ball1.png","","","learning","3","3","1","1","practice","practice","practice","-1","","",""
"html-keyboard-response","35","242358","0.0-8.0-2.0-0.5","7240","2","25","Male","approach_avoid_spark_v1","""event"",""trial"",""time""
""fullscreenenter"",""1"",""1543""
","
","
","""event"",""trial"",""time""
""fullscreenenter"",""1"",""1543""
","
","","","","","","null","<div style=""font-size:60px;"">+</div>","null","","fixation","","","","","","","","","","",""
"aa-learning-trial","36","245366","0.0-8.0-2.0-1.5","7240","2","25","Male","approach_avoid_spark_v1","""event"",""trial"",""time""
""fullscreenenter"",""1"",""1543""
","
","
","""event"",""trial"",""time""
""fullscreenenter"",""1"",""1543""
","
","","","","","","827.5","images/racket1.png","","","learning","4","4","1","1","practice","practice","practice","-1","","",""
"html-keyboard-response","37","245871","0.0-8.0-2.0-0.6","7240","2","25","Male","approach_avoid_spark_v1","""event"",""trial"",""time""
""fullscreenenter"",""1"",""1543""
","
","
","""event"",""trial"",""time""
""fullscreenenter"",""1"",""1543""
","
","","","","","","null","<div style=""font-size:60px;"">+</div>","null","","fixation","","","","","","","","","","",""
"aa-learning-trial","38","248880","0.0-8.0-2.0-1.6","7240","2","25","Male","approach_avoid_spark_v1","""event"",""trial"",""time""
""fullscreenenter"",""1"",""1543""
","
","
","""event"",""trial"",""time""
""fullscreenenter"",""1"",""1543""
","
","","","","","","664.4000000953674","images/ball4.png","","","learning","5","5","1","1","practice","practice","practice","-1","","",""
"html-keyboard-response","39","249390","0.0-8.0-2.0-0.7","7240","2","25","Male","approach_avoid_spark_v1","""event"",""trial"",""time""
""fullscreenenter"",""1"",""1543""
","
","
","""event"",""trial"",""time""
""fullscreenenter"",""1"",""1543""
","
","","","","","","null","<div style=""font-size:60px;"">+</div>","null","","fixation","","","","","","","","","","",""
"aa-learning-trial","40","252398","0.0-8.0-2.0-1.7","7240","2","25","Male","approach_avoid_spark_v1","""event"",""trial"",""time""
""fullscreenenter"",""1"",""1543""
","
","
","""event"",""trial"",""time""
""fullscreenenter"",""1"",""1543""
","
","","","","","","594.9000000953674","images/racket1.png","","","learning","-1","-1","1","1","practice","practice","practice","-1","","",""
"html-keyboard-response","41","252901","0.0-8.0-2.0-0.8","7240","2","25","Male","approach_avoid_spark_v1","""event"",""trial"",""time""
""fullscreenenter"",""1"",""1543""
","
","
","""event"",""trial"",""time""
""fullscreenenter"",""1"",""1543""
","
","","","","","","null","<div style=""font-size:60px;"">+</div>","null","","fixation","","","","","","","","","","",""
"aa-learning-trial","42","255910","0.0-8.0-2.0-1.8","7240","2","25","Male","approach_avoid_spark_v1","""event"",""trial"",""time""
""fullscreenenter"",""1"",""1543""
","
","
","""event"",""trial"",""time""
""fullscreenenter"",""1"",""1543""
","
","","","","","","594.6999999284744","images/racket3.png","","","learning","1","0","0","0","practice","practice","practice","-1","","",""
"html-keyboard-response","43","256415","0.0-8.0-2.0-0.9","7240","2","25","Male","approach_avoid_spark_v1","""event"",""trial"",""time""
""fullscreenenter"",""1"",""1543""
","
","
","""event"",""trial"",""time""
""fullscreenenter"",""1"",""1543""
","
","","","","","","null","<div style=""font-size:60px;"">+</div>","null","","fixation","","","","","","","","","","",""
"aa-learning-trial","44","259422","0.0-8.0-2.0-1.9","7240","2","25","Male","approach_avoid_spark_v1","""event"",""trial"",""time""
""fullscreenenter"",""1"",""1543""
","
","
","""event"",""trial"",""time""
""fullscreenenter"",""1"",""1543""
","
","","","","","","441.6999999284744","images/racket3.png","","","learning","-1","0","0","0","practice","practice","practice","-1","","",""
"html-keyboard-response","45","259927","0.0-8.0-2.0-0.10","7240","2","25","Male","approach_avoid_spark_v1","""event"",""trial"",""time""
""fullscreenenter"",""1"",""1543""
","
","
","""event"",""trial"",""time""
""fullscreenenter"",""1"",""1543""
","
","","","","","","null","<div style=""font-size:60px;"">+</div>","null","","fixation","","","","","","","","","","",""
"aa-learning-trial","46","262933","0.0-8.0-2.0-1.10","7240","2","25","Male","approach_avoid_spark_v1","""event"",""trial"",""time""
""fullscreenenter"",""1"",""1543""
","
","
","""event"",""trial"",""time""
""fullscreenenter"",""1"",""1543""
","
","","","","","","1667.6000000238419","images/ball3.png","","","learning","2","0","0","0","practice","practice","practice","-1","","",""
"html-keyboard-response","47","263439","0.0-8.0-2.0-0.11","7240","2","25","Male","approach_avoid_spark_v1","""event"",""trial"",""time""
""fullscreenenter"",""1"",""1543""
","
","
","""event"",""trial"",""time""
""fullscreenenter"",""1"",""1543""
","
","","","","","","null","<div style=""font-size:60px;"">+</div>","null","","fixation","","","","","","","","","","",""
"aa-learning-trial","48","266446","0.0-8.0-2.0-1.11","7240","2","25","Male","approach_avoid_spark_v1","""event"",""trial"",""time""
""fullscreenenter"",""1"",""1543""
","
","
","""event"",""trial"",""time""
""fullscreenenter"",""1"",""1543""
","
","","","","","","1242.5","images/ball1.png","","","learning","8","8","1","1","practice","practice","practice","-1","","",""
"html-button-response","49","268568","0.0-8.0-3.0","7240","2","25","Male","approach_avoid_spark_v1","""event"",""trial"",""time""
""fullscreenenter"",""1"",""1543""
","
","
","""event"",""trial"",""time""
""fullscreenenter"",""1"",""1543""
","
","","","","","","2120.4000000953674","<p> You earned 5 points in the practice round! </p>","0","","break","","","","","","","","","","",""
"learning-instructions","50","275896","0.0-8.0-4.0-0.0","7240","2","25","Male","approach_avoid_spark_v1","""event"",""trial"",""time""
""fullscreenenter"",""1"",""1543""
","
","
","""event"",""trial"",""time""
""fullscreenenter"",""1"",""1543""
","
","","","","","","1358.5999999046326","<p> It's almost time to start the real game. </p><p> Before you start, we're going to ask you a few questions about how the game works. </p>","","0","instructions","","","","","","","","","","",""
"preload","51","277580","0.0-8.0-5.0","7240","2","25","Male","approach_avoid_spark_v1","""event"",""trial"",""time""
""fullscreenenter"",""1"",""1543""
","
","
","""event"",""trial"",""time""
""fullscreenenter"",""1"",""1543""
","
","true","false","[]","[]","[]","","","","","","","","","","","","","","","",""
"comp-q","52","283380","0.0-8.0-6.0-0.0","7240","2","25","Male","approach_avoid_spark_v1","""event"",""trial"",""time""
""fullscreenenter"",""1"",""1543""
","
","
","""event"",""trial"",""time""
""fullscreenenter"",""1"",""1543""
","
","","","","","","807.5","<p> <b> True or False? </b> </p><p> If you see a number in GREY, that means you earned that many points. </p>","","1","comp_question","","","","","","","","","true","",""
"comp-q","53","293279","0.0-8.0-6.0-1.0","7240","2","25","Male","approach_avoid_spark_v1","""event"",""trial"",""time""
""fullscreenenter"",""1"",""1543""
","
","
","""event"",""trial"",""time""
""fullscreenenter"",""1"",""1543""
","
","","","","","","1535.4000000953674","<p><b> That's right! </b> If you see a grey number, it means you earned ZERO points. <br> The grey numbers show the points you WOULD HAVE earned if you had made the other choice. </p>","","0","comp_answer","","","","","","","","","","",""
"comp-q","54","298620","0.0-8.0-7.0-0.0","7240","2","25","Male","approach_avoid_spark_v1","""event"",""trial"",""time""
""fullscreenenter"",""1"",""1543""
","
","
","""event"",""trial"",""time""
""fullscreenenter"",""1"",""1543""
","
","","","","","","647.1999999284744","<p> <b> True or False? </b> </p><p> You will have as much time as you want to make each choice. </p>","","1","comp_question","","","","","","","","","true","",""
"comp-q","55","303774","0.0-8.0-7.0-1.0","7240","2","25","Male","approach_avoid_spark_v1","""event"",""trial"",""time""
""fullscreenenter"",""1"",""1543""
","
","
","""event"",""trial"",""time""
""fullscreenenter"",""1"",""1543""
","
","","","","","","1111.2999999523163","<p> <b> That's right! </b> You will only have 3 seconds to make each choice. </p>","","0","comp_answer","","","","","","","","","","",""
"comp-q","56","309045","0.0-8.0-8.0-0.0","7240","2","25","Male","approach_avoid_spark_v1","""event"",""trial"",""time""
""fullscreenenter"",""1"",""1543""
","
","
","""event"",""trial"",""time""
""fullscreenenter"",""1"",""1543""
","
","","","","","","611.3000000715256","<p> <b> True or False? </b> </p><p> You should use the '1' and '0' keys to make your choices. </p>","","0","comp_question","","","","","","","","","true","",""
"comp-q","57","314995","0.0-8.0-8.0-1.0","7240","2","25","Male","approach_avoid_spark_v1","""event"",""trial"",""time""
""fullscreenenter"",""1"",""1543""
","
","
","""event"",""trial"",""time""
""fullscreenenter"",""1"",""1543""
","
","","","","","","1336.8999999761581","<p> <b> That's right! </b> You should use the '1' and '0' keys to make each choice. </p>","","0","comp_answer","","","","","","","","","","",""
"learning-instructions","58","322643","0.0-8.0-9.0-0.0","7240","2","25","Male","approach_avoid_spark_v1","""event"",""trial"",""time""
""fullscreenenter"",""1"",""1543""
","
","
","""event"",""trial"",""time""
""fullscreenenter"",""1"",""1543""
","
","","","","","","1374.6999999284744","<p> It's now time to start the real game. </p>Do your best, because the points you earn in the next rounds will influence your bonus payment. </p>","","0","instructions","","","","","","","","","","",""
"preload","59","322775","0.0-9.0-0.0","7240","2","25","Male","approach_avoid_spark_v1","""event"",""trial"",""time""
""fullscreenenter"",""1"",""1543""
","
","
","""event"",""trial"",""time""
""fullscreenenter"",""1"",""1543""
","
","true","false","[]","[]","[]","","","","","","","","","","","","","","","",""
"learning-instructions","60","327677","0.0-9.0-1.0-0.0","7240","2","25","Male","approach_avoid_spark_v1","""event"",""trial"",""time""
""fullscreenenter"",""1"",""1543""
","
","
","""event"",""trial"",""time""
""fullscreenenter"",""1"",""1543""
","
","","","","","","882.1000000238419","<p> Your goal in this round is to take care of lots of animals. </p></div>","","0","instructions","","","","","","","","","","",""
"learning-instructions","61","337825","0.0-9.0-1.0-0.1","7240","2","25","Male","approach_avoid_spark_v1","""event"",""trial"",""time""
""fullscreenenter"",""1"",""1543""
","
","
","""event"",""trial"",""time""
""fullscreenenter"",""1"",""1543""
","
","","","","","","598.8000000715256","<p> Some animals want to be pet, while other animals want to be left alone.  </p><p> On each turn, you will see an animal.   </p><p> You need to decide whether to pet it or not.  </p>","","0","instructions","","","","","","","","","","",""
"learning-instructions","62","344124","0.0-9.0-1.0-0.2","7240","2","25","Male","approach_avoid_spark_v1","""event"",""trial"",""time""
""fullscreenenter"",""1"",""1543""
","
","
","""event"",""trial"",""time""
""fullscreenenter"",""1"",""1543""
","
","","","","","","1102.9000000953674","<p> You can pet the animal by pressing 1 and leave the animal alone by pressing 0. </p><br><div class=""choice-instructions-grid""> <div class=""choice-option""><img src=""images/approach.png"" class=""choice-option-img"" stage=""instructions"" position=""0"" ><div class=""choice-option-text""> Press ""1."" </div></div><div class=""choice-option""><img src=""images/avoid.png"" class=""choice-option-img"" stage=""instructions"" position=""1"" ><div class=""choice-option-text""> Press ""0."" </div></div>","","0","instructions","","","","","","","","","","",""
"learning-instructions","63","354555","0.0-9.0-1.0-0.3","7240","2","25","Male","approach_avoid_spark_v1","""event"",""trial"",""time""
""fullscreenenter"",""1"",""1543""
","
","
","""event"",""trial"",""time""
""fullscreenenter"",""1"",""1543""
","
","","","","","","1526.2999999523163","<p> If you pet an animal that wants to be pet, you will make it feel happy! </p><p> But if you pet an animal that wants to be left alone, you will make it feel angry. </p>","","0","instructions","","","","","","","","","","",""
"learning-instructions","64","367992","0.0-9.0-1.0-0.4","7240","2","25","Male","approach_avoid_spark_v1","""event"",""trial"",""time""
""fullscreenenter"",""1"",""1543""
","
","
","""event"",""trial"",""time""
""fullscreenenter"",""1"",""1543""
","
","","","","","","1135.6000000238419","<p> You will earn points based on how you made the animal feel. </p><p> If you made it feel happy, you will WIN anywhere from 1 - 9 points, </p><p> but if you made it feel angry, you will LOSE anywhere from 1 - 9 points. </p>","","0","instructions","","","","","","","","","","",""
"learning-instructions","65","376997","0.0-9.0-1.0-0.5","7240","2","25","Male","approach_avoid_spark_v1","""event"",""trial"",""time""
""fullscreenenter"",""1"",""1543""
","
","
","""event"",""trial"",""time""
""fullscreenenter"",""1"",""1543""
","
","","","","","","1310.2999999523163","<p> You will see how many points you won or lost in the center of the screen. </p><p> Here is what you would see if you won 5 points: </p><p style=""color:green;font-size:50px;font-weight:bolder"">5</p>","","0","instructions","","","","","","","","","","",""
"learning-instructions","66","381126","0.0-9.0-1.0-0.6","7240","2","25","Male","approach_avoid_spark_v1","""event"",""trial"",""time""
""fullscreenenter"",""1"",""1543""
","
","
","""event"",""trial"",""time""
""fullscreenenter"",""1"",""1543""
","
","","","","","","598.6999999284744","<p> And here is what you would see if you lost 3 points: </p><p style=""color:red;font-size:50px;font-weight:bolder"">-3</p>","","0","instructions","","","","","","","","","","",""
"learning-instructions","67","395498","0.0-9.0-1.0-0.7","7240","2","25","Male","approach_avoid_spark_v1","""event"",""trial"",""time""
""fullscreenenter"",""1"",""1543""
","
","
","""event"",""trial"",""time""
""fullscreenenter"",""1"",""1543""
","
","","","","","","690.1000000238419","<p> Some animals will become very happy or very angry. </p><p> These animals will make you win or lose LOTS of points. </p><p> Other animals have less strong feelings. </p><p> These animals will make you win or lose small amounts of points. </p>","","0","instructions","","","","","","","","","","",""
"learning-instructions","68","407335","0.0-9.0-1.0-0.8","7240","2","25","Male","approach_avoid_spark_v1","""event"",""trial"",""time""
""fullscreenenter"",""1"",""1543""
","
","
","""event"",""trial"",""time""
""fullscreenenter"",""1"",""1543""
","
","","","","","","619.8999999761581","<p> If you choose to leave the animal alone, you will not win or lose any points. </p><p>  However, in the center of the screen, you will see the number of points you WOULD HAVE won or lost if you had pet the animal. </p>","","0","instructions","","","","","","","","","","",""
"learning-instructions","69","422660","0.0-9.0-1.0-0.9","7240","2","25","Male","approach_avoid_spark_v1","""event"",""trial"",""time""
""fullscreenenter"",""1"",""1543""
","
","
","""event"",""trial"",""time""
""fullscreenenter"",""1"",""1543""
","
","","","","","","3655.9000000953674","<p> Here is what you might see if you did not pet the animal but the animal wanted to be pet: </p><p style=""color:grey; font-size:50px; display: inline-block; border-spacing: 15px; border-width:3px; border-style:solid; border-color:red"">  &nbsp; 6 &nbsp; </p><p> Remember, in this case, you would not win or lose ANY points because you did not pet the animal.  </p>","","0","instructions","","","","","","","","","","",""
"learning-instructions","70","430607","0.0-9.0-1.0-0.10","7240","2","25","Male","approach_avoid_spark_v1","""event"",""trial"",""time""
""fullscreenenter"",""1"",""1543""
","
","
","""event"",""trial"",""time""
""fullscreenenter"",""1"",""1543""
","
","","","","","","462.5","<p> Try to make the best choice for each animal because </p><p> at the end of the game, you will earn bonus money based on how many points you earned. </p>","","0","instructions","","","","","","","","","","",""
"learning-instructions","71","439373","0.0-9.0-1.0-0.11","7240","2","25","Male","approach_avoid_spark_v1","""event"",""trial"",""time""
""fullscreenenter"",""1"",""1543""
","
","
","""event"",""trial"",""time""
""fullscreenenter"",""1"",""1543""
","
","","","","","","579.2999999523163","<p> You will have 3 seconds to make each choice. Try to respond before time runs out! </p><p> You will lose 5 points each time you do not make a response. </p>","","0","instructions","","","","","","","","","","",""
"html-keyboard-response","72","439989","0.0-9.0-2.0-0.0","7240","2","25","Male","approach_avoid_spark_v1","""event"",""trial"",""time""
""fullscreenenter"",""1"",""1543""
","
","
","""event"",""trial"",""time""
""fullscreenenter"",""1"",""1543""
","
","","","","","","null","<div style=""font-size:60px;"">+</div>","null","","fixation","","","","","","","","","","",""
"aa-learning-trial","73","442997","0.0-9.0-2.0-1.0","7240","2","25","Male","approach_avoid_spark_v1","""event"",""trial"",""time""
""fullscreenenter"",""1"",""1543""
","
","
","""event"",""trial"",""time""
""fullscreenenter"",""1"",""1543""
","
","","","","","","787.6000000238419","images/rodent1.png","","","learning","-6","-6","1","1","rodent","pets","2","0","","neutral","0"
"html-keyboard-response","74","443501","0.0-9.0-2.0-0.1","7240","2","25","Male","approach_avoid_spark_v1","""event"",""trial"",""time""
""fullscreenenter"",""1"",""1543""
","
","
","""event"",""trial"",""time""
""fullscreenenter"",""1"",""1543""
","
","","","","","","null","<div style=""font-size:60px;"">+</div>","null","","fixation","","","","","","","","","","",""
"aa-learning-trial","75","446509","0.0-9.0-2.0-1.1","7240","2","25","Male","approach_avoid_spark_v1","""event"",""trial"",""time""
""fullscreenenter"",""1"",""1543""
","
","
","""event"",""trial"",""time""
""fullscreenenter"",""1"",""1543""
","
","","","","","","860.0999999046326","images/rodent5.png","","","learning","6","0","0","0","rodent","pets","2","0","","neutral","0"
"html-keyboard-response","76","447014","0.0-9.0-2.0-0.2","7240","2","25","Male","approach_avoid_spark_v1","""event"",""trial"",""time""
""fullscreenenter"",""1"",""1543""
","
","
","""event"",""trial"",""time""
""fullscreenenter"",""1"",""1543""
","
","","","","","","null","<div style=""font-size:60px;"">+</div>","null","","fixation","","","","","","","","","","",""
"aa-learning-trial","77","450021","0.0-9.0-2.0-1.2","7240","2","25","Male","approach_avoid_spark_v1","""event"",""trial"",""time""
""fullscreenenter"",""1"",""1543""
","
","
","""event"",""trial"",""time""
""fullscreenenter"",""1"",""1543""
","
","","","","","","687.7999999523163","images/dog5.png","","","learning","8","8","1","1","dog","pets","2","0","","bad","[-6]"
"html-keyboard-response","78","450526","0.0-9.0-2.0-0.3","7240","2","25","Male","approach_avoid_spark_v1","""event"",""trial"",""time""
""fullscreenenter"",""1"",""1543""
","
","
","""event"",""trial"",""time""
""fullscreenenter"",""1"",""1543""
","
","","","","","","null","<div style=""font-size:60px;"">+</div>","null","","fixation","","","","","","","","","","",""
"aa-learning-trial","79","453533","0.0-9.0-2.0-1.3","7240","2","25","Male","approach_avoid_spark_v1","""event"",""trial"",""time""
""fullscreenenter"",""1"",""1543""
","
","
","""event"",""trial"",""time""
""fullscreenenter"",""1"",""1543""
","
","","","","","","933.1999999284744","images/cat2.png","","","learning","9","9","1","1","cat","pets","2","0","","good","[4]"
"html-keyboard-response","80","454038","0.0-9.0-2.0-0.4","7240","2","25","Male","approach_avoid_spark_v1","""event"",""trial"",""time""
""fullscreenenter"",""1"",""1543""
","
","
","""event"",""trial"",""time""
""fullscreenenter"",""1"",""1543""
","
","","","","","","null","<div style=""font-size:60px;"">+</div>","null","","fixation","","","","","","","","","","",""
"aa-learning-trial","81","457045","0.0-9.0-2.0-1.4","7240","2","25","Male","approach_avoid_spark_v1","""event"",""trial"",""time""
""fullscreenenter"",""1"",""1543""
","
","
","""event"",""trial"",""time""
""fullscreenenter"",""1"",""1543""
","
","","","","","","613","images/cat1.png","","","learning","-8","-8","1","1","cat","pets","2","0","","good","[4]"
"html-keyboard-response","82","457550","0.0-9.0-2.0-0.5","7240","2","25","Male","approach_avoid_spark_v1","""event"",""trial"",""time""
""fullscreenenter"",""1"",""1543""
","
","
","""event"",""trial"",""time""
""fullscreenenter"",""1"",""1543""
","
","","","","","","null","<div style=""font-size:60px;"">+</div>","null","","fixation","","","","","","","","","","",""
"aa-learning-trial","83","460557","0.0-9.0-2.0-1.5","7240","2","25","Male","approach_avoid_spark_v1","""event"",""trial"",""time""
""fullscreenenter"",""1"",""1543""
","
","
","""event"",""trial"",""time""
""fullscreenenter"",""1"",""1543""
","
","","","","","","773.5","images/dog7.png","","","learning","-7","-7","1","1","dog","pets","2","0","","bad","[-6]"
"html-keyboard-response","84","461062","0.0-9.0-2.0-0.6","7240","2","25","Male","approach_avoid_spark_v1","""event"",""trial"",""time""
""fullscreenenter"",""1"",""1543""
","
","
","""event"",""trial"",""time""
""fullscreenenter"",""1"",""1543""
","
","","","","","","null","<div style=""font-size:60px;"">+</div>","null","","fixation","","","","","","","","","","",""
"aa-learning-trial","85","464069","0.0-9.0-2.0-1.6","7240","2","25","Male","approach_avoid_spark_v1","""event"",""trial"",""time""
""fullscreenenter"",""1"",""1543""
","
","
","""event"",""trial"",""time""
""fullscreenenter"",""1"",""1543""
","
","","","","","","763.1000000238419","images/dog8.png","","","learning","-3","-3","1","1","dog","pets","2","0","","bad","[-6]"
"html-keyboard-response","86","464574","0.0-9.0-2.0-0.7","7240","2","25","Male","approach_avoid_spark_v1","""event"",""trial"",""time""
""fullscreenenter"",""1"",""1543""
","
","
","""event"",""trial"",""time""
""fullscreenenter"",""1"",""1543""
","
","","","","","","null","<div style=""font-size:60px;"">+</div>","null","","fixation","","","","","","","","","","",""
"aa-learning-trial","87","467581","0.0-9.0-2.0-1.7","7240","2","25","Male","approach_avoid_spark_v1","""event"",""trial"",""time""
""fullscreenenter"",""1"",""1543""
","
","
","""event"",""trial"",""time""
""fullscreenenter"",""1"",""1543""
","
","","","","","","667.7000000476837","images/rodent4.png","","","learning","-4","0","0","0","rodent","pets","2","0","","neutral","0"
"html-keyboard-response","88","468086","0.0-9.0-2.0-0.8","7240","2","25","Male","approach_avoid_spark_v1","""event"",""trial"",""time""
""fullscreenenter"",""1"",""1543""
","
","
","""event"",""trial"",""time""
""fullscreenenter"",""1"",""1543""
","
","","","","","","null","<div style=""font-size:60px;"">+</div>","null","","fixation","","","","","","","","","","",""
"aa-learning-trial","89","471095","0.0-9.0-2.0-1.8","7240","2","25","Male","approach_avoid_spark_v1","""event"",""trial"",""time""
""fullscreenenter"",""1"",""1543""
","
","
","""event"",""trial"",""time""
""fullscreenenter"",""1"",""1543""
","
","","","","","","1507.8999999761581","images/cat4.png","","","learning","-5","0","0","0","cat","pets","2","0","","good","[4]"
"html-keyboard-response","90","471605","0.0-9.0-2.0-0.9","7240","2","25","Male","approach_avoid_spark_v1","""event"",""trial"",""time""
""fullscreenenter"",""1"",""1543""
","
","
","""event"",""trial"",""time""
""fullscreenenter"",""1"",""1543""
","
","","","","","","null","<div style=""font-size:60px;"">+</div>","null","","fixation","","","","","","","","","","",""
"aa-learning-trial","91","474613","0.0-9.0-2.0-1.9","7240","2","25","Male","approach_avoid_spark_v1","""event"",""trial"",""time""
""fullscreenenter"",""1"",""1543""
","
","
","""event"",""trial"",""time""
""fullscreenenter"",""1"",""1543""
","
","","","","","","957.8999999761581","images/dog5.png","","","learning","8","8","1","1","dog","pets","2","0","","bad","[-6]"
"html-keyboard-response","92","475118","0.0-9.0-2.0-0.10","7240","2","25","Male","approach_avoid_spark_v1","""event"",""trial"",""time""
""fullscreenenter"",""1"",""1543""
","
","
","""event"",""trial"",""time""
""fullscreenenter"",""1"",""1543""
","
","","","","","","null","<div style=""font-size:60px;"">+</div>","null","","fixation","","","","","","","","","","",""
"aa-learning-trial","93","478125","0.0-9.0-2.0-1.10","7240","2","25","Male","approach_avoid_spark_v1","""event"",""trial"",""time""
""fullscreenenter"",""1"",""1543""
","
","
","""event"",""trial"",""time""
""fullscreenenter"",""1"",""1543""
","
","","","","","","847","images/rodent5.png","","","learning","6","6","1","1","rodent","pets","2","0","","neutral","0"
"html-keyboard-response","94","478630","0.0-9.0-2.0-0.11","7240","2","25","Male","approach_avoid_spark_v1","""event"",""trial"",""time""
""fullscreenenter"",""1"",""1543""
","
","
","""event"",""trial"",""time""
""fullscreenenter"",""1"",""1543""
","
","","","","","","null","<div style=""font-size:60px;"">+</div>","null","","fixation","","","","","","","","","","",""
"aa-learning-trial","95","481637","0.0-9.0-2.0-1.11","7240","2","25","Male","approach_avoid_spark_v1","""event"",""trial"",""time""
""fullscreenenter"",""1"",""1543""
","
","
","""event"",""trial"",""time""
""fullscreenenter"",""1"",""1543""
","
","","","","","","943","images/cat4.png","","","learning","-5","-5","1","1","cat","pets","2","0","","good","[4]"
"html-keyboard-response","96","482142","0.0-9.0-2.0-0.12","7240","2","25","Male","approach_avoid_spark_v1","""event"",""trial"",""time""
""fullscreenenter"",""1"",""1543""
","
","
","""event"",""trial"",""time""
""fullscreenenter"",""1"",""1543""
","
","","","","","","null","<div style=""font-size:60px;"">+</div>","null","","fixation","","","","","","","","","","",""
"aa-learning-trial","97","485149","0.0-9.0-2.0-1.12","7240","2","25","Male","approach_avoid_spark_v1","""event"",""trial"",""time""
""fullscreenenter"",""1"",""1543""
","
","
","""event"",""trial"",""time""
""fullscreenenter"",""1"",""1543""
","
","","","","","","701.8999999761581","images/dog8.png","","","learning","-3","-3","1","1","dog","pets","2","0","","bad","[-6]"
"html-keyboard-response","98","485654","0.0-9.0-2.0-0.13","7240","2","25","Male","approach_avoid_spark_v1","""event"",""trial"",""time""
""fullscreenenter"",""1"",""1543""
","
","
","""event"",""trial"",""time""
""fullscreenenter"",""1"",""1543""
","
","","","","","","null","<div style=""font-size:60px;"">+</div>","null","","fixation","","","","","","","","","","",""
"aa-learning-trial","99","488661","0.0-9.0-2.0-1.13","7240","2","25","Male","approach_avoid_spark_v1","""event"",""trial"",""time""
""fullscreenenter"",""1"",""1543""
","
","
","""event"",""trial"",""time""
""fullscreenenter"",""1"",""1543""
","
","","","","","","730.2000000476837","images/rodent1.png","","","learning","-6","0","0","0","rodent","pets","2","0","","neutral","0"
"html-keyboard-response","100","489166","0.0-9.0-2.0-0.14","7240","2","25","Male","approach_avoid_spark_v1","""event"",""trial"",""time""
""fullscreenenter"",""1"",""1543""
","
","
","""event"",""trial"",""time""
""fullscreenenter"",""1"",""1543""
","
","","","","","","null","<div style=""font-size:60px;"">+</div>","null","","fixation","","","","","","","","","","",""
"aa-learning-trial","101","492173","0.0-9.0-2.0-1.14","7240","2","25","Male","approach_avoid_spark_v1","""event"",""trial"",""time""
""fullscreenenter"",""1"",""1543""
","
","
","""event"",""trial"",""time""
""fullscreenenter"",""1"",""1543""
","
","","","","","","786","images/cat2.png","","","learning","9","9","1","1","cat","pets","2","0","","good","[4]"
"html-keyboard-response","102","492678","0.0-9.0-2.0-0.15","7240","2","25","Male","approach_avoid_spark_v1","""event"",""trial"",""time""
""fullscreenenter"",""1"",""1543""
","
","
","""event"",""trial"",""time""
""fullscreenenter"",""1"",""1543""
","
","","","","","","null","<div style=""font-size:60px;"">+</div>","null","","fixation","","","","","","","","","","",""
"aa-learning-trial","103","495685","0.0-9.0-2.0-1.15","7240","2","25","Male","approach_avoid_spark_v1","""event"",""trial"",""time""
""fullscreenenter"",""1"",""1543""
","
","
","""event"",""trial"",""time""
""fullscreenenter"",""1"",""1543""
","
","","","","","","717.3000000715256","images/cat2.png","","","learning","9","9","1","1","cat","pets","2","0","","good","[4]"
"html-keyboard-response","104","496188","0.0-9.0-2.0-0.16","7240","2","25","Male","approach_avoid_spark_v1","""event"",""trial"",""time""
""fullscreenenter"",""1"",""1543""
","
","
","""event"",""trial"",""time""
""fullscreenenter"",""1"",""1543""
","
","","","","","","null","<div style=""font-size:60px;"">+</div>","null","","fixation","","","","","","","","","","",""
"aa-learning-trial","105","499197","0.0-9.0-2.0-1.16","7240","2","25","Male","approach_avoid_spark_v1","""event"",""trial"",""time""
""fullscreenenter"",""1"",""1543""
","
","
","""event"",""trial"",""time""
""fullscreenenter"",""1"",""1543""
","
","","","","","","673.1000000238419","images/cat4.png","","","learning","-5","-5","1","1","cat","pets","2","0","","good","[4]"
"html-keyboard-response","106","499702","0.0-9.0-2.0-0.17","7240","2","25","Male","approach_avoid_spark_v1","""event"",""trial"",""time""
""fullscreenenter"",""1"",""1543""
","
","
","""event"",""trial"",""time""
""fullscreenenter"",""1"",""1543""
","
","","","","","","null","<div style=""font-size:60px;"">+</div>","null","","fixation","","","","","","","","","","",""
"aa-learning-trial","107","502710","0.0-9.0-2.0-1.17","7240","2","25","Male","approach_avoid_spark_v1","""event"",""trial"",""time""
""fullscreenenter"",""1"",""1543""
","
","
","""event"",""trial"",""time""
""fullscreenenter"",""1"",""1543""
","
","","","","","","758.6000000238419","images/dog5.png","","","learning","8","8","1","1","dog","pets","2","0","","bad","[-6]"
"html-keyboard-response","108","503215","0.0-9.0-2.0-0.18","7240","2","25","Male","approach_avoid_spark_v1","""event"",""trial"",""time""
""fullscreenenter"",""1"",""1543""
","
","
","""event"",""trial"",""time""
""fullscreenenter"",""1"",""1543""
","
","","","","","","null","<div style=""font-size:60px;"">+</div>","null","","fixation","","","","","","","","","","",""
"aa-learning-trial","109","506222","0.0-9.0-2.0-1.18","7240","2","25","Male","approach_avoid_spark_v1","""event"",""trial"",""time""
""fullscreenenter"",""1"",""1543""
","
","
","""event"",""trial"",""time""
""fullscreenenter"",""1"",""1543""
","
","","","","","","834.2000000476837","images/dog8.png","","","learning","-3","-3","1","1","dog","pets","2","0","","bad","[-6]"
"html-keyboard-response","110","506727","0.0-9.0-2.0-0.19","7240","2","25","Male","approach_avoid_spark_v1","""event"",""trial"",""time""
""fullscreenenter"",""1"",""1543""
","
","
","""event"",""trial"",""time""
""fullscreenenter"",""1"",""1543""
","
","","","","","","null","<div style=""font-size:60px;"">+</div>","null","","fixation","","","","","","","","","","",""
"aa-learning-trial","111","509734","0.0-9.0-2.0-1.19","7240","2","25","Male","approach_avoid_spark_v1","""event"",""trial"",""time""
""fullscreenenter"",""1"",""1543""
","
","
","""event"",""trial"",""time""
""fullscreenenter"",""1"",""1543""
","
","","","","","","1046.8999999761581","images/rodent1.png","","","learning","-6","-6","1","1","rodent","pets","2","0","","neutral","0"
"html-keyboard-response","112","510239","0.0-9.0-2.0-0.20","7240","2","25","Male","approach_avoid_spark_v1","""event"",""trial"",""time""
""fullscreenenter"",""1"",""1543""
","
","
","""event"",""trial"",""time""
""fullscreenenter"",""1"",""1543""
","
","","","","","","null","<div style=""font-size:60px;"">+</div>","null","","fixation","","","","","","","","","","",""
"aa-learning-trial","113","513246","0.0-9.0-2.0-1.20","7240","2","25","Male","approach_avoid_spark_v1","""event"",""trial"",""time""
""fullscreenenter"",""1"",""1543""
","
","
","""event"",""trial"",""time""
""fullscreenenter"",""1"",""1543""
","
","","","","","","1018.5","images/rodent5.png","","","learning","6","6","1","1","rodent","pets","2","0","","neutral","0"
"html-keyboard-response","114","513751","0.0-9.0-2.0-0.21","7240","2","25","Male","approach_avoid_spark_v1","""event"",""trial"",""time""
""fullscreenenter"",""1"",""1543""
","
","
","""event"",""trial"",""time""
""fullscreenenter"",""1"",""1543""
","
","","","","","","null","<div style=""font-size:60px;"">+</div>","null","","fixation","","","","","","","","","","",""
"aa-learning-trial","115","516758","0.0-9.0-2.0-1.21","7240","2","25","Male","approach_avoid_spark_v1","""event"",""trial"",""time""
""fullscreenenter"",""1"",""1543""
","
","
","""event"",""trial"",""time""
""fullscreenenter"",""1"",""1543""
","
","","","","","","1243.2999999523163","images/rodent3.png","","","learning","1","1","1","1","rodent","pets","2","0","","neutral","0"
"html-keyboard-response","116","517263","0.0-9.0-2.0-0.22","7240","2","25","Male","approach_avoid_spark_v1","""event"",""trial"",""time""
""fullscreenenter"",""1"",""1543""
","
","
","""event"",""trial"",""time""
""fullscreenenter"",""1"",""1543""
","
","","","","","","null","<div style=""font-size:60px;"">+</div>","null","","fixation","","","","","","","","","","",""
"aa-learning-trial","117","520270","0.0-9.0-2.0-1.22","7240","2","25","Male","approach_avoid_spark_v1","""event"",""trial"",""time""
""fullscreenenter"",""1"",""1543""
","
","
","""event"",""trial"",""time""
""fullscreenenter"",""1"",""1543""
","
","","","","","","1227.1000000238419","images/dog5.png","","","learning","8","0","0","0","dog","pets","2","0","","bad","[-6]"
"html-keyboard-response","118","520775","0.0-9.0-2.0-0.23","7240","2","25","Male","approach_avoid_spark_v1","""event"",""trial"",""time""
""fullscreenenter"",""1"",""1543""
","
","
","""event"",""trial"",""time""
""fullscreenenter"",""1"",""1543""
","
","","","","","","null","<div style=""font-size:60px;"">+</div>","null","","fixation","","","","","","","","","","",""
"aa-learning-trial","119","523782","0.0-9.0-2.0-1.23","7240","2","25","Male","approach_avoid_spark_v1","""event"",""trial"",""time""
""fullscreenenter"",""1"",""1543""
","
","
","""event"",""trial"",""time""
""fullscreenenter"",""1"",""1543""
","
","","","","","","1036","images/rodent1.png","","","learning","-6","-6","1","1","rodent","pets","2","0","","neutral","0"
"html-keyboard-response","120","524285","0.0-9.0-2.0-0.24","7240","2","25","Male","approach_avoid_spark_v1","""event"",""trial"",""time""
""fullscreenenter"",""1"",""1543""
","
","
","""event"",""trial"",""time""
""fullscreenenter"",""1"",""1543""
","
","","","","","","null","<div style=""font-size:60px;"">+</div>","null","","fixation","","","","","","","","","","",""
"aa-learning-trial","121","527294","0.0-9.0-2.0-1.24","7240","2","25","Male","approach_avoid_spark_v1","""event"",""trial"",""time""
""fullscreenenter"",""1"",""1543""
","
","
","""event"",""trial"",""time""
""fullscreenenter"",""1"",""1543""
","
","","","","","","1350.1000000238419","images/cat3.png","","","learning","5","5","1","1","cat","pets","2","0","","good","[4]"
"html-keyboard-response","122","527799","0.0-9.0-2.0-0.25","7240","2","25","Male","approach_avoid_spark_v1","""event"",""trial"",""time""
""fullscreenenter"",""1"",""1543""
","
","
","""event"",""trial"",""time""
""fullscreenenter"",""1"",""1543""
","
","","","","","","null","<div style=""font-size:60px;"">+</div>","null","","fixation","","","","","","","","","","",""
"aa-learning-trial","123","530807","0.0-9.0-2.0-1.25","7240","2","25","Male","approach_avoid_spark_v1","""event"",""trial"",""time""
""fullscreenenter"",""1"",""1543""
","
","
","""event"",""trial"",""time""
""fullscreenenter"",""1"",""1543""
","
","","","","","","806.5","images/dog6.png","","","learning","-2","-2","1","1","dog","pets","2","0","","bad","[-6]"
"html-keyboard-response","124","531311","0.0-9.0-2.0-0.26","7240","2","25","Male","approach_avoid_spark_v1","""event"",""trial"",""time""
""fullscreenenter"",""1"",""1543""
","
","
","""event"",""trial"",""time""
""fullscreenenter"",""1"",""1543""
","
","","","","","","null","<div style=""font-size:60px;"">+</div>","null","","fixation","","","","","","","","","","",""
"aa-learning-trial","125","534319","0.0-9.0-2.0-1.26","7240","2","25","Male","approach_avoid_spark_v1","""event"",""trial"",""time""
""fullscreenenter"",""1"",""1543""
","
","
","""event"",""trial"",""time""
""fullscreenenter"",""1"",""1543""
","
","","","","","","1303.6999999284744","images/cat2.png","","","learning","9","9","1","1","cat","pets","2","0","","good","[4]"
"html-keyboard-response","126","534824","0.0-9.0-2.0-0.27","7240","2","25","Male","approach_avoid_spark_v1","""event"",""trial"",""time""
""fullscreenenter"",""1"",""1543""
","
","
","""event"",""trial"",""time""
""fullscreenenter"",""1"",""1543""
","
","","","","","","null","<div style=""font-size:60px;"">+</div>","null","","fixation","","","","","","","","","","",""
"aa-learning-trial","127","537831","0.0-9.0-2.0-1.27","7240","2","25","Male","approach_avoid_spark_v1","""event"",""trial"",""time""
""fullscreenenter"",""1"",""1543""
","
","
","""event"",""trial"",""time""
""fullscreenenter"",""1"",""1543""
","
","","","","","","1287.0999999046326","images/cat1.png","","","learning","-8","0","0","0","cat","pets","2","0","","good","[4]"
"html-keyboard-response","128","538336","0.0-9.0-2.0-0.28","7240","2","25","Male","approach_avoid_spark_v1","""event"",""trial"",""time""
""fullscreenenter"",""1"",""1543""
","
","
","""event"",""trial"",""time""
""fullscreenenter"",""1"",""1543""
","
","","","","","","null","<div style=""font-size:60px;"">+</div>","null","","fixation","","","","","","","","","","",""
"aa-learning-trial","129","541343","0.0-9.0-2.0-1.28","7240","2","25","Male","approach_avoid_spark_v1","""event"",""trial"",""time""
""fullscreenenter"",""1"",""1543""
","
","
","""event"",""trial"",""time""
""fullscreenenter"",""1"",""1543""
","
","","","","","","1183.6999999284744","images/dog8.png","","","learning","-3","0","0","0","dog","pets","2","0","","bad","[-6]"
"html-keyboard-response","130","541848","0.0-9.0-2.0-0.29","7240","2","25","Male","approach_avoid_spark_v1","""event"",""trial"",""time""
""fullscreenenter"",""1"",""1543""
","
","
","""event"",""trial"",""time""
""fullscreenenter"",""1"",""1543""
","
","","","","","","null","<div style=""font-size:60px;"">+</div>","null","","fixation","","","","","","","","","","",""
"aa-learning-trial","131","544855","0.0-9.0-2.0-1.29","7240","2","25","Male","approach_avoid_spark_v1","""event"",""trial"",""time""
""fullscreenenter"",""1"",""1543""
","
","
","""event"",""trial"",""time""
""fullscreenenter"",""1"",""1543""
","
","","","","","","975.8999999761581","images/dog7.png","","","learning","-7","-7","1","1","dog","pets","2","0","","bad","[-6]"
"html-keyboard-response","132","545360","0.0-9.0-2.0-0.30","7240","2","25","Male","approach_avoid_spark_v1","""event"",""trial"",""time""
""fullscreenenter"",""1"",""1543""
","
","
","""event"",""trial"",""time""
""fullscreenenter"",""1"",""1543""
","
","","","","","","null","<div style=""font-size:60px;"">+</div>","null","","fixation","","","","","","","","","","",""
"aa-learning-trial","133","548367","0.0-9.0-2.0-1.30","7240","2","25","Male","approach_avoid_spark_v1","""event"",""trial"",""time""
""fullscreenenter"",""1"",""1543""
","
","
","""event"",""trial"",""time""
""fullscreenenter"",""1"",""1543""
","
","","","","","","1495.1000000238419","images/dog5.png","","","learning","8","0","0","0","dog","pets","2","0","","bad","[-6]"
"html-keyboard-response","134","548872","0.0-9.0-2.0-0.31","7240","2","25","Male","approach_avoid_spark_v1","""event"",""trial"",""time""
""fullscreenenter"",""1"",""1543""
","
","
","""event"",""trial"",""time""
""fullscreenenter"",""1"",""1543""
","
","","","","","","null","<div style=""font-size:60px;"">+</div>","null","","fixation","","","","","","","","","","",""
"aa-learning-trial","135","551879","0.0-9.0-2.0-1.31","7240","2","25","Male","approach_avoid_spark_v1","""event"",""trial"",""time""
""fullscreenenter"",""1"",""1543""
","
","
","""event"",""trial"",""time""
""fullscreenenter"",""1"",""1543""
","
","","","","","","1043.1000000238419","images/cat4.png","","","learning","-5","0","0","0","cat","pets","2","0","","good","[4]"
"html-keyboard-response","136","552384","0.0-9.0-2.0-0.32","7240","2","25","Male","approach_avoid_spark_v1","""event"",""trial"",""time""
""fullscreenenter"",""1"",""1543""
","
","
","""event"",""trial"",""time""
""fullscreenenter"",""1"",""1543""
","
","","","","","","null","<div style=""font-size:60px;"">+</div>","null","","fixation","","","","","","","","","","",""
"aa-learning-trial","137","555391","0.0-9.0-2.0-1.32","7240","2","25","Male","approach_avoid_spark_v1","""event"",""trial"",""time""
""fullscreenenter"",""1"",""1543""
","
","
","""event"",""trial"",""time""
""fullscreenenter"",""1"",""1543""
","
","","","","","","1610","images/dog8.png","","","learning","-3","-3","1","1","dog","pets","2","0","","bad","[-6]"
"html-keyboard-response","138","555896","0.0-9.0-2.0-0.33","7240","2","25","Male","approach_avoid_spark_v1","""event"",""trial"",""time""
""fullscreenenter"",""1"",""1543""
","
","
","""event"",""trial"",""time""
""fullscreenenter"",""1"",""1543""
","
","","","","","","null","<div style=""font-size:60px;"">+</div>","null","","fixation","","","","","","","","","","",""
"aa-learning-trial","139","558904","0.0-9.0-2.0-1.33","7240","2","25","Male","approach_avoid_spark_v1","""event"",""trial"",""time""
""fullscreenenter"",""1"",""1543""
","
","
","""event"",""trial"",""time""
""fullscreenenter"",""1"",""1543""
","
","","","","","","1121.5999999046326","images/rodent4.png","","","learning","-4","-4","1","1","rodent","pets","2","0","","neutral","0"
"html-keyboard-response","140","559408","0.0-9.0-2.0-0.34","7240","2","25","Male","approach_avoid_spark_v1","""event"",""trial"",""time""
""fullscreenenter"",""1"",""1543""
","
","
","""event"",""trial"",""time""
""fullscreenenter"",""1"",""1543""
","
","","","","","","null","<div style=""font-size:60px;"">+</div>","null","","fixation","","","","","","","","","","",""
"aa-learning-trial","141","562414","0.0-9.0-2.0-1.34","7240","2","25","Male","approach_avoid_spark_v1","""event"",""trial"",""time""
""fullscreenenter"",""1"",""1543""
","
","
","""event"",""trial"",""time""
""fullscreenenter"",""1"",""1543""
","
","","","","","","921.4000000953674","images/dog2.png","","","learning","4","4","1","1","dog","pets","2","0","","bad","[-6]"
"html-keyboard-response","142","562920","0.0-9.0-2.0-0.35","7240","2","25","Male","approach_avoid_spark_v1","""event"",""trial"",""time""
""fullscreenenter"",""1"",""1543""
","
","
","""event"",""trial"",""time""
""fullscreenenter"",""1"",""1543""
","
","","","","","","null","<div style=""font-size:60px;"">+</div>","null","","fixation","","","","","","","","","","",""
"aa-learning-trial","143","565928","0.0-9.0-2.0-1.35","7240","2","25","Male","approach_avoid_spark_v1","""event"",""trial"",""time""
""fullscreenenter"",""1"",""1543""
","
","
","""event"",""trial"",""time""
""fullscreenenter"",""1"",""1543""
","
","","","","","","993.1000000238419","images/cat4.png","","","learning","-5","0","0","0","cat","pets","2","0","","good","[4]"
"html-keyboard-response","144","566430","0.0-9.0-2.0-0.36","7240","2","25","Male","approach_avoid_spark_v1","""event"",""trial"",""time""
""fullscreenenter"",""1"",""1543""
","
","
","""event"",""trial"",""time""
""fullscreenenter"",""1"",""1543""
","
","","","","","","null","<div style=""font-size:60px;"">+</div>","null","","fixation","","","","","","","","","","",""
"aa-learning-trial","145","569440","0.0-9.0-2.0-1.36","7240","2","25","Male","approach_avoid_spark_v1","""event"",""trial"",""time""
""fullscreenenter"",""1"",""1543""
","
","
","""event"",""trial"",""time""
""fullscreenenter"",""1"",""1543""
","
","","","","","","836.7000000476837","images/dog5.png","","","learning","8","8","1","1","dog","pets","2","0","","bad","[-6]"
"html-keyboard-response","146","569945","0.0-9.0-2.0-0.37","7240","2","25","Male","approach_avoid_spark_v1","""event"",""trial"",""time""
""fullscreenenter"",""1"",""1543""
","
","
","""event"",""trial"",""time""
""fullscreenenter"",""1"",""1543""
","
","","","","","","null","<div style=""font-size:60px;"">+</div>","null","","fixation","","","","","","","","","","",""
"aa-learning-trial","147","572952","0.0-9.0-2.0-1.37","7240","2","25","Male","approach_avoid_spark_v1","""event"",""trial"",""time""
""fullscreenenter"",""1"",""1543""
","
","
","""event"",""trial"",""time""
""fullscreenenter"",""1"",""1543""
","
","","","","","","1424.5","images/dog7.png","","","learning","-7","0","0","0","dog","pets","2","0","","bad","[-6]"
"html-keyboard-response","148","573457","0.0-9.0-2.0-0.38","7240","2","25","Male","approach_avoid_spark_v1","""event"",""trial"",""time""
""fullscreenenter"",""1"",""1543""
","
","
","""event"",""trial"",""time""
""fullscreenenter"",""1"",""1543""
","
","","","","","","null","<div style=""font-size:60px;"">+</div>","null","","fixation","","","","","","","","","","",""
"aa-learning-trial","149","576464","0.0-9.0-2.0-1.38","7240","2","25","Male","approach_avoid_spark_v1","""event"",""trial"",""time""
""fullscreenenter"",""1"",""1543""
","
","
","""event"",""trial"",""time""
""fullscreenenter"",""1"",""1543""
","
","","","","","","1709.2000000476837","images/cat4.png","","","learning","-5","0","0","0","cat","pets","2","0","","good","[4]"
"html-keyboard-response","150","576969","0.0-9.0-2.0-0.39","7240","2","25","Male","approach_avoid_spark_v1","""event"",""trial"",""time""
""fullscreenenter"",""1"",""1543""
","
","
","""event"",""trial"",""time""
""fullscreenenter"",""1"",""1543""
","
","","","","","","null","<div style=""font-size:60px;"">+</div>","null","","fixation","","","","","","","","","","",""
"aa-learning-trial","151","579976","0.0-9.0-2.0-1.39","7240","2","25","Male","approach_avoid_spark_v1","""event"",""trial"",""time""
""fullscreenenter"",""1"",""1543""
","
","
","""event"",""trial"",""time""
""fullscreenenter"",""1"",""1543""
","
","","","","","","805.7000000476837","images/rodent4.png","","","learning","-4","0","0","0","rodent","pets","2","0","","neutral","0"
"html-keyboard-response","152","580481","0.0-9.0-2.0-0.40","7240","2","25","Male","approach_avoid_spark_v1","""event"",""trial"",""time""
""fullscreenenter"",""1"",""1543""
","
","
","""event"",""trial"",""time""
""fullscreenenter"",""1"",""1543""
","
","","","","","","null","<div style=""font-size:60px;"">+</div>","null","","fixation","","","","","","","","","","",""
"aa-learning-trial","153","583488","0.0-9.0-2.0-1.40","7240","2","25","Male","approach_avoid_spark_v1","""event"",""trial"",""time""
""fullscreenenter"",""1"",""1543""
","
","
","""event"",""trial"",""time""
""fullscreenenter"",""1"",""1543""
","
","","","","","","1007.3000000715256","images/cat2.png","","","learning","9","9","1","1","cat","pets","2","0","","good","[4]"
"html-keyboard-response","154","583993","0.0-9.0-2.0-0.41","7240","2","25","Male","approach_avoid_spark_v1","""event"",""trial"",""time""
""fullscreenenter"",""1"",""1543""
","
","
","""event"",""trial"",""time""
""fullscreenenter"",""1"",""1543""
","
","","","","","","null","<div style=""font-size:60px;"">+</div>","null","","fixation","","","","","","","","","","",""
"aa-learning-trial","155","587000","0.0-9.0-2.0-1.41","7240","2","25","Male","approach_avoid_spark_v1","""event"",""trial"",""time""
""fullscreenenter"",""1"",""1543""
","
","
","""event"",""trial"",""time""
""fullscreenenter"",""1"",""1543""
","
","","","","","","1191","images/dog8.png","","","learning","-3","0","0","0","dog","pets","2","0","","bad","[-6]"
"html-keyboard-response","156","587505","0.0-9.0-2.0-0.42","7240","2","25","Male","approach_avoid_spark_v1","""event"",""trial"",""time""
""fullscreenenter"",""1"",""1543""
","
","
","""event"",""trial"",""time""
""fullscreenenter"",""1"",""1543""
","
","","","","","","null","<div style=""font-size:60px;"">+</div>","null","","fixation","","","","","","","","","","",""
"aa-learning-trial","157","590513","0.0-9.0-2.0-1.42","7240","2","25","Male","approach_avoid_spark_v1","""event"",""trial"",""time""
""fullscreenenter"",""1"",""1543""
","
","
","""event"",""trial"",""time""
""fullscreenenter"",""1"",""1543""
","
","","","","","","1239.2000000476837","images/cat5.png","","","learning","-1","-1","1","1","cat","pets","2","0","","good","[4]"
"html-keyboard-response","158","591018","0.0-9.0-2.0-0.43","7240","2","25","Male","approach_avoid_spark_v1","""event"",""trial"",""time""
""fullscreenenter"",""1"",""1543""
","
","
","""event"",""trial"",""time""
""fullscreenenter"",""1"",""1543""
","
","","","","","","null","<div style=""font-size:60px;"">+</div>","null","","fixation","","","","","","","","","","",""
"aa-learning-trial","159","594025","0.0-9.0-2.0-1.43","7240","2","25","Male","approach_avoid_spark_v1","""event"",""trial"",""time""
""fullscreenenter"",""1"",""1543""
","
","
","""event"",""trial"",""time""
""fullscreenenter"",""1"",""1543""
","
","","","","","","1034.3999999761581","images/rodent2.png","","","learning","3","3","1","1","rodent","pets","2","0","","neutral","0"
"html-keyboard-response","160","594530","0.0-9.0-2.0-0.44","7240","2","25","Male","approach_avoid_spark_v1","""event"",""trial"",""time""
""fullscreenenter"",""1"",""1543""
","
","
","""event"",""trial"",""time""
""fullscreenenter"",""1"",""1543""
","
","","","","","","null","<div style=""font-size:60px;"">+</div>","null","","fixation","","","","","","","","","","",""
"aa-learning-trial","161","597537","0.0-9.0-2.0-1.44","7240","2","25","Male","approach_avoid_spark_v1","""event"",""trial"",""time""
""fullscreenenter"",""1"",""1543""
","
","
","""event"",""trial"",""time""
""fullscreenenter"",""1"",""1543""
","
","","","","","","723.7999999523163","images/cat2.png","","","learning","9","9","1","1","cat","pets","2","0","","good","[4]"
"html-keyboard-response","162","598042","0.0-9.0-2.0-0.45","7240","2","25","Male","approach_avoid_spark_v1","""event"",""trial"",""time""
""fullscreenenter"",""1"",""1543""
","
","
","""event"",""trial"",""time""
""fullscreenenter"",""1"",""1543""
","
","","","","","","null","<div style=""font-size:60px;"">+</div>","null","","fixation","","","","","","","","","","",""
"aa-learning-trial","163","601049","0.0-9.0-2.0-1.45","7240","2","25","Male","approach_avoid_spark_v1","""event"",""trial"",""time""
""fullscreenenter"",""1"",""1543""
","
","
","""event"",""trial"",""time""
""fullscreenenter"",""1"",""1543""
","
","","","","","","931.7999999523163","images/rodent5.png","","","learning","6","0","0","0","rodent","pets","2","0","","neutral","0"
"html-keyboard-response","164","601554","0.0-9.0-2.0-0.46","7240","2","25","Male","approach_avoid_spark_v1","""event"",""trial"",""time""
""fullscreenenter"",""1"",""1543""
","
","
","""event"",""trial"",""time""
""fullscreenenter"",""1"",""1543""
","
","","","","","","null","<div style=""font-size:60px;"">+</div>","null","","fixation","","","","","","","","","","",""
"aa-learning-trial","165","604561","0.0-9.0-2.0-1.46","7240","2","25","Male","approach_avoid_spark_v1","""event"",""trial"",""time""
""fullscreenenter"",""1"",""1543""
","
","
","""event"",""trial"",""time""
""fullscreenenter"",""1"",""1543""
","
","","","","","","1196.2999999523163","images/rodent1.png","","","learning","-6","0","0","0","rodent","pets","2","0","","neutral","0"
"html-keyboard-response","166","605066","0.0-9.0-2.0-0.47","7240","2","25","Male","approach_avoid_spark_v1","""event"",""trial"",""time""
""fullscreenenter"",""1"",""1543""
","
","
","""event"",""trial"",""time""
""fullscreenenter"",""1"",""1543""
","
","","","","","","null","<div style=""font-size:60px;"">+</div>","null","","fixation","","","","","","","","","","",""
"aa-learning-trial","167","608073","0.0-9.0-2.0-1.47","7240","2","25","Male","approach_avoid_spark_v1","""event"",""trial"",""time""
""fullscreenenter"",""1"",""1543""
","
","
","""event"",""trial"",""time""
""fullscreenenter"",""1"",""1543""
","
","","","","","","1509.8999999761581","images/cat1.png","","","learning","-8","-8","1","1","cat","pets","2","0","","good","[4]"
"html-keyboard-response","168","608578","0.0-9.0-2.0-0.48","7240","2","25","Male","approach_avoid_spark_v1","""event"",""trial"",""time""
""fullscreenenter"",""1"",""1543""
","
","
","""event"",""trial"",""time""
""fullscreenenter"",""1"",""1543""
","
","","","","","","null","<div style=""font-size:60px;"">+</div>","null","","fixation","","","","","","","","","","",""
"aa-learning-trial","169","611585","0.0-9.0-2.0-1.48","7240","2","25","Male","approach_avoid_spark_v1","""event"",""trial"",""time""
""fullscreenenter"",""1"",""1543""
","
","
","""event"",""trial"",""time""
""fullscreenenter"",""1"",""1543""
","
","","","","","","831.3999999761581","images/rodent1.png","","","learning","-6","-6","1","1","rodent","pets","2","0","","neutral","0"
"html-keyboard-response","170","612090","0.0-9.0-2.0-0.49","7240","2","25","Male","approach_avoid_spark_v1","""event"",""trial"",""time""
""fullscreenenter"",""1"",""1543""
","
","
","""event"",""trial"",""time""
""fullscreenenter"",""1"",""1543""
","
","","","","","","null","<div style=""font-size:60px;"">+</div>","null","","fixation","","","","","","","","","","",""
"aa-learning-trial","171","615097","0.0-9.0-2.0-1.49","7240","2","25","Male","approach_avoid_spark_v1","""event"",""trial"",""time""
""fullscreenenter"",""1"",""1543""
","
","
","""event"",""trial"",""time""
""fullscreenenter"",""1"",""1543""
","
","","","","","","701.3999999761581","images/rodent5.png","","","learning","6","6","1","1","rodent","pets","2","0","","neutral","0"
"html-keyboard-response","172","615602","0.0-9.0-2.0-0.50","7240","2","25","Male","approach_avoid_spark_v1","""event"",""trial"",""time""
""fullscreenenter"",""1"",""1543""
","
","
","""event"",""trial"",""time""
""fullscreenenter"",""1"",""1543""
","
","","","","","","null","<div style=""font-size:60px;"">+</div>","null","","fixation","","","","","","","","","","",""
"aa-learning-trial","173","618610","0.0-9.0-2.0-1.50","7240","2","25","Male","approach_avoid_spark_v1","""event"",""trial"",""time""
""fullscreenenter"",""1"",""1543""
","
","
","""event"",""trial"",""time""
""fullscreenenter"",""1"",""1543""
","
","","","","","","549.7999999523163","images/rodent5.png","","","learning","6","6","1","1","rodent","pets","2","0","","neutral","0"
"html-button-response","174","620633","0.0-9.0-3.0","7240","2","25","Male","approach_avoid_spark_v1","""event"",""trial"",""time""
""fullscreenenter"",""1"",""1543""
","
","
","""event"",""trial"",""time""
""fullscreenenter"",""1"",""1543""
","
","","","","","","2021.7000000476837","<p> You have completed the round! <p> In this round, you earned 40 points! </p>","0","","break","","","","","","","","","","",""
"html-button-response","175","621673","0.0-10.0","7240","2","25","Male","approach_avoid_spark_v1","""event"",""trial"",""time""
""fullscreenenter"",""1"",""1543""
","
","
","""event"",""trial"",""time""
""fullscreenenter"",""1"",""1543""
","
","","","","","","1039.2000000476837","<p> Now it's time to play another round. </p>","0","","transition_screen","","","","","","","","","","",""
"preload","176","621796","0.0-11.0-0.0","7240","2","25","Male","approach_avoid_spark_v1","""event"",""trial"",""time""
""fullscreenenter"",""1"",""1543""
","
","
","""event"",""trial"",""time""
""fullscreenenter"",""1"",""1543""
","
","true","false","[]","[]","[]","","","","","","","","","","","","","","","",""
"learning-instructions","177","627258","0.0-11.0-1.0-0.0","7240","2","25","Male","approach_avoid_spark_v1","""event"",""trial"",""time""
""fullscreenenter"",""1"",""1543""
","
","
","""event"",""trial"",""time""
""fullscreenenter"",""1"",""1543""
","
","","","","","","1412.5999999046326","<p> Your goal in this round is to eat tasty fruit. </p></div>","","0","instructions","","","","","","","","","","",""
"learning-instructions","178","638069","0.0-11.0-1.0-0.1","7240","2","25","Male","approach_avoid_spark_v1","""event"",""trial"",""time""
""fullscreenenter"",""1"",""1543""
","
","
","""event"",""trial"",""time""
""fullscreenenter"",""1"",""1543""
","
","","","","","","1013.1999999284744","<p> Some of the fruits you will see are tasty. Others are rotten on the inside.  </p><p> On each turn, you will see a fruit.   </p><p> You need to decide whether to eat it or not.  </p>","","0","instructions","","","","","","","","","","",""
"learning-instructions","179","644032","0.0-11.0-1.0-0.2","7240","2","25","Male","approach_avoid_spark_v1","""event"",""trial"",""time""
""fullscreenenter"",""1"",""1543""
","
","
","""event"",""trial"",""time""
""fullscreenenter"",""1"",""1543""
","
","","","","","","938.1999999284744","<p> You can eat the fruit by pressing 1 and choose not to eat it by pressing 0. </p><br><div class=""choice-instructions-grid""> <div class=""choice-option""><img src=""images/approach.png"" class=""choice-option-img"" stage=""instructions"" position=""0"" ><div class=""choice-option-text""> Press ""1."" </div></div><div class=""choice-option""><img src=""images/avoid.png"" class=""choice-option-img"" stage=""instructions"" position=""1"" ><div class=""choice-option-text""> Press ""0."" </div></div>","","0","instructions","","","","","","","","","","",""
"learning-instructions","180","652429","0.0-11.0-1.0-0.3","7240","2","25","Male","approach_avoid_spark_v1","""event"",""trial"",""time""
""fullscreenenter"",""1"",""1543""
","
","
","""event"",""trial"",""time""
""fullscreenenter"",""1"",""1543""
","
","","","","","","913.1000000238419","<p> If you eat the fruit and it was tasty, you will win points! </p><p> But if you eat the fruit and it was rotten, you will lose points. </p>","","0","instructions","","","","","","","","","","",""
"learning-instructions","181","664637","0.0-11.0-1.0-0.4","7240","2","25","Male","approach_avoid_spark_v1","""event"",""trial"",""time""
""fullscreenenter"",""1"",""1543""
","
","
","""event"",""trial"",""time""
""fullscreenenter"",""1"",""1543""
","
","","","","","","878.3000000715256","<p> You will earn points based on how tasty or rotten the fruit was. </p><p> If it was tasty, you will WIN anywhere from 1 - 9 points, </p><p> but if it was rotten, you will LOSE anywhere from 1 - 9 points. </p>","","0","instructions","","","","","","","","","","",""
"learning-instructions","182","673419","0.0-11.0-1.0-0.5","7240","2","25","Male","approach_avoid_spark_v1","""event"",""trial"",""time""
""fullscreenenter"",""1"",""1543""
","
","
","""event"",""trial"",""time""
""fullscreenenter"",""1"",""1543""
","
","","","","","","2124.7999999523163","<p> You will see how many points you won or lost in the center of the screen. </p><p> Here is what you would see if you earned 5 points: </p><p style=""color:green;font-size:50px;font-weight:bolder"">5</p>","","0","instructions","","","","","","","","","","",""
"learning-instructions","183","676781","0.0-11.0-1.0-0.6","7240","2","25","Male","approach_avoid_spark_v1","""event"",""trial"",""time""
""fullscreenenter"",""1"",""1543""
","
","
","""event"",""trial"",""time""
""fullscreenenter"",""1"",""1543""
","
","","","","","","529.5","<p> And here is what you would see if you lost 3 points: </p><p style=""color:red;font-size:50px;font-weight:bolder"">-3</p>","","0","instructions","","","","","","","","","","",""
"learning-instructions","184","691752","0.0-11.0-1.0-0.7","7240","2","25","Male","approach_avoid_spark_v1","""event"",""trial"",""time""
""fullscreenenter"",""1"",""1543""
","
","
","""event"",""trial"",""time""
""fullscreenenter"",""1"",""1543""
","
","","","","","","998.4000000953674","<p> Some fruit is very tasty or very rotten. </p><p> These fruits will make you win or lose LOTS of points. </p><p> Other fruits are only kind of tasty or kind of rotten. </p><p> These fruits will make you win or lose small amounts of points. </p>","","0","instructions","","","","","","","","","","",""
"learning-instructions","185","703370","0.0-11.0-1.0-0.8","7240","2","25","Male","approach_avoid_spark_v1","""event"",""trial"",""time""
""fullscreenenter"",""1"",""1543""
","
","
","""event"",""trial"",""time""
""fullscreenenter"",""1"",""1543""
","
","","","","","","994.6000000238419","<p> If you choose to not eat the fruit, you will not win or lose any points. </p><p>  However, in the center of the screen, you will see the number of points you WOULD HAVE earned if you had eaten the fruit. </p>","","0","instructions","","","","","","","","","","",""
"learning-instructions","186","713803","0.0-11.0-1.0-0.9","7240","2","25","Male","approach_avoid_spark_v1","""event"",""trial"",""time""
""fullscreenenter"",""1"",""1543""
","
","
","""event"",""trial"",""time""
""fullscreenenter"",""1"",""1543""
","
","","","","","","490.5","<p> Here is what you might see if you did not eat the fruit but the fruit was tasty: </p><p style=""color:grey; font-size:50px; display: inline-block; border-spacing: 15px; border-width:3px; border-style:solid; border-color:red"">  &nbsp; 6 &nbsp; </p><p> Remember, in this case, you would not win or lose ANY points because you did not eat the fruit.  </p>","","0","instructions","","","","","","","","","","",""
"learning-instructions","187","722528","0.0-11.0-1.0-0.10","7240","2","25","Male","approach_avoid_spark_v1","""event"",""trial"",""time""
""fullscreenenter"",""1"",""1543""
","
","
","""event"",""trial"",""time""
""fullscreenenter"",""1"",""1543""
","
","","","","","","740.7000000476837","<p> Try to make the best choice for each fruit because </p><p> at the end of the game, you will earn bonus money based on how many points you earned. </p>","","0","instructions","","","","","","","","","","",""
"learning-instructions","188","731170","0.0-11.0-1.0-0.11","7240","2","25","Male","approach_avoid_spark_v1","""event"",""trial"",""time""
""fullscreenenter"",""1"",""1543""
","
","
","""event"",""trial"",""time""
""fullscreenenter"",""1"",""1543""
","
","","","","","","454.3000000715256","<p> You will have 3 seconds to make each choice. Try to respond before time runs out! </p><p> You will lose 5 points each time you do not make a response. </p>","","0","instructions","","","","","","","","","","",""
"html-keyboard-response","189","731780","0.0-11.0-2.0-0.0","7240","2","25","Male","approach_avoid_spark_v1","""event"",""trial"",""time""
""fullscreenenter"",""1"",""1543""
","
","
","""event"",""trial"",""time""
""fullscreenenter"",""1"",""1543""
","
","","","","","","null","<div style=""font-size:60px;"">+</div>","null","","fixation","","","","","","","","","","",""
"aa-learning-trial","190","734787","0.0-11.0-2.0-1.0","7240","2","25","Male","approach_avoid_spark_v1","""event"",""trial"",""time""
""fullscreenenter"",""1"",""1543""
","
","
","""event"",""trial"",""time""
""fullscreenenter"",""1"",""1543""
","
","","","","","","836.8999999761581","images/apple2.png","","","learning","5","0","0","0","apple","fruit","1","1","","good","[4]"
"html-keyboard-response","191","735292","0.0-11.0-2.0-0.1","7240","2","25","Male","approach_avoid_spark_v1","""event"",""trial"",""time""
""fullscreenenter"",""1"",""1543""
","
","
","""event"",""trial"",""time""
""fullscreenenter"",""1"",""1543""
","
","","","","","","null","<div style=""font-size:60px;"">+</div>","null","","fixation","","","","","","","","","","",""
"aa-learning-trial","192","738299","0.0-11.0-2.0-1.1","7240","2","25","Male","approach_avoid_spark_v1","""event"",""trial"",""time""
""fullscreenenter"",""1"",""1543""
","
","
","""event"",""trial"",""time""
""fullscreenenter"",""1"",""1543""
","
","","","","","","693.0999999046326","images/banana8.png","","","learning","-1","0","0","0","banana","fruit","1","1","","bad","[-3]"
"html-keyboard-response","193","738804","0.0-11.0-2.0-0.2","7240","2","25","Male","approach_avoid_spark_v1","""event"",""trial"",""time""
""fullscreenenter"",""1"",""1543""
","
","
","""event"",""trial"",""time""
""fullscreenenter"",""1"",""1543""
","
","","","","","","null","<div style=""font-size:60px;"">+</div>","null","","fixation","","","","","","","","","","",""
"aa-learning-trial","194","741812","0.0-11.0-2.0-1.2","7240","2","25","Male","approach_avoid_spark_v1","""event"",""trial"",""time""
""fullscreenenter"",""1"",""1543""
","
","
","""event"",""trial"",""time""
""fullscreenenter"",""1"",""1543""
","
","","","","","","1016.1000000238419","images/banana8.png","","","learning","-6","0","0","0","banana","fruit","1","1","","bad","[-3]"
"html-keyboard-response","195","742316","0.0-11.0-2.0-0.3","7240","2","25","Male","approach_avoid_spark_v1","""event"",""trial"",""time""
""fullscreenenter"",""1"",""1543""
","
","
","""event"",""trial"",""time""
""fullscreenenter"",""1"",""1543""
","
","","","","","","null","<div style=""font-size:60px;"">+</div>","null","","fixation","","","","","","","","","","",""
"aa-learning-trial","196","745324","0.0-11.0-2.0-1.3","7240","2","25","Male","approach_avoid_spark_v1","""event"",""trial"",""time""
""fullscreenenter"",""1"",""1543""
","
","
","""event"",""trial"",""time""
""fullscreenenter"",""1"",""1543""
","
","","","","","","992.8999999761581","images/straw4.png","","","learning","-2","0","0","0","straw","fruit","1","1","","neutral","0"
"html-keyboard-response","197","745829","0.0-11.0-2.0-0.4","7240","2","25","Male","approach_avoid_spark_v1","""event"",""trial"",""time""
""fullscreenenter"",""1"",""1543""
","
","
","""event"",""trial"",""time""
""fullscreenenter"",""1"",""1543""
","
","","","","","","null","<div style=""font-size:60px;"">+</div>","null","","fixation","","","","","","","","","","",""
"aa-learning-trial","198","748835","0.0-11.0-2.0-1.4","7240","2","25","Male","approach_avoid_spark_v1","""event"",""trial"",""time""
""fullscreenenter"",""1"",""1543""
","
","
","""event"",""trial"",""time""
""fullscreenenter"",""1"",""1543""
","
","","","","","","878.1999999284744","images/straw6.png","","","learning","2","0","0","0","straw","fruit","1","1","","neutral","0"
"html-keyboard-response","199","749341","0.0-11.0-2.0-0.5","7240","2","25","Male","approach_avoid_spark_v1","""event"",""trial"",""time""
""fullscreenenter"",""1"",""1543""
","
","
","""event"",""trial"",""time""
""fullscreenenter"",""1"",""1543""
","
","","","","","","null","<div style=""font-size:60px;"">+</div>","null","","fixation","","","","","","","","","","",""
"aa-learning-trial","200","752347","0.0-11.0-2.0-1.5","7240","2","25","Male","approach_avoid_spark_v1","""event"",""trial"",""time""
""fullscreenenter"",""1"",""1543""
","
","
","""event"",""trial"",""time""
""fullscreenenter"",""1"",""1543""
","
","","","","","","869","images/banana3.png","","","learning","2","0","0","0","banana","fruit","1","1","","bad","[-3]"
"html-keyboard-response","201","752853","0.0-11.0-2.0-0.6","7240","2","25","Male","approach_avoid_spark_v1","""event"",""trial"",""time""
""fullscreenenter"",""1"",""1543""
","
","
","""event"",""trial"",""time""
""fullscreenenter"",""1"",""1543""
","
","","","","","","null","<div style=""font-size:60px;"">+</div>","null","","fixation","","","","","","","","","","",""
"aa-learning-trial","202","755860","0.0-11.0-2.0-1.6","7240","2","25","Male","approach_avoid_spark_v1","""event"",""trial"",""time""
""fullscreenenter"",""1"",""1543""
","
","
","""event"",""trial"",""time""
""fullscreenenter"",""1"",""1543""
","
","","","","","","592.5","images/apple7.png","","","learning","5","5","1","1","apple","fruit","1","1","","good","[4]"
"html-keyboard-response","203","756365","0.0-11.0-2.0-0.7","7240","2","25","Male","approach_avoid_spark_v1","""event"",""trial"",""time""
""fullscreenenter"",""1"",""1543""
","
","
","""event"",""trial"",""time""
""fullscreenenter"",""1"",""1543""
","
","","","","","","null","<div style=""font-size:60px;"">+</div>","null","","fixation","","","","","","","","","","",""
"aa-learning-trial","204","759372","0.0-11.0-2.0-1.7","7240","2","25","Male","approach_avoid_spark_v1","""event"",""trial"",""time""
""fullscreenenter"",""1"",""1543""
","
","
","""event"",""trial"",""time""
""fullscreenenter"",""1"",""1543""
","
","","","","","","822.5","images/straw6.png","","","learning","-3","0","0","0","straw","fruit","1","1","","neutral","0"
"html-keyboard-response","205","759877","0.0-11.0-2.0-0.8","7240","2","25","Male","approach_avoid_spark_v1","""event"",""trial"",""time""
""fullscreenenter"",""1"",""1543""
","
","
","""event"",""trial"",""time""
""fullscreenenter"",""1"",""1543""
","
","","","","","","null","<div style=""font-size:60px;"">+</div>","null","","fixation","","","","","","","","","","",""
"aa-learning-trial","206","762884","0.0-11.0-2.0-1.8","7240","2","25","Male","approach_avoid_spark_v1","""event"",""trial"",""time""
""fullscreenenter"",""1"",""1543""
","
","
","""event"",""trial"",""time""
""fullscreenenter"",""1"",""1543""
","
","","","","","","690.6000000238419","images/banana3.png","","","learning","-1","0","0","0","banana","fruit","1","1","","bad","[-3]"
"html-keyboard-response","207","763389","0.0-11.0-2.0-0.9","7240","2","25","Male","approach_avoid_spark_v1","""event"",""trial"",""time""
""fullscreenenter"",""1"",""1543""
","
","
","""event"",""trial"",""time""
""fullscreenenter"",""1"",""1543""
","
","","","","","","null","<div style=""font-size:60px;"">+</div>","null","","fixation","","","","","","","","","","",""
"aa-learning-trial","208","766396","0.0-11.0-2.0-1.9","7240","2","25","Male","approach_avoid_spark_v1","""event"",""trial"",""time""
""fullscreenenter"",""1"",""1543""
","
","
","""event"",""trial"",""time""
""fullscreenenter"",""1"",""1543""
","
","","","","","","476.7999999523163","images/apple2.png","","","learning","4","4","1","1","apple","fruit","1","1","","good","[4]"
"html-keyboard-response","209","766901","0.0-11.0-2.0-0.10","7240","2","25","Male","approach_avoid_spark_v1","""event"",""trial"",""time""
""fullscreenenter"",""1"",""1543""
","
","
","""event"",""trial"",""time""
""fullscreenenter"",""1"",""1543""
","
","","","","","","null","<div style=""font-size:60px;"">+</div>","null","","fixation","","","","","","","","","","",""
"aa-learning-trial","210","769908","0.0-11.0-2.0-1.10","7240","2","25","Male","approach_avoid_spark_v1","""event"",""trial"",""time""
""fullscreenenter"",""1"",""1543""
","
","
","""event"",""trial"",""time""
""fullscreenenter"",""1"",""1543""
","
","","","","","","677.3000000715256","images/apple5.png","","","learning","3","3","1","1","apple","fruit","1","1","","good","[4]"
"html-keyboard-response","211","770413","0.0-11.0-2.0-0.11","7240","2","25","Male","approach_avoid_spark_v1","""event"",""trial"",""time""
""fullscreenenter"",""1"",""1543""
","
","
","""event"",""trial"",""time""
""fullscreenenter"",""1"",""1543""
","
","","","","","","null","<div style=""font-size:60px;"">+</div>","null","","fixation","","","","","","","","","","",""
"aa-learning-trial","212","773421","0.0-11.0-2.0-1.11","7240","2","25","Male","approach_avoid_spark_v1","""event"",""trial"",""time""
""fullscreenenter"",""1"",""1543""
","
","
","""event"",""trial"",""time""
""fullscreenenter"",""1"",""1543""
","
","","","","","","650.7000000476837","images/straw7.png","","","learning","1","0","0","0","straw","fruit","1","1","","neutral","0"
"html-keyboard-response","213","773925","0.0-11.0-2.0-0.12","7240","2","25","Male","approach_avoid_spark_v1","""event"",""trial"",""time""
""fullscreenenter"",""1"",""1543""
","
","
","""event"",""trial"",""time""
""fullscreenenter"",""1"",""1543""
","
","","","","","","null","<div style=""font-size:60px;"">+</div>","null","","fixation","","","","","","","","","","",""
"aa-learning-trial","214","776935","0.0-11.0-2.0-1.12","7240","2","25","Male","approach_avoid_spark_v1","""event"",""trial"",""time""
""fullscreenenter"",""1"",""1543""
","
","
","""event"",""trial"",""time""
""fullscreenenter"",""1"",""1543""
","
","","","","","","583","images/apple5.png","","","learning","1","1","1","1","apple","fruit","1","1","","good","[4]"
"html-keyboard-response","215","777448","0.0-11.0-2.0-0.13","7240","2","25","Male","approach_avoid_spark_v1","""event"",""trial"",""time""
""fullscreenenter"",""1"",""1543""
","
","
","""event"",""trial"",""time""
""fullscreenenter"",""1"",""1543""
","
","","","","","","null","<div style=""font-size:60px;"">+</div>","null","","fixation","","","","","","","","","","",""
"aa-learning-trial","216","780456","0.0-11.0-2.0-1.13","7240","2","25","Male","approach_avoid_spark_v1","""event"",""trial"",""time""
""fullscreenenter"",""1"",""1543""
","
","
","""event"",""trial"",""time""
""fullscreenenter"",""1"",""1543""
","
","","","","","","585","images/banana7.png","","","learning","-4","0","0","0","banana","fruit","1","1","","bad","[-3]"
"html-keyboard-response","217","780967","0.0-11.0-2.0-0.14","7240","2","25","Male","approach_avoid_spark_v1","""event"",""trial"",""time""
""fullscreenenter"",""1"",""1543""
","
","
","""event"",""trial"",""time""
""fullscreenenter"",""1"",""1543""
","
","","","","","","null","<div style=""font-size:60px;"">+</div>","null","","fixation","","","","","","","","","","",""
"aa-learning-trial","218","783974","0.0-11.0-2.0-1.14","7240","2","25","Male","approach_avoid_spark_v1","""event"",""trial"",""time""
""fullscreenenter"",""1"",""1543""
","
","
","""event"",""trial"",""time""
""fullscreenenter"",""1"",""1543""
","
","","","","","","751.2000000476837","images/straw7.png","","","learning","[1]","0","0","0","straw","fruit","1","1","","neutral","0"
"html-keyboard-response","219","784479","0.0-11.0-2.0-0.15","7240","2","25","Male","approach_avoid_spark_v1","""event"",""trial"",""time""
""fullscreenenter"",""1"",""1543""
","
","
","""event"",""trial"",""time""
""fullscreenenter"",""1"",""1543""
","
","","","","","","null","<div style=""font-size:60px;"">+</div>","null","","fixation","","","","","","","","","","",""
"aa-learning-trial","220","787487","0.0-11.0-2.0-1.15","7240","2","25","Male","approach_avoid_spark_v1","""event"",""trial"",""time""
""fullscreenenter"",""1"",""1543""
","
","
","""event"",""trial"",""time""
""fullscreenenter"",""1"",""1543""
","
","","","","","","576.3000000715256","images/apple5.png","","","learning","2","2","1","1","apple","fruit","1","1","","good","[4]"
"html-keyboard-response","221","787991","0.0-11.0-2.0-0.16","7240","2","25","Male","approach_avoid_spark_v1","""event"",""trial"",""time""
""fullscreenenter"",""1"",""1543""
","
","
","""event"",""trial"",""time""
""fullscreenenter"",""1"",""1543""
","
","","","","","","null","<div style=""font-size:60px;"">+</div>","null","","fixation","","","","","","","","","","",""
"aa-learning-trial","222","790999","0.0-11.0-2.0-1.16","7240","2","25","Male","approach_avoid_spark_v1","""event"",""trial"",""time""
""fullscreenenter"",""1"",""1543""
","
","
","""event"",""trial"",""time""
""fullscreenenter"",""1"",""1543""
","
","","","","","","454.7999999523163","images/apple7.png","","","learning","4","4","1","1","apple","fruit","1","1","","good","[4]"
"html-keyboard-response","223","791504","0.0-11.0-2.0-0.17","7240","2","25","Male","approach_avoid_spark_v1","""event"",""trial"",""time""
""fullscreenenter"",""1"",""1543""
","
","
","""event"",""trial"",""time""
""fullscreenenter"",""1"",""1543""
","
","","","","","","null","<div style=""font-size:60px;"">+</div>","null","","fixation","","","","","","","","","","",""
"aa-learning-trial","224","794511","0.0-11.0-2.0-1.17","7240","2","25","Male","approach_avoid_spark_v1","""event"",""trial"",""time""
""fullscreenenter"",""1"",""1543""
","
","
","""event"",""trial"",""time""
""fullscreenenter"",""1"",""1543""
","
","","","","","","496.5","images/apple2.png","","","learning","3","3","1","1","apple","fruit","1","1","","good","[4]"
"html-keyboard-response","225","795016","0.0-11.0-2.0-0.18","7240","2","25","Male","approach_avoid_spark_v1","""event"",""trial"",""time""
""fullscreenenter"",""1"",""1543""
","
","
","""event"",""trial"",""time""
""fullscreenenter"",""1"",""1543""
","
","","","","","","null","<div style=""font-size:60px;"">+</div>","null","","fixation","","","","","","","","","","",""
"aa-learning-trial","226","798023","0.0-11.0-2.0-1.18","7240","2","25","Male","approach_avoid_spark_v1","""event"",""trial"",""time""
""fullscreenenter"",""1"",""1543""
","
","
","""event"",""trial"",""time""
""fullscreenenter"",""1"",""1543""
","
","","","","","","679.8999999761581","images/straw3.png","","","learning","1","0","0","0","straw","fruit","1","1","","neutral","0"
"html-keyboard-response","227","798528","0.0-11.0-2.0-0.19","7240","2","25","Male","approach_avoid_spark_v1","""event"",""trial"",""time""
""fullscreenenter"",""1"",""1543""
","
","
","""event"",""trial"",""time""
""fullscreenenter"",""1"",""1543""
","
","","","","","","null","<div style=""font-size:60px;"">+</div>","null","","fixation","","","","","","","","","","",""
"aa-learning-trial","228","801535","0.0-11.0-2.0-1.19","7240","2","25","Male","approach_avoid_spark_v1","""event"",""trial"",""time""
""fullscreenenter"",""1"",""1543""
","
","
","""event"",""trial"",""time""
""fullscreenenter"",""1"",""1543""
","
","","","","","","648.7999999523163","images/apple5.png","","","learning","4","4","1","1","apple","fruit","1","1","","good","[4]"
"html-keyboard-response","229","802040","0.0-11.0-2.0-0.20","7240","2","25","Male","approach_avoid_spark_v1","""event"",""trial"",""time""
""fullscreenenter"",""1"",""1543""
","
","
","""event"",""trial"",""time""
""fullscreenenter"",""1"",""1543""
","
","","","","","","null","<div style=""font-size:60px;"">+</div>","null","","fixation","","","","","","","","","","",""
"aa-learning-trial","230","805047","0.0-11.0-2.0-1.20","7240","2","25","Male","approach_avoid_spark_v1","""event"",""trial"",""time""
""fullscreenenter"",""1"",""1543""
","
","
","""event"",""trial"",""time""
""fullscreenenter"",""1"",""1543""
","
","","","","","","539","images/apple2.png","","","learning","5","5","1","1","apple","fruit","1","1","","good","[4]"
"html-keyboard-response","231","805552","0.0-11.0-2.0-0.21","7240","2","25","Male","approach_avoid_spark_v1","""event"",""trial"",""time""
""fullscreenenter"",""1"",""1543""
","
","
","""event"",""trial"",""time""
""fullscreenenter"",""1"",""1543""
","
","","","","","","null","<div style=""font-size:60px;"">+</div>","null","","fixation","","","","","","","","","","",""
"aa-learning-trial","232","808559","0.0-11.0-2.0-1.21","7240","2","25","Male","approach_avoid_spark_v1","""event"",""trial"",""time""
""fullscreenenter"",""1"",""1543""
","
","
","""event"",""trial"",""time""
""fullscreenenter"",""1"",""1543""
","
","","","","","","468.60000002384186","images/apple2.png","","","learning","3","3","1","1","apple","fruit","1","1","","good","[4]"
"html-keyboard-response","233","809064","0.0-11.0-2.0-0.22","7240","2","25","Male","approach_avoid_spark_v1","""event"",""trial"",""time""
""fullscreenenter"",""1"",""1543""
","
","
","""event"",""trial"",""time""
""fullscreenenter"",""1"",""1543""
","
","","","","","","null","<div style=""font-size:60px;"">+</div>","null","","fixation","","","","","","","","","","",""
"aa-learning-trial","234","812071","0.0-11.0-2.0-1.22","7240","2","25","Male","approach_avoid_spark_v1","""event"",""trial"",""time""
""fullscreenenter"",""1"",""1543""
","
","
","""event"",""trial"",""time""
""fullscreenenter"",""1"",""1543""
","
","","","","","","690.6999999284744","images/banana7.png","","","learning","2","0","0","0","banana","fruit","1","1","","bad","[-3]"
"html-keyboard-response","235","812576","0.0-11.0-2.0-0.23","7240","2","25","Male","approach_avoid_spark_v1","""event"",""trial"",""time""
""fullscreenenter"",""1"",""1543""
","
","
","""event"",""trial"",""time""
""fullscreenenter"",""1"",""1543""
","
","","","","","","null","<div style=""font-size:60px;"">+</div>","null","","fixation","","","","","","","","","","",""
"aa-learning-trial","236","815583","0.0-11.0-2.0-1.23","7240","2","25","Male","approach_avoid_spark_v1","""event"",""trial"",""time""
""fullscreenenter"",""1"",""1543""
","
","
","""event"",""trial"",""time""
""fullscreenenter"",""1"",""1543""
","
","","","","","","1684.2999999523163","images/banana8.png","","","learning","-7","-7","1","1","banana","fruit","1","1","","bad","[-3]"
"html-keyboard-response","237","816088","0.0-11.0-2.0-0.24","7240","2","25","Male","approach_avoid_spark_v1","""event"",""trial"",""time""
""fullscreenenter"",""1"",""1543""
","
","
","""event"",""trial"",""time""
""fullscreenenter"",""1"",""1543""
","
","","","","","","null","<div style=""font-size:60px;"">+</div>","null","","fixation","","","","","","","","","","",""
"aa-learning-trial","238","819096","0.0-11.0-2.0-1.24","7240","2","25","Male","approach_avoid_spark_v1","""event"",""trial"",""time""
""fullscreenenter"",""1"",""1543""
","
","
","""event"",""trial"",""time""
""fullscreenenter"",""1"",""1543""
","
","","","","","","667.3999999761581","images/banana7.png","","","learning","-5","0","0","0","banana","fruit","1","1","","bad","[-3]"
