"trial_type","trial_index","time_elapsed","internal_node_id","subject_id","task_condition","age","gender","task_version","interactions","blur_events","focus_events","fullscreenenter_events","fullscreenexit_events","success","timeout","failed_images","failed_audio","failed_video","rt","stimulus","response","button_pressed","task_part","approach_reward","points","key_press","option_selected","stim_cat","task_block","block_condition","block_number","correct","cat_type","mean_cat_reward"
"pavlovia","0","3","0.0-0.0","3841","1","14","Female","approach_avoid_spark_v1","""event"",""trial"",""time""
""fullscreenenter"",""1"",""2538""
","
","
","""event"",""trial"",""time""
""fullscreenenter"",""1"",""2538""
","
","","","","","","","","","","","","","","","","","","","","",""
"fullscreen","1","3501","0.0-1.0","3841","1","14","Female","approach_avoid_spark_v1","""event"",""trial"",""time""
""fullscreenenter"",""1"",""2538""
","
","
","""event"",""trial"",""time""
""fullscreenenter"",""1"",""2538""
","
","true","","","","","","","","","","","","","","","","","","","",""
"preload","2","11978","0.0-2.0","3841","1","14","Female","approach_avoid_spark_v1","""event"",""trial"",""time""
""fullscreenenter"",""1"",""2538""
","
","
","""event"",""trial"",""time""
""fullscreenenter"",""1"",""2538""
","
","true","false","[]","[]","[]","","","","","","","","","","","","","","","",""
"audio-keyboard-response","3","29394","0.0-3.0","3841","1","14","Female","approach_avoid_spark_v1","""event"",""trial"",""time""
""fullscreenenter"",""1"",""2538""
","
","
","""event"",""trial"",""time""
""fullscreenenter"",""1"",""2538""
","
","","","","","","17418.666666666668","audio/beep_loop.wav","enter","","","","","","","","","","","","",""
"audio-button-response","4","32186","0.0-4.0","3841","1","14","Female","approach_avoid_spark_v1","""event"",""trial"",""time""
""fullscreenenter"",""1"",""2538""
","
","
","""event"",""trial"",""time""
""fullscreenenter"",""1"",""2538""
","
","","","","","","2792","audio/shark.wav","4","","","","","","","","","","","","",""
"audio-button-response","5","35324","0.0-5.0","3841","1","14","Female","approach_avoid_spark_v1","""event"",""trial"",""time""
""fullscreenenter"",""1"",""2538""
","
","
","""event"",""trial"",""time""
""fullscreenenter"",""1"",""2538""
","
","","","","","","2120","audio/turtle.wav","1","","","","","","","","","","","","",""
"preload","6","38416","0.0-6.0","3841","1","14","Female","approach_avoid_spark_v1","""event"",""trial"",""time""
""fullscreenenter"",""1"",""2538""
","
","
","""event"",""trial"",""time""
""fullscreenenter"",""1"",""2538""
","
","true","false","[]","[]","[]","","","","","","","","","","","","","","","",""
"html-keyboard-response","7","42603","0.0-7.0","3841","1","14","Female","approach_avoid_spark_v1","""event"",""trial"",""time""
""fullscreenenter"",""1"",""2538""
","
","
","""event"",""trial"",""time""
""fullscreenenter"",""1"",""2538""
","
","","","","","","4185.700000047684","Welcome to the experiment. Press any key to begin and to advance the instructions.","enter","","","","","","","","","","","","",""
"learning-instructions","8","57878","0.0-8.0-0.0-0.0","3841","1","14","Female","approach_avoid_spark_v1","""event"",""trial"",""time""
""fullscreenenter"",""1"",""2538""
","
","
","""event"",""trial"",""time""
""fullscreenenter"",""1"",""2538""
","
","","","","","","8322.899999856949","<p> Welcome! Today you are going to play 6 different rounds of a decision-making game. </p><p> Use the mouse to click next to continue. </p>","","0","instructions","","","","","","","","","","",""
"learning-instructions","9","62302","0.0-8.0-0.0-0.1","3841","1","14","Female","approach_avoid_spark_v1","""event"",""trial"",""time""
""fullscreenenter"",""1"",""2538""
","
","
","""event"",""trial"",""time""
""fullscreenenter"",""1"",""2538""
","
","","","","","","1687.2999999523163","<p> You will start with a practice round to learn the rules. </p>","","0","instructions","","","","","","","","","","",""
"learning-instructions","10","67238","0.0-8.0-0.0-0.2","3841","1","14","Female","approach_avoid_spark_v1","""event"",""trial"",""time""
""fullscreenenter"",""1"",""2538""
","
","
","""event"",""trial"",""time""
""fullscreenenter"",""1"",""2538""
","
","","","","","","1472.5999999046326","<p> Your goal in this round is to give out sports equipment to kids. </p></div>","","0","instructions","","","","","","","","","","",""
"learning-instructions","11","75750","0.0-8.0-0.0-0.3","3841","1","14","Female","approach_avoid_spark_v1","""event"",""trial"",""time""
""fullscreenenter"",""1"",""2538""
","
","
","""event"",""trial"",""time""
""fullscreenenter"",""1"",""2538""
","
","","","","","","944.7999999523163","<p> The kids only like some of the equipment.  </p><p> On each turn, you will see a piece of sports equipment.   </p><p> You need to decide whether to give it to the kids or not.  </p>","","0","instructions","","","","","","","","","","",""
"learning-instructions","12","82072","0.0-8.0-0.0-0.4","3841","1","14","Female","approach_avoid_spark_v1","""event"",""trial"",""time""
""fullscreenenter"",""1"",""2538""
","
","
","""event"",""trial"",""time""
""fullscreenenter"",""1"",""2538""
","
","","","","","","1566.5999999046326","<p> You can give them the equipment by pressing 1 and choose not to give it to them by pressing 0. </p><br><div class=""choice-instructions-grid""> <div class=""choice-option""><img src=""images/approach.png"" class=""choice-option-img"" stage=""instructions"" position=""0"" ><div class=""choice-option-text""> Press ""1."" </div></div><div class=""choice-option""><img src=""images/avoid.png"" class=""choice-option-img"" stage=""instructions"" position=""1"" ><div class=""choice-option-text""> Press ""0."" </div></div>","","0","instructions","","","","","","","","","","",""
"learning-instructions","13","90200","0.0-8.0-0.0-0.5","3841","1","14","Female","approach_avoid_spark_v1","""event"",""trial"",""time""
""fullscreenenter"",""1"",""2538""
","
","
","""event"",""trial"",""time""
""fullscreenenter"",""1"",""2538""
","
","","","","","","735","<p> If you give them a piece of equipment they like, they will be happy! </p><p> But if you give them a piece of equipment they do not like, they will be sad. </p>","","0","instructions","","","","","","","","","","",""
"learning-instructions","14","101530","0.0-8.0-0.0-0.6","3841","1","14","Female","approach_avoid_spark_v1","""event"",""trial"",""time""
""fullscreenenter"",""1"",""2538""
","
","
","""event"",""trial"",""time""
""fullscreenenter"",""1"",""2538""
","
","","","","","","815.2000000476837","<p> You will earn points based on how you make kids feel. </p><p> If you make them happy, you will WIN anywhere from 1 - 9 points, </p><p> but if you make them sad, you will LOSE anywhere from 1 - 9 points. </p>","","0","instructions","","","","","","","","","","",""
"learning-instructions","15","111878","0.0-8.0-0.0-0.7","3841","1","14","Female","approach_avoid_spark_v1","""event"",""trial"",""time""
""fullscreenenter"",""1"",""2538""
","
","
","""event"",""trial"",""time""
""fullscreenenter"",""1"",""2538""
","
","","","","","","793.1999998092651","<p> You will see how many points you won or lost in the center of the screen. </p><p> Here is what you would see if you won 6 points: </p><p style=""color:green;font-size:50px;font-weight:bolder"">6</p><p style=""color:green"">The text is GREEN because you WON points.</p>","","0","instructions","","","","","","","","","","",""
"learning-instructions","16","117988","0.0-8.0-0.0-0.8","3841","1","14","Female","approach_avoid_spark_v1","""event"",""trial"",""time""
""fullscreenenter"",""1"",""2538""
","
","
","""event"",""trial"",""time""
""fullscreenenter"",""1"",""2538""
","
","","","","","","603","<p> And here is what you would see if you lost 4 points: </p><p style=""color:red;font-size:50px;font-weight:bolder"">-4</p><p style=""color:red"">The text is RED because you LOST points. </p>","","0","instructions","","","","","","","","","","",""
"learning-instructions","17","133411","0.0-8.0-0.0-0.9","3841","1","14","Female","approach_avoid_spark_v1","""event"",""trial"",""time""
""fullscreenenter"",""1"",""2538""
","
","
","""event"",""trial"",""time""
""fullscreenenter"",""1"",""2538""
","
","","","","","","695.2999999523163","<p> Some of the equipment will make the kids VERY happy or sad. </p><p> These pieces of equipment will make you win or lose LOTS of points. </p><p> Other pieces of equipment will only make the kids a little happy or sad. </p><p> These pieces of equipment will make you win or lose small amounts of points. </p>","","0","instructions","","","","","","","","","","",""
"learning-instructions","18","144885","0.0-8.0-0.0-0.10","3841","1","14","Female","approach_avoid_spark_v1","""event"",""trial"",""time""
""fullscreenenter"",""1"",""2538""
","
","
","""event"",""trial"",""time""
""fullscreenenter"",""1"",""2538""
","
","","","","","","848.6999998092651","<p> If you choose not to give them the equipment, you will not win or lose any points. </p><p>  However, in the center of the screen, you will see the number of points you WOULD HAVE won or lost if you had given them the equipment. </p>","","0","instructions","","","","","","","","","","",""
"learning-instructions","19","167301","0.0-8.0-0.0-0.11","3841","1","14","Female","approach_avoid_spark_v1","""event"",""trial"",""time""
""fullscreenenter"",""1"",""2538""
","
","
","""event"",""trial"",""time""
""fullscreenenter"",""1"",""2538""
","
","","","","","","884.9000000953674","<p> Here is what you might see if you did not give the equipment to the kids but it would have made them happy: </p><p style=""color:grey; font-size:50px; display: inline-block; border-spacing: 15px; border-width:3px; border-style:solid; border-color:red"">  &nbsp; 7 &nbsp; </p><p> Remember, in this case, you would not win or lose ANY points because you did not give them the equipment.  </p><p style=""color:grey"">The text is GREY because you earned ZERO points. </p><p style=""color:red"">However, choosing to give the kids the equipment would have made you win points. The box around the text is RED because you chose the worse option. </p>","","0","instructions","","","","","","","","","","",""
"learning-instructions","20","189103","0.0-8.0-0.0-0.12","3841","1","14","Female","approach_avoid_spark_v1","""event"",""trial"",""time""
""fullscreenenter"",""1"",""2538""
","
","
","""event"",""trial"",""time""
""fullscreenenter"",""1"",""2538""
","
","","","","","","727.1999998092651","<p> Here is what you might see if you did not give the equipment to the kids but it would have made them sad: </p><p style=""color:grey;font-size:50px; display: inline-block; border-spacing: 15px; border-width:3px; border-style:solid; border-color:green"">  &nbsp; -8 &nbsp; </p><p> Remember, in this case, you would not win or lose ANY points because you did not give them the equipment.  </p><p style=""color:grey"">The text is GREY because you earned ZERO points. </p><p  style=""color:green""> Choosing to give the kids the equipment would have made you lose points. The box around the text is GREEN because you chose the better option.</p>","","0","instructions","","","","","","","","","","",""
"learning-instructions","21","198712","0.0-8.0-0.0-0.13","3841","1","14","Female","approach_avoid_spark_v1","""event"",""trial"",""time""
""fullscreenenter"",""1"",""2538""
","
","
","""event"",""trial"",""time""
""fullscreenenter"",""1"",""2538""
","
","","","","","","757.2000000476837","<p> You will have 3 seconds to make each choice. Try to respond before time runs out! </p><p> You will lose 5 points each time you do not make a response. </p>","","0","instructions","","","","","","","","","","",""
"learning-instructions","22","204964","0.0-8.0-0.0-0.14","3841","1","14","Female","approach_avoid_spark_v1","""event"",""trial"",""time""
""fullscreenenter"",""1"",""2538""
","
","
","""event"",""trial"",""time""
""fullscreenenter"",""1"",""2538""
","
","","","","","","829.3999998569489","<p> This is just a practice round, but in the real game, your bonus payment will depend on your total number of points.","","0","instructions","","","","","","","","","","",""
"learning-instructions","23","211906","0.0-8.0-0.0-0.15","3841","1","14","Female","approach_avoid_spark_v1","""event"",""trial"",""time""
""fullscreenenter"",""1"",""2538""
","
","
","""event"",""trial"",""time""
""fullscreenenter"",""1"",""2538""
","
","","","","","","1171.1000001430511","<p> Remember, you can give them the equipment by pressing 1 and choose not to give it to them by pressing 0. </p><br><div class=""choice-instructions-grid""> <div class=""choice-option""><img src=""images/approach.png"" class=""choice-option-img"" stage=""instructions"" position=""0"" ><div class=""choice-option-text""> Press ""1."" </div></div><div class=""choice-option""><img src=""images/avoid.png"" class=""choice-option-img"" stage=""instructions"" position=""1"" ><div class=""choice-option-text""> Press ""0."" </div></div>","","0","instructions","","","","","","","","","","",""
"html-button-response","24","213530","0.0-8.0-1.0","3841","1","14","Female","approach_avoid_spark_v1","""event"",""trial"",""time""
""fullscreenenter"",""1"",""2538""
","
","
","""event"",""trial"",""time""
""fullscreenenter"",""1"",""2538""
","
","","","","","","1507","<p> Ready to practice? </p>","0","","","","","","","","","","","","",""
"html-keyboard-response","25","214162","0.0-8.0-2.0-0.0","3841","1","14","Female","approach_avoid_spark_v1","""event"",""trial"",""time""
""fullscreenenter"",""1"",""2538""
","
","
","""event"",""trial"",""time""
""fullscreenenter"",""1"",""2538""
","
","","","","","","null","<div style=""font-size:60px;"">+</div>","null","","fixation","","","","","","","","","","",""
"aa-learning-trial","26","217174","0.0-8.0-2.0-1.0","3841","1","14","Female","approach_avoid_spark_v1","""event"",""trial"",""time""
""fullscreenenter"",""1"",""2538""
","
","
","""event"",""trial"",""time""
""fullscreenenter"",""1"",""2538""
","
","","","","","","null","images/racket2.png","","","learning","-5","-5","","null","practice","practice","practice","-1","","",""
"html-keyboard-response","27","217679","0.0-8.0-2.0-0.1","3841","1","14","Female","approach_avoid_spark_v1","""event"",""trial"",""time""
""fullscreenenter"",""1"",""2538""
","
","
","""event"",""trial"",""time""
""fullscreenenter"",""1"",""2538""
","
","","","","","","null","<div style=""font-size:60px;"">+</div>","null","","fixation","","","","","","","","","","",""
"aa-learning-trial","28","220701","0.0-8.0-2.0-1.1","3841","1","14","Female","approach_avoid_spark_v1","""event"",""trial"",""time""
""fullscreenenter"",""1"",""2538""
","
","
","""event"",""trial"",""time""
""fullscreenenter"",""1"",""2538""
","
","","","","","","null","images/ball4.png","","","learning","-7","-5","","null","practice","practice","practice","-1","","",""
"html-keyboard-response","29","221214","0.0-8.0-2.0-0.2","3841","1","14","Female","approach_avoid_spark_v1","""event"",""trial"",""time""
""fullscreenenter"",""1"",""2538""
","
","
","""event"",""trial"",""time""
""fullscreenenter"",""1"",""2538""
","
","","","","","","null","<div style=""font-size:60px;"">+</div>","null","","fixation","","","","","","","","","","",""
"aa-learning-trial","30","224220","0.0-8.0-2.0-1.2","3841","1","14","Female","approach_avoid_spark_v1","""event"",""trial"",""time""
""fullscreenenter"",""1"",""2538""
","
","
","""event"",""trial"",""time""
""fullscreenenter"",""1"",""2538""
","
","","","","","","null","images/ball3.png","","","learning","-3","-5","","null","practice","practice","practice","-1","","",""
"html-keyboard-response","31","224726","0.0-8.0-2.0-0.3","3841","1","14","Female","approach_avoid_spark_v1","""event"",""trial"",""time""
""fullscreenenter"",""1"",""2538""
","
","
","""event"",""trial"",""time""
""fullscreenenter"",""1"",""2538""
","
","","","","","","null","<div style=""font-size:60px;"">+</div>","null","","fixation","","","","","","","","","","",""
"aa-learning-trial","32","227744","0.0-8.0-2.0-1.3","3841","1","14","Female","approach_avoid_spark_v1","""event"",""trial"",""time""
""fullscreenenter"",""1"",""2538""
","
","
","""event"",""trial"",""time""
""fullscreenenter"",""1"",""2538""
","
","","","","","","null","images/racket3.png","","","learning","-5","-5","","null","practice","practice","practice","-1","","",""
"html-keyboard-response","33","228244","0.0-8.0-2.0-0.4","3841","1","14","Female","approach_avoid_spark_v1","""event"",""trial"",""time""
""fullscreenenter"",""1"",""2538""
","
","
","""event"",""trial"",""time""
""fullscreenenter"",""1"",""2538""
","
","","","","","","null","<div style=""font-size:60px;"">+</div>","null","","fixation","","","","","","","","","","",""
"aa-learning-trial","34","231264","0.0-8.0-2.0-1.4","3841","1","14","Female","approach_avoid_spark_v1","""event"",""trial"",""time""
""fullscreenenter"",""1"",""2538""
","
","
","""event"",""trial"",""time""
""fullscreenenter"",""1"",""2538""
","
","","","","","","null","images/ball2.png","","","learning","-8","-5","","null","practice","practice","practice","-1","","",""
"html-keyboard-response","35","231780","0.0-8.0-2.0-0.5","3841","1","14","Female","approach_avoid_spark_v1","""event"",""trial"",""time""
""fullscreenenter"",""1"",""2538""
","
","
","""event"",""trial"",""time""
""fullscreenenter"",""1"",""2538""
","
","","","","","","null","<div style=""font-size:60px;"">+</div>","null","","fixation","","","","","","","","","","",""
"aa-learning-trial","36","234794","0.0-8.0-2.0-1.5","3841","1","14","Female","approach_avoid_spark_v1","""event"",""trial"",""time""
""fullscreenenter"",""1"",""2538""
","
","
","""event"",""trial"",""time""
""fullscreenenter"",""1"",""2538""
","
","","","","","","null","images/racket3.png","","","learning","-6","-5","","null","practice","practice","practice","-1","","",""
"html-keyboard-response","37","235308","0.0-8.0-2.0-0.6","3841","1","14","Female","approach_avoid_spark_v1","""event"",""trial"",""time""
""fullscreenenter"",""1"",""2538""
","
","
","""event"",""trial"",""time""
""fullscreenenter"",""1"",""2538""
","
","","","","","","null","<div style=""font-size:60px;"">+</div>","null","","fixation","","","","","","","","","","",""
"aa-learning-trial","38","238319","0.0-8.0-2.0-1.6","3841","1","14","Female","approach_avoid_spark_v1","""event"",""trial"",""time""
""fullscreenenter"",""1"",""2538""
","
","
","""event"",""trial"",""time""
""fullscreenenter"",""1"",""2538""
","
","","","","","","1605","images/ball3.png","","","learning","5","5","1","1","practice","practice","practice","-1","","",""
"html-keyboard-response","39","238827","0.0-8.0-2.0-0.7","3841","1","14","Female","approach_avoid_spark_v1","""event"",""trial"",""time""
""fullscreenenter"",""1"",""2538""
","
","
","""event"",""trial"",""time""
""fullscreenenter"",""1"",""2538""
","
","","","","","","null","<div style=""font-size:60px;"">+</div>","null","","fixation","","","","","","","","","","",""
"aa-learning-trial","40","241837","0.0-8.0-2.0-1.7","3841","1","14","Female","approach_avoid_spark_v1","""event"",""trial"",""time""
""fullscreenenter"",""1"",""2538""
","
","
","""event"",""trial"",""time""
""fullscreenenter"",""1"",""2538""
","
","","","","","","773.8000001907349","images/racket1.png","","","learning","3","3","1","1","practice","practice","practice","-1","","",""
"html-keyboard-response","41","242341","0.0-8.0-2.0-0.8","3841","1","14","Female","approach_avoid_spark_v1","""event"",""trial"",""time""
""fullscreenenter"",""1"",""2538""
","
","
","""event"",""trial"",""time""
""fullscreenenter"",""1"",""2538""
","
","","","","","","null","<div style=""font-size:60px;"">+</div>","null","","fixation","","","","","","","","","","",""
"aa-learning-trial","42","245348","0.0-8.0-2.0-1.8","3841","1","14","Female","approach_avoid_spark_v1","""event"",""trial"",""time""
""fullscreenenter"",""1"",""2538""
","
","
","""event"",""trial"",""time""
""fullscreenenter"",""1"",""2538""
","
","","","","","","644.7000000476837","images/ball1.png","","","learning","8","8","1","1","practice","practice","practice","-1","","",""
"html-keyboard-response","43","245853","0.0-8.0-2.0-0.9","3841","1","14","Female","approach_avoid_spark_v1","""event"",""trial"",""time""
""fullscreenenter"",""1"",""2538""
","
","
","""event"",""trial"",""time""
""fullscreenenter"",""1"",""2538""
","
","","","","","","null","<div style=""font-size:60px;"">+</div>","null","","fixation","","","","","","","","","","",""
"aa-learning-trial","44","248871","0.0-8.0-2.0-1.9","3841","1","14","Female","approach_avoid_spark_v1","""event"",""trial"",""time""
""fullscreenenter"",""1"",""2538""
","
","
","""event"",""trial"",""time""
""fullscreenenter"",""1"",""2538""
","
","","","","","","507.7999999523163","images/ball3.png","","","learning","-1","-1","1","1","practice","practice","practice","-1","","",""
"html-keyboard-response","45","249373","0.0-8.0-2.0-0.10","3841","1","14","Female","approach_avoid_spark_v1","""event"",""trial"",""time""
""fullscreenenter"",""1"",""2538""
","
","
","""event"",""trial"",""time""
""fullscreenenter"",""1"",""2538""
","
","","","","","","null","<div style=""font-size:60px;"">+</div>","null","","fixation","","","","","","","","","","",""
"aa-learning-trial","46","252381","0.0-8.0-2.0-1.10","3841","1","14","Female","approach_avoid_spark_v1","""event"",""trial"",""time""
""fullscreenenter"",""1"",""2538""
","
","
","""event"",""trial"",""time""
""fullscreenenter"",""1"",""2538""
","
","","","","","","916.4000000953674","images/ball1.png","","","learning","-5","-5","1","1","practice","practice","practice","-1","","",""
"html-keyboard-response","47","252885","0.0-8.0-2.0-0.11","3841","1","14","Female","approach_avoid_spark_v1","""event"",""trial"",""time""
""fullscreenenter"",""1"",""2538""
","
","
","""event"",""trial"",""time""
""fullscreenenter"",""1"",""2538""
","
","","","","","","null","<div style=""font-size:60px;"">+</div>","null","","fixation","","","","","","","","","","",""
"aa-learning-trial","48","255886","0.0-8.0-2.0-1.11","3841","1","14","Female","approach_avoid_spark_v1","""event"",""trial"",""time""
""fullscreenenter"",""1"",""2538""
","
","
","""event"",""trial"",""time""
""fullscreenenter"",""1"",""2538""
","
","","","","","","2491.7000000476837","images/ball4.png","","","learning","6","0","0","0","practice","practice","practice","-1","","",""
"html-button-response","49","258375","0.0-8.0-3.0","3841","1","14","Female","approach_avoid_spark_v1","""event"",""trial"",""time""
""fullscreenenter"",""1"",""2538""
","
","
","""event"",""trial"",""time""
""fullscreenenter"",""1"",""2538""
","
","","","","","","2486.7999999523163","<p> You earned -20 points in the practice round! </p>","0","","break","","","","","","","","","","",""
"learning-instructions","50","265867","0.0-8.0-4.0-0.0","3841","1","14","Female","approach_avoid_spark_v1","""event"",""trial"",""time""
""fullscreenenter"",""1"",""2538""
","
","
","""event"",""trial"",""time""
""fullscreenenter"",""1"",""2538""
","
","","","","","","1493.3999998569489","<p> It's almost time to start the real game. </p><p> Before you start, we're going to ask you a few questions about how the game works. </p>","","0","instructions","","","","","","","","","","",""
"preload","51","267037","0.0-8.0-5.0","3841","1","14","Female","approach_avoid_spark_v1","""event"",""trial"",""time""
""fullscreenenter"",""1"",""2538""
","
","
","""event"",""trial"",""time""
""fullscreenenter"",""1"",""2538""
","
","true","false","[]","[]","[]","","","","","","","","","","","","","","","",""
"comp-q","52","273741","0.0-8.0-6.0-0.0","3841","1","14","Female","approach_avoid_spark_v1","""event"",""trial"",""time""
""fullscreenenter"",""1"",""2538""
","
","
","""event"",""trial"",""time""
""fullscreenenter"",""1"",""2538""
","
","","","","","","1707.9000000953674","<p> <b> True or False? </b> </p><p> If you see a number in GREY, that means you earned that many points. </p>","","1","comp_question","","","","","","","","","true","",""
"comp-q","53","283755","0.0-8.0-6.0-1.0","3841","1","14","Female","approach_avoid_spark_v1","""event"",""trial"",""time""
""fullscreenenter"",""1"",""2538""
","
","
","""event"",""trial"",""time""
""fullscreenenter"",""1"",""2538""
","
","","","","","","1651.6000001430511","<p><b> That's right! </b> If you see a grey number, it means you earned ZERO points. <br> The grey numbers show the points you WOULD HAVE earned if you had made the other choice. </p>","","0","comp_answer","","","","","","","","","","",""
"comp-q","54","289315","0.0-8.0-7.0-0.0","3841","1","14","Female","approach_avoid_spark_v1","""event"",""trial"",""time""
""fullscreenenter"",""1"",""2538""
","
","
","""event"",""trial"",""time""
""fullscreenenter"",""1"",""2538""
","
","","","","","","871.4000000953674","<p> <b> True or False? </b> </p><p> You will have as much time as you want to make each choice. </p>","","1","comp_question","","","","","","","","","true","",""
"comp-q","55","294831","0.0-8.0-7.0-1.0","3841","1","14","Female","approach_avoid_spark_v1","""event"",""trial"",""time""
""fullscreenenter"",""1"",""2538""
","
","
","""event"",""trial"",""time""
""fullscreenenter"",""1"",""2538""
","
","","","","","","1467.4000000953674","<p> <b> That's right! </b> You will only have 3 seconds to make each choice. </p>","","0","comp_answer","","","","","","","","","","",""
"comp-q","56","300375","0.0-8.0-8.0-0.0","3841","1","14","Female","approach_avoid_spark_v1","""event"",""trial"",""time""
""fullscreenenter"",""1"",""2538""
","
","
","""event"",""trial"",""time""
""fullscreenenter"",""1"",""2538""
","
","","","","","","881.3000001907349","<p> <b> True or False? </b> </p><p> You should use the '1' and '0' keys to make your choices. </p>","","0","comp_question","","","","","","","","","true","",""
"comp-q","57","306503","0.0-8.0-8.0-1.0","3841","1","14","Female","approach_avoid_spark_v1","""event"",""trial"",""time""
""fullscreenenter"",""1"",""2538""
","
","
","""event"",""trial"",""time""
""fullscreenenter"",""1"",""2538""
","
","","","","","","1509.9000000953674","<p> <b> That's right! </b> You should use the '1' and '0' keys to make each choice. </p>","","0","comp_answer","","","","","","","","","","",""
"learning-instructions","58","314559","0.0-8.0-9.0-0.0","3841","1","14","Female","approach_avoid_spark_v1","""event"",""trial"",""time""
""fullscreenenter"",""1"",""2538""
","
","
","""event"",""trial"",""time""
""fullscreenenter"",""1"",""2538""
","
","","","","","","1785.5","<p> It's now time to start the real game. </p>Do your best, because the points you earn in the next rounds will influence your bonus payment. </p>","","0","instructions","","","","","","","","","","",""
"preload","59","314678","0.0-9.0-0.0","3841","1","14","Female","approach_avoid_spark_v1","""event"",""trial"",""time""
""fullscreenenter"",""1"",""2538""
","
","
","""event"",""trial"",""time""
""fullscreenenter"",""1"",""2538""
","
","true","false","[]","[]","[]","","","","","","","","","","","","","","","",""
"learning-instructions","60","319007","0.0-9.0-1.0-0.0","3841","1","14","Female","approach_avoid_spark_v1","""event"",""trial"",""time""
""fullscreenenter"",""1"",""2538""
","
","
","""event"",""trial"",""time""
""fullscreenenter"",""1"",""2538""
","
","","","","","","1233.9000000953674","<p> Your goal in this round is to eat tasty fruit. </p></div>","","0","instructions","","","","","","","","","","",""
"learning-instructions","61","329399","0.0-9.0-1.0-0.1","3841","1","14","Female","approach_avoid_spark_v1","""event"",""trial"",""time""
""fullscreenenter"",""1"",""2538""
","
","
","""event"",""trial"",""time""
""fullscreenenter"",""1"",""2538""
","
","","","","","","945.8000001907349","<p> Some of the fruits you will see are tasty. Others are rotten on the inside.  </p><p> On each turn, you will see a fruit.   </p><p> You need to decide whether to eat it or not.  </p>","","0","instructions","","","","","","","","","","",""
"learning-instructions","62","335187","0.0-9.0-1.0-0.2","3841","1","14","Female","approach_avoid_spark_v1","""event"",""trial"",""time""
""fullscreenenter"",""1"",""2538""
","
","
","""event"",""trial"",""time""
""fullscreenenter"",""1"",""2538""
","
","","","","","","1093.4000000953674","<p> You can eat the fruit by pressing 1 and choose not to eat it by pressing 0. </p><br><div class=""choice-instructions-grid""> <div class=""choice-option""><img src=""images/approach.png"" class=""choice-option-img"" stage=""instructions"" position=""0"" ><div class=""choice-option-text""> Press ""1."" </div></div><div class=""choice-option""><img src=""images/avoid.png"" class=""choice-option-img"" stage=""instructions"" position=""1"" ><div class=""choice-option-text""> Press ""0."" </div></div>","","0","instructions","","","","","","","","","","",""
"learning-instructions","63","343111","0.0-9.0-1.0-0.3","3841","1","14","Female","approach_avoid_spark_v1","""event"",""trial"",""time""
""fullscreenenter"",""1"",""2538""
","
","
","""event"",""trial"",""time""
""fullscreenenter"",""1"",""2538""
","
","","","","","","797.7000000476837","<p> If you eat the fruit and it was tasty, you will win points! </p><p> But if you eat the fruit and it was rotten, you will lose points. </p>","","0","instructions","","","","","","","","","","",""
"learning-instructions","64","354801","0.0-9.0-1.0-0.4","3841","1","14","Female","approach_avoid_spark_v1","""event"",""trial"",""time""
""fullscreenenter"",""1"",""2538""
","
","
","""event"",""trial"",""time""
""fullscreenenter"",""1"",""2538""
","
","","","","","","737.5","<p> You will earn points based on how tasty or rotten the fruit was. </p><p> If it was tasty, you will WIN anywhere from 1 - 9 points, </p><p> but if it was rotten, you will LOSE anywhere from 1 - 9 points. </p>","","0","instructions","","","","","","","","","","",""
"learning-instructions","65","362921","0.0-9.0-1.0-0.5","3841","1","14","Female","approach_avoid_spark_v1","""event"",""trial"",""time""
""fullscreenenter"",""1"",""2538""
","
","
","""event"",""trial"",""time""
""fullscreenenter"",""1"",""2538""
","
","","","","","","807.7999999523163","<p> You will see how many points you won or lost in the center of the screen. </p><p> Here is what you would see if you earned 5 points: </p><p style=""color:green;font-size:50px;font-weight:bolder"">5</p>","","0","instructions","","","","","","","","","","",""
"learning-instructions","66","366889","0.0-9.0-1.0-0.6","3841","1","14","Female","approach_avoid_spark_v1","""event"",""trial"",""time""
""fullscreenenter"",""1"",""2538""
","
","
","""event"",""trial"",""time""
""fullscreenenter"",""1"",""2538""
","
","","","","","","605.2999999523163","<p> And here is what you would see if you lost 3 points: </p><p style=""color:red;font-size:50px;font-weight:bolder"">-3</p>","","0","instructions","","","","","","","","","","",""
"learning-instructions","67","381070","0.0-9.0-1.0-0.7","3841","1","14","Female","approach_avoid_spark_v1","""event"",""trial"",""time""
""fullscreenenter"",""1"",""2538""
","
","
","""event"",""trial"",""time""
""fullscreenenter"",""1"",""2538""
","
","","","","","","797.5","<p> Some fruit is very tasty or very rotten. </p><p> These fruits will make you win or lose LOTS of points. </p><p> Other fruits are only kind of tasty or kind of rotten. </p><p> These fruits will make you win or lose small amounts of points. </p>","","0","instructions","","","","","","","","","","",""
"learning-instructions","68","391864","0.0-9.0-1.0-0.8","3841","1","14","Female","approach_avoid_spark_v1","""event"",""trial"",""time""
""fullscreenenter"",""1"",""2538""
","
","
","""event"",""trial"",""time""
""fullscreenenter"",""1"",""2538""
","
","","","","","","691.5999999046326","<p> If you choose to not eat the fruit, you will not win or lose any points. </p><p>  However, in the center of the screen, you will see the number of points you WOULD HAVE earned if you had eaten the fruit. </p>","","0","instructions","","","","","","","","","","",""
"learning-instructions","69","402194","0.0-9.0-1.0-0.9","3841","1","14","Female","approach_avoid_spark_v1","""event"",""trial"",""time""
""fullscreenenter"",""1"",""2538""
","
","
","""event"",""trial"",""time""
""fullscreenenter"",""1"",""2538""
","
","","","","","","661.2000000476837","<p> Here is what you might see if you did not eat the fruit but the fruit was tasty: </p><p style=""color:grey; font-size:50px; display: inline-block; border-spacing: 15px; border-width:3px; border-style:solid; border-color:red"">  &nbsp; 6 &nbsp; </p><p> Remember, in this case, you would not win or lose ANY points because you did not eat the fruit.  </p>","","0","instructions","","","","","","","","","","",""
"learning-instructions","70","410484","0.0-9.0-1.0-0.10","3841","1","14","Female","approach_avoid_spark_v1","""event"",""trial"",""time""
""fullscreenenter"",""1"",""2538""
","
","
","""event"",""trial"",""time""
""fullscreenenter"",""1"",""2538""
","
","","","","","","661.5999999046326","<p> Try to make the best choice for each fruit because </p><p> at the end of the game, you will earn bonus money based on how many points you earned. </p>","","0","instructions","","","","","","","","","","",""
"learning-instructions","71","419402","0.0-9.0-1.0-0.11","3841","1","14","Female","approach_avoid_spark_v1","""event"",""trial"",""time""
""fullscreenenter"",""1"",""2538""
","
","
","""event"",""trial"",""time""
""fullscreenenter"",""1"",""2538""
","
","","","","","","729.4000000953674","<p> You will have 3 seconds to make each choice. Try to respond before time runs out! </p><p> You will lose 5 points each time you do not make a response. </p>","","0","instructions","","","","","","","","","","",""
"html-keyboard-response","72","420027","0.0-9.0-2.0-0.0","3841","1","14","Female","approach_avoid_spark_v1","""event"",""trial"",""time""
""fullscreenenter"",""1"",""2538""
","
","
","""event"",""trial"",""time""
""fullscreenenter"",""1"",""2538""
","
","","","","","","null","<div style=""font-size:60px;"">+</div>","null","","fixation","","","","","","","","","","",""
"aa-learning-trial","73","423051","0.0-9.0-2.0-1.0","3841","1","14","Female","approach_avoid_spark_v1","""event"",""trial"",""time""
""fullscreenenter"",""1"",""2538""
","
","
","""event"",""trial"",""time""
""fullscreenenter"",""1"",""2538""
","
","","","","","","1558.6000001430511","images/banana7.png","","","learning","-5","-5","1","1","banana","fruit","1","0","","bad","[-4]"
"html-keyboard-response","74","423565","0.0-9.0-2.0-0.1","3841","1","14","Female","approach_avoid_spark_v1","""event"",""trial"",""time""
""fullscreenenter"",""1"",""2538""
","
","
","""event"",""trial"",""time""
""fullscreenenter"",""1"",""2538""
","
","","","","","","null","<div style=""font-size:60px;"">+</div>","null","","fixation","","","","","","","","","","",""
"aa-learning-trial","75","426569","0.0-9.0-2.0-1.1","3841","1","14","Female","approach_avoid_spark_v1","""event"",""trial"",""time""
""fullscreenenter"",""1"",""2538""
","
","
","""event"",""trial"",""time""
""fullscreenenter"",""1"",""2538""
","
","","","","","","2972.2999999523163","images/banana6.png","","","learning","-5","-5","1","1","banana","fruit","1","0","","bad","[-4]"
"html-keyboard-response","76","427091","0.0-9.0-2.0-0.2","3841","1","14","Female","approach_avoid_spark_v1","""event"",""trial"",""time""
""fullscreenenter"",""1"",""2538""
","
","
","""event"",""trial"",""time""
""fullscreenenter"",""1"",""2538""
","
","","","","","","null","<div style=""font-size:60px;"">+</div>","null","","fixation","","","","","","","","","","",""
"aa-learning-trial","77","430102","0.0-9.0-2.0-1.2","3841","1","14","Female","approach_avoid_spark_v1","""event"",""trial"",""time""
""fullscreenenter"",""1"",""2538""
","
","
","""event"",""trial"",""time""
""fullscreenenter"",""1"",""2538""
","
","","","","","","1805.7999999523163","images/orange1.png","","","learning","4","4","1","1","orange","fruit","1","0","","good","[4]"
"html-keyboard-response","78","430611","0.0-9.0-2.0-0.3","3841","1","14","Female","approach_avoid_spark_v1","""event"",""trial"",""time""
""fullscreenenter"",""1"",""2538""
","
","
","""event"",""trial"",""time""
""fullscreenenter"",""1"",""2538""
","
","","","","","","null","<div style=""font-size:60px;"">+</div>","null","","fixation","","","","","","","","","","",""
"aa-learning-trial","79","433620","0.0-9.0-2.0-1.3","3841","1","14","Female","approach_avoid_spark_v1","""event"",""trial"",""time""
""fullscreenenter"",""1"",""2538""
","
","
","""event"",""trial"",""time""
""fullscreenenter"",""1"",""2538""
","
","","","","","","869.9000000953674","images/straw4.png","","","learning","1","1","1","1","straw","fruit","1","0","","neutral","0"
"html-keyboard-response","80","434141","0.0-9.0-2.0-0.4","3841","1","14","Female","approach_avoid_spark_v1","""event"",""trial"",""time""
""fullscreenenter"",""1"",""2538""
","
","
","""event"",""trial"",""time""
""fullscreenenter"",""1"",""2538""
","
","","","","","","null","<div style=""font-size:60px;"">+</div>","null","","fixation","","","","","","","","","","",""
"aa-learning-trial","81","437152","0.0-9.0-2.0-1.4","3841","1","14","Female","approach_avoid_spark_v1","""event"",""trial"",""time""
""fullscreenenter"",""1"",""2538""
","
","
","""event"",""trial"",""time""
""fullscreenenter"",""1"",""2538""
","
","","","","","","1755.9000000953674","images/orange1.png","","","learning","5","5","1","1","orange","fruit","1","0","","good","[4]"
"html-keyboard-response","82","437665","0.0-9.0-2.0-0.5","3841","1","14","Female","approach_avoid_spark_v1","""event"",""trial"",""time""
""fullscreenenter"",""1"",""2538""
","
","
","""event"",""trial"",""time""
""fullscreenenter"",""1"",""2538""
","
","","","","","","null","<div style=""font-size:60px;"">+</div>","null","","fixation","","","","","","","","","","",""
"aa-learning-trial","83","440682","0.0-9.0-2.0-1.5","3841","1","14","Female","approach_avoid_spark_v1","""event"",""trial"",""time""
""fullscreenenter"",""1"",""2538""
","
","
","""event"",""trial"",""time""
""fullscreenenter"",""1"",""2538""
","
","","","","","","832.5","images/straw3.png","","","learning","[-1]","-1","1","1","straw","fruit","1","0","","neutral","0"
"html-keyboard-response","84","441207","0.0-9.0-2.0-0.6","3841","1","14","Female","approach_avoid_spark_v1","""event"",""trial"",""time""
""fullscreenenter"",""1"",""2538""
","
","
","""event"",""trial"",""time""
""fullscreenenter"",""1"",""2538""
","
","","","","","","null","<div style=""font-size:60px;"">+</div>","null","","fixation","","","","","","","","","","",""
"aa-learning-trial","85","444220","0.0-9.0-2.0-1.6","3841","1","14","Female","approach_avoid_spark_v1","""event"",""trial"",""time""
""fullscreenenter"",""1"",""2538""
","
","
","""event"",""trial"",""time""
""fullscreenenter"",""1"",""2538""
","
","","","","","","2707.2000000476837","images/banana1.png","","","learning","-2","0","0","0","banana","fruit","1","0","","bad","[-4]"
"html-keyboard-response","86","444742","0.0-9.0-2.0-0.7","3841","1","14","Female","approach_avoid_spark_v1","""event"",""trial"",""time""
""fullscreenenter"",""1"",""2538""
","
","
","""event"",""trial"",""time""
""fullscreenenter"",""1"",""2538""
","
","","","","","","null","<div style=""font-size:60px;"">+</div>","null","","fixation","","","","","","","","","","",""
"aa-learning-trial","87","447762","0.0-9.0-2.0-1.7","3841","1","14","Female","approach_avoid_spark_v1","""event"",""trial"",""time""
""fullscreenenter"",""1"",""2538""
","
","
","""event"",""trial"",""time""
""fullscreenenter"",""1"",""2538""
","
","","","","","","1139.8999998569489","images/orange4.png","","","learning","5","5","1","1","orange","fruit","1","0","","good","[4]"
"html-keyboard-response","88","448272","0.0-9.0-2.0-0.8","3841","1","14","Female","approach_avoid_spark_v1","""event"",""trial"",""time""
""fullscreenenter"",""1"",""2538""
","
","
","""event"",""trial"",""time""
""fullscreenenter"",""1"",""2538""
","
","","","","","","null","<div style=""font-size:60px;"">+</div>","null","","fixation","","","","","","","","","","",""
"aa-learning-trial","89","451291","0.0-9.0-2.0-1.8","3841","1","14","Female","approach_avoid_spark_v1","""event"",""trial"",""time""
""fullscreenenter"",""1"",""2538""
","
","
","""event"",""trial"",""time""
""fullscreenenter"",""1"",""2538""
","
","","","","","","1369.8999998569489","images/banana7.png","","","learning","-2","-2","1","1","banana","fruit","1","0","","bad","[-4]"
"html-keyboard-response","90","451797","0.0-9.0-2.0-0.9","3841","1","14","Female","approach_avoid_spark_v1","""event"",""trial"",""time""
""fullscreenenter"",""1"",""2538""
","
","
","""event"",""trial"",""time""
""fullscreenenter"",""1"",""2538""
","
","","","","","","null","<div style=""font-size:60px;"">+</div>","null","","fixation","","","","","","","","","","",""
"aa-learning-trial","91","454807","0.0-9.0-2.0-1.9","3841","1","14","Female","approach_avoid_spark_v1","""event"",""trial"",""time""
""fullscreenenter"",""1"",""2538""
","
","
","""event"",""trial"",""time""
""fullscreenenter"",""1"",""2538""
","
","","","","","","1101.1000001430511","images/orange8.png","","","learning","2","2","1","1","orange","fruit","1","0","","good","[4]"
"html-keyboard-response","92","455310","0.0-9.0-2.0-0.10","3841","1","14","Female","approach_avoid_spark_v1","""event"",""trial"",""time""
""fullscreenenter"",""1"",""2538""
","
","
","""event"",""trial"",""time""
""fullscreenenter"",""1"",""2538""
","
","","","","","","null","<div style=""font-size:60px;"">+</div>","null","","fixation","","","","","","","","","","",""
"aa-learning-trial","93","458317","0.0-9.0-2.0-1.10","3841","1","14","Female","approach_avoid_spark_v1","""event"",""trial"",""time""
""fullscreenenter"",""1"",""2538""
","
","
","""event"",""trial"",""time""
""fullscreenenter"",""1"",""2538""
","
","","","","","","1180.6999998092651","images/banana6.png","","","learning","-4","-4","1","1","banana","fruit","1","0","","bad","[-4]"
"html-keyboard-response","94","458821","0.0-9.0-2.0-0.11","3841","1","14","Female","approach_avoid_spark_v1","""event"",""trial"",""time""
""fullscreenenter"",""1"",""2538""
","
","
","""event"",""trial"",""time""
""fullscreenenter"",""1"",""2538""
","
","","","","","","null","<div style=""font-size:60px;"">+</div>","null","","fixation","","","","","","","","","","",""
"aa-learning-trial","95","461829","0.0-9.0-2.0-1.11","3841","1","14","Female","approach_avoid_spark_v1","""event"",""trial"",""time""
""fullscreenenter"",""1"",""2538""
","
","
","""event"",""trial"",""time""
""fullscreenenter"",""1"",""2538""
","
","","","","","","957.2000000476837","images/orange4.png","","","learning","4","4","1","1","orange","fruit","1","0","","good","[4]"
"html-keyboard-response","96","462334","0.0-9.0-2.0-0.12","3841","1","14","Female","approach_avoid_spark_v1","""event"",""trial"",""time""
""fullscreenenter"",""1"",""2538""
","
","
","""event"",""trial"",""time""
""fullscreenenter"",""1"",""2538""
","
","","","","","","null","<div style=""font-size:60px;"">+</div>","null","","fixation","","","","","","","","","","",""
"aa-learning-trial","97","465342","0.0-9.0-2.0-1.12","3841","1","14","Female","approach_avoid_spark_v1","""event"",""trial"",""time""
""fullscreenenter"",""1"",""2538""
","
","
","""event"",""trial"",""time""
""fullscreenenter"",""1"",""2538""
","
","","","","","","2108.5","images/straw5.png","","","learning","[-1]","0","0","0","straw","fruit","1","0","","neutral","0"
"html-keyboard-response","98","465846","0.0-9.0-2.0-0.13","3841","1","14","Female","approach_avoid_spark_v1","""event"",""trial"",""time""
""fullscreenenter"",""1"",""2538""
","
","
","""event"",""trial"",""time""
""fullscreenenter"",""1"",""2538""
","
","","","","","","null","<div style=""font-size:60px;"">+</div>","null","","fixation","","","","","","","","","","",""
"aa-learning-trial","99","468853","0.0-9.0-2.0-1.13","3841","1","14","Female","approach_avoid_spark_v1","""event"",""trial"",""time""
""fullscreenenter"",""1"",""2538""
","
","
","""event"",""trial"",""time""
""fullscreenenter"",""1"",""2538""
","
","","","","","","1476.7999999523163","images/straw3.png","","","learning","-1","0","0","0","straw","fruit","1","0","","neutral","0"
"html-keyboard-response","100","469357","0.0-9.0-2.0-0.14","3841","1","14","Female","approach_avoid_spark_v1","""event"",""trial"",""time""
""fullscreenenter"",""1"",""2538""
","
","
","""event"",""trial"",""time""
""fullscreenenter"",""1"",""2538""
","
","","","","","","null","<div style=""font-size:60px;"">+</div>","null","","fixation","","","","","","","","","","",""
"aa-learning-trial","101","472366","0.0-9.0-2.0-1.14","3841","1","14","Female","approach_avoid_spark_v1","""event"",""trial"",""time""
""fullscreenenter"",""1"",""2538""
","
","
","""event"",""trial"",""time""
""fullscreenenter"",""1"",""2538""
","
","","","","","","949","images/straw4.png","","","learning","-3","-3","1","1","straw","fruit","1","0","","neutral","0"
"html-keyboard-response","102","472869","0.0-9.0-2.0-0.15","3841","1","14","Female","approach_avoid_spark_v1","""event"",""trial"",""time""
""fullscreenenter"",""1"",""2538""
","
","
","""event"",""trial"",""time""
""fullscreenenter"",""1"",""2538""
","
","","","","","","null","<div style=""font-size:60px;"">+</div>","null","","fixation","","","","","","","","","","",""
"aa-learning-trial","103","475877","0.0-9.0-2.0-1.15","3841","1","14","Female","approach_avoid_spark_v1","""event"",""trial"",""time""
""fullscreenenter"",""1"",""2538""
","
","
","""event"",""trial"",""time""
""fullscreenenter"",""1"",""2538""
","
","","","","","","1108.7000000476837","images/banana1.png","","","learning","-6","0","0","0","banana","fruit","1","0","","bad","[-4]"
"html-keyboard-response","104","476382","0.0-9.0-2.0-0.16","3841","1","14","Female","approach_avoid_spark_v1","""event"",""trial"",""time""
""fullscreenenter"",""1"",""2538""
","
","
","""event"",""trial"",""time""
""fullscreenenter"",""1"",""2538""
","
","","","","","","null","<div style=""font-size:60px;"">+</div>","null","","fixation","","","","","","","","","","",""
"aa-learning-trial","105","479404","0.0-9.0-2.0-1.16","3841","1","14","Female","approach_avoid_spark_v1","""event"",""trial"",""time""
""fullscreenenter"",""1"",""2538""
","
","
","""event"",""trial"",""time""
""fullscreenenter"",""1"",""2538""
","
","","","","","","916.2999999523163","images/straw3.png","","","learning","-1","-1","1","1","straw","fruit","1","0","","neutral","0"
"html-keyboard-response","106","479916","0.0-9.0-2.0-0.17","3841","1","14","Female","approach_avoid_spark_v1","""event"",""trial"",""time""
""fullscreenenter"",""1"",""2538""
","
","
","""event"",""trial"",""time""
""fullscreenenter"",""1"",""2538""
","
","","","","","","null","<div style=""font-size:60px;"">+</div>","null","","fixation","","","","","","","","","","",""
"aa-learning-trial","107","482926","0.0-9.0-2.0-1.17","3841","1","14","Female","approach_avoid_spark_v1","""event"",""trial"",""time""
""fullscreenenter"",""1"",""2538""
","
","
","""event"",""trial"",""time""
""fullscreenenter"",""1"",""2538""
","
","","","","","","1046.5","images/banana3.png","","","learning","-3","-3","1","1","banana","fruit","1","0","","bad","[-4]"
"html-keyboard-response","108","483440","0.0-9.0-2.0-0.18","3841","1","14","Female","approach_avoid_spark_v1","""event"",""trial"",""time""
""fullscreenenter"",""1"",""2538""
","
","
","""event"",""trial"",""time""
""fullscreenenter"",""1"",""2538""
","
","","","","","","null","<div style=""font-size:60px;"">+</div>","null","","fixation","","","","","","","","","","",""
"aa-learning-trial","109","486446","0.0-9.0-2.0-1.18","3841","1","14","Female","approach_avoid_spark_v1","""event"",""trial"",""time""
""fullscreenenter"",""1"",""2538""
","
","
","""event"",""trial"",""time""
""fullscreenenter"",""1"",""2538""
","
","","","","","","1770","images/banana6.png","","","learning","-5","-5","1","1","banana","fruit","1","0","","bad","[-4]"
"html-keyboard-response","110","486950","0.0-9.0-2.0-0.19","3841","1","14","Female","approach_avoid_spark_v1","""event"",""trial"",""time""
""fullscreenenter"",""1"",""2538""
","
","
","""event"",""trial"",""time""
""fullscreenenter"",""1"",""2538""
","
","","","","","","null","<div style=""font-size:60px;"">+</div>","null","","fixation","","","","","","","","","","",""
"aa-learning-trial","111","489957","0.0-9.0-2.0-1.19","3841","1","14","Female","approach_avoid_spark_v1","""event"",""trial"",""time""
""fullscreenenter"",""1"",""2538""
","
","
","""event"",""trial"",""time""
""fullscreenenter"",""1"",""2538""
","
","","","","","","1124.8000001907349","images/straw4.png","","","learning","[1]","1","1","1","straw","fruit","1","0","","neutral","0"
"html-keyboard-response","112","490462","0.0-9.0-2.0-0.20","3841","1","14","Female","approach_avoid_spark_v1","""event"",""trial"",""time""
""fullscreenenter"",""1"",""2538""
","
","
","""event"",""trial"",""time""
""fullscreenenter"",""1"",""2538""
","
","","","","","","null","<div style=""font-size:60px;"">+</div>","null","","fixation","","","","","","","","","","",""
"aa-learning-trial","113","493470","0.0-9.0-2.0-1.20","3841","1","14","Female","approach_avoid_spark_v1","""event"",""trial"",""time""
""fullscreenenter"",""1"",""2538""
","
","
","""event"",""trial"",""time""
""fullscreenenter"",""1"",""2538""
","
","","","","","","795.7999999523163","images/straw4.png","","","learning","-2","-2","1","1","straw","fruit","1","0","","neutral","0"
"html-keyboard-response","114","493974","0.0-9.0-2.0-0.21","3841","1","14","Female","approach_avoid_spark_v1","""event"",""trial"",""time""
""fullscreenenter"",""1"",""2538""
","
","
","""event"",""trial"",""time""
""fullscreenenter"",""1"",""2538""
","
","","","","","","null","<div style=""font-size:60px;"">+</div>","null","","fixation","","","","","","","","","","",""
"aa-learning-trial","115","496981","0.0-9.0-2.0-1.21","3841","1","14","Female","approach_avoid_spark_v1","""event"",""trial"",""time""
""fullscreenenter"",""1"",""2538""
","
","
","""event"",""trial"",""time""
""fullscreenenter"",""1"",""2538""
","
","","","","","","1668.5999999046326","images/orange1.png","","","learning","2","2","1","1","orange","fruit","1","0","","good","[4]"
"html-keyboard-response","116","497486","0.0-9.0-2.0-0.22","3841","1","14","Female","approach_avoid_spark_v1","""event"",""trial"",""time""
""fullscreenenter"",""1"",""2538""
","
","
","""event"",""trial"",""time""
""fullscreenenter"",""1"",""2538""
","
","","","","","","null","<div style=""font-size:60px;"">+</div>","null","","fixation","","","","","","","","","","",""
"aa-learning-trial","117","500494","0.0-9.0-2.0-1.22","3841","1","14","Female","approach_avoid_spark_v1","""event"",""trial"",""time""
""fullscreenenter"",""1"",""2538""
","
","
","""event"",""trial"",""time""
""fullscreenenter"",""1"",""2538""
","
","","","","","","1580.6000001430511","images/straw3.png","","","learning","-1","0","0","0","straw","fruit","1","0","","neutral","0"
"html-keyboard-response","118","500997","0.0-9.0-2.0-0.23","3841","1","14","Female","approach_avoid_spark_v1","""event"",""trial"",""time""
""fullscreenenter"",""1"",""2538""
","
","
","""event"",""trial"",""time""
""fullscreenenter"",""1"",""2538""
","
","","","","","","null","<div style=""font-size:60px;"">+</div>","null","","fixation","","","","","","","","","","",""
"aa-learning-trial","119","504005","0.0-9.0-2.0-1.23","3841","1","14","Female","approach_avoid_spark_v1","""event"",""trial"",""time""
""fullscreenenter"",""1"",""2538""
","
","
","""event"",""trial"",""time""
""fullscreenenter"",""1"",""2538""
","
","","","","","","1245.4000000953674","images/orange1.png","","","learning","7","7","1","1","orange","fruit","1","0","","good","[4]"
"html-keyboard-response","120","504523","0.0-9.0-2.0-0.24","3841","1","14","Female","approach_avoid_spark_v1","""event"",""trial"",""time""
""fullscreenenter"",""1"",""2538""
","
","
","""event"",""trial"",""time""
""fullscreenenter"",""1"",""2538""
","
","","","","","","null","<div style=""font-size:60px;"">+</div>","null","","fixation","","","","","","","","","","",""
"aa-learning-trial","121","507525","0.0-9.0-2.0-1.24","3841","1","14","Female","approach_avoid_spark_v1","""event"",""trial"",""time""
""fullscreenenter"",""1"",""2538""
","
","
","""event"",""trial"",""time""
""fullscreenenter"",""1"",""2538""
","
","","","","","","1054.7999999523163","images/straw5.png","","","learning","[-1]","0","0","0","straw","fruit","1","0","","neutral","0"
"html-keyboard-response","122","508043","0.0-9.0-2.0-0.25","3841","1","14","Female","approach_avoid_spark_v1","""event"",""trial"",""time""
""fullscreenenter"",""1"",""2538""
","
","
","""event"",""trial"",""time""
""fullscreenenter"",""1"",""2538""
","
","","","","","","null","<div style=""font-size:60px;"">+</div>","null","","fixation","","","","","","","","","","",""
"aa-learning-trial","123","511046","0.0-9.0-2.0-1.25","3841","1","14","Female","approach_avoid_spark_v1","""event"",""trial"",""time""
""fullscreenenter"",""1"",""2538""
","
","
","""event"",""trial"",""time""
""fullscreenenter"",""1"",""2538""
","
","","","","","","1255.7000000476837","images/banana1.png","","","learning","-4","0","0","0","banana","fruit","1","0","","bad","[-4]"
"html-keyboard-response","124","511554","0.0-9.0-2.0-0.26","3841","1","14","Female","approach_avoid_spark_v1","""event"",""trial"",""time""
""fullscreenenter"",""1"",""2538""
","
","
","""event"",""trial"",""time""
""fullscreenenter"",""1"",""2538""
","
","","","","","","null","<div style=""font-size:60px;"">+</div>","null","","fixation","","","","","","","","","","",""
"aa-learning-trial","125","514557","0.0-9.0-2.0-1.26","3841","1","14","Female","approach_avoid_spark_v1","""event"",""trial"",""time""
""fullscreenenter"",""1"",""2538""
","
","
","""event"",""trial"",""time""
""fullscreenenter"",""1"",""2538""
","
","","","","","","712.0999999046326","images/orange4.png","","","learning","4","4","1","1","orange","fruit","1","0","","good","[4]"
"html-keyboard-response","126","515062","0.0-9.0-2.0-0.27","3841","1","14","Female","approach_avoid_spark_v1","""event"",""trial"",""time""
""fullscreenenter"",""1"",""2538""
","
","
","""event"",""trial"",""time""
""fullscreenenter"",""1"",""2538""
","
","","","","","","null","<div style=""font-size:60px;"">+</div>","null","","fixation","","","","","","","","","","",""
"aa-learning-trial","127","518070","0.0-9.0-2.0-1.27","3841","1","14","Female","approach_avoid_spark_v1","""event"",""trial"",""time""
""fullscreenenter"",""1"",""2538""
","
","
","""event"",""trial"",""time""
""fullscreenenter"",""1"",""2538""
","
","","","","","","700.7999999523163","images/orange4.png","","","learning","4","4","1","1","orange","fruit","1","0","","good","[4]"
"html-keyboard-response","128","518573","0.0-9.0-2.0-0.28","3841","1","14","Female","approach_avoid_spark_v1","""event"",""trial"",""time""
""fullscreenenter"",""1"",""2538""
","
","
","""event"",""trial"",""time""
""fullscreenenter"",""1"",""2538""
","
","","","","","","null","<div style=""font-size:60px;"">+</div>","null","","fixation","","","","","","","","","","",""
"aa-learning-trial","129","521582","0.0-9.0-2.0-1.28","3841","1","14","Female","approach_avoid_spark_v1","""event"",""trial"",""time""
""fullscreenenter"",""1"",""2538""
","
","
","""event"",""trial"",""time""
""fullscreenenter"",""1"",""2538""
","
","","","","","","2509.100000143051","images/banana8.png","","","learning","-6","0","0","0","banana","fruit","1","0","","bad","[-4]"
"html-keyboard-response","130","522086","0.0-9.0-2.0-0.29","3841","1","14","Female","approach_avoid_spark_v1","""event"",""trial"",""time""
""fullscreenenter"",""1"",""2538""
","
","
","""event"",""trial"",""time""
""fullscreenenter"",""1"",""2538""
","
","","","","","","null","<div style=""font-size:60px;"">+</div>","null","","fixation","","","","","","","","","","",""
"aa-learning-trial","131","525094","0.0-9.0-2.0-1.29","3841","1","14","Female","approach_avoid_spark_v1","""event"",""trial"",""time""
""fullscreenenter"",""1"",""2538""
","
","
","""event"",""trial"",""time""
""fullscreenenter"",""1"",""2538""
","
","","","","","","1093.3999998569489","images/straw5.png","","","learning","-1","0","0","0","straw","fruit","1","0","","neutral","0"
"html-keyboard-response","132","525611","0.0-9.0-2.0-0.30","3841","1","14","Female","approach_avoid_spark_v1","""event"",""trial"",""time""
""fullscreenenter"",""1"",""2538""
","
","
","""event"",""trial"",""time""
""fullscreenenter"",""1"",""2538""
","
","","","","","","null","<div style=""font-size:60px;"">+</div>","null","","fixation","","","","","","","","","","",""
"aa-learning-trial","133","528614","0.0-9.0-2.0-1.30","3841","1","14","Female","approach_avoid_spark_v1","""event"",""trial"",""time""
""fullscreenenter"",""1"",""2538""
","
","
","""event"",""trial"",""time""
""fullscreenenter"",""1"",""2538""
","
","","","","","","1103.1000001430511","images/banana7.png","","","learning","-5","0","0","0","banana","fruit","1","0","","bad","[-4]"
"html-keyboard-response","134","529117","0.0-9.0-2.0-0.31","3841","1","14","Female","approach_avoid_spark_v1","""event"",""trial"",""time""
""fullscreenenter"",""1"",""2538""
","
","
","""event"",""trial"",""time""
""fullscreenenter"",""1"",""2538""
","
","","","","","","null","<div style=""font-size:60px;"">+</div>","null","","fixation","","","","","","","","","","",""
"aa-learning-trial","135","532127","0.0-9.0-2.0-1.31","3841","1","14","Female","approach_avoid_spark_v1","""event"",""trial"",""time""
""fullscreenenter"",""1"",""2538""
","
","
","""event"",""trial"",""time""
""fullscreenenter"",""1"",""2538""
","
","","","","","","828.7999999523163","images/straw4.png","","","learning","[1]","1","1","1","straw","fruit","1","0","","neutral","0"
"html-keyboard-response","136","532630","0.0-9.0-2.0-0.32","3841","1","14","Female","approach_avoid_spark_v1","""event"",""trial"",""time""
""fullscreenenter"",""1"",""2538""
","
","
","""event"",""trial"",""time""
""fullscreenenter"",""1"",""2538""
","
","","","","","","null","<div style=""font-size:60px;"">+</div>","null","","fixation","","","","","","","","","","",""
"aa-learning-trial","137","535638","0.0-9.0-2.0-1.32","3841","1","14","Female","approach_avoid_spark_v1","""event"",""trial"",""time""
""fullscreenenter"",""1"",""2538""
","
","
","""event"",""trial"",""time""
""fullscreenenter"",""1"",""2538""
","
","","","","","","876.9000000953674","images/banana7.png","","","learning","-5","-5","1","1","banana","fruit","1","0","","bad","[-4]"
"html-keyboard-response","138","536141","0.0-9.0-2.0-0.33","3841","1","14","Female","approach_avoid_spark_v1","""event"",""trial"",""time""
""fullscreenenter"",""1"",""2538""
","
","
","""event"",""trial"",""time""
""fullscreenenter"",""1"",""2538""
","
","","","","","","null","<div style=""font-size:60px;"">+</div>","null","","fixation","","","","","","","","","","",""
"aa-learning-trial","139","539160","0.0-9.0-2.0-1.33","3841","1","14","Female","approach_avoid_spark_v1","""event"",""trial"",""time""
""fullscreenenter"",""1"",""2538""
","
","
","""event"",""trial"",""time""
""fullscreenenter"",""1"",""2538""
","
","","","","","","645.7999999523163","images/orange4.png","","","learning","2","2","1","1","orange","fruit","1","0","","good","[4]"
"html-keyboard-response","140","539670","0.0-9.0-2.0-0.34","3841","1","14","Female","approach_avoid_spark_v1","""event"",""trial"",""time""
""fullscreenenter"",""1"",""2538""
","
","
","""event"",""trial"",""time""
""fullscreenenter"",""1"",""2538""
","
","","","","","","null","<div style=""font-size:60px;"">+</div>","null","","fixation","","","","","","","","","","",""
"aa-learning-trial","141","542677","0.0-9.0-2.0-1.34","3841","1","14","Female","approach_avoid_spark_v1","""event"",""trial"",""time""
""fullscreenenter"",""1"",""2538""
","
","
","""event"",""trial"",""time""
""fullscreenenter"",""1"",""2538""
","
","","","","","","988.2999999523163","images/orange8.png","","","learning","6","6","1","1","orange","fruit","1","0","","good","[4]"
"html-keyboard-response","142","543196","0.0-9.0-2.0-0.35","3841","1","14","Female","approach_avoid_spark_v1","""event"",""trial"",""time""
""fullscreenenter"",""1"",""2538""
","
","
","""event"",""trial"",""time""
""fullscreenenter"",""1"",""2538""
","
","","","","","","null","<div style=""font-size:60px;"">+</div>","null","","fixation","","","","","","","","","","",""
"aa-learning-trial","143","546217","0.0-9.0-2.0-1.35","3841","1","14","Female","approach_avoid_spark_v1","""event"",""trial"",""time""
""fullscreenenter"",""1"",""2538""
","
","
","""event"",""trial"",""time""
""fullscreenenter"",""1"",""2538""
","
","","","","","","1535","images/banana6.png","","","learning","-4","-4","1","1","banana","fruit","1","0","","bad","[-4]"
"html-keyboard-response","144","546725","0.0-9.0-2.0-0.36","3841","1","14","Female","approach_avoid_spark_v1","""event"",""trial"",""time""
""fullscreenenter"",""1"",""2538""
","
","
","""event"",""trial"",""time""
""fullscreenenter"",""1"",""2538""
","
","","","","","","null","<div style=""font-size:60px;"">+</div>","null","","fixation","","","","","","","","","","",""
"aa-learning-trial","145","549733","0.0-9.0-2.0-1.36","3841","1","14","Female","approach_avoid_spark_v1","""event"",""trial"",""time""
""fullscreenenter"",""1"",""2538""
","
","
","""event"",""trial"",""time""
""fullscreenenter"",""1"",""2538""
","
","","","","","","597.2999999523163","images/orange8.png","","","learning","3","3","1","1","orange","fruit","1","0","","good","[4]"
"html-keyboard-response","146","550240","0.0-9.0-2.0-0.37","3841","1","14","Female","approach_avoid_spark_v1","""event"",""trial"",""time""
""fullscreenenter"",""1"",""2538""
","
","
","""event"",""trial"",""time""
""fullscreenenter"",""1"",""2538""
","
","","","","","","null","<div style=""font-size:60px;"">+</div>","null","","fixation","","","","","","","","","","",""
"aa-learning-trial","147","553246","0.0-9.0-2.0-1.37","3841","1","14","Female","approach_avoid_spark_v1","""event"",""trial"",""time""
""fullscreenenter"",""1"",""2538""
","
","
","""event"",""trial"",""time""
""fullscreenenter"",""1"",""2538""
","
","","","","","","714.1000001430511","images/orange6.png","","","learning","3","3","1","1","orange","fruit","1","0","","good","[4]"
"html-keyboard-response","148","553750","0.0-9.0-2.0-0.38","3841","1","14","Female","approach_avoid_spark_v1","""event"",""trial"",""time""
""fullscreenenter"",""1"",""2538""
","
","
","""event"",""trial"",""time""
""fullscreenenter"",""1"",""2538""
","
","","","","","","null","<div style=""font-size:60px;"">+</div>","null","","fixation","","","","","","","","","","",""
"aa-learning-trial","149","556766","0.0-9.0-2.0-1.38","3841","1","14","Female","approach_avoid_spark_v1","""event"",""trial"",""time""
""fullscreenenter"",""1"",""2538""
","
","
","""event"",""trial"",""time""
""fullscreenenter"",""1"",""2538""
","
","","","","","","1428.9000000953674","images/banana6.png","","","learning","-5","-5","1","1","banana","fruit","1","0","","bad","[-4]"
"html-keyboard-response","150","557270","0.0-9.0-2.0-0.39","3841","1","14","Female","approach_avoid_spark_v1","""event"",""trial"",""time""
""fullscreenenter"",""1"",""2538""
","
","
","""event"",""trial"",""time""
""fullscreenenter"",""1"",""2538""
","
","","","","","","null","<div style=""font-size:60px;"">+</div>","null","","fixation","","","","","","","","","","",""
"aa-learning-trial","151","560277","0.0-9.0-2.0-1.39","3841","1","14","Female","approach_avoid_spark_v1","""event"",""trial"",""time""
""fullscreenenter"",""1"",""2538""
","
","
","""event"",""trial"",""time""
""fullscreenenter"",""1"",""2538""
","
","","","","","","820.9000000953674","images/orange1.png","","","learning","4","4","1","1","orange","fruit","1","0","","good","[4]"
"html-keyboard-response","152","560782","0.0-9.0-2.0-0.40","3841","1","14","Female","approach_avoid_spark_v1","""event"",""trial"",""time""
""fullscreenenter"",""1"",""2538""
","
","
","""event"",""trial"",""time""
""fullscreenenter"",""1"",""2538""
","
","","","","","","null","<div style=""font-size:60px;"">+</div>","null","","fixation","","","","","","","","","","",""
"aa-learning-trial","153","563790","0.0-9.0-2.0-1.40","3841","1","14","Female","approach_avoid_spark_v1","""event"",""trial"",""time""
""fullscreenenter"",""1"",""2538""
","
","
","""event"",""trial"",""time""
""fullscreenenter"",""1"",""2538""
","
","","","","","","956.8999998569489","images/orange7.png","","","learning","5","5","1","1","orange","fruit","1","0","","good","[4]"
"html-keyboard-response","154","564306","0.0-9.0-2.0-0.41","3841","1","14","Female","approach_avoid_spark_v1","""event"",""trial"",""time""
""fullscreenenter"",""1"",""2538""
","
","
","""event"",""trial"",""time""
""fullscreenenter"",""1"",""2538""
","
","","","","","","null","<div style=""font-size:60px;"">+</div>","null","","fixation","","","","","","","","","","",""
"aa-learning-trial","155","567312","0.0-9.0-2.0-1.41","3841","1","14","Female","approach_avoid_spark_v1","""event"",""trial"",""time""
""fullscreenenter"",""1"",""2538""
","
","
","""event"",""trial"",""time""
""fullscreenenter"",""1"",""2538""
","
","","","","","","1632.7999999523163","images/banana7.png","","","learning","-2","-2","1","1","banana","fruit","1","0","","bad","[-4]"
"html-keyboard-response","156","567821","0.0-9.0-2.0-0.42","3841","1","14","Female","approach_avoid_spark_v1","""event"",""trial"",""time""
""fullscreenenter"",""1"",""2538""
","
","
","""event"",""trial"",""time""
""fullscreenenter"",""1"",""2538""
","
","","","","","","null","<div style=""font-size:60px;"">+</div>","null","","fixation","","","","","","","","","","",""
"aa-learning-trial","157","570830","0.0-9.0-2.0-1.42","3841","1","14","Female","approach_avoid_spark_v1","""event"",""trial"",""time""
""fullscreenenter"",""1"",""2538""
","
","
","""event"",""trial"",""time""
""fullscreenenter"",""1"",""2538""
","
","","","","","","1581.6999998092651","images/banana7.png","","","learning","-5","0","0","0","banana","fruit","1","0","","bad","[-4]"
"html-keyboard-response","158","571333","0.0-9.0-2.0-0.43","3841","1","14","Female","approach_avoid_spark_v1","""event"",""trial"",""time""
""fullscreenenter"",""1"",""2538""
","
","
","""event"",""trial"",""time""
""fullscreenenter"",""1"",""2538""
","
","","","","","","null","<div style=""font-size:60px;"">+</div>","null","","fixation","","","","","","","","","","",""
"aa-learning-trial","159","574342","0.0-9.0-2.0-1.43","3841","1","14","Female","approach_avoid_spark_v1","""event"",""trial"",""time""
""fullscreenenter"",""1"",""2538""
","
","
","""event"",""trial"",""time""
""fullscreenenter"",""1"",""2538""
","
","","","","","","853","images/straw3.png","","","learning","[1]","1","1","1","straw","fruit","1","0","","neutral","0"
"html-keyboard-response","160","574846","0.0-9.0-2.0-0.44","3841","1","14","Female","approach_avoid_spark_v1","""event"",""trial"",""time""
""fullscreenenter"",""1"",""2538""
","
","
","""event"",""trial"",""time""
""fullscreenenter"",""1"",""2538""
","
","","","","","","null","<div style=""font-size:60px;"">+</div>","null","","fixation","","","","","","","","","","",""
"aa-learning-trial","161","577854","0.0-9.0-2.0-1.44","3841","1","14","Female","approach_avoid_spark_v1","""event"",""trial"",""time""
""fullscreenenter"",""1"",""2538""
","
","
","""event"",""trial"",""time""
""fullscreenenter"",""1"",""2538""
","
","","","","","","524.5","images/orange1.png","","","learning","8","8","1","1","orange","fruit","1","0","","good","[4]"
"html-keyboard-response","162","578363","0.0-9.0-2.0-0.45","3841","1","14","Female","approach_avoid_spark_v1","""event"",""trial"",""time""
""fullscreenenter"",""1"",""2538""
","
","
","""event"",""trial"",""time""
""fullscreenenter"",""1"",""2538""
","
","","","","","","null","<div style=""font-size:60px;"">+</div>","null","","fixation","","","","","","","","","","",""
"aa-learning-trial","163","581365","0.0-9.0-2.0-1.45","3841","1","14","Female","approach_avoid_spark_v1","""event"",""trial"",""time""
""fullscreenenter"",""1"",""2538""
","
","
","""event"",""trial"",""time""
""fullscreenenter"",""1"",""2538""
","
","","","","","","1160.5999999046326","images/straw3.png","","","learning","-1","-1","1","1","straw","fruit","1","0","","neutral","0"
"html-keyboard-response","164","581871","0.0-9.0-2.0-0.46","3841","1","14","Female","approach_avoid_spark_v1","""event"",""trial"",""time""
""fullscreenenter"",""1"",""2538""
","
","
","""event"",""trial"",""time""
""fullscreenenter"",""1"",""2538""
","
","","","","","","null","<div style=""font-size:60px;"">+</div>","null","","fixation","","","","","","","","","","",""
"aa-learning-trial","165","584883","0.0-9.0-2.0-1.46","3841","1","14","Female","approach_avoid_spark_v1","""event"",""trial"",""time""
""fullscreenenter"",""1"",""2538""
","
","
","""event"",""trial"",""time""
""fullscreenenter"",""1"",""2538""
","
","","","","","","747.2999999523163","images/straw4.png","","","learning","1","1","1","1","straw","fruit","1","0","","neutral","0"
"html-keyboard-response","166","585389","0.0-9.0-2.0-0.47","3841","1","14","Female","approach_avoid_spark_v1","""event"",""trial"",""time""
""fullscreenenter"",""1"",""2538""
","
","
","""event"",""trial"",""time""
""fullscreenenter"",""1"",""2538""
","
","","","","","","null","<div style=""font-size:60px;"">+</div>","null","","fixation","","","","","","","","","","",""
"aa-learning-trial","167","588397","0.0-9.0-2.0-1.47","3841","1","14","Female","approach_avoid_spark_v1","""event"",""trial"",""time""
""fullscreenenter"",""1"",""2538""
","
","
","""event"",""trial"",""time""
""fullscreenenter"",""1"",""2538""
","
","","","","","","1549.2999999523163","images/banana6.png","","","learning","-4","0","0","0","banana","fruit","1","0","","bad","[-4]"
"html-keyboard-response","168","588904","0.0-9.0-2.0-0.48","3841","1","14","Female","approach_avoid_spark_v1","""event"",""trial"",""time""
""fullscreenenter"",""1"",""2538""
","
","
","""event"",""trial"",""time""
""fullscreenenter"",""1"",""2538""
","
","","","","","","null","<div style=""font-size:60px;"">+</div>","null","","fixation","","","","","","","","","","",""
"aa-learning-trial","169","591921","0.0-9.0-2.0-1.48","3841","1","14","Female","approach_avoid_spark_v1","""event"",""trial"",""time""
""fullscreenenter"",""1"",""2538""
","
","
","""event"",""trial"",""time""
""fullscreenenter"",""1"",""2538""
","
","","","","","","690.3999998569489","images/straw7.png","","","learning","-1","-1","1","1","straw","fruit","1","0","","neutral","0"
"html-keyboard-response","170","592430","0.0-9.0-2.0-0.49","3841","1","14","Female","approach_avoid_spark_v1","""event"",""trial"",""time""
""fullscreenenter"",""1"",""2538""
","
","
","""event"",""trial"",""time""
""fullscreenenter"",""1"",""2538""
","
","","","","","","null","<div style=""font-size:60px;"">+</div>","null","","fixation","","","","","","","","","","",""
"aa-learning-trial","171","595438","0.0-9.0-2.0-1.49","3841","1","14","Female","approach_avoid_spark_v1","""event"",""trial"",""time""
""fullscreenenter"",""1"",""2538""
","
","
","""event"",""trial"",""time""
""fullscreenenter"",""1"",""2538""
","
","","","","","","637","images/orange4.png","","","learning","4","4","1","1","orange","fruit","1","0","","good","[4]"
"html-keyboard-response","172","595942","0.0-9.0-2.0-0.50","3841","1","14","Female","approach_avoid_spark_v1","""event"",""trial"",""time""
""fullscreenenter"",""1"",""2538""
","
","
","""event"",""trial"",""time""
""fullscreenenter"",""1"",""2538""
","
","","","","","","null","<div style=""font-size:60px;"">+</div>","null","","fixation","","","","","","","","","","",""
"aa-learning-trial","173","598949","0.0-9.0-2.0-1.50","3841","1","14","Female","approach_avoid_spark_v1","""event"",""trial"",""time""
""fullscreenenter"",""1"",""2538""
","
","
","""event"",""trial"",""time""
""fullscreenenter"",""1"",""2538""
","
","","","","","","668.9000000953674","images/straw8.png","","","learning","2","2","1","1","straw","fruit","1","0","","neutral","0"
"html-button-response","174","601610","0.0-9.0-3.0","3841","1","14","Female","approach_avoid_spark_v1","""event"",""trial"",""time""
""fullscreenenter"",""1"",""2538""
","
","
","""event"",""trial"",""time""
""fullscreenenter"",""1"",""2538""
","
","","","","","","2659.800000190735","<p> You have completed the round! <p> In this round, you earned 30 points! </p>","0","","break","","","","","","","","","","",""
"html-button-response","175","603147","0.0-10.0","3841","1","14","Female","approach_avoid_spark_v1","""event"",""trial"",""time""
""fullscreenenter"",""1"",""2538""
","
","
","""event"",""trial"",""time""
""fullscreenenter"",""1"",""2538""
","
","","","","","","1537.3999998569489","<p> Now it's time to play another round. </p>","0","","transition_screen","","","","","","","","","","",""
"preload","176","603263","0.0-11.0-0.0","3841","1","14","Female","approach_avoid_spark_v1","""event"",""trial"",""time""
""fullscreenenter"",""1"",""2538""
","
","
","""event"",""trial"",""time""
""fullscreenenter"",""1"",""2538""
","
","true","false","[]","[]","[]","","","","","","","","","","","","","","","",""
"learning-instructions","177","609476","0.0-11.0-1.0-0.0","3841","1","14","Female","approach_avoid_spark_v1","""event"",""trial"",""time""
""fullscreenenter"",""1"",""2538""
","
","
","""event"",""trial"",""time""
""fullscreenenter"",""1"",""2538""
","
","","","","","","1540.3000001907349","<p> Your goal in this round is to take care of lots of farm animals. </p></div>","","0","instructions","","","","","","","","","","",""
"learning-instructions","178","620377","0.0-11.0-1.0-0.1","3841","1","14","Female","approach_avoid_spark_v1","""event"",""trial"",""time""
""fullscreenenter"",""1"",""2538""
","
","
","""event"",""trial"",""time""
""fullscreenenter"",""1"",""2538""
","
","","","","","","1272.4000000953674","<p> Some farm animals are hungry, while other farm animals are already full.  </p><p> On each turn, you will see a farm animal.   </p><p> You need to decide whether to feed it or not.  </p>","","0","instructions","","","","","","","","","","",""
"learning-instructions","179","626956","0.0-11.0-1.0-0.2","3841","1","14","Female","approach_avoid_spark_v1","""event"",""trial"",""time""
""fullscreenenter"",""1"",""2538""
","
","
","""event"",""trial"",""time""
""fullscreenenter"",""1"",""2538""
","
","","","","","","901.7999999523163","<p> You can feed the farm animal by pressing 1 and leave the farm animal alone by pressing 0. </p><br><div class=""choice-instructions-grid""> <div class=""choice-option""><img src=""images/approach.png"" class=""choice-option-img"" stage=""instructions"" position=""0"" ><div class=""choice-option-text""> Press ""1."" </div></div><div class=""choice-option""><img src=""images/avoid.png"" class=""choice-option-img"" stage=""instructions"" position=""1"" ><div class=""choice-option-text""> Press ""0."" </div></div>","","0","instructions","","","","","","","","","","",""
"learning-instructions","180","638320","0.0-11.0-1.0-0.3","3841","1","14","Female","approach_avoid_spark_v1","""event"",""trial"",""time""
""fullscreenenter"",""1"",""2538""
","
","
","""event"",""trial"",""time""
""fullscreenenter"",""1"",""2538""
","
","","","","","","2116.0999999046326","<p> If you feed a hungry farm animal, you will make it feel satisfied! </p><p> But if you feed the farm animal and it was already full, you will make it feel sick. </p>","","0","instructions","","","","","","","","","","",""
"learning-instructions","181","651896","0.0-11.0-1.0-0.4","3841","1","14","Female","approach_avoid_spark_v1","""event"",""trial"",""time""
""fullscreenenter"",""1"",""2538""
","
","
","""event"",""trial"",""time""
""fullscreenenter"",""1"",""2538""
","
","","","","","","1481.8000001907349","<p> You will earn points based on how you made the farm animal feel. </p><p> If you made it satisfied, you will WIN anywhere from 1 - 9 points, </p><p> but if you made it sick, you will LOSE anywhere from 1 - 9 points. </p>","","0","instructions","","","","","","","","","","",""
"learning-instructions","182","659416","0.0-11.0-1.0-0.5","3841","1","14","Female","approach_avoid_spark_v1","""event"",""trial"",""time""
""fullscreenenter"",""1"",""2538""
","
","
","""event"",""trial"",""time""
""fullscreenenter"",""1"",""2538""
","
","","","","","","862","<p> You will see how many points you won or lost in the center of the screen. </p><p> Here is what you would see if you won 5 points: </p><p style=""color:green;font-size:50px;font-weight:bolder"">5</p>","","0","instructions","","","","","","","","","","",""
"learning-instructions","183","663212","0.0-11.0-1.0-0.6","3841","1","14","Female","approach_avoid_spark_v1","""event"",""trial"",""time""
""fullscreenenter"",""1"",""2538""
","
","
","""event"",""trial"",""time""
""fullscreenenter"",""1"",""2538""
","
","","","","","","958.4000000953674","<p> And here is what you would see if you lost 3 points: </p><p style=""color:red;font-size:50px;font-weight:bolder"">-3</p>","","0","instructions","","","","","","","","","","",""
"learning-instructions","184","679752","0.0-11.0-1.0-0.7","3841","1","14","Female","approach_avoid_spark_v1","""event"",""trial"",""time""
""fullscreenenter"",""1"",""2538""
","
","
","""event"",""trial"",""time""
""fullscreenenter"",""1"",""2538""
","
","","","","","","1368","<p> Some farm animals will become very satisfied or very sick. </p><p> These farm animals will make you win or lose LOTS of points. </p><p> Other farm animals have less strong feelings. </p><p> These farm animals will make you win or lose small amounts of points. </p>","","0","instructions","","","","","","","","","","",""
"learning-instructions","185","693077","0.0-11.0-1.0-0.8","3841","1","14","Female","approach_avoid_spark_v1","""event"",""trial"",""time""
""fullscreenenter"",""1"",""2538""
","
","
","""event"",""trial"",""time""
""fullscreenenter"",""1"",""2538""
","
","","","","","","1562.2000000476837","<p> If you choose to leave the farm animal alone, you will not win or lose any points. </p><p>  However, in the center of the screen, you will see the number of points you WOULD HAVE won or lost if you had fed the farm animal. </p>","","0","instructions","","","","","","","","","","",""
"learning-instructions","186","705295","0.0-11.0-1.0-0.9","3841","1","14","Female","approach_avoid_spark_v1","""event"",""trial"",""time""
""fullscreenenter"",""1"",""2538""
","
","
","""event"",""trial"",""time""
""fullscreenenter"",""1"",""2538""
","
","","","","","","1110.5","<p> Here is what you might see if you did not feed the farm animal but the animal was hungry: </p><p style=""color:grey; font-size:50px; display: inline-block; border-spacing: 15px; border-width:3px; border-style:solid; border-color:red"">  &nbsp; 6 &nbsp; </p><p> Remember, in this case, you would not win or lose ANY points because you did not feed the farm animal.  </p>","","0","instructions","","","","","","","","","","",""
"learning-instructions","187","713695","0.0-11.0-1.0-0.10","3841","1","14","Female","approach_avoid_spark_v1","""event"",""trial"",""time""
""fullscreenenter"",""1"",""2538""
","
","
","""event"",""trial"",""time""
""fullscreenenter"",""1"",""2538""
","
","","","","","","849.7000000476837","<p> Try to make the best choice for each farm animal because </p><p> at the end of the game, you will earn bonus money based on how many points you earned. </p>","","0","instructions","","","","","","","","","","",""
"learning-instructions","188","722871","0.0-11.0-1.0-0.11","3841","1","14","Female","approach_avoid_spark_v1","""event"",""trial"",""time""
""fullscreenenter"",""1"",""2538""
","
","
","""event"",""trial"",""time""
""fullscreenenter"",""1"",""2538""
","
","","","","","","976","<p> You will have 3 seconds to make each choice. Try to respond before time runs out! </p><p> You will lose 5 points each time you do not make a response. </p>","","0","instructions","","","","","","","","","","",""
"html-keyboard-response","189","723503","0.0-11.0-2.0-0.0","3841","1","14","Female","approach_avoid_spark_v1","""event"",""trial"",""time""
""fullscreenenter"",""1"",""2538""
","
","
","""event"",""trial"",""time""
""fullscreenenter"",""1"",""2538""
","
","","","","","","null","<div style=""font-size:60px;"">+</div>","null","","fixation","","","","","","","","","","",""
"aa-learning-trial","190","726519","0.0-11.0-2.0-1.0","3841","1","14","Female","approach_avoid_spark_v1","""event"",""trial"",""time""
""fullscreenenter"",""1"",""2538""
","
","
","""event"",""trial"",""time""
""fullscreenenter"",""1"",""2538""
","
","","","","","","2722.600000143051","images/sheep3.png","","","learning","-7","-7","1","1","sheep","animals","2","1","","good","[3]"
"html-keyboard-response","191","727033","0.0-11.0-2.0-0.1","3841","1","14","Female","approach_avoid_spark_v1","""event"",""trial"",""time""
""fullscreenenter"",""1"",""2538""
","
","
","""event"",""trial"",""time""
""fullscreenenter"",""1"",""2538""
","
","","","","","","null","<div style=""font-size:60px;"">+</div>","null","","fixation","","","","","","","","","","",""
"aa-learning-trial","192","730051","0.0-11.0-2.0-1.1","3841","1","14","Female","approach_avoid_spark_v1","""event"",""trial"",""time""
""fullscreenenter"",""1"",""2538""
","
","
","""event"",""trial"",""time""
""fullscreenenter"",""1"",""2538""
","
","","","","","","1128.3999998569489","images/goat2.png","","","learning","3","3","1","1","goat","animals","2","1","","neutral","0"
"html-keyboard-response","193","730563","0.0-11.0-2.0-0.2","3841","1","14","Female","approach_avoid_spark_v1","""event"",""trial"",""time""
""fullscreenenter"",""1"",""2538""
","
","
","""event"",""trial"",""time""
""fullscreenenter"",""1"",""2538""
","
","","","","","","null","<div style=""font-size:60px;"">+</div>","null","","fixation","","","","","","","","","","",""
"aa-learning-trial","194","733589","0.0-11.0-2.0-1.2","3841","1","14","Female","approach_avoid_spark_v1","""event"",""trial"",""time""
""fullscreenenter"",""1"",""2538""
","
","
","""event"",""trial"",""time""
""fullscreenenter"",""1"",""2538""
","
","","","","","","918.7000000476837","images/goat6.png","","","learning","7","7","1","1","goat","animals","2","1","","neutral","0"
"html-keyboard-response","195","734100","0.0-11.0-2.0-0.3","3841","1","14","Female","approach_avoid_spark_v1","""event"",""trial"",""time""
""fullscreenenter"",""1"",""2538""
","
","
","""event"",""trial"",""time""
""fullscreenenter"",""1"",""2538""
","
","","","","","","null","<div style=""font-size:60px;"">+</div>","null","","fixation","","","","","","","","","","",""
"aa-learning-trial","196","737103","0.0-11.0-2.0-1.3","3841","1","14","Female","approach_avoid_spark_v1","""event"",""trial"",""time""
""fullscreenenter"",""1"",""2538""
","
","
","""event"",""trial"",""time""
""fullscreenenter"",""1"",""2538""
","
","","","","","","2821.5","images/sheep6.png","","","learning","6","0","0","0","sheep","animals","2","1","","good","[3]"
"html-keyboard-response","197","737632","0.0-11.0-2.0-0.4","3841","1","14","Female","approach_avoid_spark_v1","""event"",""trial"",""time""
""fullscreenenter"",""1"",""2538""
","
","
","""event"",""trial"",""time""
""fullscreenenter"",""1"",""2538""
","
","","","","","","null","<div style=""font-size:60px;"">+</div>","null","","fixation","","","","","","","","","","",""
"aa-learning-trial","198","740652","0.0-11.0-2.0-1.4","3841","1","14","Female","approach_avoid_spark_v1","""event"",""trial"",""time""
""fullscreenenter"",""1"",""2538""
","
","
","""event"",""trial"",""time""
""fullscreenenter"",""1"",""2538""
","
","","","","","","793.7999999523163","images/cow5.png","","","learning","-4","-4","1","1","cow","animals","2","1","","bad","[-6]"
"html-keyboard-response","199","741163","0.0-11.0-2.0-0.5","3841","1","14","Female","approach_avoid_spark_v1","""event"",""trial"",""time""
""fullscreenenter"",""1"",""2538""
","
","
","""event"",""trial"",""time""
""fullscreenenter"",""1"",""2538""
","
","","","","","","null","<div style=""font-size:60px;"">+</div>","null","","fixation","","","","","","","","","","",""
"aa-learning-trial","200","744183","0.0-11.0-2.0-1.5","3841","1","14","Female","approach_avoid_spark_v1","""event"",""trial"",""time""
""fullscreenenter"",""1"",""2538""
","
","
","""event"",""trial"",""time""
""fullscreenenter"",""1"",""2538""
","
","","","","","","1086.7999999523163","images/sheep3.png","","","learning","-7","-7","1","1","sheep","animals","2","1","","good","[3]"
"html-keyboard-response","201","744697","0.0-11.0-2.0-0.6","3841","1","14","Female","approach_avoid_spark_v1","""event"",""trial"",""time""
""fullscreenenter"",""1"",""2538""
","
","
","""event"",""trial"",""time""
""fullscreenenter"",""1"",""2538""
","
","","","","","","null","<div style=""font-size:60px;"">+</div>","null","","fixation","","","","","","","","","","",""
"aa-learning-trial","202","747703","0.0-11.0-2.0-1.6","3841","1","14","Female","approach_avoid_spark_v1","""event"",""trial"",""time""
""fullscreenenter"",""1"",""2538""
","
","
","""event"",""trial"",""time""
""fullscreenenter"",""1"",""2538""
","
","","","","","","1704.5","images/goat4.png","","","learning","-2","0","0","0","goat","animals","2","1","","neutral","0"
"html-keyboard-response","203","748223","0.0-11.0-2.0-0.7","3841","1","14","Female","approach_avoid_spark_v1","""event"",""trial"",""time""
""fullscreenenter"",""1"",""2538""
","
","
","""event"",""trial"",""time""
""fullscreenenter"",""1"",""2538""
","
","","","","","","null","<div style=""font-size:60px;"">+</div>","null","","fixation","","","","","","","","","","",""
"aa-learning-trial","204","751239","0.0-11.0-2.0-1.7","3841","1","14","Female","approach_avoid_spark_v1","""event"",""trial"",""time""
""fullscreenenter"",""1"",""2538""
","
","
","""event"",""trial"",""time""
""fullscreenenter"",""1"",""2538""
","
","","","","","","1106.7999999523163","images/cow8.png","","","learning","-8","-8","1","1","cow","animals","2","1","","bad","[-6]"
"html-keyboard-response","205","751750","0.0-11.0-2.0-0.8","3841","1","14","Female","approach_avoid_spark_v1","""event"",""trial"",""time""
""fullscreenenter"",""1"",""2538""
","
","
","""event"",""trial"",""time""
""fullscreenenter"",""1"",""2538""
","
","","","","","","null","<div style=""font-size:60px;"">+</div>","null","","fixation","","","","","","","","","","",""
"aa-learning-trial","206","754758","0.0-11.0-2.0-1.8","3841","1","14","Female","approach_avoid_spark_v1","""event"",""trial"",""time""
""fullscreenenter"",""1"",""2538""
","
","
","""event"",""trial"",""time""
""fullscreenenter"",""1"",""2538""
","
","","","","","","1372.5","images/cow8.png","","","learning","-8","0","0","0","cow","animals","2","1","","bad","[-6]"
"html-keyboard-response","207","755261","0.0-11.0-2.0-0.9","3841","1","14","Female","approach_avoid_spark_v1","""event"",""trial"",""time""
""fullscreenenter"",""1"",""2538""
","
","
","""event"",""trial"",""time""
""fullscreenenter"",""1"",""2538""
","
","","","","","","null","<div style=""font-size:60px;"">+</div>","null","","fixation","","","","","","","","","","",""
"aa-learning-trial","208","758271","0.0-11.0-2.0-1.9","3841","1","14","Female","approach_avoid_spark_v1","""event"",""trial"",""time""
""fullscreenenter"",""1"",""2538""
","
","
","""event"",""trial"",""time""
""fullscreenenter"",""1"",""2538""
","
","","","","","","1093.3999998569489","images/goat6.png","","","learning","7","7","1","1","goat","animals","2","1","","neutral","0"
"html-keyboard-response","209","758773","0.0-11.0-2.0-0.10","3841","1","14","Female","approach_avoid_spark_v1","""event"",""trial"",""time""
""fullscreenenter"",""1"",""2538""
","
","
","""event"",""trial"",""time""
""fullscreenenter"",""1"",""2538""
","
","","","","","","null","<div style=""font-size:60px;"">+</div>","null","","fixation","","","","","","","","","","",""
"aa-learning-trial","210","761782","0.0-11.0-2.0-1.10","3841","1","14","Female","approach_avoid_spark_v1","""event"",""trial"",""time""
""fullscreenenter"",""1"",""2538""
","
","
","""event"",""trial"",""time""
""fullscreenenter"",""1"",""2538""
","
","","","","","","1141.7999999523163","images/goat4.png","","","learning","-2","0","0","0","goat","animals","2","1","","neutral","0"
"html-keyboard-response","211","762285","0.0-11.0-2.0-0.11","3841","1","14","Female","approach_avoid_spark_v1","""event"",""trial"",""time""
""fullscreenenter"",""1"",""2538""
","
","
","""event"",""trial"",""time""
""fullscreenenter"",""1"",""2538""
","
","","","","","","null","<div style=""font-size:60px;"">+</div>","null","","fixation","","","","","","","","","","",""
"aa-learning-trial","212","765293","0.0-11.0-2.0-1.11","3841","1","14","Female","approach_avoid_spark_v1","""event"",""trial"",""time""
""fullscreenenter"",""1"",""2538""
","
","
","""event"",""trial"",""time""
""fullscreenenter"",""1"",""2538""
","
","","","","","","1117.2000000476837","images/sheep4.png","","","learning","1","1","1","1","sheep","animals","2","1","","good","[3]"
"html-keyboard-response","213","765798","0.0-11.0-2.0-0.12","3841","1","14","Female","approach_avoid_spark_v1","""event"",""trial"",""time""
""fullscreenenter"",""1"",""2538""
","
","
","""event"",""trial"",""time""
""fullscreenenter"",""1"",""2538""
","
","","","","","","null","<div style=""font-size:60px;"">+</div>","null","","fixation","","","","","","","","","","",""
"aa-learning-trial","214","768805","0.0-11.0-2.0-1.12","3841","1","14","Female","approach_avoid_spark_v1","""event"",""trial"",""time""
""fullscreenenter"",""1"",""2538""
","
","
","""event"",""trial"",""time""
""fullscreenenter"",""1"",""2538""
","
","","","","","","901","images/sheep4.png","","","learning","1","0","0","0","sheep","animals","2","1","","good","[3]"
"html-keyboard-response","215","769310","0.0-11.0-2.0-0.13","3841","1","14","Female","approach_avoid_spark_v1","""event"",""trial"",""time""
""fullscreenenter"",""1"",""2538""
","
","
","""event"",""trial"",""time""
""fullscreenenter"",""1"",""2538""
","
","","","","","","null","<div style=""font-size:60px;"">+</div>","null","","fixation","","","","","","","","","","",""
"aa-learning-trial","216","772321","0.0-11.0-2.0-1.13","3841","1","14","Female","approach_avoid_spark_v1","""event"",""trial"",""time""
""fullscreenenter"",""1"",""2538""
","
","
","""event"",""trial"",""time""
""fullscreenenter"",""1"",""2538""
","
","","","","","","1229.2999999523163","images/cow5.png","","","learning","-4","0","0","0","cow","animals","2","1","","bad","[-6]"
"html-keyboard-response","217","772830","0.0-11.0-2.0-0.14","3841","1","14","Female","approach_avoid_spark_v1","""event"",""trial"",""time""
""fullscreenenter"",""1"",""2538""
","
","
","""event"",""trial"",""time""
""fullscreenenter"",""1"",""2538""
","
","","","","","","null","<div style=""font-size:60px;"">+</div>","null","","fixation","","","","","","","","","","",""
"aa-learning-trial","218","775843","0.0-11.0-2.0-1.14","3841","1","14","Female","approach_avoid_spark_v1","""event"",""trial"",""time""
""fullscreenenter"",""1"",""2538""
","
","
","""event"",""trial"",""time""
""fullscreenenter"",""1"",""2538""
","
","","","","","","1140.2000000476837","images/cow6.png","","","learning","2","2","1","1","cow","animals","2","1","","bad","[-6]"
"html-keyboard-response","219","776353","0.0-11.0-2.0-0.15","3841","1","14","Female","approach_avoid_spark_v1","""event"",""trial"",""time""
""fullscreenenter"",""1"",""2538""
","
","
","""event"",""trial"",""time""
""fullscreenenter"",""1"",""2538""
","
","","","","","","null","<div style=""font-size:60px;"">+</div>","null","","fixation","","","","","","","","","","",""
"aa-learning-trial","220","779357","0.0-11.0-2.0-1.15","3841","1","14","Female","approach_avoid_spark_v1","""event"",""trial"",""time""
""fullscreenenter"",""1"",""2538""
","
","
","""event"",""trial"",""time""
""fullscreenenter"",""1"",""2538""
","
","","","","","","873.5999999046326","images/cow5.png","","","learning","-4","0","0","0","cow","animals","2","1","","bad","[-6]"
"html-keyboard-response","221","779861","0.0-11.0-2.0-0.16","3841","1","14","Female","approach_avoid_spark_v1","""event"",""trial"",""time""
""fullscreenenter"",""1"",""2538""
","
","
","""event"",""trial"",""time""
""fullscreenenter"",""1"",""2538""
","
","","","","","","null","<div style=""font-size:60px;"">+</div>","null","","fixation","","","","","","","","","","",""
"aa-learning-trial","222","782869","0.0-11.0-2.0-1.16","3841","1","14","Female","approach_avoid_spark_v1","""event"",""trial"",""time""
""fullscreenenter"",""1"",""2538""
","
","
","""event"",""trial"",""time""
""fullscreenenter"",""1"",""2538""
","
","","","","","","1278","images/goat4.png","","","learning","-2","0","0","0","goat","animals","2","1","","neutral","0"
"html-keyboard-response","223","783374","0.0-11.0-2.0-0.17","3841","1","14","Female","approach_avoid_spark_v1","""event"",""trial"",""time""
""fullscreenenter"",""1"",""2538""
","
","
","""event"",""trial"",""time""
""fullscreenenter"",""1"",""2538""
","
","","","","","","null","<div style=""font-size:60px;"">+</div>","null","","fixation","","","","","","","","","","",""
"aa-learning-trial","224","786381","0.0-11.0-2.0-1.17","3841","1","14","Female","approach_avoid_spark_v1","""event"",""trial"",""time""
""fullscreenenter"",""1"",""2538""
","
","
","""event"",""trial"",""time""
""fullscreenenter"",""1"",""2538""
","
","","","","","","1349.2000000476837","images/sheep3.png","","","learning","-7","0","0","0","sheep","animals","2","1","","good","[3]"
"html-keyboard-response","225","786885","0.0-11.0-2.0-0.18","3841","1","14","Female","approach_avoid_spark_v1","""event"",""trial"",""time""
""fullscreenenter"",""1"",""2538""
","
","
","""event"",""trial"",""time""
""fullscreenenter"",""1"",""2538""
","
","","","","","","null","<div style=""font-size:60px;"">+</div>","null","","fixation","","","","","","","","","","",""
"aa-learning-trial","226","789893","0.0-11.0-2.0-1.18","3841","1","14","Female","approach_avoid_spark_v1","""event"",""trial"",""time""
""fullscreenenter"",""1"",""2538""
","
","
","""event"",""trial"",""time""
""fullscreenenter"",""1"",""2538""
","
","","","","","","605.1000001430511","images/sheep8.png","","","learning","5","5","1","1","sheep","animals","2","1","","good","[3]"
"html-keyboard-response","227","790397","0.0-11.0-2.0-0.19","3841","1","14","Female","approach_avoid_spark_v1","""event"",""trial"",""time""
""fullscreenenter"",""1"",""2538""
","
","
","""event"",""trial"",""time""
""fullscreenenter"",""1"",""2538""
","
","","","","","","null","<div style=""font-size:60px;"">+</div>","null","","fixation","","","","","","","","","","",""
"aa-learning-trial","228","793405","0.0-11.0-2.0-1.19","3841","1","14","Female","approach_avoid_spark_v1","""event"",""trial"",""time""
""fullscreenenter"",""1"",""2538""
","
","
","""event"",""trial"",""time""
""fullscreenenter"",""1"",""2538""
","
","","","","","","901.7000000476837","images/sheep4.png","","","learning","1","1","1","1","sheep","animals","2","1","","good","[3]"
"html-keyboard-response","229","793910","0.0-11.0-2.0-0.20","3841","1","14","Female","approach_avoid_spark_v1","""event"",""trial"",""time""
""fullscreenenter"",""1"",""2538""
","
","
","""event"",""trial"",""time""
""fullscreenenter"",""1"",""2538""
","
","","","","","","null","<div style=""font-size:60px;"">+</div>","null","","fixation","","","","","","","","","","",""
"aa-learning-trial","230","796918","0.0-11.0-2.0-1.20","3841","1","14","Female","approach_avoid_spark_v1","""event"",""trial"",""time""
""fullscreenenter"",""1"",""2538""
","
","
","""event"",""trial"",""time""
""fullscreenenter"",""1"",""2538""
","
","","","","","","652.7999999523163","images/cow8.png","","","learning","-8","-8","1","1","cow","animals","2","1","","bad","[-6]"
"html-keyboard-response","231","797421","0.0-11.0-2.0-0.21","3841","1","14","Female","approach_avoid_spark_v1","""event"",""trial"",""time""
""fullscreenenter"",""1"",""2538""
","
","
","""event"",""trial"",""time""
""fullscreenenter"",""1"",""2538""
","
","","","","","","null","<div style=""font-size:60px;"">+</div>","null","","fixation","","","","","","","","","","",""
"aa-learning-trial","232","800429","0.0-11.0-2.0-1.21","3841","1","14","Female","approach_avoid_spark_v1","""event"",""trial"",""time""
""fullscreenenter"",""1"",""2538""
","
","
","""event"",""trial"",""time""
""fullscreenenter"",""1"",""2538""
","
","","","","","","437.7999999523163","images/goat7.png","","","learning","-6","-6","1","1","goat","animals","2","1","","neutral","0"
"html-keyboard-response","233","800934","0.0-11.0-2.0-0.22","3841","1","14","Female","approach_avoid_spark_v1","""event"",""trial"",""time""
""fullscreenenter"",""1"",""2538""
","
","
","""event"",""trial"",""time""
""fullscreenenter"",""1"",""2538""
","
","","","","","","null","<div style=""font-size:60px;"">+</div>","null","","fixation","","","","","","","","","","",""
"aa-learning-trial","234","803938","0.0-11.0-2.0-1.22","3841","1","14","Female","approach_avoid_spark_v1","""event"",""trial"",""time""
""fullscreenenter"",""1"",""2538""
","
","
","""event"",""trial"",""time""
""fullscreenenter"",""1"",""2538""
","
","","","","","","1533.5","images/goat6.png","","","learning","7","7","1","1","goat","animals","2","1","","neutral","0"
"html-keyboard-response","235","804446","0.0-11.0-2.0-0.23","3841","1","14","Female","approach_avoid_spark_v1","""event"",""trial"",""time""
""fullscreenenter"",""1"",""2538""
","
","
","""event"",""trial"",""time""
""fullscreenenter"",""1"",""2538""
","
","","","","","","null","<div style=""font-size:60px;"">+</div>","null","","fixation","","","","","","","","","","",""
"aa-learning-trial","236","807453","0.0-11.0-2.0-1.23","3841","1","14","Female","approach_avoid_spark_v1","""event"",""trial"",""time""
""fullscreenenter"",""1"",""2538""
","
","
","""event"",""trial"",""time""
""fullscreenenter"",""1"",""2538""
","
