"trial_type","trial_index","time_elapsed","internal_node_id","subject_id","task_condition","age","gender","task_version","interactions","blur_events","focus_events","fullscreenenter_events","fullscreenexit_events","success","timeout","failed_images","failed_audio","failed_video","rt","stimulus","response","button_pressed","task_part","approach_reward","points","key_press","option_selected","stim_cat","task_block","block_condition","block_number","correct","cat_type","mean_cat_reward"
"pavlovia","0","1","0.0-0.0","5720","1","24","Female","approach_avoid_spark_v1","""event"",""trial"",""time""
""fullscreenenter"",""1"",""1739""
","
","
","""event"",""trial"",""time""
""fullscreenenter"",""1"",""1739""
","
","","","","","","","","","","","","","","","","","","","","",""
"fullscreen","1","2719","0.0-1.0","5720","1","24","Female","approach_avoid_spark_v1","""event"",""trial"",""time""
""fullscreenenter"",""1"",""1739""
","
","
","""event"",""trial"",""time""
""fullscreenenter"",""1"",""1739""
","
","true","","","","","","","","","","","","","","","","","","","",""
"preload","2","20994","0.0-2.0","5720","1","24","Female","approach_avoid_spark_v1","""event"",""trial"",""time""
""fullscreenenter"",""1"",""1739""
","
","
","""event"",""trial"",""time""
""fullscreenenter"",""1"",""1739""
","
","true","false","[]","[]","[]","","","","","","","","","","","","","","","",""
"audio-keyboard-response","3","25021","0.0-3.0","5720","1","24","Female","approach_avoid_spark_v1","""event"",""trial"",""time""
""fullscreenenter"",""1"",""1739""
","
","
","""event"",""trial"",""time""
""fullscreenenter"",""1"",""1739""
","
","","","","","","4021.3333333333344","audio/beep_loop.wav"," ","","","","","","","","","","","","",""
"audio-button-response","4","29884","0.0-4.0","5720","1","24","Female","approach_avoid_spark_v1","""event"",""trial"",""time""
""fullscreenenter"",""1"",""1739""
","
","
","""event"",""trial"",""time""
""fullscreenenter"",""1"",""1739""
","
","","","","","","4848","audio/shark.wav","4","","","","","","","","","","","","",""
"audio-button-response","5","32396","0.0-5.0","5720","1","24","Female","approach_avoid_spark_v1","""event"",""trial"",""time""
""fullscreenenter"",""1"",""1739""
","
","
","""event"",""trial"",""time""
""fullscreenenter"",""1"",""1739""
","
","","","","","","1504","audio/turtle.wav","1","","","","","","","","","","","","",""
"preload","6","69407","0.0-6.0","5720","1","24","Female","approach_avoid_spark_v1","""event"",""trial"",""time""
""fullscreenenter"",""1"",""1739""
","
","
","""event"",""trial"",""time""
""fullscreenenter"",""1"",""1739""
","
","true","false","[]","[]","[]","","","","","","","","","","","","","","","",""
"html-keyboard-response","7","71638","0.0-7.0","5720","1","24","Female","approach_avoid_spark_v1","""event"",""trial"",""time""
""fullscreenenter"",""1"",""1739""
","
","
","""event"",""trial"",""time""
""fullscreenenter"",""1"",""1739""
","
","","","","","","2229.2000000476837","Welcome to the experiment. Press any key to begin and to advance the instructions."," ","","","","","","","","","","","","",""
"learning-instructions","8","81047","0.0-8.0-0.0-0.0","5720","1","24","Female","approach_avoid_spark_v1","""event"",""trial"",""time""
""fullscreenenter"",""1"",""1739""
","
","
","""event"",""trial"",""time""
""fullscreenenter"",""1"",""1739""
","
","","","","","","2419.2000000476837","<p> Welcome! Today you are going to play 6 different rounds of a decision-making game. </p><p> Use the mouse to click next to continue. </p>","","0","instructions","","","","","","","","","","",""
"learning-instructions","9","84595","0.0-8.0-0.0-0.1","5720","1","24","Female","approach_avoid_spark_v1","""event"",""trial"",""time""
""fullscreenenter"",""1"",""1739""
","
","
","""event"",""trial"",""time""
""fullscreenenter"",""1"",""1739""
","
","","","","","","821.3000000119209","<p> You will start with a practice round to learn the rules. </p>","","0","instructions","","","","","","","","","","",""
"learning-instructions","10","89133","0.0-8.0-0.0-0.2","5720","1","24","Female","approach_avoid_spark_v1","""event"",""trial"",""time""
""fullscreenenter"",""1"",""1739""
","
","
","""event"",""trial"",""time""
""fullscreenenter"",""1"",""1739""
","
","","","","","","1091.8999999761581","<p> Your goal in this round is to give out sports equipment to kids. </p></div>","","0","instructions","","","","","","","","","","",""
"learning-instructions","11","97664","0.0-8.0-0.0-0.3","5720","1","24","Female","approach_avoid_spark_v1","""event"",""trial"",""time""
""fullscreenenter"",""1"",""1739""
","
","
","""event"",""trial"",""time""
""fullscreenenter"",""1"",""1739""
","
","","","","","","983","<p> The kids only like some of the equipment.  </p><p> On each turn, you will see a piece of sports equipment.   </p><p> You need to decide whether to give it to the kids or not.  </p>","","0","instructions","","","","","","","","","","",""
"learning-instructions","12","104148","0.0-8.0-0.0-0.4","5720","1","24","Female","approach_avoid_spark_v1","""event"",""trial"",""time""
""fullscreenenter"",""1"",""1739""
","
","
","""event"",""trial"",""time""
""fullscreenenter"",""1"",""1739""
","
","","","","","","1733.0999999642372","<p> You can give them the equipment by pressing 1 and choose not to give it to them by pressing 0. </p><br><div class=""choice-instructions-grid""> <div class=""choice-option""><img src=""images/approach.png"" class=""choice-option-img"" stage=""instructions"" position=""0"" ><div class=""choice-option-text""> Press ""1."" </div></div><div class=""choice-option""><img src=""images/avoid.png"" class=""choice-option-img"" stage=""instructions"" position=""1"" ><div class=""choice-option-text""> Press ""0."" </div></div>","","0","instructions","","","","","","","","","","",""
"learning-instructions","13","112429","0.0-8.0-0.0-0.5","5720","1","24","Female","approach_avoid_spark_v1","""event"",""trial"",""time""
""fullscreenenter"",""1"",""1739""
","
","
","""event"",""trial"",""time""
""fullscreenenter"",""1"",""1739""
","
","","","","","","894.8000000119209","<p> If you give them a piece of equipment they like, they will be happy! </p><p> But if you give them a piece of equipment they do not like, they will be sad. </p>","","0","instructions","","","","","","","","","","",""
"learning-instructions","14","123414","0.0-8.0-0.0-0.6","5720","1","24","Female","approach_avoid_spark_v1","""event"",""trial"",""time""
""fullscreenenter"",""1"",""1739""
","
","
","""event"",""trial"",""time""
""fullscreenenter"",""1"",""1739""
","
","","","","","","471","<p> You will earn points based on how you make kids feel. </p><p> If you make them happy, you will WIN anywhere from 1 - 9 points, </p><p> but if you make them sad, you will LOSE anywhere from 1 - 9 points. </p>","","0","instructions","","","","","","","","","","",""
"learning-instructions","15","134684","0.0-8.0-0.0-0.7","5720","1","24","Female","approach_avoid_spark_v1","""event"",""trial"",""time""
""fullscreenenter"",""1"",""1739""
","
","
","""event"",""trial"",""time""
""fullscreenenter"",""1"",""1739""
","
","","","","","","1711.699999988079","<p> You will see how many points you won or lost in the center of the screen. </p><p> Here is what you would see if you won 6 points: </p><p style=""color:green;font-size:50px;font-weight:bolder"">6</p><p style=""color:green"">The text is GREEN because you WON points.</p>","","0","instructions","","","","","","","","","","",""
"learning-instructions","16","140832","0.0-8.0-0.0-0.8","5720","1","24","Female","approach_avoid_spark_v1","""event"",""trial"",""time""
""fullscreenenter"",""1"",""1739""
","
","
","""event"",""trial"",""time""
""fullscreenenter"",""1"",""1739""
","
","","","","","","640.6999999880791","<p> And here is what you would see if you lost 4 points: </p><p style=""color:red;font-size:50px;font-weight:bolder"">-4</p><p style=""color:red"">The text is RED because you LOST points. </p>","","0","instructions","","","","","","","","","","",""
"learning-instructions","17","156646","0.0-8.0-0.0-0.9","5720","1","24","Female","approach_avoid_spark_v1","""event"",""trial"",""time""
""fullscreenenter"",""1"",""1739""
","
","
","""event"",""trial"",""time""
""fullscreenenter"",""1"",""1739""
","
","","","","","","1100.5","<p> Some of the equipment will make the kids VERY happy or sad. </p><p> These pieces of equipment will make you win or lose LOTS of points. </p><p> Other pieces of equipment will only make the kids a little happy or sad. </p><p> These pieces of equipment will make you win or lose small amounts of points. </p>","","0","instructions","","","","","","","","","","",""
"learning-instructions","18","168031","0.0-8.0-0.0-0.10","5720","1","24","Female","approach_avoid_spark_v1","""event"",""trial"",""time""
""fullscreenenter"",""1"",""1739""
","
","
","""event"",""trial"",""time""
""fullscreenenter"",""1"",""1739""
","
","","","","","","762.3999999761581","<p> If you choose not to give them the equipment, you will not win or lose any points. </p><p>  However, in the center of the screen, you will see the number of points you WOULD HAVE won or lost if you had given them the equipment. </p>","","0","instructions","","","","","","","","","","",""
"learning-instructions","19","196832","0.0-8.0-0.0-0.11","5720","1","24","Female","approach_avoid_spark_v1","""event"",""trial"",""time""
""fullscreenenter"",""1"",""1739""
","
","
","""event"",""trial"",""time""
""fullscreenenter"",""1"",""1739""
","
","","","","","","7274.5","<p> Here is what you might see if you did not give the equipment to the kids but it would have made them happy: </p><p style=""color:grey; font-size:50px; display: inline-block; border-spacing: 15px; border-width:3px; border-style:solid; border-color:red"">  &nbsp; 7 &nbsp; </p><p> Remember, in this case, you would not win or lose ANY points because you did not give them the equipment.  </p><p style=""color:grey"">The text is GREY because you earned ZERO points. </p><p style=""color:red"">However, choosing to give the kids the equipment would have made you win points. The box around the text is RED because you chose the worse option. </p>","","0","instructions","","","","","","","","","","",""
"learning-instructions","20","218366","0.0-8.0-0.0-0.12","5720","1","24","Female","approach_avoid_spark_v1","""event"",""trial"",""time""
""fullscreenenter"",""1"",""1739""
","
","
","""event"",""trial"",""time""
""fullscreenenter"",""1"",""1739""
","
","","","","","","456.5","<p> Here is what you might see if you did not give the equipment to the kids but it would have made them sad: </p><p style=""color:grey;font-size:50px; display: inline-block; border-spacing: 15px; border-width:3px; border-style:solid; border-color:green"">  &nbsp; -8 &nbsp; </p><p> Remember, in this case, you would not win or lose ANY points because you did not give them the equipment.  </p><p style=""color:grey"">The text is GREY because you earned ZERO points. </p><p  style=""color:green""> Choosing to give the kids the equipment would have made you lose points. The box around the text is GREEN because you chose the better option.</p>","","0","instructions","","","","","","","","","","",""
"learning-instructions","21","230149","0.0-8.0-0.0-0.13","5720","1","24","Female","approach_avoid_spark_v1","""event"",""trial"",""time""
""fullscreenenter"",""1"",""1739""
","
","
","""event"",""trial"",""time""
""fullscreenenter"",""1"",""1739""
","
","","","","","","831.6000000238419","<p> You will have 3 seconds to make each choice. Try to respond before time runs out! </p><p> You will lose 5 points each time you do not make a response. </p>","","0","instructions","","","","","","","","","","",""
"learning-instructions","22","236249","0.0-8.0-0.0-0.14","5720","1","24","Female","approach_avoid_spark_v1","""event"",""trial"",""time""
""fullscreenenter"",""1"",""1739""
","
","
","""event"",""trial"",""time""
""fullscreenenter"",""1"",""1739""
","
","","","","","","685.5","<p> This is just a practice round, but in the real game, your bonus payment will depend on your total number of points.","","0","instructions","","","","","","","","","","",""
"learning-instructions","23","242866","0.0-8.0-0.0-0.15","5720","1","24","Female","approach_avoid_spark_v1","""event"",""trial"",""time""
""fullscreenenter"",""1"",""1739""
","
","
","""event"",""trial"",""time""
""fullscreenenter"",""1"",""1739""
","
","","","","","","852.1000000238419","<p> Remember, you can give them the equipment by pressing 1 and choose not to give it to them by pressing 0. </p><br><div class=""choice-instructions-grid""> <div class=""choice-option""><img src=""images/approach.png"" class=""choice-option-img"" stage=""instructions"" position=""0"" ><div class=""choice-option-text""> Press ""1."" </div></div><div class=""choice-option""><img src=""images/avoid.png"" class=""choice-option-img"" stage=""instructions"" position=""1"" ><div class=""choice-option-text""> Press ""0."" </div></div>","","0","instructions","","","","","","","","","","",""
"html-button-response","24","244502","0.0-8.0-1.0","5720","1","24","Female","approach_avoid_spark_v1","""event"",""trial"",""time""
""fullscreenenter"",""1"",""1739""
","
","
","""event"",""trial"",""time""
""fullscreenenter"",""1"",""1739""
","
","","","","","","1527.3999999761581","<p> Ready to practice? </p>","0","","","","","","","","","","","","",""
"html-keyboard-response","25","245111","0.0-8.0-2.0-0.0","5720","1","24","Female","approach_avoid_spark_v1","""event"",""trial"",""time""
""fullscreenenter"",""1"",""1739""
","
","
","""event"",""trial"",""time""
""fullscreenenter"",""1"",""1739""
","
","","","","","","null","<div style=""font-size:60px;"">+</div>","null","","fixation","","","","","","","","","","",""
"aa-learning-trial","26","248122","0.0-8.0-2.0-1.0","5720","1","24","Female","approach_avoid_spark_v1","""event"",""trial"",""time""
""fullscreenenter"",""1"",""1739""
","
","
","""event"",""trial"",""time""
""fullscreenenter"",""1"",""1739""
","
","","","","","","266.7000000476837","images/ball4.png","","","learning","2","2","1","1","practice","practice","practice","-1","","",""
"html-keyboard-response","27","248626","0.0-8.0-2.0-0.1","5720","1","24","Female","approach_avoid_spark_v1","""event"",""trial"",""time""
""fullscreenenter"",""1"",""1739""
","
","
","""event"",""trial"",""time""
""fullscreenenter"",""1"",""1739""
","
","","","","","","null","<div style=""font-size:60px;"">+</div>","null","","fixation","","","","","","","","","","",""
"aa-learning-trial","28","251635","0.0-8.0-2.0-1.1","5720","1","24","Female","approach_avoid_spark_v1","""event"",""trial"",""time""
""fullscreenenter"",""1"",""1739""
","
","
","""event"",""trial"",""time""
""fullscreenenter"",""1"",""1739""
","
","","","","","","929.5999999642372","images/racket1.png","","","learning","-7","-7","1","1","practice","practice","practice","-1","","",""
"html-keyboard-response","29","252138","0.0-8.0-2.0-0.2","5720","1","24","Female","approach_avoid_spark_v1","""event"",""trial"",""time""
""fullscreenenter"",""1"",""1739""
","
","
","""event"",""trial"",""time""
""fullscreenenter"",""1"",""1739""
","
","","","","","","null","<div style=""font-size:60px;"">+</div>","null","","fixation","","","","","","","","","","",""
"aa-learning-trial","30","255144","0.0-8.0-2.0-1.2","5720","1","24","Female","approach_avoid_spark_v1","""event"",""trial"",""time""
""fullscreenenter"",""1"",""1739""
","
","
","""event"",""trial"",""time""
""fullscreenenter"",""1"",""1739""
","
","","","","","","1085.2000000476837","images/ball1.png","","","learning","5","5","1","1","practice","practice","practice","-1","","",""
"html-keyboard-response","31","255652","0.0-8.0-2.0-0.3","5720","1","24","Female","approach_avoid_spark_v1","""event"",""trial"",""time""
""fullscreenenter"",""1"",""1739""
","
","
","""event"",""trial"",""time""
""fullscreenenter"",""1"",""1739""
","
","","","","","","null","<div style=""font-size:60px;"">+</div>","null","","fixation","","","","","","","","","","",""
"aa-learning-trial","32","258660","0.0-8.0-2.0-1.3","5720","1","24","Female","approach_avoid_spark_v1","""event"",""trial"",""time""
""fullscreenenter"",""1"",""1739""
","
","
","""event"",""trial"",""time""
""fullscreenenter"",""1"",""1739""
","
","","","","","","909.4000000357628","images/racket2.png","","","learning","-9","-9","1","1","practice","practice","practice","-1","","",""
"html-keyboard-response","33","259165","0.0-8.0-2.0-0.4","5720","1","24","Female","approach_avoid_spark_v1","""event"",""trial"",""time""
""fullscreenenter"",""1"",""1739""
","
","
","""event"",""trial"",""time""
""fullscreenenter"",""1"",""1739""
","
","","","","","","null","<div style=""font-size:60px;"">+</div>","null","","fixation","","","","","","","","","","",""
"aa-learning-trial","34","262172","0.0-8.0-2.0-1.4","5720","1","24","Female","approach_avoid_spark_v1","""event"",""trial"",""time""
""fullscreenenter"",""1"",""1739""
","
","
","""event"",""trial"",""time""
""fullscreenenter"",""1"",""1739""
","
","","","","","","1248.8999999761581","images/ball4.png","","","learning","7","7","1","1","practice","practice","practice","-1","","",""
"html-keyboard-response","35","262678","0.0-8.0-2.0-0.5","5720","1","24","Female","approach_avoid_spark_v1","""event"",""trial"",""time""
""fullscreenenter"",""1"",""1739""
","
","
","""event"",""trial"",""time""
""fullscreenenter"",""1"",""1739""
","
","","","","","","null","<div style=""font-size:60px;"">+</div>","null","","fixation","","","","","","","","","","",""
"aa-learning-trial","36","265687","0.0-8.0-2.0-1.5","5720","1","24","Female","approach_avoid_spark_v1","""event"",""trial"",""time""
""fullscreenenter"",""1"",""1739""
","
","
","""event"",""trial"",""time""
""fullscreenenter"",""1"",""1739""
","
","","","","","","944.3000000119209","images/ball3.png","","","learning","-3","-3","1","1","practice","practice","practice","-1","","",""
"html-keyboard-response","37","266192","0.0-8.0-2.0-0.6","5720","1","24","Female","approach_avoid_spark_v1","""event"",""trial"",""time""
""fullscreenenter"",""1"",""1739""
","
","
","""event"",""trial"",""time""
""fullscreenenter"",""1"",""1739""
","
","","","","","","null","<div style=""font-size:60px;"">+</div>","null","","fixation","","","","","","","","","","",""
"aa-learning-trial","38","269198","0.0-8.0-2.0-1.6","5720","1","24","Female","approach_avoid_spark_v1","""event"",""trial"",""time""
""fullscreenenter"",""1"",""1739""
","
","
","""event"",""trial"",""time""
""fullscreenenter"",""1"",""1739""
","
","","","","","","736.1999999880791","images/racket4.png","","","learning","-3","0","0","0","practice","practice","practice","-1","","",""
"html-keyboard-response","39","269705","0.0-8.0-2.0-0.7","5720","1","24","Female","approach_avoid_spark_v1","""event"",""trial"",""time""
""fullscreenenter"",""1"",""1739""
","
","
","""event"",""trial"",""time""
""fullscreenenter"",""1"",""1739""
","
","","","","","","null","<div style=""font-size:60px;"">+</div>","null","","fixation","","","","","","","","","","",""
"aa-learning-trial","40","272709","0.0-8.0-2.0-1.7","5720","1","24","Female","approach_avoid_spark_v1","""event"",""trial"",""time""
""fullscreenenter"",""1"",""1739""
","
","
","""event"",""trial"",""time""
""fullscreenenter"",""1"",""1739""
","
","","","","","","841.3000000119209","images/racket3.png","","","learning","1","0","0","0","practice","practice","practice","-1","","",""
"html-keyboard-response","41","273216","0.0-8.0-2.0-0.8","5720","1","24","Female","approach_avoid_spark_v1","""event"",""trial"",""time""
""fullscreenenter"",""1"",""1739""
","
","
","""event"",""trial"",""time""
""fullscreenenter"",""1"",""1739""
","
","","","","","","null","<div style=""font-size:60px;"">+</div>","null","","fixation","","","","","","","","","","",""
"aa-learning-trial","42","276224","0.0-8.0-2.0-1.8","5720","1","24","Female","approach_avoid_spark_v1","""event"",""trial"",""time""
""fullscreenenter"",""1"",""1739""
","
","
","""event"",""trial"",""time""
""fullscreenenter"",""1"",""1739""
","
","","","","","","907.9000000357628","images/ball1.png","","","learning","-3","-3","1","1","practice","practice","practice","-1","","",""
"html-keyboard-response","43","276725","0.0-8.0-2.0-0.9","5720","1","24","Female","approach_avoid_spark_v1","""event"",""trial"",""time""
""fullscreenenter"",""1"",""1739""
","
","
","""event"",""trial"",""time""
""fullscreenenter"",""1"",""1739""
","
","","","","","","null","<div style=""font-size:60px;"">+</div>","null","","fixation","","","","","","","","","","",""
"aa-learning-trial","44","279731","0.0-8.0-2.0-1.9","5720","1","24","Female","approach_avoid_spark_v1","""event"",""trial"",""time""
""fullscreenenter"",""1"",""1739""
","
","
","""event"",""trial"",""time""
""fullscreenenter"",""1"",""1739""
","
","","","","","","860.4000000357628","images/racket2.png","","","learning","2","0","0","0","practice","practice","practice","-1","","",""
"html-keyboard-response","45","280236","0.0-8.0-2.0-0.10","5720","1","24","Female","approach_avoid_spark_v1","""event"",""trial"",""time""
""fullscreenenter"",""1"",""1739""
","
","
","""event"",""trial"",""time""
""fullscreenenter"",""1"",""1739""
","
","","","","","","null","<div style=""font-size:60px;"">+</div>","null","","fixation","","","","","","","","","","",""
"aa-learning-trial","46","283243","0.0-8.0-2.0-1.10","5720","1","24","Female","approach_avoid_spark_v1","""event"",""trial"",""time""
""fullscreenenter"",""1"",""1739""
","
","
","""event"",""trial"",""time""
""fullscreenenter"",""1"",""1739""
","
","","","","","","776.3000000119209","images/racket1.png","","","learning","4","4","1","1","practice","practice","practice","-1","","",""
"html-keyboard-response","47","283744","0.0-8.0-2.0-0.11","5720","1","24","Female","approach_avoid_spark_v1","""event"",""trial"",""time""
""fullscreenenter"",""1"",""1739""
","
","
","""event"",""trial"",""time""
""fullscreenenter"",""1"",""1739""
","
","","","","","","null","<div style=""font-size:60px;"">+</div>","null","","fixation","","","","","","","","","","",""
"aa-learning-trial","48","286752","0.0-8.0-2.0-1.11","5720","1","24","Female","approach_avoid_spark_v1","""event"",""trial"",""time""
""fullscreenenter"",""1"",""1739""
","
","
","""event"",""trial"",""time""
""fullscreenenter"",""1"",""1739""
","
","","","","","","763.5","images/ball3.png","","","learning","-3","-3","1","1","practice","practice","practice","-1","","",""
"html-button-response","49","289349","0.0-8.0-3.0","5720","1","24","Female","approach_avoid_spark_v1","""event"",""trial"",""time""
""fullscreenenter"",""1"",""1739""
","
","
","""event"",""trial"",""time""
""fullscreenenter"",""1"",""1739""
","
","","","","","","2593.199999988079","<p> You earned -7 points in the practice round! </p>","0","","break","","","","","","","","","","",""
"learning-instructions","50","296950","0.0-8.0-4.0-0.0","5720","1","24","Female","approach_avoid_spark_v1","""event"",""trial"",""time""
""fullscreenenter"",""1"",""1739""
","
","
","""event"",""trial"",""time""
""fullscreenenter"",""1"",""1739""
","
","","","","","","1605.300000011921","<p> It's almost time to start the real game. </p><p> Before you start, we're going to ask you a few questions about how the game works. </p>","","0","instructions","","","","","","","","","","",""
"preload","51","309452","0.0-8.0-5.0","5720","1","24","Female","approach_avoid_spark_v1","""event"",""trial"",""time""
""fullscreenenter"",""1"",""1739""
","
","
","""event"",""trial"",""time""
""fullscreenenter"",""1"",""1739""
","
","true","false","[]","[]","[]","","","","","","","","","","","","","","","",""
"comp-q","52","315534","0.0-8.0-6.0-0.0","5720","1","24","Female","approach_avoid_spark_v1","""event"",""trial"",""time""
""fullscreenenter"",""1"",""1739""
","
","
","""event"",""trial"",""time""
""fullscreenenter"",""1"",""1739""
","
","","","","","","1080.1000000238419","<p> <b> True or False? </b> </p><p> If you see a number in GREY, that means you earned that many points. </p>","","1","comp_question","","","","","","","","","true","",""
"comp-q","53","324783","0.0-8.0-6.0-1.0","5720","1","24","Female","approach_avoid_spark_v1","""event"",""trial"",""time""
""fullscreenenter"",""1"",""1739""
","
","
","""event"",""trial"",""time""
""fullscreenenter"",""1"",""1739""
","
","","","","","","884.3000000119209","<p><b> That's right! </b> If you see a grey number, it means you earned ZERO points. <br> The grey numbers show the points you WOULD HAVE earned if you had made the other choice. </p>","","0","comp_answer","","","","","","","","","","",""
"comp-q","54","330167","0.0-8.0-7.0-0.0","5720","1","24","Female","approach_avoid_spark_v1","""event"",""trial"",""time""
""fullscreenenter"",""1"",""1739""
","
","
","""event"",""trial"",""time""
""fullscreenenter"",""1"",""1739""
","
","","","","","","689.6000000238419","<p> <b> True or False? </b> </p><p> You will have as much time as you want to make each choice. </p>","","1","comp_question","","","","","","","","","true","",""
"comp-q","55","336050","0.0-8.0-7.0-1.0","5720","1","24","Female","approach_avoid_spark_v1","""event"",""trial"",""time""
""fullscreenenter"",""1"",""1739""
","
","
","""event"",""trial"",""time""
""fullscreenenter"",""1"",""1739""
","
","","","","","","1841.699999988079","<p> <b> That's right! </b> You will only have 3 seconds to make each choice. </p>","","0","comp_answer","","","","","","","","","","",""
"comp-q","56","341352","0.0-8.0-8.0-0.0","5720","1","24","Female","approach_avoid_spark_v1","""event"",""trial"",""time""
""fullscreenenter"",""1"",""1739""
","
","
","""event"",""trial"",""time""
""fullscreenenter"",""1"",""1739""
","
","","","","","","642.3999999761581","<p> <b> True or False? </b> </p><p> You should use the '1' and '0' keys to make your choices. </p>","","0","comp_question","","","","","","","","","true","",""
"comp-q","57","347217","0.0-8.0-8.0-1.0","5720","1","24","Female","approach_avoid_spark_v1","""event"",""trial"",""time""
""fullscreenenter"",""1"",""1739""
","
","
","""event"",""trial"",""time""
""fullscreenenter"",""1"",""1739""
","
","","","","","","1253.5","<p> <b> That's right! </b> You should use the '1' and '0' keys to make each choice. </p>","","0","comp_answer","","","","","","","","","","",""
"learning-instructions","58","355201","0.0-8.0-9.0-0.0","5720","1","24","Female","approach_avoid_spark_v1","""event"",""trial"",""time""
""fullscreenenter"",""1"",""1739""
","
","
","""event"",""trial"",""time""
""fullscreenenter"",""1"",""1739""
","
","","","","","","1712","<p> It's now time to start the real game. </p>Do your best, because the points you earn in the next rounds will influence your bonus payment. </p>","","0","instructions","","","","","","","","","","",""
"preload","59","356343","0.0-9.0-0.0","5720","1","24","Female","approach_avoid_spark_v1","""event"",""trial"",""time""
""fullscreenenter"",""1"",""1739""
","
","
","""event"",""trial"",""time""
""fullscreenenter"",""1"",""1739""
","
","true","false","[]","[]","[]","","","","","","","","","","","","","","","",""
"learning-instructions","60","363384","0.0-9.0-1.0-0.0","5720","1","24","Female","approach_avoid_spark_v1","""event"",""trial"",""time""
""fullscreenenter"",""1"",""1739""
","
","
","""event"",""trial"",""time""
""fullscreenenter"",""1"",""1739""
","
","","","","","","2034.199999988079","<p> Your goal in this round is to take care of lots of farm animals. </p></div>","","0","instructions","","","","","","","","","","",""
"learning-instructions","61","376051","0.0-9.0-1.0-0.1","5720","1","24","Female","approach_avoid_spark_v1","""event"",""trial"",""time""
""fullscreenenter"",""1"",""1739""
""fullscreenexit"",""62"",""384054""
","
","
","""event"",""trial"",""time""
""fullscreenenter"",""1"",""1739""
","""event"",""trial"",""time""
""fullscreenexit"",""62"",""384054""
","","","","","","637.4000000357628","<p> Some farm animals are hungry, while other farm animals are already full.  </p><p> On each turn, you will see a farm animal.   </p><p> You need to decide whether to feed it or not.  </p>","","0","instructions","","","","","","","","","","",""
"learning-instructions","62","394905","0.0-9.0-1.0-0.2","5720","1","24","Female","approach_avoid_spark_v1","""event"",""trial"",""time""
""fullscreenenter"",""1"",""1739""
""fullscreenexit"",""62"",""384054""
","
","
","""event"",""trial"",""time""
""fullscreenenter"",""1"",""1739""
","""event"",""trial"",""time""
""fullscreenexit"",""62"",""384054""
","","","","","","12321.100000023842","<p> You can feed the farm animal by pressing 1 and leave the farm animal alone by pressing 0. </p><br><div class=""choice-instructions-grid""> <div class=""choice-option""><img src=""images/approach.png"" class=""choice-option-img"" stage=""instructions"" position=""0"" ><div class=""choice-option-text""> Press ""1."" </div></div><div class=""choice-option""><img src=""images/avoid.png"" class=""choice-option-img"" stage=""instructions"" position=""1"" ><div class=""choice-option-text""> Press ""0."" </div></div>","","0","instructions","","","","","","","","","","",""
"learning-instructions","63","406419","0.0-9.0-1.0-0.3","5720","1","24","Female","approach_avoid_spark_v1","""event"",""trial"",""time""
""fullscreenenter"",""1"",""1739""
""fullscreenexit"",""62"",""384054""
","
","
","""event"",""trial"",""time""
""fullscreenenter"",""1"",""1739""
","""event"",""trial"",""time""
""fullscreenexit"",""62"",""384054""
","","","","","","986.3999999761581","<p> If you feed a hungry farm animal, you will make it feel satisfied! </p><p> But if you feed the farm animal and it was already full, you will make it feel sick. </p>","","0","instructions","","","","","","","","","","",""
"learning-instructions","64","421936","0.0-9.0-1.0-0.4","5720","1","24","Female","approach_avoid_spark_v1","""event"",""trial"",""time""
""fullscreenenter"",""1"",""1739""
""fullscreenexit"",""62"",""384054""
","
","
","""event"",""trial"",""time""
""fullscreenenter"",""1"",""1739""
","""event"",""trial"",""time""
""fullscreenexit"",""62"",""384054""
","","","","","","915.4000000357628","<p> You will earn points based on how you made the farm animal feel. </p><p> If you made it satisfied, you will WIN anywhere from 1 - 9 points, </p><p> but if you made it sick, you will LOSE anywhere from 1 - 9 points. </p>","","0","instructions","","","","","","","","","","",""
"learning-instructions","65","432502","0.0-9.0-1.0-0.5","5720","1","24","Female","approach_avoid_spark_v1","""event"",""trial"",""time""
""fullscreenenter"",""1"",""1739""
""fullscreenexit"",""62"",""384054""
","
","
","""event"",""trial"",""time""
""fullscreenenter"",""1"",""1739""
","""event"",""trial"",""time""
""fullscreenexit"",""62"",""384054""
","","","","","","2244.099999964237","<p> You will see how many points you won or lost in the center of the screen. </p><p> Here is what you would see if you won 5 points: </p><p style=""color:green;font-size:50px;font-weight:bolder"">5</p>","","0","instructions","","","","","","","","","","",""
"learning-instructions","66","436769","0.0-9.0-1.0-0.6","5720","1","24","Female","approach_avoid_spark_v1","""event"",""trial"",""time""
""fullscreenenter"",""1"",""1739""
""fullscreenexit"",""62"",""384054""
","
","
","""event"",""trial"",""time""
""fullscreenenter"",""1"",""1739""
","""event"",""trial"",""time""
""fullscreenexit"",""62"",""384054""
","","","","","","799.3999999761581","<p> And here is what you would see if you lost 3 points: </p><p style=""color:red;font-size:50px;font-weight:bolder"">-3</p>","","0","instructions","","","","","","","","","","",""
"learning-instructions","67","466069","0.0-9.0-1.0-0.7","5720","1","24","Female","approach_avoid_spark_v1","""event"",""trial"",""time""
""fullscreenenter"",""1"",""1739""
""fullscreenexit"",""62"",""384054""
","
","
","""event"",""trial"",""time""
""fullscreenenter"",""1"",""1739""
","""event"",""trial"",""time""
""fullscreenexit"",""62"",""384054""
","","","","","","9166.5","<p> Some farm animals will become very satisfied or very sick. </p><p> These farm animals will make you win or lose LOTS of points. </p><p> Other farm animals have less strong feelings. </p><p> These farm animals will make you win or lose small amounts of points. </p>","","0","instructions","","","","","","","","","","",""
"learning-instructions","68","480203","0.0-9.0-1.0-0.8","5720","1","24","Female","approach_avoid_spark_v1","""event"",""trial"",""time""
""fullscreenenter"",""1"",""1739""
""fullscreenexit"",""62"",""384054""
","
","
","""event"",""trial"",""time""
""fullscreenenter"",""1"",""1739""
","""event"",""trial"",""time""
""fullscreenexit"",""62"",""384054""
","","","","","","503.89999997615814","<p> If you choose to leave the farm animal alone, you will not win or lose any points. </p><p>  However, in the center of the screen, you will see the number of points you WOULD HAVE won or lost if you had fed the farm animal. </p>","","0","instructions","","","","","","","","","","",""
"learning-instructions","69","493419","0.0-9.0-1.0-0.9","5720","1","24","Female","approach_avoid_spark_v1","""event"",""trial"",""time""
""fullscreenenter"",""1"",""1739""
""fullscreenexit"",""62"",""384054""
","
","
","""event"",""trial"",""time""
""fullscreenenter"",""1"",""1739""
","""event"",""trial"",""time""
""fullscreenexit"",""62"",""384054""
","","","","","","676.1999999880791","<p> Here is what you might see if you did not feed the farm animal but the animal was hungry: </p><p style=""color:grey; font-size:50px; display: inline-block; border-spacing: 15px; border-width:3px; border-style:solid; border-color:red"">  &nbsp; 6 &nbsp; </p><p> Remember, in this case, you would not win or lose ANY points because you did not feed the farm animal.  </p>","","0","instructions","","","","","","","","","","",""
"learning-instructions","70","502521","0.0-9.0-1.0-0.10","5720","1","24","Female","approach_avoid_spark_v1","""event"",""trial"",""time""
""fullscreenenter"",""1"",""1739""
""fullscreenexit"",""62"",""384054""
","
","
","""event"",""trial"",""time""
""fullscreenenter"",""1"",""1739""
","""event"",""trial"",""time""
""fullscreenexit"",""62"",""384054""
","","","","","","588.1999999880791","<p> Try to make the best choice for each farm animal because </p><p> at the end of the game, you will earn bonus money based on how many points you earned. </p>","","0","instructions","","","","","","","","","","",""
"learning-instructions","71","511403","0.0-9.0-1.0-0.11","5720","1","24","Female","approach_avoid_spark_v1","""event"",""trial"",""time""
""fullscreenenter"",""1"",""1739""
""fullscreenexit"",""62"",""384054""
","
","
","""event"",""trial"",""time""
""fullscreenenter"",""1"",""1739""
","""event"",""trial"",""time""
""fullscreenexit"",""62"",""384054""
","","","","","","691.3999999761581","<p> You will have 3 seconds to make each choice. Try to respond before time runs out! </p><p> You will lose 5 points each time you do not make a response. </p>","","0","instructions","","","","","","","","","","",""
"html-keyboard-response","72","512009","0.0-9.0-2.0-0.0","5720","1","24","Female","approach_avoid_spark_v1","""event"",""trial"",""time""
""fullscreenenter"",""1"",""1739""
""fullscreenexit"",""62"",""384054""
","
","
","""event"",""trial"",""time""
""fullscreenenter"",""1"",""1739""
","""event"",""trial"",""time""
""fullscreenexit"",""62"",""384054""
","","","","","","null","<div style=""font-size:60px;"">+</div>","null","","fixation","","","","","","","","","","",""
"aa-learning-trial","73","515018","0.0-9.0-2.0-1.0","5720","1","24","Female","approach_avoid_spark_v1","""event"",""trial"",""time""
""fullscreenenter"",""1"",""1739""
""fullscreenexit"",""62"",""384054""
","
","
","""event"",""trial"",""time""
""fullscreenenter"",""1"",""1739""
","""event"",""trial"",""time""
""fullscreenexit"",""62"",""384054""
","","","","","","1627","images/sheep8.png","","","learning","-1","-1","1","1","sheep","animals","1","0","","neutral","0"
"html-keyboard-response","74","515521","0.0-9.0-2.0-0.1","5720","1","24","Female","approach_avoid_spark_v1","""event"",""trial"",""time""
""fullscreenenter"",""1"",""1739""
""fullscreenexit"",""62"",""384054""
","
","
","""event"",""trial"",""time""
""fullscreenenter"",""1"",""1739""
","""event"",""trial"",""time""
""fullscreenexit"",""62"",""384054""
","","","","","","null","<div style=""font-size:60px;"">+</div>","null","","fixation","","","","","","","","","","",""
"aa-learning-trial","75","518529","0.0-9.0-2.0-1.1","5720","1","24","Female","approach_avoid_spark_v1","""event"",""trial"",""time""
""fullscreenenter"",""1"",""1739""
""fullscreenexit"",""62"",""384054""
","
","
","""event"",""trial"",""time""
""fullscreenenter"",""1"",""1739""
","""event"",""trial"",""time""
""fullscreenexit"",""62"",""384054""
","","","","","","1490.9000000357628","images/horse5.png","","","learning","-1","-1","1","1","horse","animals","1","0","","bad","[-3]"
"html-keyboard-response","76","519033","0.0-9.0-2.0-0.2","5720","1","24","Female","approach_avoid_spark_v1","""event"",""trial"",""time""
""fullscreenenter"",""1"",""1739""
""fullscreenexit"",""62"",""384054""
","
","
","""event"",""trial"",""time""
""fullscreenenter"",""1"",""1739""
","""event"",""trial"",""time""
""fullscreenexit"",""62"",""384054""
","","","","","","null","<div style=""font-size:60px;"">+</div>","null","","fixation","","","","","","","","","","",""
"aa-learning-trial","77","522037","0.0-9.0-2.0-1.2","5720","1","24","Female","approach_avoid_spark_v1","""event"",""trial"",""time""
""fullscreenenter"",""1"",""1739""
""fullscreenexit"",""62"",""384054""
","
","
","""event"",""trial"",""time""
""fullscreenenter"",""1"",""1739""
","""event"",""trial"",""time""
""fullscreenexit"",""62"",""384054""
","","","","","","1619","images/goat7.png","","","learning","5","5","1","1","goat","animals","1","0","","good","[6]"
"html-keyboard-response","78","522540","0.0-9.0-2.0-0.3","5720","1","24","Female","approach_avoid_spark_v1","""event"",""trial"",""time""
""fullscreenenter"",""1"",""1739""
""fullscreenexit"",""62"",""384054""
","
","
","""event"",""trial"",""time""
""fullscreenenter"",""1"",""1739""
","""event"",""trial"",""time""
""fullscreenexit"",""62"",""384054""
","","","","","","null","<div style=""font-size:60px;"">+</div>","null","","fixation","","","","","","","","","","",""
"aa-learning-trial","79","525547","0.0-9.0-2.0-1.3","5720","1","24","Female","approach_avoid_spark_v1","""event"",""trial"",""time""
""fullscreenenter"",""1"",""1739""
""fullscreenexit"",""62"",""384054""
","
","
","""event"",""trial"",""time""
""fullscreenenter"",""1"",""1739""
","""event"",""trial"",""time""
""fullscreenexit"",""62"",""384054""
","","","","","","975.3999999761581","images/goat3.png","","","learning","5","5","1","1","goat","animals","1","0","","good","[6]"
"html-keyboard-response","80","526049","0.0-9.0-2.0-0.4","5720","1","24","Female","approach_avoid_spark_v1","""event"",""trial"",""time""
""fullscreenenter"",""1"",""1739""
""fullscreenexit"",""62"",""384054""
","
","
","""event"",""trial"",""time""
""fullscreenenter"",""1"",""1739""
","""event"",""trial"",""time""
""fullscreenexit"",""62"",""384054""
","","","","","","null","<div style=""font-size:60px;"">+</div>","null","","fixation","","","","","","","","","","",""
"aa-learning-trial","81","529055","0.0-9.0-2.0-1.4","5720","1","24","Female","approach_avoid_spark_v1","""event"",""trial"",""time""
""fullscreenenter"",""1"",""1739""
""fullscreenexit"",""62"",""384054""
","
","
","""event"",""trial"",""time""
""fullscreenenter"",""1"",""1739""
","""event"",""trial"",""time""
""fullscreenexit"",""62"",""384054""
","","","","","","1102.699999988079","images/sheep5.png","","","learning","2","2","1","1","sheep","animals","1","0","","neutral","0"
"html-keyboard-response","82","529557","0.0-9.0-2.0-0.5","5720","1","24","Female","approach_avoid_spark_v1","""event"",""trial"",""time""
""fullscreenenter"",""1"",""1739""
""fullscreenexit"",""62"",""384054""
","
","
","""event"",""trial"",""time""
""fullscreenenter"",""1"",""1739""
","""event"",""trial"",""time""
""fullscreenexit"",""62"",""384054""
","","","","","","null","<div style=""font-size:60px;"">+</div>","null","","fixation","","","","","","","","","","",""
"aa-learning-trial","83","532566","0.0-9.0-2.0-1.5","5720","1","24","Female","approach_avoid_spark_v1","""event"",""trial"",""time""
""fullscreenenter"",""1"",""1739""
""fullscreenexit"",""62"",""384054""
","
","
","""event"",""trial"",""time""
""fullscreenenter"",""1"",""1739""
","""event"",""trial"",""time""
""fullscreenexit"",""62"",""384054""
","","","","","","1019.8000000119209","images/sheep8.png","","","learning","-2","0","0","0","sheep","animals","1","0","","neutral","0"
"html-keyboard-response","84","533072","0.0-9.0-2.0-0.6","5720","1","24","Female","approach_avoid_spark_v1","""event"",""trial"",""time""
""fullscreenenter"",""1"",""1739""
""fullscreenexit"",""62"",""384054""
","
","
","""event"",""trial"",""time""
""fullscreenenter"",""1"",""1739""
","""event"",""trial"",""time""
""fullscreenexit"",""62"",""384054""
","","","","","","null","<div style=""font-size:60px;"">+</div>","null","","fixation","","","","","","","","","","",""
"aa-learning-trial","85","536078","0.0-9.0-2.0-1.6","5720","1","24","Female","approach_avoid_spark_v1","""event"",""trial"",""time""
""fullscreenenter"",""1"",""1739""
""fullscreenexit"",""62"",""384054""
","
","
","""event"",""trial"",""time""
""fullscreenenter"",""1"",""1739""
","""event"",""trial"",""time""
""fullscreenexit"",""62"",""384054""
","","","","","","1107.4000000357628","images/sheep5.png","","","learning","[1]","1","1","1","sheep","animals","1","0","","neutral","0"
"html-keyboard-response","86","536584","0.0-9.0-2.0-0.7","5720","1","24","Female","approach_avoid_spark_v1","""event"",""trial"",""time""
""fullscreenenter"",""1"",""1739""
""fullscreenexit"",""62"",""384054""
","
","
","""event"",""trial"",""time""
""fullscreenenter"",""1"",""1739""
","""event"",""trial"",""time""
""fullscreenexit"",""62"",""384054""
","","","","","","null","<div style=""font-size:60px;"">+</div>","null","","fixation","","","","","","","","","","",""
"aa-learning-trial","87","539593","0.0-9.0-2.0-1.7","5720","1","24","Female","approach_avoid_spark_v1","""event"",""trial"",""time""
""fullscreenenter"",""1"",""1739""
""fullscreenexit"",""62"",""384054""
","
","
","""event"",""trial"",""time""
""fullscreenenter"",""1"",""1739""
","""event"",""trial"",""time""
""fullscreenexit"",""62"",""384054""
","","","","","","1724","images/goat1.png","","","learning","6","0","0","0","goat","animals","1","0","","good","[6]"
"html-keyboard-response","88","540097","0.0-9.0-2.0-0.8","5720","1","24","Female","approach_avoid_spark_v1","""event"",""trial"",""time""
""fullscreenenter"",""1"",""1739""
""fullscreenexit"",""62"",""384054""
","
","
","""event"",""trial"",""time""
""fullscreenenter"",""1"",""1739""
","""event"",""trial"",""time""
""fullscreenexit"",""62"",""384054""
","","","","","","null","<div style=""font-size:60px;"">+</div>","null","","fixation","","","","","","","","","","",""
"aa-learning-trial","89","543101","0.0-9.0-2.0-1.8","5720","1","24","Female","approach_avoid_spark_v1","""event"",""trial"",""time""
""fullscreenenter"",""1"",""1739""
""fullscreenexit"",""62"",""384054""
","
","
","""event"",""trial"",""time""
""fullscreenenter"",""1"",""1739""
","""event"",""trial"",""time""
""fullscreenexit"",""62"",""384054""
","","","","","","1618.800000011921","images/horse8.png","","","learning","-3","0","0","0","horse","animals","1","0","","bad","[-3]"
"html-keyboard-response","90","543602","0.0-9.0-2.0-0.9","5720","1","24","Female","approach_avoid_spark_v1","""event"",""trial"",""time""
""fullscreenenter"",""1"",""1739""
""fullscreenexit"",""62"",""384054""
","
","
","""event"",""trial"",""time""
""fullscreenenter"",""1"",""1739""
","""event"",""trial"",""time""
""fullscreenexit"",""62"",""384054""
","","","","","","null","<div style=""font-size:60px;"">+</div>","null","","fixation","","","","","","","","","","",""
"aa-learning-trial","91","546610","0.0-9.0-2.0-1.9","5720","1","24","Female","approach_avoid_spark_v1","""event"",""trial"",""time""
""fullscreenenter"",""1"",""1739""
""fullscreenexit"",""62"",""384054""
","
","
","""event"",""trial"",""time""
""fullscreenenter"",""1"",""1739""
","""event"",""trial"",""time""
""fullscreenexit"",""62"",""384054""
","","","","","","1125.3999999761581","images/sheep6.png","","","learning","1","1","1","1","sheep","animals","1","0","","neutral","0"
"html-keyboard-response","92","547117","0.0-9.0-2.0-0.10","5720","1","24","Female","approach_avoid_spark_v1","""event"",""trial"",""time""
""fullscreenenter"",""1"",""1739""
""fullscreenexit"",""62"",""384054""
","
","
","""event"",""trial"",""time""
""fullscreenenter"",""1"",""1739""
","""event"",""trial"",""time""
""fullscreenexit"",""62"",""384054""
","","","","","","null","<div style=""font-size:60px;"">+</div>","null","","fixation","","","","","","","","","","",""
"aa-learning-trial","93","550125","0.0-9.0-2.0-1.10","5720","1","24","Female","approach_avoid_spark_v1","""event"",""trial"",""time""
""fullscreenenter"",""1"",""1739""
""fullscreenexit"",""62"",""384054""
","
","
","""event"",""trial"",""time""
""fullscreenenter"",""1"",""1739""
","""event"",""trial"",""time""
""fullscreenexit"",""62"",""384054""
","","","","","","1448.800000011921","images/horse3.png","","","learning","-4","-4","1","1","horse","animals","1","0","","bad","[-3]"
"html-keyboard-response","94","550631","0.0-9.0-2.0-0.11","5720","1","24","Female","approach_avoid_spark_v1","""event"",""trial"",""time""
""fullscreenenter"",""1"",""1739""
""fullscreenexit"",""62"",""384054""
","
","
","""event"",""trial"",""time""
""fullscreenenter"",""1"",""1739""
","""event"",""trial"",""time""
""fullscreenexit"",""62"",""384054""
","","","","","","null","<div style=""font-size:60px;"">+</div>","null","","fixation","","","","","","","","","","",""
"aa-learning-trial","95","553639","0.0-9.0-2.0-1.11","5720","1","24","Female","approach_avoid_spark_v1","""event"",""trial"",""time""
""fullscreenenter"",""1"",""1739""
""fullscreenexit"",""62"",""384054""
","
","
","""event"",""trial"",""time""
""fullscreenenter"",""1"",""1739""
","""event"",""trial"",""time""
""fullscreenexit"",""62"",""384054""
","","","","","","1263.7000000476837","images/goat7.png","","","learning","4","4","1","1","goat","animals","1","0","","good","[6]"
"html-keyboard-response","96","554141","0.0-9.0-2.0-0.12","5720","1","24","Female","approach_avoid_spark_v1","""event"",""trial"",""time""
""fullscreenenter"",""1"",""1739""
""fullscreenexit"",""62"",""384054""
","
","
","""event"",""trial"",""time""
""fullscreenenter"",""1"",""1739""
","""event"",""trial"",""time""
""fullscreenexit"",""62"",""384054""
","","","","","","null","<div style=""font-size:60px;"">+</div>","null","","fixation","","","","","","","","","","",""
"aa-learning-trial","97","557149","0.0-9.0-2.0-1.12","5720","1","24","Female","approach_avoid_spark_v1","""event"",""trial"",""time""
""fullscreenenter"",""1"",""1739""
""fullscreenexit"",""62"",""384054""
","
","
","""event"",""trial"",""time""
""fullscreenenter"",""1"",""1739""
","""event"",""trial"",""time""
""fullscreenexit"",""62"",""384054""
","","","","","","1315.0999999642372","images/goat1.png","","","learning","7","7","1","1","goat","animals","1","0","","good","[6]"
"html-keyboard-response","98","557655","0.0-9.0-2.0-0.13","5720","1","24","Female","approach_avoid_spark_v1","""event"",""trial"",""time""
""fullscreenenter"",""1"",""1739""
""fullscreenexit"",""62"",""384054""
","
","
","""event"",""trial"",""time""
""fullscreenenter"",""1"",""1739""
","""event"",""trial"",""time""
""fullscreenexit"",""62"",""384054""
","","","","","","null","<div style=""font-size:60px;"">+</div>","null","","fixation","","","","","","","","","","",""
"aa-learning-trial","99","560663","0.0-9.0-2.0-1.13","5720","1","24","Female","approach_avoid_spark_v1","""event"",""trial"",""time""
""fullscreenenter"",""1"",""1739""
""fullscreenexit"",""62"",""384054""
","
","
","""event"",""trial"",""time""
""fullscreenenter"",""1"",""1739""
","""event"",""trial"",""time""
""fullscreenexit"",""62"",""384054""
","","","","","","1138.300000011921","images/horse3.png","","","learning","-3","0","0","0","horse","animals","1","0","","bad","[-3]"
"html-keyboard-response","100","561165","0.0-9.0-2.0-0.14","5720","1","24","Female","approach_avoid_spark_v1","""event"",""trial"",""time""
""fullscreenenter"",""1"",""1739""
""fullscreenexit"",""62"",""384054""
","
","
","""event"",""trial"",""time""
""fullscreenenter"",""1"",""1739""
","""event"",""trial"",""time""
""fullscreenexit"",""62"",""384054""
","","","","","","null","<div style=""font-size:60px;"">+</div>","null","","fixation","","","","","","","","","","",""
"aa-learning-trial","101","564173","0.0-9.0-2.0-1.14","5720","1","24","Female","approach_avoid_spark_v1","""event"",""trial"",""time""
""fullscreenenter"",""1"",""1739""
""fullscreenexit"",""62"",""384054""
","
","
","""event"",""trial"",""time""
""fullscreenenter"",""1"",""1739""
","""event"",""trial"",""time""
""fullscreenexit"",""62"",""384054""
","","","","","","1346.0999999642372","images/horse5.png","","","learning","-1","0","0","0","horse","animals","1","0","","bad","[-3]"
"html-keyboard-response","102","564679","0.0-9.0-2.0-0.15","5720","1","24","Female","approach_avoid_spark_v1","""event"",""trial"",""time""
""fullscreenenter"",""1"",""1739""
""fullscreenexit"",""62"",""384054""
","
","
","""event"",""trial"",""time""
""fullscreenenter"",""1"",""1739""
","""event"",""trial"",""time""
""fullscreenexit"",""62"",""384054""
","","","","","","null","<div style=""font-size:60px;"">+</div>","null","","fixation","","","","","","","","","","",""
"aa-learning-trial","103","567688","0.0-9.0-2.0-1.15","5720","1","24","Female","approach_avoid_spark_v1","""event"",""trial"",""time""
""fullscreenenter"",""1"",""1739""
""fullscreenexit"",""62"",""384054""
","
","
","""event"",""trial"",""time""
""fullscreenenter"",""1"",""1739""
","""event"",""trial"",""time""
""fullscreenexit"",""62"",""384054""
","","","","","","1314.0999999642372","images/sheep1.png","","","learning","[-1]","-1","1","1","sheep","animals","1","0","","neutral","0"
"html-keyboard-response","104","568194","0.0-9.0-2.0-0.16","5720","1","24","Female","approach_avoid_spark_v1","""event"",""trial"",""time""
""fullscreenenter"",""1"",""1739""
""fullscreenexit"",""62"",""384054""
","
","
","""event"",""trial"",""time""
""fullscreenenter"",""1"",""1739""
","""event"",""trial"",""time""
""fullscreenexit"",""62"",""384054""
","","","","","","null","<div style=""font-size:60px;"">+</div>","null","","fixation","","","","","","","","","","",""
"aa-learning-trial","105","571202","0.0-9.0-2.0-1.16","5720","1","24","Female","approach_avoid_spark_v1","""event"",""trial"",""time""
""fullscreenenter"",""1"",""1739""
""fullscreenexit"",""62"",""384054""
","
","
","""event"",""trial"",""time""
""fullscreenenter"",""1"",""1739""
","""event"",""trial"",""time""
""fullscreenexit"",""62"",""384054""
","","","","","","1372.300000011921","images/sheep8.png","","","learning","[-1]","-1","1","1","sheep","animals","1","0","","neutral","0"
"html-keyboard-response","106","571708","0.0-9.0-2.0-0.17","5720","1","24","Female","approach_avoid_spark_v1","""event"",""trial"",""time""
""fullscreenenter"",""1"",""1739""
""fullscreenexit"",""62"",""384054""
","
","
","""event"",""trial"",""time""
""fullscreenenter"",""1"",""1739""
","""event"",""trial"",""time""
""fullscreenexit"",""62"",""384054""
","","","","","","null","<div style=""font-size:60px;"">+</div>","null","","fixation","","","","","","","","","","",""
"aa-learning-trial","107","574714","0.0-9.0-2.0-1.17","5720","1","24","Female","approach_avoid_spark_v1","""event"",""trial"",""time""
""fullscreenenter"",""1"",""1739""
""fullscreenexit"",""62"",""384054""
","
","
","""event"",""trial"",""time""
""fullscreenenter"",""1"",""1739""
","""event"",""trial"",""time""
""fullscreenexit"",""62"",""384054""
","","","","","","1454.8999999761581","images/goat3.png","","","learning","8","8","1","1","goat","animals","1","0","","good","[6]"
"html-keyboard-response","108","575218","0.0-9.0-2.0-0.18","5720","1","24","Female","approach_avoid_spark_v1","""event"",""trial"",""time""
""fullscreenenter"",""1"",""1739""
""fullscreenexit"",""62"",""384054""
","
","
","""event"",""trial"",""time""
""fullscreenenter"",""1"",""1739""
","""event"",""trial"",""time""
""fullscreenexit"",""62"",""384054""
","","","","","","null","<div style=""font-size:60px;"">+</div>","null","","fixation","","","","","","","","","","",""
"aa-learning-trial","109","578226","0.0-9.0-2.0-1.18","5720","1","24","Female","approach_avoid_spark_v1","""event"",""trial"",""time""
""fullscreenenter"",""1"",""1739""
""fullscreenexit"",""62"",""384054""
","
","
","""event"",""trial"",""time""
""fullscreenenter"",""1"",""1739""
","""event"",""trial"",""time""
""fullscreenexit"",""62"",""384054""
","","","","","","1105.8999999761581","images/goat1.png","","","learning","4","4","1","1","goat","animals","1","0","","good","[6]"
"html-keyboard-response","110","578732","0.0-9.0-2.0-0.19","5720","1","24","Female","approach_avoid_spark_v1","""event"",""trial"",""time""
""fullscreenenter"",""1"",""1739""
""fullscreenexit"",""62"",""384054""
","
","
","""event"",""trial"",""time""
""fullscreenenter"",""1"",""1739""
","""event"",""trial"",""time""
""fullscreenexit"",""62"",""384054""
","","","","","","null","<div style=""font-size:60px;"">+</div>","null","","fixation","","","","","","","","","","",""
"aa-learning-trial","111","581741","0.0-9.0-2.0-1.19","5720","1","24","Female","approach_avoid_spark_v1","""event"",""trial"",""time""
""fullscreenenter"",""1"",""1739""
""fullscreenexit"",""62"",""384054""
","
","
","""event"",""trial"",""time""
""fullscreenenter"",""1"",""1739""
","""event"",""trial"",""time""
""fullscreenexit"",""62"",""384054""
","","","","","","798","images/horse6.png","","","learning","-3","0","0","0","horse","animals","1","0","","bad","[-3]"
"html-keyboard-response","112","582247","0.0-9.0-2.0-0.20","5720","1","24","Female","approach_avoid_spark_v1","""event"",""trial"",""time""
""fullscreenenter"",""1"",""1739""
""fullscreenexit"",""62"",""384054""
","
","
","""event"",""trial"",""time""
""fullscreenenter"",""1"",""1739""
","""event"",""trial"",""time""
""fullscreenexit"",""62"",""384054""
","","","","","","null","<div style=""font-size:60px;"">+</div>","null","","fixation","","","","","","","","","","",""
"aa-learning-trial","113","585255","0.0-9.0-2.0-1.20","5720","1","24","Female","approach_avoid_spark_v1","""event"",""trial"",""time""
""fullscreenenter"",""1"",""1739""
""fullscreenexit"",""62"",""384054""
","
","
","""event"",""trial"",""time""
""fullscreenenter"",""1"",""1739""
","""event"",""trial"",""time""
""fullscreenexit"",""62"",""384054""
","","","","","","2213.199999988079","images/sheep8.png","","","learning","2","2","1","1","sheep","animals","1","0","","neutral","0"
"html-keyboard-response","114","585758","0.0-9.0-2.0-0.21","5720","1","24","Female","approach_avoid_spark_v1","""event"",""trial"",""time""
""fullscreenenter"",""1"",""1739""
""fullscreenexit"",""62"",""384054""
","
","
","""event"",""trial"",""time""
""fullscreenenter"",""1"",""1739""
","""event"",""trial"",""time""
""fullscreenexit"",""62"",""384054""
","","","","","","null","<div style=""font-size:60px;"">+</div>","null","","fixation","","","","","","","","","","",""
"aa-learning-trial","115","588765","0.0-9.0-2.0-1.21","5720","1","24","Female","approach_avoid_spark_v1","""event"",""trial"",""time""
""fullscreenenter"",""1"",""1739""
""fullscreenexit"",""62"",""384054""
","
","
","""event"",""trial"",""time""
""fullscreenenter"",""1"",""1739""
","""event"",""trial"",""time""
""fullscreenexit"",""62"",""384054""
","","","","","","823.3000000119209","images/horse3.png","","","learning","-3","0","0","0","horse","animals","1","0","","bad","[-3]"
"html-keyboard-response","116","589271","0.0-9.0-2.0-0.22","5720","1","24","Female","approach_avoid_spark_v1","""event"",""trial"",""time""
""fullscreenenter"",""1"",""1739""
""fullscreenexit"",""62"",""384054""
","
","
","""event"",""trial"",""time""
""fullscreenenter"",""1"",""1739""
","""event"",""trial"",""time""
""fullscreenexit"",""62"",""384054""
","","","","","","null","<div style=""font-size:60px;"">+</div>","null","","fixation","","","","","","","","","","",""
"aa-learning-trial","117","592282","0.0-9.0-2.0-1.22","5720","1","24","Female","approach_avoid_spark_v1","""event"",""trial"",""time""
""fullscreenenter"",""1"",""1739""
""fullscreenexit"",""62"",""384054""
","
","
","""event"",""trial"",""time""
""fullscreenenter"",""1"",""1739""
","""event"",""trial"",""time""
""fullscreenexit"",""62"",""384054""
","","","","","","2613.599999964237","images/goat1.png","","","learning","5","0","0","0","goat","animals","1","0","","good","[6]"
"html-keyboard-response","118","592786","0.0-9.0-2.0-0.23","5720","1","24","Female","approach_avoid_spark_v1","""event"",""trial"",""time""
""fullscreenenter"",""1"",""1739""
""fullscreenexit"",""62"",""384054""
","
","
","""event"",""trial"",""time""
""fullscreenenter"",""1"",""1739""
","""event"",""trial"",""time""
""fullscreenexit"",""62"",""384054""
","","","","","","null","<div style=""font-size:60px;"">+</div>","null","","fixation","","","","","","","","","","",""
"aa-learning-trial","119","595794","0.0-9.0-2.0-1.23","5720","1","24","Female","approach_avoid_spark_v1","""event"",""trial"",""time""
""fullscreenenter"",""1"",""1739""
""fullscreenexit"",""62"",""384054""
","
","
","""event"",""trial"",""time""
""fullscreenenter"",""1"",""1739""
","""event"",""trial"",""time""
""fullscreenexit"",""62"",""384054""
","","","","","","1422.699999988079","images/horse5.png","","","learning","-2","0","0","0","horse","animals","1","0","","bad","[-3]"
"html-keyboard-response","120","596300","0.0-9.0-2.0-0.24","5720","1","24","Female","approach_avoid_spark_v1","""event"",""trial"",""time""
""fullscreenenter"",""1"",""1739""
""fullscreenexit"",""62"",""384054""
","
","
","""event"",""trial"",""time""
""fullscreenenter"",""1"",""1739""
","""event"",""trial"",""time""
""fullscreenexit"",""62"",""384054""
","","","","","","null","<div style=""font-size:60px;"">+</div>","null","","fixation","","","","","","","","","","",""
"aa-learning-trial","121","599303","0.0-9.0-2.0-1.24","5720","1","24","Female","approach_avoid_spark_v1","""event"",""trial"",""time""
""fullscreenenter"",""1"",""1739""
""fullscreenexit"",""62"",""384054""
","
","
","""event"",""trial"",""time""
""fullscreenenter"",""1"",""1739""
","""event"",""trial"",""time""
""fullscreenexit"",""62"",""384054""
","","","","","","920.8999999761581","images/goat7.png","","","learning","5","5","1","1","goat","animals","1","0","","good","[6]"
"html-keyboard-response","122","599810","0.0-9.0-2.0-0.25","5720","1","24","Female","approach_avoid_spark_v1","""event"",""trial"",""time""
""fullscreenenter"",""1"",""1739""
""fullscreenexit"",""62"",""384054""
","
","
","""event"",""trial"",""time""
""fullscreenenter"",""1"",""1739""
","""event"",""trial"",""time""
""fullscreenexit"",""62"",""384054""
","","","","","","null","<div style=""font-size:60px;"">+</div>","null","","fixation","","","","","","","","","","",""
"aa-learning-trial","123","602818","0.0-9.0-2.0-1.25","5720","1","24","Female","approach_avoid_spark_v1","""event"",""trial"",""time""
""fullscreenenter"",""1"",""1739""
""fullscreenexit"",""62"",""384054""
","
","
","""event"",""trial"",""time""
""fullscreenenter"",""1"",""1739""
","""event"",""trial"",""time""
""fullscreenexit"",""62"",""384054""
","","","","","","767.3000000119209","images/goat5.png","","","learning","4","4","1","1","goat","animals","1","0","","good","[6]"
"html-keyboard-response","124","603324","0.0-9.0-2.0-0.26","5720","1","24","Female","approach_avoid_spark_v1","""event"",""trial"",""time""
""fullscreenenter"",""1"",""1739""
""fullscreenexit"",""62"",""384054""
","
","
","""event"",""trial"",""time""
""fullscreenenter"",""1"",""1739""
","""event"",""trial"",""time""
""fullscreenexit"",""62"",""384054""
","","","","","","null","<div style=""font-size:60px;"">+</div>","null","","fixation","","","","","","","","","","",""
"aa-learning-trial","125","606327","0.0-9.0-2.0-1.26","5720","1","24","Female","approach_avoid_spark_v1","""event"",""trial"",""time""
""fullscreenenter"",""1"",""1739""
""fullscreenexit"",""62"",""384054""
","
","
","""event"",""trial"",""time""
""fullscreenenter"",""1"",""1739""
","""event"",""trial"",""time""
""fullscreenexit"",""62"",""384054""
","","","","","","982.7999999523163","images/sheep5.png","","","learning","-1","-1","1","1","sheep","animals","1","0","","neutral","0"
"html-keyboard-response","126","606828","0.0-9.0-2.0-0.27","5720","1","24","Female","approach_avoid_spark_v1","""event"",""trial"",""time""
""fullscreenenter"",""1"",""1739""
""fullscreenexit"",""62"",""384054""
","
","
","""event"",""trial"",""time""
""fullscreenenter"",""1"",""1739""
","""event"",""trial"",""time""
""fullscreenexit"",""62"",""384054""
","","","","","","null","<div style=""font-size:60px;"">+</div>","null","","fixation","","","","","","","","","","",""
"aa-learning-trial","127","609836","0.0-9.0-2.0-1.27","5720","1","24","Female","approach_avoid_spark_v1","""event"",""trial"",""time""
""fullscreenenter"",""1"",""1739""
""fullscreenexit"",""62"",""384054""
","
","
","""event"",""trial"",""time""
""fullscreenenter"",""1"",""1739""
","""event"",""trial"",""time""
""fullscreenexit"",""62"",""384054""
","","","","","","946.7999999523163","images/goat7.png","","","learning","8","8","1","1","goat","animals","1","0","","good","[6]"
"html-keyboard-response","128","610343","0.0-9.0-2.0-0.28","5720","1","24","Female","approach_avoid_spark_v1","""event"",""trial"",""time""
""fullscreenenter"",""1"",""1739""
""fullscreenexit"",""62"",""384054""
","
","
","""event"",""trial"",""time""
""fullscreenenter"",""1"",""1739""
","""event"",""trial"",""time""
""fullscreenexit"",""62"",""384054""
","","","","","","null","<div style=""font-size:60px;"">+</div>","null","","fixation","","","","","","","","","","",""
"aa-learning-trial","129","613351","0.0-9.0-2.0-1.28","5720","1","24","Female","approach_avoid_spark_v1","""event"",""trial"",""time""
""fullscreenenter"",""1"",""1739""
""fullscreenexit"",""62"",""384054""
","
","
","""event"",""trial"",""time""
""fullscreenenter"",""1"",""1739""
","""event"",""trial"",""time""
""fullscreenexit"",""62"",""384054""
","","","","","","863.1000000238419","images/horse5.png","","","learning","2","0","0","0","horse","animals","1","0","","bad","[-3]"
"html-keyboard-response","130","613857","0.0-9.0-2.0-0.29","5720","1","24","Female","approach_avoid_spark_v1","""event"",""trial"",""time""
""fullscreenenter"",""1"",""1739""
""fullscreenexit"",""62"",""384054""
","
","
","""event"",""trial"",""time""
""fullscreenenter"",""1"",""1739""
","""event"",""trial"",""time""
""fullscreenexit"",""62"",""384054""
","","","","","","null","<div style=""font-size:60px;"">+</div>","null","","fixation","","","","","","","","","","",""
"aa-learning-trial","131","616866","0.0-9.0-2.0-1.29","5720","1","24","Female","approach_avoid_spark_v1","""event"",""trial"",""time""
""fullscreenenter"",""1"",""1739""
""fullscreenexit"",""62"",""384054""
","
","
","""event"",""trial"",""time""
""fullscreenenter"",""1"",""1739""
","""event"",""trial"",""time""
""fullscreenexit"",""62"",""384054""
","","","","","","1725.800000011921","images/goat1.png","","","learning","7","0","0","0","goat","animals","1","0","","good","[6]"
"html-keyboard-response","132","617372","0.0-9.0-2.0-0.30","5720","1","24","Female","approach_avoid_spark_v1","""event"",""trial"",""time""
""fullscreenenter"",""1"",""1739""
""fullscreenexit"",""62"",""384054""
","
","
","""event"",""trial"",""time""
""fullscreenenter"",""1"",""1739""
","""event"",""trial"",""time""
""fullscreenexit"",""62"",""384054""
","","","","","","null","<div style=""font-size:60px;"">+</div>","null","","fixation","","","","","","","","","","",""
"aa-learning-trial","133","620380","0.0-9.0-2.0-1.30","5720","1","24","Female","approach_avoid_spark_v1","""event"",""trial"",""time""
""fullscreenenter"",""1"",""1739""
""fullscreenexit"",""62"",""384054""
","
","
","""event"",""trial"",""time""
""fullscreenenter"",""1"",""1739""
","""event"",""trial"",""time""
""fullscreenexit"",""62"",""384054""
","","","","","","987","images/sheep5.png","","","learning","[1]","1","1","1","sheep","animals","1","0","","neutral","0"
"html-keyboard-response","134","620887","0.0-9.0-2.0-0.31","5720","1","24","Female","approach_avoid_spark_v1","""event"",""trial"",""time""
""fullscreenenter"",""1"",""1739""
""fullscreenexit"",""62"",""384054""
","
","
","""event"",""trial"",""time""
""fullscreenenter"",""1"",""1739""
","""event"",""trial"",""time""
""fullscreenexit"",""62"",""384054""
","","","","","","null","<div style=""font-size:60px;"">+</div>","null","","fixation","","","","","","","","","","",""
"aa-learning-trial","135","623895","0.0-9.0-2.0-1.31","5720","1","24","Female","approach_avoid_spark_v1","""event"",""trial"",""time""
""fullscreenenter"",""1"",""1739""
""fullscreenexit"",""62"",""384054""
","
","
","""event"",""trial"",""time""
""fullscreenenter"",""1"",""1739""
","""event"",""trial"",""time""
""fullscreenexit"",""62"",""384054""
","","","","","","740.8000000119209","images/goat7.png","","","learning","5","5","1","1","goat","animals","1","0","","good","[6]"
"html-keyboard-response","136","624401","0.0-9.0-2.0-0.32","5720","1","24","Female","approach_avoid_spark_v1","""event"",""trial"",""time""
""fullscreenenter"",""1"",""1739""
""fullscreenexit"",""62"",""384054""
","
","
","""event"",""trial"",""time""
""fullscreenenter"",""1"",""1739""
","""event"",""trial"",""time""
""fullscreenexit"",""62"",""384054""
","","","","","","null","<div style=""font-size:60px;"">+</div>","null","","fixation","","","","","","","","","","",""
"aa-learning-trial","137","627410","0.0-9.0-2.0-1.32","5720","1","24","Female","approach_avoid_spark_v1","""event"",""trial"",""time""
""fullscreenenter"",""1"",""1739""
""fullscreenexit"",""62"",""384054""
","
","
","""event"",""trial"",""time""
""fullscreenenter"",""1"",""1739""
","""event"",""trial"",""time""
""fullscreenexit"",""62"",""384054""
","","","","","","795.8000000119209","images/sheep8.png","","","learning","-3","-3","1","1","sheep","animals","1","0","","neutral","0"
"html-keyboard-response","138","627916","0.0-9.0-2.0-0.33","5720","1","24","Female","approach_avoid_spark_v1","""event"",""trial"",""time""
""fullscreenenter"",""1"",""1739""
""fullscreenexit"",""62"",""384054""
","
","
","""event"",""trial"",""time""
""fullscreenenter"",""1"",""1739""
","""event"",""trial"",""time""
""fullscreenexit"",""62"",""384054""
","","","","","","null","<div style=""font-size:60px;"">+</div>","null","","fixation","","","","","","","","","","",""
"aa-learning-trial","139","630924","0.0-9.0-2.0-1.33","5720","1","24","Female","approach_avoid_spark_v1","""event"",""trial"",""time""
""fullscreenenter"",""1"",""1739""
""fullscreenexit"",""62"",""384054""
","
","
","""event"",""trial"",""time""
""fullscreenenter"",""1"",""1739""
","""event"",""trial"",""time""
""fullscreenexit"",""62"",""384054""
","","","","","","672.8999999761581","images/horse5.png","","","learning","-2","0","0","0","horse","animals","1","0","","bad","[-3]"
"html-keyboard-response","140","631431","0.0-9.0-2.0-0.34","5720","1","24","Female","approach_avoid_spark_v1","""event"",""trial"",""time""
""fullscreenenter"",""1"",""1739""
""fullscreenexit"",""62"",""384054""
","
","
","""event"",""trial"",""time""
""fullscreenenter"",""1"",""1739""
","""event"",""trial"",""time""
""fullscreenexit"",""62"",""384054""
","","","","","","null","<div style=""font-size:60px;"">+</div>","null","","fixation","","","","","","","","","","",""
"aa-learning-trial","141","634435","0.0-9.0-2.0-1.34","5720","1","24","Female","approach_avoid_spark_v1","""event"",""trial"",""time""
""fullscreenenter"",""1"",""1739""
""fullscreenexit"",""62"",""384054""
","
","
","""event"",""trial"",""time""
""fullscreenenter"",""1"",""1739""
","""event"",""trial"",""time""
""fullscreenexit"",""62"",""384054""
","","","","","","1289.0999999642372","images/horse3.png","","","learning","-4","0","0","0","horse","animals","1","0","","bad","[-3]"
"html-keyboard-response","142","634938","0.0-9.0-2.0-0.35","5720","1","24","Female","approach_avoid_spark_v1","""event"",""trial"",""time""
""fullscreenenter"",""1"",""1739""
""fullscreenexit"",""62"",""384054""
","
","
","""event"",""trial"",""time""
""fullscreenenter"",""1"",""1739""
","""event"",""trial"",""time""
""fullscreenexit"",""62"",""384054""
","","","","","","null","<div style=""font-size:60px;"">+</div>","null","","fixation","","","","","","","","","","",""
"aa-learning-trial","143","637943","0.0-9.0-2.0-1.35","5720","1","24","Female","approach_avoid_spark_v1","""event"",""trial"",""time""
""fullscreenenter"",""1"",""1739""
""fullscreenexit"",""62"",""384054""
","
","
","""event"",""trial"",""time""
""fullscreenenter"",""1"",""1739""
","""event"",""trial"",""time""
""fullscreenexit"",""62"",""384054""
","","","","","","948.1000000238419","images/goat3.png","","","learning","5","5","1","1","goat","animals","1","0","","good","[6]"
"html-keyboard-response","144","638449","0.0-9.0-2.0-0.36","5720","1","24","Female","approach_avoid_spark_v1","""event"",""trial"",""time""
""fullscreenenter"",""1"",""1739""
""fullscreenexit"",""62"",""384054""
","
","
","""event"",""trial"",""time""
""fullscreenenter"",""1"",""1739""
","""event"",""trial"",""time""
""fullscreenexit"",""62"",""384054""
","","","","","","null","<div style=""font-size:60px;"">+</div>","null","","fixation","","","","","","","","","","",""
"aa-learning-trial","145","641458","0.0-9.0-2.0-1.36","5720","1","24","Female","approach_avoid_spark_v1","""event"",""trial"",""time""
""fullscreenenter"",""1"",""1739""
""fullscreenexit"",""62"",""384054""
","
","
","""event"",""trial"",""time""
""fullscreenenter"",""1"",""1739""
","""event"",""trial"",""time""
""fullscreenexit"",""62"",""384054""
","","","","","","719.8999999761581","images/goat4.png","","","learning","7","7","1","1","goat","animals","1","0","","good","[6]"
"html-keyboard-response","146","641964","0.0-9.0-2.0-0.37","5720","1","24","Female","approach_avoid_spark_v1","""event"",""trial"",""time""
""fullscreenenter"",""1"",""1739""
""fullscreenexit"",""62"",""384054""
","
","
","""event"",""trial"",""time""
""fullscreenenter"",""1"",""1739""
","""event"",""trial"",""time""
""fullscreenexit"",""62"",""384054""
","","","","","","null","<div style=""font-size:60px;"">+</div>","null","","fixation","","","","","","","","","","",""
"aa-learning-trial","147","644971","0.0-9.0-2.0-1.37","5720","1","24","Female","approach_avoid_spark_v1","""event"",""trial"",""time""
""fullscreenenter"",""1"",""1739""
""fullscreenexit"",""62"",""384054""
","
","
","""event"",""trial"",""time""
""fullscreenenter"",""1"",""1739""
","""event"",""trial"",""time""
""fullscreenexit"",""62"",""384054""
","","","","","","636.1999999880791","images/sheep6.png","","","learning","1","1","1","1","sheep","animals","1","0","","neutral","0"
"html-keyboard-response","148","645478","0.0-9.0-2.0-0.38","5720","1","24","Female","approach_avoid_spark_v1","""event"",""trial"",""time""
""fullscreenenter"",""1"",""1739""
""fullscreenexit"",""62"",""384054""
","
","
","""event"",""trial"",""time""
""fullscreenenter"",""1"",""1739""
","""event"",""trial"",""time""
""fullscreenexit"",""62"",""384054""
","","","","","","null","<div style=""font-size:60px;"">+</div>","null","","fixation","","","","","","","","","","",""
"aa-learning-trial","149","648486","0.0-9.0-2.0-1.38","5720","1","24","Female","approach_avoid_spark_v1","""event"",""trial"",""time""
""fullscreenenter"",""1"",""1739""
""fullscreenexit"",""62"",""384054""
","
","
","""event"",""trial"",""time""
""fullscreenenter"",""1"",""1739""
","""event"",""trial"",""time""
""fullscreenexit"",""62"",""384054""
","","","","","","563.5","images/goat7.png","","","learning","7","7","1","1","goat","animals","1","0","","good","[6]"
"html-keyboard-response","150","648993","0.0-9.0-2.0-0.39","5720","1","24","Female","approach_avoid_spark_v1","""event"",""trial"",""time""
""fullscreenenter"",""1"",""1739""
""fullscreenexit"",""62"",""384054""
","
","
","""event"",""trial"",""time""
""fullscreenenter"",""1"",""1739""
","""event"",""trial"",""time""
""fullscreenexit"",""62"",""384054""
","","","","","","null","<div style=""font-size:60px;"">+</div>","null","","fixation","","","","","","","","","","",""
"aa-learning-trial","151","651996","0.0-9.0-2.0-1.39","5720","1","24","Female","approach_avoid_spark_v1","""event"",""trial"",""time""
""fullscreenenter"",""1"",""1739""
""fullscreenexit"",""62"",""384054""
","
","
","""event"",""trial"",""time""
""fullscreenenter"",""1"",""1739""
","""event"",""trial"",""time""
""fullscreenexit"",""62"",""384054""
","","","","","","860.9000000357628","images/sheep6.png","","","learning","-1","-1","1","1","sheep","animals","1","0","","neutral","0"
"html-keyboard-response","152","652502","0.0-9.0-2.0-0.40","5720","1","24","Female","approach_avoid_spark_v1","""event"",""trial"",""time""
""fullscreenenter"",""1"",""1739""
""fullscreenexit"",""62"",""384054""
","
","
","""event"",""trial"",""time""
""fullscreenenter"",""1"",""1739""
","""event"",""trial"",""time""
""fullscreenexit"",""62"",""384054""
","","","","","","null","<div style=""font-size:60px;"">+</div>","null","","fixation","","","","","","","","","","",""
"aa-learning-trial","153","655510","0.0-9.0-2.0-1.40","5720","1","24","Female","approach_avoid_spark_v1","""event"",""trial"",""time""
""fullscreenenter"",""1"",""1739""
""fullscreenexit"",""62"",""384054""
","
","
","""event"",""trial"",""time""
""fullscreenenter"",""1"",""1739""
","""event"",""trial"",""time""
""fullscreenexit"",""62"",""384054""
","","","","","","1037","images/horse7.png","","","learning","-3","0","0","0","horse","animals","1","0","","bad","[-3]"
"html-keyboard-response","154","656013","0.0-9.0-2.0-0.41","5720","1","24","Female","approach_avoid_spark_v1","""event"",""trial"",""time""
""fullscreenenter"",""1"",""1739""
""fullscreenexit"",""62"",""384054""
","
","
","""event"",""trial"",""time""
""fullscreenenter"",""1"",""1739""
","""event"",""trial"",""time""
""fullscreenexit"",""62"",""384054""
","","","","","","null","<div style=""font-size:60px;"">+</div>","null","","fixation","","","","","","","","","","",""
"aa-learning-trial","155","659020","0.0-9.0-2.0-1.41","5720","1","24","Female","approach_avoid_spark_v1","""event"",""trial"",""time""
""fullscreenenter"",""1"",""1739""
""fullscreenexit"",""62"",""384054""
","
","
","""event"",""trial"",""time""
""fullscreenenter"",""1"",""1739""
","""event"",""trial"",""time""
""fullscreenexit"",""62"",""384054""
","","","","","","2175.300000011921","images/goat1.png","","","learning","5","5","1","1","goat","animals","1","0","","good","[6]"
"html-keyboard-response","156","659526","0.0-9.0-2.0-0.42","5720","1","24","Female","approach_avoid_spark_v1","""event"",""trial"",""time""
""fullscreenenter"",""1"",""1739""
""fullscreenexit"",""62"",""384054""
","
","
","""event"",""trial"",""time""
""fullscreenenter"",""1"",""1739""
","""event"",""trial"",""time""
""fullscreenexit"",""62"",""384054""
","","","","","","null","<div style=""font-size:60px;"">+</div>","null","","fixation","","","","","","","","","","",""
"aa-learning-trial","157","662534","0.0-9.0-2.0-1.42","5720","1","24","Female","approach_avoid_spark_v1","""event"",""trial"",""time""
""fullscreenenter"",""1"",""1739""
""fullscreenexit"",""62"",""384054""
","
","
","""event"",""trial"",""time""
""fullscreenenter"",""1"",""1739""
","""event"",""trial"",""time""
""fullscreenexit"",""62"",""384054""
","","","","","","1087.800000011921","images/sheep2.png","","","learning","1","1","1","1","sheep","animals","1","0","","neutral","0"
"html-keyboard-response","158","663041","0.0-9.0-2.0-0.43","5720","1","24","Female","approach_avoid_spark_v1","""event"",""trial"",""time""
""fullscreenenter"",""1"",""1739""
""fullscreenexit"",""62"",""384054""
","
","
","""event"",""trial"",""time""
""fullscreenenter"",""1"",""1739""
","""event"",""trial"",""time""
""fullscreenexit"",""62"",""384054""
","","","","","","null","<div style=""font-size:60px;"">+</div>","null","","fixation","","","","","","","","","","",""
"aa-learning-trial","159","666049","0.0-9.0-2.0-1.43","5720","1","24","Female","approach_avoid_spark_v1","""event"",""trial"",""time""
""fullscreenenter"",""1"",""1739""
""fullscreenexit"",""62"",""384054""
","
","
","""event"",""trial"",""time""
""fullscreenenter"",""1"",""1739""
","""event"",""trial"",""time""
""fullscreenexit"",""62"",""384054""
","","","","","","1163.5999999642372","images/sheep8.png","","","learning","[1]","1","1","1","sheep","animals","1","0","","neutral","0"
"html-keyboard-response","160","666555","0.0-9.0-2.0-0.44","5720","1","24","Female","approach_avoid_spark_v1","""event"",""trial"",""time""
""fullscreenenter"",""1"",""1739""
""fullscreenexit"",""62"",""384054""
","
","
","""event"",""trial"",""time""
""fullscreenenter"",""1"",""1739""
","""event"",""trial"",""time""
""fullscreenexit"",""62"",""384054""
","","","","","","null","<div style=""font-size:60px;"">+</div>","null","","fixation","","","","","","","","","","",""
"aa-learning-trial","161","669564","0.0-9.0-2.0-1.44","5720","1","24","Female","approach_avoid_spark_v1","""event"",""trial"",""time""
""fullscreenenter"",""1"",""1739""
""fullscreenexit"",""62"",""384054""
","
","
","""event"",""trial"",""time""
""fullscreenenter"",""1"",""1739""
","""event"",""trial"",""time""
""fullscreenexit"",""62"",""384054""
","","","","","","731.5","images/horse8.png","","","learning","-4","0","0","0","horse","animals","1","0","","bad","[-3]"
"html-keyboard-response","162","670070","0.0-9.0-2.0-0.45","5720","1","24","Female","approach_avoid_spark_v1","""event"",""trial"",""time""
""fullscreenenter"",""1"",""1739""
""fullscreenexit"",""62"",""384054""
","
","
","""event"",""trial"",""time""
""fullscreenenter"",""1"",""1739""
","""event"",""trial"",""time""
""fullscreenexit"",""62"",""384054""
","","","","","","null","<div style=""font-size:60px;"">+</div>","null","","fixation","","","","","","","","","","",""
"aa-learning-trial","163","673078","0.0-9.0-2.0-1.45","5720","1","24","Female","approach_avoid_spark_v1","""event"",""trial"",""time""
""fullscreenenter"",""1"",""1739""
""fullscreenexit"",""62"",""384054""
","
","
","""event"",""trial"",""time""
""fullscreenenter"",""1"",""1739""
","""event"",""trial"",""time""
""fullscreenexit"",""62"",""384054""
","","","","","","1074.699999988079","images/horse8.png","","","learning","-2","0","0","0","horse","animals","1","0","","bad","[-3]"
"html-keyboard-response","164","673580","0.0-9.0-2.0-0.46","5720","1","24","Female","approach_avoid_spark_v1","""event"",""trial"",""time""
""fullscreenenter"",""1"",""1739""
""fullscreenexit"",""62"",""384054""
","
","
","""event"",""trial"",""time""
""fullscreenenter"",""1"",""1739""
","""event"",""trial"",""time""
""fullscreenexit"",""62"",""384054""
","","","","","","null","<div style=""font-size:60px;"">+</div>","null","","fixation","","","","","","","","","","",""
"aa-learning-trial","165","676588","0.0-9.0-2.0-1.46","5720","1","24","Female","approach_avoid_spark_v1","""event"",""trial"",""time""
""fullscreenenter"",""1"",""1739""
""fullscreenexit"",""62"",""384054""
","
","
","""event"",""trial"",""time""
""fullscreenenter"",""1"",""1739""
","""event"",""trial"",""time""
""fullscreenexit"",""62"",""384054""
","","","","","","1032.8999999761581","images/sheep5.png","","","learning","-2","-2","1","1","sheep","animals","1","0","","neutral","0"
"html-keyboard-response","166","677094","0.0-9.0-2.0-0.47","5720","1","24","Female","approach_avoid_spark_v1","""event"",""trial"",""time""
""fullscreenenter"",""1"",""1739""
""fullscreenexit"",""62"",""384054""
","
","
","""event"",""trial"",""time""
""fullscreenenter"",""1"",""1739""
","""event"",""trial"",""time""
""fullscreenexit"",""62"",""384054""
","","","","","","null","<div style=""font-size:60px;"">+</div>","null","","fixation","","","","","","","","","","",""
"aa-learning-trial","167","680102","0.0-9.0-2.0-1.47","5720","1","24","Female","approach_avoid_spark_v1","""event"",""trial"",""time""
""fullscreenenter"",""1"",""1739""
""fullscreenexit"",""62"",""384054""
","
","
","""event"",""trial"",""time""
""fullscreenenter"",""1"",""1739""
","""event"",""trial"",""time""
""fullscreenexit"",""62"",""384054""
","","","","","","824.4000000357628","images/horse3.png","","","learning","-4","0","0","0","horse","animals","1","0","","bad","[-3]"
"html-keyboard-response","168","680609","0.0-9.0-2.0-0.48","5720","1","24","Female","approach_avoid_spark_v1","""event"",""trial"",""time""
""fullscreenenter"",""1"",""1739""
""fullscreenexit"",""62"",""384054""
","
","
","""event"",""trial"",""time""
""fullscreenenter"",""1"",""1739""
","""event"",""trial"",""time""
""fullscreenexit"",""62"",""384054""
","","","","","","null","<div style=""font-size:60px;"">+</div>","null","","fixation","","","","","","","","","","",""
"aa-learning-trial","169","683617","0.0-9.0-2.0-1.48","5720","1","24","Female","approach_avoid_spark_v1","""event"",""trial"",""time""
""fullscreenenter"",""1"",""1739""
""fullscreenexit"",""62"",""384054""
","
","
","""event"",""trial"",""time""
""fullscreenenter"",""1"",""1739""
","""event"",""trial"",""time""
""fullscreenexit"",""62"",""384054""
","","","","","","810.4000000357628","images/horse5.png","","","learning","-4","0","0","0","horse","animals","1","0","","bad","[-3]"
"html-keyboard-response","170","684123","0.0-9.0-2.0-0.49","5720","1","24","Female","approach_avoid_spark_v1","""event"",""trial"",""time""
""fullscreenenter"",""1"",""1739""
""fullscreenexit"",""62"",""384054""
","
","
","""event"",""trial"",""time""
""fullscreenenter"",""1"",""1739""
","""event"",""trial"",""time""
""fullscreenexit"",""62"",""384054""
","","","","","","null","<div style=""font-size:60px;"">+</div>","null","","fixation","","","","","","","","","","",""
"aa-learning-trial","171","687131","0.0-9.0-2.0-1.49","5720","1","24","Female","approach_avoid_spark_v1","""event"",""trial"",""time""
""fullscreenenter"",""1"",""1739""
""fullscreenexit"",""62"",""384054""
","
","
","""event"",""trial"",""time""
""fullscreenenter"",""1"",""1739""
","""event"",""trial"",""time""
""fullscreenexit"",""62"",""384054""
","","","","","","950.8000000119209","images/sheep5.png","","","learning","[-1]","-1","1","1","sheep","animals","1","0","","neutral","0"
"html-keyboard-response","172","687633","0.0-9.0-2.0-0.50","5720","1","24","Female","approach_avoid_spark_v1","""event"",""trial"",""time""
""fullscreenenter"",""1"",""1739""
""fullscreenexit"",""62"",""384054""
","
","
","""event"",""trial"",""time""
""fullscreenenter"",""1"",""1739""
","""event"",""trial"",""time""
""fullscreenexit"",""62"",""384054""
","","","","","","null","<div style=""font-size:60px;"">+</div>","null","","fixation","","","","","","","","","","",""
"aa-learning-trial","173","690640","0.0-9.0-2.0-1.50","5720","1","24","Female","approach_avoid_spark_v1","""event"",""trial"",""time""
""fullscreenenter"",""1"",""1739""
""fullscreenexit"",""62"",""384054""
","
","
","""event"",""trial"",""time""
""fullscreenenter"",""1"",""1739""
","""event"",""trial"",""time""
""fullscreenexit"",""62"",""384054""
","","","","","","684.5999999642372","images/horse3.png","","","learning","-4","0","0","0","horse","animals","1","0","","bad","[-3]"
"html-button-response","174","693471","0.0-9.0-3.0","5720","1","24","Female","approach_avoid_spark_v1","""event"",""trial"",""time""
""fullscreenenter"",""1"",""1739""
""fullscreenexit"",""62"",""384054""
","
","
","""event"",""trial"",""time""
""fullscreenenter"",""1"",""1739""
","""event"",""trial"",""time""
""fullscreenexit"",""62"",""384054""
","","","","","","2828","<p> You have completed the round! <p> In this round, you earned 73 points! </p>","0","","break","","","","","","","","","","",""
"html-button-response","175","694688","0.0-10.0","5720","1","24","Female","approach_avoid_spark_v1","""event"",""trial"",""time""
""fullscreenenter"",""1"",""1739""
""fullscreenexit"",""62"",""384054""
","
","
","""event"",""trial"",""time""
""fullscreenenter"",""1"",""1739""
","""event"",""trial"",""time""
""fullscreenexit"",""62"",""384054""
","","","","","","1215.5","<p> Now it's time to play another round. </p>","0","","transition_screen","","","","","","","","","","",""
"preload","176","694813","0.0-11.0-0.0","5720","1","24","Female","approach_avoid_spark_v1","""event"",""trial"",""time""
""fullscreenenter"",""1"",""1739""
""fullscreenexit"",""62"",""384054""
","
","
","""event"",""trial"",""time""
""fullscreenenter"",""1"",""1739""
","""event"",""trial"",""time""
""fullscreenexit"",""62"",""384054""
","true","false","[]","[]","[]","","","","","","","","","","","","","","","",""
"learning-instructions","177","703420","0.0-11.0-1.0-0.0","5720","1","24","Female","approach_avoid_spark_v1","""event"",""trial"",""time""
""fullscreenenter"",""1"",""1739""
""fullscreenexit"",""62"",""384054""
","
","
","""event"",""trial"",""time""
""fullscreenenter"",""1"",""1739""
","""event"",""trial"",""time""
""fullscreenexit"",""62"",""384054""
","","","","","","2358.899999976158","<p> Your goal in this round is to take your friend for rides in different vehicles. </p></div>","","0","instructions","","","","","","","","","","",""
"learning-instructions","178","715807","0.0-11.0-1.0-0.1","5720","1","24","Female","approach_avoid_spark_v1","""event"",""trial"",""time""
""fullscreenenter"",""1"",""1739""
""fullscreenexit"",""62"",""384054""
","
","
","""event"",""trial"",""time""
""fullscreenenter"",""1"",""1739""
","""event"",""trial"",""time""
""fullscreenexit"",""62"",""384054""
","","","","","","1811.699999988079","<p> Your friend enjoys riding in some vehicles but not in others.  </p><p> On each turn, you will see a vehicle.   </p><p> You need to decide whether to take your friend for a ride or not.  </p>","","0","instructions","","","","","","","","","","",""
"learning-instructions","179","723923","0.0-11.0-1.0-0.2","5720","1","24","Female","approach_avoid_spark_v1","""event"",""trial"",""time""
""fullscreenenter"",""1"",""1739""
""fullscreenexit"",""62"",""384054""
","
","
","""event"",""trial"",""time""
""fullscreenenter"",""1"",""1739""
","""event"",""trial"",""time""
""fullscreenexit"",""62"",""384054""
","","","","","","566.6000000238419","<p> You can take your friend for a ride in the vehicle by pressing 1 and skip the ride by pressing 0. </p><br><div class=""choice-instructions-grid""> <div class=""choice-option""><img src=""images/approach.png"" class=""choice-option-img"" stage=""instructions"" position=""0"" ><div class=""choice-option-text""> Press ""1."" </div></div><div class=""choice-option""><img src=""images/avoid.png"" class=""choice-option-img"" stage=""instructions"" position=""1"" ><div class=""choice-option-text""> Press ""0."" </div></div>","","0","instructions","","","","","","","","","","",""
"learning-instructions","180","734473","0.0-11.0-1.0-0.3","5720","1","24","Female","approach_avoid_spark_v1","""event"",""trial"",""time""
""fullscreenenter"",""1"",""1739""
""fullscreenexit"",""62"",""384054""
","
","
","""event"",""trial"",""time""
""fullscreenenter"",""1"",""1739""
","""event"",""trial"",""time""
""fullscreenexit"",""62"",""384054""
","","","","","","456.19999998807907","<p> If you take them for a ride in a vehicle they like, they will be thrilled! </p><p> But if you take them for a ride in a vehicle they do not like, they will be upset. </p>","","0","instructions","","","","","","","","","","",""
"learning-instructions","181","748556","0.0-11.0-1.0-0.4","5720","1","24","Female","approach_avoid_spark_v1","""event"",""trial"",""time""
""fullscreenenter"",""1"",""1739""
""fullscreenexit"",""62"",""384054""
","
","
","""event"",""trial"",""time""
""fullscreenenter"",""1"",""1739""
","""event"",""trial"",""time""
""fullscreenexit"",""62"",""384054""
","","","","","","512.7999999523163","<p> You will earn points based on how you made your friend feel. </p><p> If you made him thrilled, you will WIN anywhere from 1 - 9 points, </p><p> but if you made him upset, you will LOSE anywhere from 1 - 9 points. </p>","","0","instructions","","","","","","","","","","",""
"learning-instructions","182","755623","0.0-11.0-1.0-0.5","5720","1","24","Female","approach_avoid_spark_v1","""event"",""trial"",""time""
""fullscreenenter"",""1"",""1739""
""fullscreenexit"",""62"",""384054""
","
","
","""event"",""trial"",""time""
""fullscreenenter"",""1"",""1739""
","""event"",""trial"",""time""
""fullscreenexit"",""62"",""384054""
","","","","","","411.30000001192093","<p> You will see how many points you won or lost in the center of the screen. </p><p> Here is what you would see if you won 5 points: </p><p style=""color:green;font-size:50px;font-weight:bolder"">5</p>","","0","instructions","","","","","","","","","","",""
"learning-instructions","183","758773","0.0-11.0-1.0-0.6","5720","1","24","Female","approach_avoid_spark_v1","""event"",""trial"",""time""
""fullscreenenter"",""1"",""1739""
""fullscreenexit"",""62"",""384054""
","
","
","""event"",""trial"",""time""
""fullscreenenter"",""1"",""1739""
","""event"",""trial"",""time""
""fullscreenexit"",""62"",""384054""
","","","","","","312.80000001192093","<p> And here is what you would see if you lost 3 points: </p><p style=""color:red;font-size:50px;font-weight:bolder"">-3</p>","","0","instructions","","","","","","","","","","",""
"learning-instructions","184","775725","0.0-11.0-1.0-0.7","5720","1","24","Female","approach_avoid_spark_v1","""event"",""trial"",""time""
""fullscreenenter"",""1"",""1739""
""fullscreenexit"",""62"",""384054""
","
","
","""event"",""trial"",""time""
""fullscreenenter"",""1"",""1739""
","""event"",""trial"",""time""
""fullscreenexit"",""62"",""384054""
","","","","","","1084.699999988079","<p> Some vehicles will make your friend REALLY thrilled or upset. </p><p> These vehicles will make you win or lose LOTS of points. </p><p> Other vehicles will only make him feel a little thrilled or upset. </p><p> These vehicles will make you win or lose small amounts of points. </p>","","0","instructions","","","","","","","","","","",""
"learning-instructions","185","789324","0.0-11.0-1.0-0.8","5720","1","24","Female","approach_avoid_spark_v1","""event"",""trial"",""time""
""fullscreenenter"",""1"",""1739""
""fullscreenexit"",""62"",""384054""
","
","
","""event"",""trial"",""time""
""fullscreenenter"",""1"",""1739""
","""event"",""trial"",""time""
""fullscreenexit"",""62"",""384054""
","","","","","","474","<p> If you choose to skip the ride, you will not win or lose any points. </p><p>  However, in the center of the screen, you will see the number of points you WOULD HAVE won or lost if you had taken your friend for a ride. </p>","","0","instructions","","","","","","","","","","",""
"learning-instructions","186","801307","0.0-11.0-1.0-0.9","5720","1","24","Female","approach_avoid_spark_v1","""event"",""trial"",""time""
""fullscreenenter"",""1"",""1739""
""fullscreenexit"",""62"",""384054""
","
","
","""event"",""trial"",""time""
""fullscreenenter"",""1"",""1739""
","""event"",""trial"",""time""
""fullscreenexit"",""62"",""384054""
","","","","","","793.1999999880791","<p> Here is what you might see if you did not take your friend for a ride but he would have enjoyed it: </p><p style=""color:grey; font-size:50px; display: inline-block; border-spacing: 15px; border-width:3px; border-style:solid; border-color:red"">  &nbsp; 6 &nbsp; </p><p> Remember, in this case, you would not win or lose ANY points because you skipped the ride.  </p>","","0","instructions","","","","","","","","","","",""
"learning-instructions","187","811357","0.0-11.0-1.0-0.10","5720","1","24","Female","approach_avoid_spark_v1","""event"",""trial"",""time""
""fullscreenenter"",""1"",""1739""
""fullscreenexit"",""62"",""384054""
","
","
","""event"",""trial"",""time""
""fullscreenenter"",""1"",""1739""
","""event"",""trial"",""time""
""fullscreenexit"",""62"",""384054""
","","","","","","758.1999999880791","<p> Try to make the best choice for each vehicle because </p><p> at the end of the game, you will earn bonus money based on how many points you earned. </p>","","0","instructions","","","","","","","","","","",""
"learning-instructions","188","823188","0.0-11.0-1.0-0.11","5720","1","24","Female","approach_avoid_spark_v1","""event"",""trial"",""time""
""fullscreenenter"",""1"",""1739""
""fullscreenexit"",""62"",""384054""
","
","
","""event"",""trial"",""time""
""fullscreenenter"",""1"",""1739""
","""event"",""trial"",""time""
""fullscreenexit"",""62"",""384054""
","","","","","","3640.599999964237","<p> You will have 3 seconds to make each choice. Try to respond before time runs out! </p><p> You will lose 5 points each time you do not make a response. </p>","","0","instructions","","","","","","","","","","",""
"html-keyboard-response","189","823800","0.0-11.0-2.0-0.0","5720","1","24","Female","approach_avoid_spark_v1","""event"",""trial"",""time""
""fullscreenenter"",""1"",""1739""
""fullscreenexit"",""62"",""384054""
","
","
","""event"",""trial"",""time""
""fullscreenenter"",""1"",""1739""
","""event"",""trial"",""time""
""fullscreenexit"",""62"",""384054""
","","","","","","null","<div style=""font-size:60px;"">+</div>","null","","fixation","","","","","","","","","","",""
"aa-learning-trial","190","826812","0.0-11.0-2.0-1.0","5720","1","24","Female","approach_avoid_spark_v1","""event"",""trial"",""time""
""fullscreenenter"",""1"",""1739""
""fullscreenexit"",""62"",""384054""
","
","
","""event"",""trial"",""time""
""fullscreenenter"",""1"",""1739""
","""event"",""trial"",""time""
""fullscreenexit"",""62"",""384054""
","","","","","","1549.300000011921","images/train4.png","","","learning","-8","-8","1","1","train","vehicles","2","1","","neutral","0"
"html-keyboard-response","191","827319","0.0-11.0-2.0-0.1","5720","1","24","Female","approach_avoid_spark_v1","""event"",""trial"",""time""
""fullscreenenter"",""1"",""1739""
""fullscreenexit"",""62"",""384054""
","
","
","""event"",""trial"",""time""
""fullscreenenter"",""1"",""1739""
","""event"",""trial"",""time""
""fullscreenexit"",""62"",""384054""
","","","","","","null","<div style=""font-size:60px;"">+</div>","null","","fixation","","","","","","","","","","",""
"aa-learning-trial","192","830325","0.0-11.0-2.0-1.1","5720","1","24","Female","approach_avoid_spark_v1","""event"",""trial"",""time""
""fullscreenenter"",""1"",""1739""
""fullscreenexit"",""62"",""384054""
","
","
","""event"",""trial"",""time""
""fullscreenenter"",""1"",""1739""
","""event"",""trial"",""time""
""fullscreenexit"",""62"",""384054""
","","","","","","1660.199999988079","images/boat6.png","","","learning","9","9","1","1","boat","vehicles","2","1","","good","[3]"
"html-keyboard-response","193","830831","0.0-11.0-2.0-0.2","5720","1","24","Female","approach_avoid_spark_v1","""event"",""trial"",""time""
""fullscreenenter"",""1"",""1739""
""fullscreenexit"",""62"",""384054""
","
","
","""event"",""trial"",""time""
""fullscreenenter"",""1"",""1739""
","""event"",""trial"",""time""
""fullscreenexit"",""62"",""384054""
","","","","","","null","<div style=""font-size:60px;"">+</div>","null","","fixation","","","","","","","","","","",""
"aa-learning-trial","194","833839","0.0-11.0-2.0-1.2","5720","1","24","Female","approach_avoid_spark_v1","""event"",""trial"",""time""
""fullscreenenter"",""1"",""1739""
""fullscreenexit"",""62"",""384054""
","
","
","""event"",""trial"",""time""
""fullscreenenter"",""1"",""1739""
","""event"",""trial"",""time""
""fullscreenexit"",""62"",""384054""
","","","","","","973.5","images/plane3.png","","","learning","-6","-6","1","1","plane","vehicles","2","1","","bad","[-5]"
"html-keyboard-response","195","834346","0.0-11.0-2.0-0.3","5720","1","24","Female","approach_avoid_spark_v1","""event"",""trial"",""time""
""fullscreenenter"",""1"",""1739""
""fullscreenexit"",""62"",""384054""
","
","
","""event"",""trial"",""time""
""fullscreenenter"",""1"",""1739""
","""event"",""trial"",""time""
""fullscreenexit"",""62"",""384054""
","","","","","","null","<div style=""font-size:60px;"">+</div>","null","","fixation","","","","","","","","","","",""
"aa-learning-trial","196","837351","0.0-11.0-2.0-1.3","5720","1","24","Female","approach_avoid_spark_v1","""event"",""trial"",""time""
""fullscreenenter"",""1"",""1739""
""fullscreenexit"",""62"",""384054""
","
","
","""event"",""trial"",""time""
""fullscreenenter"",""1"",""1739""
","""event"",""trial"",""time""
""fullscreenexit"",""62"",""384054""
","","","","","","826.8999999761581","images/boat7.png","","","learning","3","3","1","1","boat","vehicles","2","1","","good","[3]"
"html-keyboard-response","197","837856","0.0-11.0-2.0-0.4","5720","1","24","Female","approach_avoid_spark_v1","""event"",""trial"",""time""
""fullscreenenter"",""1"",""1739""
""fullscreenexit"",""62"",""384054""
","
","
","""event"",""trial"",""time""
""fullscreenenter"",""1"",""1739""
","""event"",""trial"",""time""
""fullscreenexit"",""62"",""384054""
","","","","","","null","<div style=""font-size:60px;"">+</div>","null","","fixation","","","","","","","","","","",""
"aa-learning-trial","198","840865","0.0-11.0-2.0-1.4","5720","1","24","Female","approach_avoid_spark_v1","""event"",""trial"",""time""
""fullscreenenter"",""1"",""1739""
""fullscreenexit"",""62"",""384054""
","
","
","""event"",""trial"",""time""
""fullscreenenter"",""1"",""1739""
","""event"",""trial"",""time""
""fullscreenexit"",""62"",""384054""
","","","","","","768.6000000238419","images/plane1.png","","","learning","-4","0","0","0","plane","vehicles","2","1","","bad","[-5]"
