"trial_type","trial_index","time_elapsed","internal_node_id","subject_id","task_condition","age","gender","task_version","interactions","blur_events","focus_events","fullscreenenter_events","fullscreenexit_events","success","timeout","failed_images","failed_audio","failed_video","rt","stimulus","response","button_pressed","task_part","approach_reward","points","key_press","option_selected","stim_cat","task_block","block_condition","block_number","correct","cat_type","mean_cat_reward"
"pavlovia","0","3","0.0-0.0","6414","2","9","Female","approach_avoid_spark_v1","""event"",""trial"",""time""
""fullscreenenter"",""1"",""3645""
","
","
","""event"",""trial"",""time""
""fullscreenenter"",""1"",""3645""
","
","","","","","","","","","","","","","","","","","","","","",""
"fullscreen","1","4633","0.0-1.0","6414","2","9","Female","approach_avoid_spark_v1","""event"",""trial"",""time""
""fullscreenenter"",""1"",""3645""
","
","
","""event"",""trial"",""time""
""fullscreenenter"",""1"",""3645""
","
","true","","","","","","","","","","","","","","","","","","","",""
"preload","2","24974","0.0-2.0","6414","2","9","Female","approach_avoid_spark_v1","""event"",""trial"",""time""
""fullscreenenter"",""1"",""3645""
","
","
","""event"",""trial"",""time""
""fullscreenenter"",""1"",""3645""
","
","true","false","[]","[]","[]","","","","","","","","","","","","","","","",""
"audio-keyboard-response","3","27926","0.0-3.0","6414","2","9","Female","approach_avoid_spark_v1","""event"",""trial"",""time""
""fullscreenenter"",""1"",""3645""
","
","
","""event"",""trial"",""time""
""fullscreenenter"",""1"",""3645""
","
","","","","","","2949.3333333333317","audio/beep_loop.wav"," ","","","","","","","","","","","","",""
"audio-button-response","4","31130","0.0-4.0","6414","2","9","Female","approach_avoid_spark_v1","""event"",""trial"",""time""
""fullscreenenter"",""1"",""3645""
","
","
","""event"",""trial"",""time""
""fullscreenenter"",""1"",""3645""
","
","","","","","","3200","audio/shark.wav","4","","","","","","","","","","","","",""
"audio-button-response","5","34002","0.0-5.0","6414","2","9","Female","approach_avoid_spark_v1","""event"",""trial"",""time""
""fullscreenenter"",""1"",""3645""
","
","
","""event"",""trial"",""time""
""fullscreenenter"",""1"",""3645""
","
","","","","","","1851","audio/turtle.wav","1","","","","","","","","","","","","",""
"preload","6","38999","0.0-6.0","6414","2","9","Female","approach_avoid_spark_v1","""event"",""trial"",""time""
""fullscreenenter"",""1"",""3645""
","
","
","""event"",""trial"",""time""
""fullscreenenter"",""1"",""3645""
","
","true","false","[]","[]","[]","","","","","","","","","","","","","","","",""
"html-keyboard-response","7","41483","0.0-7.0","6414","2","9","Female","approach_avoid_spark_v1","""event"",""trial"",""time""
""fullscreenenter"",""1"",""3645""
","
","
","""event"",""trial"",""time""
""fullscreenenter"",""1"",""3645""
","
","","","","","","2483.1000003814697","Welcome to the experiment. Press any key to begin and to advance the instructions."," ","","","","","","","","","","","","",""
"learning-instructions","8","49850","0.0-8.0-0.0-0.0","6414","2","9","Female","approach_avoid_spark_v1","""event"",""trial"",""time""
""fullscreenenter"",""1"",""3645""
","
","
","""event"",""trial"",""time""
""fullscreenenter"",""1"",""3645""
","
","","","","","","1405.3000001907349","<p> Welcome! Today you are going to play 6 different rounds of a decision-making game. </p><p> Use the mouse to click next to continue. </p>","","0","instructions","","","","","","","","","","",""
"learning-instructions","9","54034","0.0-8.0-0.0-0.1","6414","2","9","Female","approach_avoid_spark_v1","""event"",""trial"",""time""
""fullscreenenter"",""1"",""3645""
","
","
","""event"",""trial"",""time""
""fullscreenenter"",""1"",""3645""
","
","","","","","","1449.8000001907349","<p> You will start with a practice round to learn the rules. </p>","","0","instructions","","","","","","","","","","",""
"learning-instructions","10","61355","0.0-8.0-0.0-0.2","6414","2","9","Female","approach_avoid_spark_v1","""event"",""trial"",""time""
""fullscreenenter"",""1"",""3645""
","
","
","""event"",""trial"",""time""
""fullscreenenter"",""1"",""3645""
","
","","","","","","3870.2999997138977","<p> Your goal in this round is to give out sports equipment to kids. </p></div>","","0","instructions","","","","","","","","","","",""
"learning-instructions","11","70922","0.0-8.0-0.0-0.3","6414","2","9","Female","approach_avoid_spark_v1","""event"",""trial"",""time""
""fullscreenenter"",""1"",""3645""
","
","
","""event"",""trial"",""time""
""fullscreenenter"",""1"",""3645""
","
","","","","","","1265.5999999046326","<p> The kids only like some of the equipment.  </p><p> On each turn, you will see a piece of sports equipment.   </p><p> You need to decide whether to give it to the kids or not.  </p>","","0","instructions","","","","","","","","","","",""
"learning-instructions","12","76906","0.0-8.0-0.0-0.4","6414","2","9","Female","approach_avoid_spark_v1","""event"",""trial"",""time""
""fullscreenenter"",""1"",""3645""
","
","
","""event"",""trial"",""time""
""fullscreenenter"",""1"",""3645""
","
","","","","","","1229.5","<p> You can give them the equipment by pressing 1 and choose not to give it to them by pressing 0. </p><br><div class=""choice-instructions-grid""> <div class=""choice-option""><img src=""images/approach.png"" class=""choice-option-img"" stage=""instructions"" position=""0"" ><div class=""choice-option-text""> Press ""1."" </div></div><div class=""choice-option""><img src=""images/avoid.png"" class=""choice-option-img"" stage=""instructions"" position=""1"" ><div class=""choice-option-text""> Press ""0."" </div></div>","","0","instructions","","","","","","","","","","",""
"learning-instructions","13","85474","0.0-8.0-0.0-0.5","6414","2","9","Female","approach_avoid_spark_v1","""event"",""trial"",""time""
""fullscreenenter"",""1"",""3645""
","
","
","""event"",""trial"",""time""
""fullscreenenter"",""1"",""3645""
","
","","","","","","1187.6999998092651","<p> If you give them a piece of equipment they like, they will be happy! </p><p> But if you give them a piece of equipment they do not like, they will be sad. </p>","","0","instructions","","","","","","","","","","",""
"learning-instructions","14","97555","0.0-8.0-0.0-0.6","6414","2","9","Female","approach_avoid_spark_v1","""event"",""trial"",""time""
""fullscreenenter"",""1"",""3645""
","
","
","""event"",""trial"",""time""
""fullscreenenter"",""1"",""3645""
","
","","","","","","1557.2000002861023","<p> You will earn points based on how you make kids feel. </p><p> If you make them happy, you will WIN anywhere from 1 - 9 points, </p><p> but if you make them sad, you will LOSE anywhere from 1 - 9 points. </p>","","0","instructions","","","","","","","","","","",""
"learning-instructions","15","107831","0.0-8.0-0.0-0.7","6414","2","9","Female","approach_avoid_spark_v1","""event"",""trial"",""time""
""fullscreenenter"",""1"",""3645""
","
","
","""event"",""trial"",""time""
""fullscreenenter"",""1"",""3645""
","
","","","","","","713.3000001907349","<p> You will see how many points you won or lost in the center of the screen. </p><p> Here is what you would see if you won 6 points: </p><p style=""color:green;font-size:50px;font-weight:bolder"">6</p><p style=""color:green"">The text is GREEN because you WON points.</p>","","0","instructions","","","","","","","","","","",""
"learning-instructions","16","114990","0.0-8.0-0.0-0.8","6414","2","9","Female","approach_avoid_spark_v1","""event"",""trial"",""time""
""fullscreenenter"",""1"",""3645""
","
","
","""event"",""trial"",""time""
""fullscreenenter"",""1"",""3645""
","
","","","","","","1643.9000000953674","<p> And here is what you would see if you lost 4 points: </p><p style=""color:red;font-size:50px;font-weight:bolder"">-4</p><p style=""color:red"">The text is RED because you LOST points. </p>","","0","instructions","","","","","","","","","","",""
"learning-instructions","17","132749","0.0-8.0-0.0-0.9","6414","2","9","Female","approach_avoid_spark_v1","""event"",""trial"",""time""
""fullscreenenter"",""1"",""3645""
","
","
","""event"",""trial"",""time""
""fullscreenenter"",""1"",""3645""
","
","","","","","","3044","<p> Some of the equipment will make the kids VERY happy or sad. </p><p> These pieces of equipment will make you win or lose LOTS of points. </p><p> Other pieces of equipment will only make the kids a little happy or sad. </p><p> These pieces of equipment will make you win or lose small amounts of points. </p>","","0","instructions","","","","","","","","","","",""
"learning-instructions","18","144965","0.0-8.0-0.0-0.10","6414","2","9","Female","approach_avoid_spark_v1","""event"",""trial"",""time""
""fullscreenenter"",""1"",""3645""
","
","
","""event"",""trial"",""time""
""fullscreenenter"",""1"",""3645""
","
","","","","","","1590.3000001907349","<p> If you choose not to give them the equipment, you will not win or lose any points. </p><p>  However, in the center of the screen, you will see the number of points you WOULD HAVE won or lost if you had given them the equipment. </p>","","0","instructions","","","","","","","","","","",""
"learning-instructions","19","168813","0.0-8.0-0.0-0.11","6414","2","9","Female","approach_avoid_spark_v1","""event"",""trial"",""time""
""fullscreenenter"",""1"",""3645""
","
","
","""event"",""trial"",""time""
""fullscreenenter"",""1"",""3645""
","
","","","","","","2297.0999999046326","<p> Here is what you might see if you did not give the equipment to the kids but it would have made them happy: </p><p style=""color:grey; font-size:50px; display: inline-block; border-spacing: 15px; border-width:3px; border-style:solid; border-color:red"">  &nbsp; 7 &nbsp; </p><p> Remember, in this case, you would not win or lose ANY points because you did not give them the equipment.  </p><p style=""color:grey"">The text is GREY because you earned ZERO points. </p><p style=""color:red"">However, choosing to give the kids the equipment would have made you win points. The box around the text is RED because you chose the worse option. </p>","","0","instructions","","","","","","","","","","",""
"learning-instructions","20","192058","0.0-8.0-0.0-0.12","6414","2","9","Female","approach_avoid_spark_v1","""event"",""trial"",""time""
""fullscreenenter"",""1"",""3645""
","
","
","""event"",""trial"",""time""
""fullscreenenter"",""1"",""3645""
","
","","","","","","2171.2999997138977","<p> Here is what you might see if you did not give the equipment to the kids but it would have made them sad: </p><p style=""color:grey;font-size:50px; display: inline-block; border-spacing: 15px; border-width:3px; border-style:solid; border-color:green"">  &nbsp; -8 &nbsp; </p><p> Remember, in this case, you would not win or lose ANY points because you did not give them the equipment.  </p><p style=""color:grey"">The text is GREY because you earned ZERO points. </p><p  style=""color:green""> Choosing to give the kids the equipment would have made you lose points. The box around the text is GREEN because you chose the better option.</p>","","0","instructions","","","","","","","","","","",""
"learning-instructions","21","202594","0.0-8.0-0.0-0.13","6414","2","9","Female","approach_avoid_spark_v1","""event"",""trial"",""time""
""fullscreenenter"",""1"",""3645""
","
","
","""event"",""trial"",""time""
""fullscreenenter"",""1"",""3645""
","
","","","","","","1527.5999999046326","<p> You will have 3 seconds to make each choice. Try to respond before time runs out! </p><p> You will lose 5 points each time you do not make a response. </p>","","0","instructions","","","","","","","","","","",""
"learning-instructions","22","209418","0.0-8.0-0.0-0.14","6414","2","9","Female","approach_avoid_spark_v1","""event"",""trial"",""time""
""fullscreenenter"",""1"",""3645""
","
","
","""event"",""trial"",""time""
""fullscreenenter"",""1"",""3645""
","
","","","","","","1410.8000001907349","<p> This is just a practice round, but in the real game, your bonus payment will depend on your total number of points.","","0","instructions","","","","","","","","","","",""
"learning-instructions","23","216378","0.0-8.0-0.0-0.15","6414","2","9","Female","approach_avoid_spark_v1","""event"",""trial"",""time""
""fullscreenenter"",""1"",""3645""
","
","
","""event"",""trial"",""time""
""fullscreenenter"",""1"",""3645""
","
","","","","","","1200.3000001907349","<p> Remember, you can give them the equipment by pressing 1 and choose not to give it to them by pressing 0. </p><br><div class=""choice-instructions-grid""> <div class=""choice-option""><img src=""images/approach.png"" class=""choice-option-img"" stage=""instructions"" position=""0"" ><div class=""choice-option-text""> Press ""1."" </div></div><div class=""choice-option""><img src=""images/avoid.png"" class=""choice-option-img"" stage=""instructions"" position=""1"" ><div class=""choice-option-text""> Press ""0."" </div></div>","","0","instructions","","","","","","","","","","",""
"html-button-response","24","217890","0.0-8.0-1.0","6414","2","9","Female","approach_avoid_spark_v1","""event"",""trial"",""time""
""fullscreenenter"",""1"",""3645""
","
","
","""event"",""trial"",""time""
""fullscreenenter"",""1"",""3645""
","
","","","","","","1407.4000000953674","<p> Ready to practice? </p>","0","","","","","","","","","","","","",""
"html-keyboard-response","25","218497","0.0-8.0-2.0-0.0","6414","2","9","Female","approach_avoid_spark_v1","""event"",""trial"",""time""
""fullscreenenter"",""1"",""3645""
","
","
","""event"",""trial"",""time""
""fullscreenenter"",""1"",""3645""
","
","","","","","","null","<div style=""font-size:60px;"">+</div>","null","","fixation","","","","","","","","","","",""
"aa-learning-trial","26","221505","0.0-8.0-2.0-1.0","6414","2","9","Female","approach_avoid_spark_v1","""event"",""trial"",""time""
""fullscreenenter"",""1"",""3645""
","
","
","""event"",""trial"",""time""
""fullscreenenter"",""1"",""3645""
","
","","","","","","null","images/ball2.png","","","learning","4","-5","","null","practice","practice","practice","-1","","",""
"html-keyboard-response","27","222021","0.0-8.0-2.0-0.1","6414","2","9","Female","approach_avoid_spark_v1","""event"",""trial"",""time""
""fullscreenenter"",""1"",""3645""
","
","
","""event"",""trial"",""time""
""fullscreenenter"",""1"",""3645""
","
","","","","","","null","<div style=""font-size:60px;"">+</div>","null","","fixation","","","","","","","","","","",""
"aa-learning-trial","28","225024","0.0-8.0-2.0-1.1","6414","2","9","Female","approach_avoid_spark_v1","""event"",""trial"",""time""
""fullscreenenter"",""1"",""3645""
","
","
","""event"",""trial"",""time""
""fullscreenenter"",""1"",""3645""
","
","","","","","","null","images/racket3.png","","","learning","8","-5","","null","practice","practice","practice","-1","","",""
"html-keyboard-response","29","225532","0.0-8.0-2.0-0.2","6414","2","9","Female","approach_avoid_spark_v1","""event"",""trial"",""time""
""fullscreenenter"",""1"",""3645""
","
","
","""event"",""trial"",""time""
""fullscreenenter"",""1"",""3645""
","
","","","","","","null","<div style=""font-size:60px;"">+</div>","null","","fixation","","","","","","","","","","",""
"aa-learning-trial","30","228537","0.0-8.0-2.0-1.2","6414","2","9","Female","approach_avoid_spark_v1","""event"",""trial"",""time""
""fullscreenenter"",""1"",""3645""
","
","
","""event"",""trial"",""time""
""fullscreenenter"",""1"",""3645""
","
","","","","","","null","images/ball3.png","","","learning","7","-5","","null","practice","practice","practice","-1","","",""
"html-keyboard-response","31","229042","0.0-8.0-2.0-0.3","6414","2","9","Female","approach_avoid_spark_v1","""event"",""trial"",""time""
""fullscreenenter"",""1"",""3645""
","
","
","""event"",""trial"",""time""
""fullscreenenter"",""1"",""3645""
","
","","","","","","null","<div style=""font-size:60px;"">+</div>","null","","fixation","","","","","","","","","","",""
"aa-learning-trial","32","232048","0.0-8.0-2.0-1.3","6414","2","9","Female","approach_avoid_spark_v1","""event"",""trial"",""time""
""fullscreenenter"",""1"",""3645""
","
","
","""event"",""trial"",""time""
""fullscreenenter"",""1"",""3645""
","
","","","","","","null","images/ball4.png","","","learning","-5","-5","","null","practice","practice","practice","-1","","",""
"html-keyboard-response","33","232559","0.0-8.0-2.0-0.4","6414","2","9","Female","approach_avoid_spark_v1","""event"",""trial"",""time""
""fullscreenenter"",""1"",""3645""
","
","
","""event"",""trial"",""time""
""fullscreenenter"",""1"",""3645""
","
","","","","","","null","<div style=""font-size:60px;"">+</div>","null","","fixation","","","","","","","","","","",""
"aa-learning-trial","34","235578","0.0-8.0-2.0-1.4","6414","2","9","Female","approach_avoid_spark_v1","""event"",""trial"",""time""
""fullscreenenter"",""1"",""3645""
","
","
","""event"",""trial"",""time""
""fullscreenenter"",""1"",""3645""
","
","","","","","","null","images/racket4.png","","","learning","3","-5","","null","practice","practice","practice","-1","","",""
"html-keyboard-response","35","236093","0.0-8.0-2.0-0.5","6414","2","9","Female","approach_avoid_spark_v1","""event"",""trial"",""time""
""fullscreenenter"",""1"",""3645""
","
","
","""event"",""trial"",""time""
""fullscreenenter"",""1"",""3645""
","
","","","","","","null","<div style=""font-size:60px;"">+</div>","null","","fixation","","","","","","","","","","",""
"aa-learning-trial","36","239099","0.0-8.0-2.0-1.5","6414","2","9","Female","approach_avoid_spark_v1","""event"",""trial"",""time""
""fullscreenenter"",""1"",""3645""
","
","
","""event"",""trial"",""time""
""fullscreenenter"",""1"",""3645""
","
","","","","","","null","images/racket1.png","","","learning","-2","-5","","null","practice","practice","practice","-1","","",""
"html-keyboard-response","37","239614","0.0-8.0-2.0-0.6","6414","2","9","Female","approach_avoid_spark_v1","""event"",""trial"",""time""
""fullscreenenter"",""1"",""3645""
","
","
","""event"",""trial"",""time""
""fullscreenenter"",""1"",""3645""
","
","","","","","","null","<div style=""font-size:60px;"">+</div>","null","","fixation","","","","","","","","","","",""
"aa-learning-trial","38","242635","0.0-8.0-2.0-1.6","6414","2","9","Female","approach_avoid_spark_v1","""event"",""trial"",""time""
""fullscreenenter"",""1"",""3645""
","
","
","""event"",""trial"",""time""
""fullscreenenter"",""1"",""3645""
","
","","","","","","null","images/ball4.png","","","learning","-7","-5","","null","practice","practice","practice","-1","","",""
"html-keyboard-response","39","243149","0.0-8.0-2.0-0.7","6414","2","9","Female","approach_avoid_spark_v1","""event"",""trial"",""time""
""fullscreenenter"",""1"",""3645""
","
","
","""event"",""trial"",""time""
""fullscreenenter"",""1"",""3645""
","
","","","","","","null","<div style=""font-size:60px;"">+</div>","null","","fixation","","","","","","","","","","",""
"aa-learning-trial","40","246152","0.0-8.0-2.0-1.7","6414","2","9","Female","approach_avoid_spark_v1","""event"",""trial"",""time""
""fullscreenenter"",""1"",""3645""
","
","
","""event"",""trial"",""time""
""fullscreenenter"",""1"",""3645""
","
","","","","","","null","images/ball2.png","","","learning","-7","-5","","null","practice","practice","practice","-1","","",""
"html-keyboard-response","41","246669","0.0-8.0-2.0-0.8","6414","2","9","Female","approach_avoid_spark_v1","""event"",""trial"",""time""
""fullscreenenter"",""1"",""3645""
","
","
","""event"",""trial"",""time""
""fullscreenenter"",""1"",""3645""
","
","","","","","","null","<div style=""font-size:60px;"">+</div>","null","","fixation","","","","","","","","","","",""
"aa-learning-trial","42","249673","0.0-8.0-2.0-1.8","6414","2","9","Female","approach_avoid_spark_v1","""event"",""trial"",""time""
""fullscreenenter"",""1"",""3645""
","
","
","""event"",""trial"",""time""
""fullscreenenter"",""1"",""3645""
","
","","","","","","null","images/ball4.png","","","learning","6","-5","","null","practice","practice","practice","-1","","",""
"html-keyboard-response","43","250176","0.0-8.0-2.0-0.9","6414","2","9","Female","approach_avoid_spark_v1","""event"",""trial"",""time""
""fullscreenenter"",""1"",""3645""
","
","
","""event"",""trial"",""time""
""fullscreenenter"",""1"",""3645""
","
","","","","","","null","<div style=""font-size:60px;"">+</div>","null","","fixation","","","","","","","","","","",""
"aa-learning-trial","44","253185","0.0-8.0-2.0-1.9","6414","2","9","Female","approach_avoid_spark_v1","""event"",""trial"",""time""
""fullscreenenter"",""1"",""3645""
","
","
","""event"",""trial"",""time""
""fullscreenenter"",""1"",""3645""
","
","","","","","","null","images/ball4.png","","","learning","4","-5","","null","practice","practice","practice","-1","","",""
"html-keyboard-response","45","253688","0.0-8.0-2.0-0.10","6414","2","9","Female","approach_avoid_spark_v1","""event"",""trial"",""time""
""fullscreenenter"",""1"",""3645""
","
","
","""event"",""trial"",""time""
""fullscreenenter"",""1"",""3645""
","
","","","","","","null","<div style=""font-size:60px;"">+</div>","null","","fixation","","","","","","","","","","",""
"aa-learning-trial","46","256696","0.0-8.0-2.0-1.10","6414","2","9","Female","approach_avoid_spark_v1","""event"",""trial"",""time""
""fullscreenenter"",""1"",""3645""
","
","
","""event"",""trial"",""time""
""fullscreenenter"",""1"",""3645""
","
","","","","","","null","images/ball4.png","","","learning","-8","-5","","null","practice","practice","practice","-1","","",""
"html-keyboard-response","47","257200","0.0-8.0-2.0-0.11","6414","2","9","Female","approach_avoid_spark_v1","""event"",""trial"",""time""
""fullscreenenter"",""1"",""3645""
","
","
","""event"",""trial"",""time""
""fullscreenenter"",""1"",""3645""
","
","","","","","","null","<div style=""font-size:60px;"">+</div>","null","","fixation","","","","","","","","","","",""
"aa-learning-trial","48","260209","0.0-8.0-2.0-1.11","6414","2","9","Female","approach_avoid_spark_v1","""event"",""trial"",""time""
""fullscreenenter"",""1"",""3645""
","
","
","""event"",""trial"",""time""
""fullscreenenter"",""1"",""3645""
","
","","","","","","null","images/ball3.png","","","learning","-7","-5","","null","practice","practice","practice","-1","","",""
"html-button-response","49","263322","0.0-8.0-3.0","6414","2","9","Female","approach_avoid_spark_v1","""event"",""trial"",""time""
""fullscreenenter"",""1"",""3645""
","
","
","""event"",""trial"",""time""
""fullscreenenter"",""1"",""3645""
","
","","","","","","3110.5999999046326","<p> You earned -60 points in the practice round! </p>","0","","break","","","","","","","","","","",""
"learning-instructions","50","271234","0.0-8.0-4.0-0.0","6414","2","9","Female","approach_avoid_spark_v1","""event"",""trial"",""time""
""fullscreenenter"",""1"",""3645""
","
","
","""event"",""trial"",""time""
""fullscreenenter"",""1"",""3645""
","
","","","","","","1584.2000002861023","<p> It's almost time to start the real game. </p><p> Before you start, we're going to ask you a few questions about how the game works. </p>","","0","instructions","","","","","","","","","","",""
"preload","51","273796","0.0-8.0-5.0","6414","2","9","Female","approach_avoid_spark_v1","""event"",""trial"",""time""
""fullscreenenter"",""1"",""3645""
","
","
","""event"",""trial"",""time""
""fullscreenenter"",""1"",""3645""
","
","true","false","[]","[]","[]","","","","","","","","","","","","","","","",""
"comp-q","52","279886","0.0-8.0-6.0-0.0","6414","2","9","Female","approach_avoid_spark_v1","""event"",""trial"",""time""
""fullscreenenter"",""1"",""3645""
","
","
","""event"",""trial"",""time""
""fullscreenenter"",""1"",""3645""
","
","","","","","","1096.4000000953674","<p> <b> True or False? </b> </p><p> If you see a number in GREY, that means you earned that many points. </p>","","1","comp_question","","","","","","","","","true","",""
"comp-q","53","289238","0.0-8.0-6.0-1.0","6414","2","9","Female","approach_avoid_spark_v1","""event"",""trial"",""time""
""fullscreenenter"",""1"",""3645""
","
","
","""event"",""trial"",""time""
""fullscreenenter"",""1"",""3645""
","
","","","","","","988","<p><b> That's right! </b> If you see a grey number, it means you earned ZERO points. <br> The grey numbers show the points you WOULD HAVE earned if you had made the other choice. </p>","","0","comp_answer","","","","","","","","","","",""
"comp-q","54","296250","0.0-8.0-7.0-0.0","6414","2","9","Female","approach_avoid_spark_v1","""event"",""trial"",""time""
""fullscreenenter"",""1"",""3645""
","
","
","""event"",""trial"",""time""
""fullscreenenter"",""1"",""3645""
","
","","","","","","2300.199999809265","<p> <b> True or False? </b> </p><p> You will have as much time as you want to make each choice. </p>","","1","comp_question","","","","","","","","","true","",""
"comp-q","55","302974","0.0-8.0-7.0-1.0","6414","2","9","Female","approach_avoid_spark_v1","""event"",""trial"",""time""
""fullscreenenter"",""1"",""3645""
","
","
","""event"",""trial"",""time""
""fullscreenenter"",""1"",""3645""
","
","","","","","","2664.5","<p> <b> That's right! </b> You will only have 3 seconds to make each choice. </p>","","0","comp_answer","","","","","","","","","","",""
"comp-q","56","310963","0.0-8.0-8.0-0.0","6414","2","9","Female","approach_avoid_spark_v1","""event"",""trial"",""time""
""fullscreenenter"",""1"",""3645""
","
","
","""event"",""trial"",""time""
""fullscreenenter"",""1"",""3645""
","
","","","","","","3322.5999999046326","<p> <b> True or False? </b> </p><p> You should use the '1' and '0' keys to make your choices. </p>","","1","comp_question","","","","","","","","","false","",""
"comp-q","57","316822","0.0-8.0-8.0-1.0","6414","2","9","Female","approach_avoid_spark_v1","""event"",""trial"",""time""
""fullscreenenter"",""1"",""3645""
","
","
","""event"",""trial"",""time""
""fullscreenenter"",""1"",""3645""
","
","","","","","","1301.6999998092651","<p> <b>Incorrect.</b> You <i>should</i> use the '1' and '0' keys to make each choice. </p>","","0","comp_answer","","","","","","","","","","",""
"comp-q","58","324287","0.0-8.0-8.1-0.1","6414","2","9","Female","approach_avoid_spark_v1","""event"",""trial"",""time""
""fullscreenenter"",""1"",""3645""
","
","
","""event"",""trial"",""time""
""fullscreenenter"",""1"",""3645""
","
","","","","","","2796.4000000953674","<p> <b> True or False? </b> </p><p> You should use the '1' and '0' keys to make your choices. </p>","","0","comp_question","","","","","","","","","true","",""
"comp-q","59","332758","0.0-8.0-8.1-1.1","6414","2","9","Female","approach_avoid_spark_v1","""event"",""trial"",""time""
""fullscreenenter"",""1"",""3645""
","
","
","""event"",""trial"",""time""
""fullscreenenter"",""1"",""3645""
","
","","","","","","3848.2000002861023","<p> <b> That's right! </b> You should use the '1' and '0' keys to make each choice. </p>","","0","comp_answer","","","","","","","","","","",""
"learning-instructions","60","340422","0.0-8.0-9.0-0.0","6414","2","9","Female","approach_avoid_spark_v1","""event"",""trial"",""time""
""fullscreenenter"",""1"",""3645""
","
","
","""event"",""trial"",""time""
""fullscreenenter"",""1"",""3645""
","
","","","","","","1372.5999999046326","<p> It's now time to start the real game. </p>Do your best, because the points you earn in the next rounds will influence your bonus payment. </p>","","0","instructions","","","","","","","","","","",""
"preload","61","340554","0.0-9.0-0.0","6414","2","9","Female","approach_avoid_spark_v1","""event"",""trial"",""time""
""fullscreenenter"",""1"",""3645""
","
","
","""event"",""trial"",""time""
""fullscreenenter"",""1"",""3645""
","
","true","false","[]","[]","[]","","","","","","","","","","","","","","","",""
"learning-instructions","62","345886","0.0-9.0-1.0-0.0","6414","2","9","Female","approach_avoid_spark_v1","""event"",""trial"",""time""
""fullscreenenter"",""1"",""3645""
","
","
","""event"",""trial"",""time""
""fullscreenenter"",""1"",""3645""
","
","","","","","","1146.9000000953674","<p> Your goal in this round is to take care of lots of farm animals. </p></div>","","0","instructions","","","","","","","","","","",""
"learning-instructions","63","356422","0.0-9.0-1.0-0.1","6414","2","9","Female","approach_avoid_spark_v1","""event"",""trial"",""time""
""fullscreenenter"",""1"",""3645""
","
","
","""event"",""trial"",""time""
""fullscreenenter"",""1"",""3645""
","
","","","","","","722.5","<p> Some farm animals are hungry, while other farm animals are already full.  </p><p> On each turn, you will see a farm animal.   </p><p> You need to decide whether to feed it or not.  </p>","","0","instructions","","","","","","","","","","",""
"learning-instructions","64","363326","0.0-9.0-1.0-0.2","6414","2","9","Female","approach_avoid_spark_v1","""event"",""trial"",""time""
""fullscreenenter"",""1"",""3645""
","
","
","""event"",""trial"",""time""
""fullscreenenter"",""1"",""3645""
","
","","","","","","1106.8000001907349","<p> You can feed the farm animal by pressing 1 and leave the farm animal alone by pressing 0. </p><br><div class=""choice-instructions-grid""> <div class=""choice-option""><img src=""images/approach.png"" class=""choice-option-img"" stage=""instructions"" position=""0"" ><div class=""choice-option-text""> Press ""1."" </div></div><div class=""choice-option""><img src=""images/avoid.png"" class=""choice-option-img"" stage=""instructions"" position=""1"" ><div class=""choice-option-text""> Press ""0."" </div></div>","","0","instructions","","","","","","","","","","",""
"learning-instructions","65","373962","0.0-9.0-1.0-0.3","6414","2","9","Female","approach_avoid_spark_v1","""event"",""trial"",""time""
""fullscreenenter"",""1"",""3645""
","
","
","""event"",""trial"",""time""
""fullscreenenter"",""1"",""3645""
","
","","","","","","1192.4000000953674","<p> If you feed a hungry farm animal, you will make it feel satisfied! </p><p> But if you feed the farm animal and it was already full, you will make it feel sick. </p>","","0","instructions","","","","","","","","","","",""
"learning-instructions","66","387354","0.0-9.0-1.0-0.4","6414","2","9","Female","approach_avoid_spark_v1","""event"",""trial"",""time""
""fullscreenenter"",""1"",""3645""
","
","
","""event"",""trial"",""time""
""fullscreenenter"",""1"",""3645""
","
","","","","","","1213.5999999046326","<p> You will earn points based on how you made the farm animal feel. </p><p> If you made it satisfied, you will WIN anywhere from 1 - 9 points, </p><p> but if you made it sick, you will LOSE anywhere from 1 - 9 points. </p>","","0","instructions","","","","","","","","","","",""
"learning-instructions","67","395922","0.0-9.0-1.0-0.5","6414","2","9","Female","approach_avoid_spark_v1","""event"",""trial"",""time""
""fullscreenenter"",""1"",""3645""
","
","
","""event"",""trial"",""time""
""fullscreenenter"",""1"",""3645""
","
","","","","","","1112.2000002861023","<p> You will see how many points you won or lost in the center of the screen. </p><p> Here is what you would see if you won 5 points: </p><p style=""color:green;font-size:50px;font-weight:bolder"">5</p>","","0","instructions","","","","","","","","","","",""
"learning-instructions","68","399778","0.0-9.0-1.0-0.6","6414","2","9","Female","approach_avoid_spark_v1","""event"",""trial"",""time""
""fullscreenenter"",""1"",""3645""
","
","
","""event"",""trial"",""time""
""fullscreenenter"",""1"",""3645""
","
","","","","","","489.19999980926514","<p> And here is what you would see if you lost 3 points: </p><p style=""color:red;font-size:50px;font-weight:bolder"">-3</p>","","0","instructions","","","","","","","","","","",""
"learning-instructions","69","417074","0.0-9.0-1.0-0.7","6414","2","9","Female","approach_avoid_spark_v1","""event"",""trial"",""time""
""fullscreenenter"",""1"",""3645""
","
","
","""event"",""trial"",""time""
""fullscreenenter"",""1"",""3645""
","
","","","","","","1954.1999998092651","<p> Some farm animals will become very satisfied or very sick. </p><p> These farm animals will make you win or lose LOTS of points. </p><p> Other farm animals have less strong feelings. </p><p> These farm animals will make you win or lose small amounts of points. </p>","","0","instructions","","","","","","","","","","",""
"learning-instructions","70","430786","0.0-9.0-1.0-0.8","6414","2","9","Female","approach_avoid_spark_v1","""event"",""trial"",""time""
""fullscreenenter"",""1"",""3645""
","
","
","""event"",""trial"",""time""
""fullscreenenter"",""1"",""3645""
","
","","","","","","1806.9000000953674","<p> If you choose to leave the farm animal alone, you will not win or lose any points. </p><p>  However, in the center of the screen, you will see the number of points you WOULD HAVE won or lost if you had fed the farm animal. </p>","","0","instructions","","","","","","","","","","",""
"learning-instructions","71","443011","0.0-9.0-1.0-0.9","6414","2","9","Female","approach_avoid_spark_v1","""event"",""trial"",""time""
""fullscreenenter"",""1"",""3645""
","
","
","""event"",""trial"",""time""
""fullscreenenter"",""1"",""3645""
","
","","","","","","971.3000001907349","<p> Here is what you might see if you did not feed the farm animal but the animal was hungry: </p><p style=""color:grey; font-size:50px; display: inline-block; border-spacing: 15px; border-width:3px; border-style:solid; border-color:red"">  &nbsp; 6 &nbsp; </p><p> Remember, in this case, you would not win or lose ANY points because you did not feed the farm animal.  </p>","","0","instructions","","","","","","","","","","",""
"learning-instructions","72","451562","0.0-9.0-1.0-0.10","6414","2","9","Female","approach_avoid_spark_v1","""event"",""trial"",""time""
""fullscreenenter"",""1"",""3645""
","
","
","""event"",""trial"",""time""
""fullscreenenter"",""1"",""3645""
","
","","","","","","822.5999999046326","<p> Try to make the best choice for each farm animal because </p><p> at the end of the game, you will earn bonus money based on how many points you earned. </p>","","0","instructions","","","","","","","","","","",""
"learning-instructions","73","461079","0.0-9.0-1.0-0.11","6414","2","9","Female","approach_avoid_spark_v1","""event"",""trial"",""time""
""fullscreenenter"",""1"",""3645""
","
","
","""event"",""trial"",""time""
""fullscreenenter"",""1"",""3645""
","
","","","","","","1329.4000000953674","<p> You will have 3 seconds to make each choice. Try to respond before time runs out! </p><p> You will lose 5 points each time you do not make a response. </p>","","0","instructions","","","","","","","","","","",""
"html-keyboard-response","74","461688","0.0-9.0-2.0-0.0","6414","2","9","Female","approach_avoid_spark_v1","""event"",""trial"",""time""
""fullscreenenter"",""1"",""3645""
","
","
","""event"",""trial"",""time""
""fullscreenenter"",""1"",""3645""
","
","","","","","","null","<div style=""font-size:60px;"">+</div>","null","","fixation","","","","","","","","","","",""
"aa-learning-trial","75","464707","0.0-9.0-2.0-1.0","6414","2","9","Female","approach_avoid_spark_v1","""event"",""trial"",""time""
""fullscreenenter"",""1"",""3645""
","
","
","""event"",""trial"",""time""
""fullscreenenter"",""1"",""3645""
","
","","","","","","1094.3999996185303","images/goat5.png","","","learning","4","-5","end","","goat","animals","2","0","","good","[4]"
"html-keyboard-response","76","465218","0.0-9.0-2.0-0.1","6414","2","9","Female","approach_avoid_spark_v1","""event"",""trial"",""time""
""fullscreenenter"",""1"",""3645""
","
","
","""event"",""trial"",""time""
""fullscreenenter"",""1"",""3645""
","
","","","","","","null","<div style=""font-size:60px;"">+</div>","null","","fixation","","","","","","","","","","",""
"aa-learning-trial","77","468235","0.0-9.0-2.0-1.1","6414","2","9","Female","approach_avoid_spark_v1","""event"",""trial"",""time""
""fullscreenenter"",""1"",""3645""
","
","
","""event"",""trial"",""time""
""fullscreenenter"",""1"",""3645""
","
","","","","","","1118.8999996185303","images/cow8.png","","","learning","-3","-5","insert","","cow","animals","2","0","","neutral","0"
"html-keyboard-response","78","468749","0.0-9.0-2.0-0.2","6414","2","9","Female","approach_avoid_spark_v1","""event"",""trial"",""time""
""fullscreenenter"",""1"",""3645""
","
","
","""event"",""trial"",""time""
""fullscreenenter"",""1"",""3645""
","
","","","","","","null","<div style=""font-size:60px;"">+</div>","null","","fixation","","","","","","","","","","",""
"aa-learning-trial","79","471767","0.0-9.0-2.0-1.2","6414","2","9","Female","approach_avoid_spark_v1","""event"",""trial"",""time""
""fullscreenenter"",""1"",""3645""
","
","
","""event"",""trial"",""time""
""fullscreenenter"",""1"",""3645""
","
","","","","","","1042.3999996185303","images/sheep5.png","","","learning","5","-5","end","","sheep","animals","2","0","","bad","[-4]"
"html-keyboard-response","80","472279","0.0-9.0-2.0-0.3","6414","2","9","Female","approach_avoid_spark_v1","""event"",""trial"",""time""
""fullscreenenter"",""1"",""3645""
","
","
","""event"",""trial"",""time""
""fullscreenenter"",""1"",""3645""
","
","","","","","","null","<div style=""font-size:60px;"">+</div>","null","","fixation","","","","","","","","","","",""
"aa-learning-trial","81","475298","0.0-9.0-2.0-1.3","6414","2","9","Female","approach_avoid_spark_v1","""event"",""trial"",""time""
""fullscreenenter"",""1"",""3645""
","
","
","""event"",""trial"",""time""
""fullscreenenter"",""1"",""3645""
","
","","","","","","680.6999998092651","images/goat3.png","","","learning","-7","-5","end","","goat","animals","2","0","","good","[4]"
"html-keyboard-response","82","475810","0.0-9.0-2.0-0.4","6414","2","9","Female","approach_avoid_spark_v1","""event"",""trial"",""time""
""fullscreenenter"",""1"",""3645""
","
","
","""event"",""trial"",""time""
""fullscreenenter"",""1"",""3645""
","
","","","","","","null","<div style=""font-size:60px;"">+</div>","null","","fixation","","","","","","","","","","",""
"aa-learning-trial","83","478829","0.0-9.0-2.0-1.4","6414","2","9","Female","approach_avoid_spark_v1","""event"",""trial"",""time""
""fullscreenenter"",""1"",""3645""
","
","
","""event"",""trial"",""time""
""fullscreenenter"",""1"",""3645""
","
","","","","","","574.5","images/sheep1.png","","","learning","-2","-5","end","","sheep","animals","2","0","","bad","[-4]"
"html-keyboard-response","84","479338","0.0-9.0-2.0-0.5","6414","2","9","Female","approach_avoid_spark_v1","""event"",""trial"",""time""
""fullscreenenter"",""1"",""3645""
","
","
","""event"",""trial"",""time""
""fullscreenenter"",""1"",""3645""
","
","","","","","","null","<div style=""font-size:60px;"">+</div>","null","","fixation","","","","","","","","","","",""
"aa-learning-trial","85","482354","0.0-9.0-2.0-1.5","6414","2","9","Female","approach_avoid_spark_v1","""event"",""trial"",""time""
""fullscreenenter"",""1"",""3645""
","
","
","""event"",""trial"",""time""
""fullscreenenter"",""1"",""3645""
","
","","","","","","1917.9000000953674","images/sheep5.png","","","learning","5","-5","insert","","sheep","animals","2","0","","bad","[-4]"
"html-keyboard-response","86","482856","0.0-9.0-2.0-0.6","6414","2","9","Female","approach_avoid_spark_v1","""event"",""trial"",""time""
""fullscreenenter"",""1"",""3645""
","
","
","""event"",""trial"",""time""
""fullscreenenter"",""1"",""3645""
","
","","","","","","null","<div style=""font-size:60px;"">+</div>","null","","fixation","","","","","","","","","","",""
"aa-learning-trial","87","485874","0.0-9.0-2.0-1.6","6414","2","9","Female","approach_avoid_spark_v1","""event"",""trial"",""time""
""fullscreenenter"",""1"",""3645""
","
","
","""event"",""trial"",""time""
""fullscreenenter"",""1"",""3645""
","
","","","","","","542.9000000953674","images/cow4.png","","","learning","-8","-5","end","","cow","animals","2","0","","neutral","0"
"html-keyboard-response","88","486387","0.0-9.0-2.0-0.7","6414","2","9","Female","approach_avoid_spark_v1","""event"",""trial"",""time""
""fullscreenenter"",""1"",""3645""
","
","
","""event"",""trial"",""time""
""fullscreenenter"",""1"",""3645""
","
","","","","","","null","<div style=""font-size:60px;"">+</div>","null","","fixation","","","","","","","","","","",""
"aa-learning-trial","89","489405","0.0-9.0-2.0-1.7","6414","2","9","Female","approach_avoid_spark_v1","""event"",""trial"",""time""
""fullscreenenter"",""1"",""3645""
","
","
","""event"",""trial"",""time""
""fullscreenenter"",""1"",""3645""
","
","","","","","","1363.4000000953674","images/cow4.png","","","learning","-8","-5","end","","cow","animals","2","0","","neutral","0"
"html-keyboard-response","90","489912","0.0-9.0-2.0-0.8","6414","2","9","Female","approach_avoid_spark_v1","""event"",""trial"",""time""
""fullscreenenter"",""1"",""3645""
","
","
","""event"",""trial"",""time""
""fullscreenenter"",""1"",""3645""
","
","","","","","","null","<div style=""font-size:60px;"">+</div>","null","","fixation","","","","","","","","","","",""
"aa-learning-trial","91","492921","0.0-9.0-2.0-1.8","6414","2","9","Female","approach_avoid_spark_v1","""event"",""trial"",""time""
""fullscreenenter"",""1"",""3645""
","
","
","""event"",""trial"",""time""
""fullscreenenter"",""1"",""3645""
","
","","","","","","726","images/goat3.png","","","learning","-7","-5","end","","goat","animals","2","0","","good","[4]"
"html-keyboard-response","92","493424","0.0-9.0-2.0-0.9","6414","2","9","Female","approach_avoid_spark_v1","""event"",""trial"",""time""
""fullscreenenter"",""1"",""3645""
","
","
","""event"",""trial"",""time""
""fullscreenenter"",""1"",""3645""
","
","","","","","","null","<div style=""font-size:60px;"">+</div>","null","","fixation","","","","","","","","","","",""
"aa-learning-trial","93","496432","0.0-9.0-2.0-1.9","6414","2","9","Female","approach_avoid_spark_v1","""event"",""trial"",""time""
""fullscreenenter"",""1"",""3645""
","
","
","""event"",""trial"",""time""
""fullscreenenter"",""1"",""3645""
","
","","","","","","687.8000001907349","images/cow8.png","","","learning","-3","-5","end","","cow","animals","2","0","","neutral","0"
"html-keyboard-response","94","496936","0.0-9.0-2.0-0.10","6414","2","9","Female","approach_avoid_spark_v1","""event"",""trial"",""time""
""fullscreenenter"",""1"",""3645""
","
","
","""event"",""trial"",""time""
""fullscreenenter"",""1"",""3645""
","
","","","","","","null","<div style=""font-size:60px;"">+</div>","null","","fixation","","","","","","","","","","",""
"aa-learning-trial","95","499944","0.0-9.0-2.0-1.10","6414","2","9","Female","approach_avoid_spark_v1","""event"",""trial"",""time""
""fullscreenenter"",""1"",""3645""
","
","
","""event"",""trial"",""time""
""fullscreenenter"",""1"",""3645""
","
","","","","","","719.1999998092651","images/goat5.png","","","learning","4","-5","end","","goat","animals","2","0","","good","[4]"
"html-keyboard-response","96","500460","0.0-9.0-2.0-0.11","6414","2","9","Female","approach_avoid_spark_v1","""event"",""trial"",""time""
""fullscreenenter"",""1"",""3645""
","
","
","""event"",""trial"",""time""
""fullscreenenter"",""1"",""3645""
","
","","","","","","null","<div style=""font-size:60px;"">+</div>","null","","fixation","","","","","","","","","","",""
"aa-learning-trial","97","503473","0.0-9.0-2.0-1.11","6414","2","9","Female","approach_avoid_spark_v1","""event"",""trial"",""time""
""fullscreenenter"",""1"",""3645""
","
","
","""event"",""trial"",""time""
""fullscreenenter"",""1"",""3645""
","
","","","","","","1289.7999997138977","images/sheep7.png","","","learning","-6","-5","end","","sheep","animals","2","0","","bad","[-4]"
"html-keyboard-response","98","503977","0.0-9.0-2.0-0.12","6414","2","9","Female","approach_avoid_spark_v1","""event"",""trial"",""time""
""fullscreenenter"",""1"",""3645""
","
","
","""event"",""trial"",""time""
""fullscreenenter"",""1"",""3645""
","
","","","","","","null","<div style=""font-size:60px;"">+</div>","null","","fixation","","","","","","","","","","",""
"aa-learning-trial","99","506984","0.0-9.0-2.0-1.12","6414","2","9","Female","approach_avoid_spark_v1","""event"",""trial"",""time""
""fullscreenenter"",""1"",""3645""
","
","
","""event"",""trial"",""time""
""fullscreenenter"",""1"",""3645""
","
","","","","","","1198.2000002861023","images/cow5.png","","","learning","6","-5","end","","cow","animals","2","0","","neutral","0"
"html-keyboard-response","100","507488","0.0-9.0-2.0-0.13","6414","2","9","Female","approach_avoid_spark_v1","""event"",""trial"",""time""
""fullscreenenter"",""1"",""3645""
","
","
","""event"",""trial"",""time""
""fullscreenenter"",""1"",""3645""
","
","","","","","","null","<div style=""font-size:60px;"">+</div>","null","","fixation","","","","","","","","","","",""
"aa-learning-trial","101","510497","0.0-9.0-2.0-1.13","6414","2","9","Female","approach_avoid_spark_v1","""event"",""trial"",""time""
""fullscreenenter"",""1"",""3645""
","
","
","""event"",""trial"",""time""
""fullscreenenter"",""1"",""3645""
","
","","","","","","886.9000000953674","images/sheep7.png","","","learning","-6","-5","insert","","sheep","animals","2","0","","bad","[-4]"
"html-keyboard-response","102","511000","0.0-9.0-2.0-0.14","6414","2","9","Female","approach_avoid_spark_v1","""event"",""trial"",""time""
""fullscreenenter"",""1"",""3645""
","
","
","""event"",""trial"",""time""
""fullscreenenter"",""1"",""3645""
","
","","","","","","null","<div style=""font-size:60px;"">+</div>","null","","fixation","","","","","","","","","","",""
"aa-learning-trial","103","514008","0.0-9.0-2.0-1.14","6414","2","9","Female","approach_avoid_spark_v1","""event"",""trial"",""time""
""fullscreenenter"",""1"",""3645""
","
","
","""event"",""trial"",""time""
""fullscreenenter"",""1"",""3645""
","
","","","","","","1318.8999996185303","images/goat6.png","","","learning","-5","-5","end","","goat","animals","2","0","","good","[4]"
"html-keyboard-response","104","514512","0.0-9.0-2.0-0.15","6414","2","9","Female","approach_avoid_spark_v1","""event"",""trial"",""time""
""fullscreenenter"",""1"",""3645""
","
","
","""event"",""trial"",""time""
""fullscreenenter"",""1"",""3645""
","
","","","","","","null","<div style=""font-size:60px;"">+</div>","null","","fixation","","","","","","","","","","",""
"aa-learning-trial","105","517521","0.0-9.0-2.0-1.15","6414","2","9","Female","approach_avoid_spark_v1","""event"",""trial"",""time""
""fullscreenenter"",""1"",""3645""
","
","
","""event"",""trial"",""time""
""fullscreenenter"",""1"",""3645""
","
","","","","","","983.5999999046326","images/sheep7.png","","","learning","-6","-5","insert","","sheep","animals","2","0","","bad","[-4]"
"html-keyboard-response","106","518024","0.0-9.0-2.0-0.16","6414","2","9","Female","approach_avoid_spark_v1","""event"",""trial"",""time""
""fullscreenenter"",""1"",""3645""
","
","
","""event"",""trial"",""time""
""fullscreenenter"",""1"",""3645""
","
","","","","","","null","<div style=""font-size:60px;"">+</div>","null","","fixation","","","","","","","","","","",""
"aa-learning-trial","107","521032","0.0-9.0-2.0-1.16","6414","2","9","Female","approach_avoid_spark_v1","""event"",""trial"",""time""
""fullscreenenter"",""1"",""3645""
","
","
","""event"",""trial"",""time""
""fullscreenenter"",""1"",""3645""
","
","","","","","","1830.6999998092651","images/goat3.png","","","learning","-7","-5","insert","","goat","animals","2","0","","good","[4]"
"html-keyboard-response","108","521537","0.0-9.0-2.0-0.17","6414","2","9","Female","approach_avoid_spark_v1","""event"",""trial"",""time""
""fullscreenenter"",""1"",""3645""
","
","
","""event"",""trial"",""time""
""fullscreenenter"",""1"",""3645""
","
","","","","","","null","<div style=""font-size:60px;"">+</div>","null","","fixation","","","","","","","","","","",""
"aa-learning-trial","109","524544","0.0-9.0-2.0-1.17","6414","2","9","Female","approach_avoid_spark_v1","""event"",""trial"",""time""
""fullscreenenter"",""1"",""3645""
","
","
","""event"",""trial"",""time""
""fullscreenenter"",""1"",""3645""
","
","","","","","","1126.1000003814697","images/sheep8.png","","","learning","-4","-5","end","","sheep","animals","2","0","","bad","[-4]"
"html-keyboard-response","110","525048","0.0-9.0-2.0-0.18","6414","2","9","Female","approach_avoid_spark_v1","""event"",""trial"",""time""
""fullscreenenter"",""1"",""3645""
","
","
","""event"",""trial"",""time""
""fullscreenenter"",""1"",""3645""
","
","","","","","","null","<div style=""font-size:60px;"">+</div>","null","","fixation","","","","","","","","","","",""
"aa-learning-trial","111","528056","0.0-9.0-2.0-1.18","6414","2","9","Female","approach_avoid_spark_v1","""event"",""trial"",""time""
""fullscreenenter"",""1"",""3645""
","
","
","""event"",""trial"",""time""
""fullscreenenter"",""1"",""3645""
","
","","","","","","710.5","images/goat5.png","","","learning","4","-5","end","","goat","animals","2","0","","good","[4]"
"html-keyboard-response","112","528561","0.0-9.0-2.0-0.19","6414","2","9","Female","approach_avoid_spark_v1","""event"",""trial"",""time""
""fullscreenenter"",""1"",""3645""
","
","
","""event"",""trial"",""time""
""fullscreenenter"",""1"",""3645""
","
","","","","","","null","<div style=""font-size:60px;"">+</div>","null","","fixation","","","","","","","","","","",""
"aa-learning-trial","113","531568","0.0-9.0-2.0-1.19","6414","2","9","Female","approach_avoid_spark_v1","""event"",""trial"",""time""
""fullscreenenter"",""1"",""3645""
","
","
","""event"",""trial"",""time""
""fullscreenenter"",""1"",""3645""
","
","","","","","","990.0999999046326","images/cow4.png","","","learning","-8","-5","insert","","cow","animals","2","0","","neutral","0"
"html-keyboard-response","114","532072","0.0-9.0-2.0-0.20","6414","2","9","Female","approach_avoid_spark_v1","""event"",""trial"",""time""
""fullscreenenter"",""1"",""3645""
","
","
","""event"",""trial"",""time""
""fullscreenenter"",""1"",""3645""
","
","","","","","","null","<div style=""font-size:60px;"">+</div>","null","","fixation","","","","","","","","","","",""
"aa-learning-trial","115","535081","0.0-9.0-2.0-1.20","6414","2","9","Female","approach_avoid_spark_v1","""event"",""trial"",""time""
""fullscreenenter"",""1"",""3645""
","
","
","""event"",""trial"",""time""
""fullscreenenter"",""1"",""3645""
","
","","","","","","943.2999997138977","images/goat5.png","","","learning","4","-5","end","","goat","animals","2","0","","good","[4]"
"html-keyboard-response","116","535584","0.0-9.0-2.0-0.21","6414","2","9","Female","approach_avoid_spark_v1","""event"",""trial"",""time""
""fullscreenenter"",""1"",""3645""
","
","
","""event"",""trial"",""time""
""fullscreenenter"",""1"",""3645""
","
","","","","","","null","<div style=""font-size:60px;"">+</div>","null","","fixation","","","","","","","","","","",""
"aa-learning-trial","117","538592","0.0-9.0-2.0-1.21","6414","2","9","Female","approach_avoid_spark_v1","""event"",""trial"",""time""
""fullscreenenter"",""1"",""3645""
","
","
","""event"",""trial"",""time""
""fullscreenenter"",""1"",""3645""
","
","","","","","","1095.7000002861023","images/sheep5.png","","","learning","5","-5","end","","sheep","animals","2","0","","bad","[-4]"
"html-keyboard-response","118","539096","0.0-9.0-2.0-0.22","6414","2","9","Female","approach_avoid_spark_v1","""event"",""trial"",""time""
""fullscreenenter"",""1"",""3645""
","
","
","""event"",""trial"",""time""
""fullscreenenter"",""1"",""3645""
","
","","","","","","null","<div style=""font-size:60px;"">+</div>","null","","fixation","","","","","","","","","","",""
"aa-learning-trial","119","542105","0.0-9.0-2.0-1.22","6414","2","9","Female","approach_avoid_spark_v1","""event"",""trial"",""time""
""fullscreenenter"",""1"",""3645""
","
","
","""event"",""trial"",""time""
""fullscreenenter"",""1"",""3645""
","
","","","","","","807.1999998092651","images/cow8.png","","","learning","-3","-5","insert","","cow","animals","2","0","","neutral","0"
"html-keyboard-response","120","542609","0.0-9.0-2.0-0.23","6414","2","9","Female","approach_avoid_spark_v1","""event"",""trial"",""time""
""fullscreenenter"",""1"",""3645""
","
","
","""event"",""trial"",""time""
""fullscreenenter"",""1"",""3645""
","
","","","","","","null","<div style=""font-size:60px;"">+</div>","null","","fixation","","","","","","","","","","",""
"aa-learning-trial","121","545617","0.0-9.0-2.0-1.23","6414","2","9","Female","approach_avoid_spark_v1","""event"",""trial"",""time""
""fullscreenenter"",""1"",""3645""
","
","
","""event"",""trial"",""time""
""fullscreenenter"",""1"",""3645""
","
","","","","","","862.3000001907349","images/sheep5.png","","","learning","5","-5","end","","sheep","animals","2","0","","bad","[-4]"
"html-keyboard-response","122","546119","0.0-9.0-2.0-0.24","6414","2","9","Female","approach_avoid_spark_v1","""event"",""trial"",""time""
""fullscreenenter"",""1"",""3645""
","
","
","""event"",""trial"",""time""
""fullscreenenter"",""1"",""3645""
","
","","","","","","null","<div style=""font-size:60px;"">+</div>","null","","fixation","","","","","","","","","","",""
"aa-learning-trial","123","549122","0.0-9.0-2.0-1.24","6414","2","9","Female","approach_avoid_spark_v1","""event"",""trial"",""time""
""fullscreenenter"",""1"",""3645""
","
","
","""event"",""trial"",""time""
""fullscreenenter"",""1"",""3645""
","
","","","","","","1369.6999998092651","images/sheep7.png","","","learning","-6","-5","insert","","sheep","animals","2","0","","bad","[-4]"
"html-keyboard-response","124","549625","0.0-9.0-2.0-0.25","6414","2","9","Female","approach_avoid_spark_v1","""event"",""trial"",""time""
""fullscreenenter"",""1"",""3645""
","
","
","""event"",""trial"",""time""
""fullscreenenter"",""1"",""3645""
","
","","","","","","null","<div style=""font-size:60px;"">+</div>","null","","fixation","","","","","","","","","","",""
"aa-learning-trial","125","552634","0.0-9.0-2.0-1.25","6414","2","9","Female","approach_avoid_spark_v1","""event"",""trial"",""time""
""fullscreenenter"",""1"",""3645""
","
","
","""event"",""trial"",""time""
""fullscreenenter"",""1"",""3645""
","
","","","","","","967.4000000953674","images/sheep1.png","","","learning","-2","-5","end","","sheep","animals","2","0","","bad","[-4]"
"html-keyboard-response","126","553137","0.0-9.0-2.0-0.26","6414","2","9","Female","approach_avoid_spark_v1","""event"",""trial"",""time""
""fullscreenenter"",""1"",""3645""
","
","
","""event"",""trial"",""time""
""fullscreenenter"",""1"",""3645""
","
","","","","","","null","<div style=""font-size:60px;"">+</div>","null","","fixation","","","","","","","","","","",""
"aa-learning-trial","127","556145","0.0-9.0-2.0-1.26","6414","2","9","Female","approach_avoid_spark_v1","""event"",""trial"",""time""
""fullscreenenter"",""1"",""3645""
","
","
","""event"",""trial"",""time""
""fullscreenenter"",""1"",""3645""
","
","","","","","","847.6999998092651","images/goat1.png","","","learning","1","-5","insert","","goat","animals","2","0","","good","[4]"
"html-keyboard-response","128","556650","0.0-9.0-2.0-0.27","6414","2","9","Female","approach_avoid_spark_v1","""event"",""trial"",""time""
""fullscreenenter"",""1"",""3645""
","
","
","""event"",""trial"",""time""
""fullscreenenter"",""1"",""3645""
","
","","","","","","null","<div style=""font-size:60px;"">+</div>","null","","fixation","","","","","","","","","","",""
"aa-learning-trial","129","559657","0.0-9.0-2.0-1.27","6414","2","9","Female","approach_avoid_spark_v1","""event"",""trial"",""time""
""fullscreenenter"",""1"",""3645""
","
","
","""event"",""trial"",""time""
""fullscreenenter"",""1"",""3645""
","
","","","","","","886.7000002861023","images/goat6.png","","","learning","-5","-5","insert","","goat","animals","2","0","","good","[4]"
"html-keyboard-response","130","560161","0.0-9.0-2.0-0.28","6414","2","9","Female","approach_avoid_spark_v1","""event"",""trial"",""time""
""fullscreenenter"",""1"",""3645""
","
","
","""event"",""trial"",""time""
""fullscreenenter"",""1"",""3645""
","
","","","","","","null","<div style=""font-size:60px;"">+</div>","null","","fixation","","","","","","","","","","",""
"aa-learning-trial","131","563169","0.0-9.0-2.0-1.28","6414","2","9","Female","approach_avoid_spark_v1","""event"",""trial"",""time""
""fullscreenenter"",""1"",""3645""
","
","
","""event"",""trial"",""time""
""fullscreenenter"",""1"",""3645""
","
","","","","","","1046.7000002861023","images/goat3.png","","","learning","-7","-5","insert","","goat","animals","2","0","","good","[4]"
"html-keyboard-response","132","563673","0.0-9.0-2.0-0.29","6414","2","9","Female","approach_avoid_spark_v1","""event"",""trial"",""time""
""fullscreenenter"",""1"",""3645""
","
","
","""event"",""trial"",""time""
""fullscreenenter"",""1"",""3645""
","
","","","","","","null","<div style=""font-size:60px;"">+</div>","null","","fixation","","","","","","","","","","",""
"aa-learning-trial","133","566681","0.0-9.0-2.0-1.29","6414","2","9","Female","approach_avoid_spark_v1","""event"",""trial"",""time""
""fullscreenenter"",""1"",""3645""
","
","
","""event"",""trial"",""time""
""fullscreenenter"",""1"",""3645""
","
","","","","","","847.7999997138977","images/cow4.png","","","learning","-8","-5","insert","","cow","animals","2","0","","neutral","0"
"html-keyboard-response","134","567184","0.0-9.0-2.0-0.30","6414","2","9","Female","approach_avoid_spark_v1","""event"",""trial"",""time""
""fullscreenenter"",""1"",""3645""
","
","
","""event"",""trial"",""time""
""fullscreenenter"",""1"",""3645""
","
","","","","","","null","<div style=""font-size:60px;"">+</div>","null","","fixation","","","","","","","","","","",""
"aa-learning-trial","135","570193","0.0-9.0-2.0-1.30","6414","2","9","Female","approach_avoid_spark_v1","""event"",""trial"",""time""
""fullscreenenter"",""1"",""3645""
","
","
","""event"",""trial"",""time""
""fullscreenenter"",""1"",""3645""
","
","","","","","","655.5999999046326","images/cow4.png","","","learning","-8","-5","insert","","cow","animals","2","0","","neutral","0"
"html-keyboard-response","136","570697","0.0-9.0-2.0-0.31","6414","2","9","Female","approach_avoid_spark_v1","""event"",""trial"",""time""
""fullscreenenter"",""1"",""3645""
","
","
","""event"",""trial"",""time""
""fullscreenenter"",""1"",""3645""
","
","","","","","","null","<div style=""font-size:60px;"">+</div>","null","","fixation","","","","","","","","","","",""
"aa-learning-trial","137","573705","0.0-9.0-2.0-1.31","6414","2","9","Female","approach_avoid_spark_v1","""event"",""trial"",""time""
""fullscreenenter"",""1"",""3645""
","
","
","""event"",""trial"",""time""
""fullscreenenter"",""1"",""3645""
","
","","","","","","967.5","images/goat3.png","","","learning","-7","-5","insert","","goat","animals","2","0","","good","[4]"
"html-keyboard-response","138","574209","0.0-9.0-2.0-0.32","6414","2","9","Female","approach_avoid_spark_v1","""event"",""trial"",""time""
""fullscreenenter"",""1"",""3645""
","
","
","""event"",""trial"",""time""
""fullscreenenter"",""1"",""3645""
","
","","","","","","null","<div style=""font-size:60px;"">+</div>","null","","fixation","","","","","","","","","","",""
"aa-learning-trial","139","577217","0.0-9.0-2.0-1.32","6414","2","9","Female","approach_avoid_spark_v1","""event"",""trial"",""time""
""fullscreenenter"",""1"",""3645""
","
","
","""event"",""trial"",""time""
""fullscreenenter"",""1"",""3645""
","
","","","","","","1223","images/goat8.png","","","learning","8","-5","insert","","goat","animals","2","0","","good","[4]"
"html-keyboard-response","140","577729","0.0-9.0-2.0-0.33","6414","2","9","Female","approach_avoid_spark_v1","""event"",""trial"",""time""
""fullscreenenter"",""1"",""3645""
","
","
","""event"",""trial"",""time""
""fullscreenenter"",""1"",""3645""
","
","","","","","","null","<div style=""font-size:60px;"">+</div>","null","","fixation","","","","","","","","","","",""
"aa-learning-trial","141","580737","0.0-9.0-2.0-1.33","6414","2","9","Female","approach_avoid_spark_v1","""event"",""trial"",""time""
""fullscreenenter"",""1"",""3645""
","
","
","""event"",""trial"",""time""
""fullscreenenter"",""1"",""3645""
","
","","","","","","1039.7999997138977","images/sheep6.png","","","learning","9","-5","end","","sheep","animals","2","0","","bad","[-4]"
"html-keyboard-response","142","581241","0.0-9.0-2.0-0.34","6414","2","9","Female","approach_avoid_spark_v1","""event"",""trial"",""time""
""fullscreenenter"",""1"",""3645""
","
","
","""event"",""trial"",""time""
""fullscreenenter"",""1"",""3645""
","
","","","","","","null","<div style=""font-size:60px;"">+</div>","null","","fixation","","","","","","","","","","",""
"aa-learning-trial","143","584249","0.0-9.0-2.0-1.34","6414","2","9","Female","approach_avoid_spark_v1","""event"",""trial"",""time""
""fullscreenenter"",""1"",""3645""
","
","
","""event"",""trial"",""time""
""fullscreenenter"",""1"",""3645""
","
","","","","","","879.4000000953674","images/cow8.png","","","learning","-3","-5","insert","","cow","animals","2","0","","neutral","0"
"html-keyboard-response","144","584765","0.0-9.0-2.0-0.35","6414","2","9","Female","approach_avoid_spark_v1","""event"",""trial"",""time""
""fullscreenenter"",""1"",""3645""
","
","
","""event"",""trial"",""time""
""fullscreenenter"",""1"",""3645""
","
","","","","","","null","<div style=""font-size:60px;"">+</div>","null","","fixation","","","","","","","","","","",""
"aa-learning-trial","145","587768","0.0-9.0-2.0-1.35","6414","2","9","Female","approach_avoid_spark_v1","""event"",""trial"",""time""
""fullscreenenter"",""1"",""3645""
","
","
","""event"",""trial"",""time""
""fullscreenenter"",""1"",""3645""
","
","","","","","","1499.2000002861023","images/sheep1.png","","","learning","-2","-5","end","","sheep","animals","2","0","","bad","[-4]"
"html-keyboard-response","146","588273","0.0-9.0-2.0-0.36","6414","2","9","Female","approach_avoid_spark_v1","""event"",""trial"",""time""
""fullscreenenter"",""1"",""3645""
","
","
","""event"",""trial"",""time""
""fullscreenenter"",""1"",""3645""
","
","","","","","","null","<div style=""font-size:60px;"">+</div>","null","","fixation","","","","","","","","","","",""
"aa-learning-trial","147","591281","0.0-9.0-2.0-1.36","6414","2","9","Female","approach_avoid_spark_v1","""event"",""trial"",""time""
""fullscreenenter"",""1"",""3645""
","
","
","""event"",""trial"",""time""
""fullscreenenter"",""1"",""3645""
","
","","","","","","711.0999999046326","images/cow5.png","","","learning","6","-5","insert","","cow","animals","2","0","","neutral","0"
"html-keyboard-response","148","591785","0.0-9.0-2.0-0.37","6414","2","9","Female","approach_avoid_spark_v1","""event"",""trial"",""time""
""fullscreenenter"",""1"",""3645""
","
","
","""event"",""trial"",""time""
""fullscreenenter"",""1"",""3645""
","
","","","","","","null","<div style=""font-size:60px;"">+</div>","null","","fixation","","","","","","","","","","",""
"aa-learning-trial","149","594792","0.0-9.0-2.0-1.37","6414","2","9","Female","approach_avoid_spark_v1","""event"",""trial"",""time""
""fullscreenenter"",""1"",""3645""
","
","
","""event"",""trial"",""time""
""fullscreenenter"",""1"",""3645""
","
","","","","","","815.1000003814697","images/goat6.png","","","learning","-5","-5","insert","","goat","animals","2","0","","good","[4]"
"html-keyboard-response","150","595296","0.0-9.0-2.0-0.38","6414","2","9","Female","approach_avoid_spark_v1","""event"",""trial"",""time""
""fullscreenenter"",""1"",""3645""
","
","
","""event"",""trial"",""time""
""fullscreenenter"",""1"",""3645""
","
","","","","","","null","<div style=""font-size:60px;"">+</div>","null","","fixation","","","","","","","","","","",""
"aa-learning-trial","151","598306","0.0-9.0-2.0-1.38","6414","2","9","Female","approach_avoid_spark_v1","""event"",""trial"",""time""
""fullscreenenter"",""1"",""3645""
","
","
","""event"",""trial"",""time""
""fullscreenenter"",""1"",""3645""
","
","","","","","","1167.7999997138977","images/cow7.png","","","learning","2","-5","insert","","cow","animals","2","0","","neutral","0"
"html-keyboard-response","152","598809","0.0-9.0-2.0-0.39","6414","2","9","Female","approach_avoid_spark_v1","""event"",""trial"",""time""
""fullscreenenter"",""1"",""3645""
","
","
","""event"",""trial"",""time""
""fullscreenenter"",""1"",""3645""
","
","","","","","","null","<div style=""font-size:60px;"">+</div>","null","","fixation","","","","","","","","","","",""
"aa-learning-trial","153","601818","0.0-9.0-2.0-1.39","6414","2","9","Female","approach_avoid_spark_v1","""event"",""trial"",""time""
""fullscreenenter"",""1"",""3645""
","
","
","""event"",""trial"",""time""
""fullscreenenter"",""1"",""3645""
","
","","","","","","847.3000001907349","images/cow5.png","","","learning","6","-5","insert","","cow","animals","2","0","","neutral","0"
"html-keyboard-response","154","602321","0.0-9.0-2.0-0.40","6414","2","9","Female","approach_avoid_spark_v1","""event"",""trial"",""time""
""fullscreenenter"",""1"",""3645""
","
","
","""event"",""trial"",""time""
""fullscreenenter"",""1"",""3645""
","
","","","","","","null","<div style=""font-size:60px;"">+</div>","null","","fixation","","","","","","","","","","",""
"aa-learning-trial","155","605329","0.0-9.0-2.0-1.40","6414","2","9","Female","approach_avoid_spark_v1","""event"",""trial"",""time""
""fullscreenenter"",""1"",""3645""
","
","
","""event"",""trial"",""time""
""fullscreenenter"",""1"",""3645""
","
","","","","","","855.5999999046326","images/goat3.png","","","learning","-7","-5","insert","","goat","animals","2","0","","good","[4]"
"html-keyboard-response","156","605833","0.0-9.0-2.0-0.41","6414","2","9","Female","approach_avoid_spark_v1","""event"",""trial"",""time""
""fullscreenenter"",""1"",""3645""
","
","
","""event"",""trial"",""time""
""fullscreenenter"",""1"",""3645""
","
","","","","","","null","<div style=""font-size:60px;"">+</div>","null","","fixation","","","","","","","","","","",""
"aa-learning-trial","157","608841","0.0-9.0-2.0-1.41","6414","2","9","Female","approach_avoid_spark_v1","""event"",""trial"",""time""
""fullscreenenter"",""1"",""3645""
","
","
","""event"",""trial"",""time""
""fullscreenenter"",""1"",""3645""
","
","","","","","","1086.6999998092651","images/sheep5.png","","","learning","5","-5","insert","","sheep","animals","2","0","","bad","[-4]"
"html-keyboard-response","158","609345","0.0-9.0-2.0-0.42","6414","2","9","Female","approach_avoid_spark_v1","""event"",""trial"",""time""
""fullscreenenter"",""1"",""3645""
","
","
","""event"",""trial"",""time""
""fullscreenenter"",""1"",""3645""
","
","","","","","","null","<div style=""font-size:60px;"">+</div>","null","","fixation","","","","","","","","","","",""
"aa-learning-trial","159","612352","0.0-9.0-2.0-1.42","6414","2","9","Female","approach_avoid_spark_v1","""event"",""trial"",""time""
""fullscreenenter"",""1"",""3645""
","
","
","""event"",""trial"",""time""
""fullscreenenter"",""1"",""3645""
","
","","","","","","798.5999999046326","images/goat5.png","","","learning","4","-5","end","","goat","animals","2","0","","good","[4]"
"html-keyboard-response","160","612856","0.0-9.0-2.0-0.43","6414","2","9","Female","approach_avoid_spark_v1","""event"",""trial"",""time""
""fullscreenenter"",""1"",""3645""
","
","
","""event"",""trial"",""time""
""fullscreenenter"",""1"",""3645""
","
","","","","","","null","<div style=""font-size:60px;"">+</div>","null","","fixation","","","","","","","","","","",""
"aa-learning-trial","161","615865","0.0-9.0-2.0-1.43","6414","2","9","Female","approach_avoid_spark_v1","""event"",""trial"",""time""
""fullscreenenter"",""1"",""3645""
","
","
","""event"",""trial"",""time""
""fullscreenenter"",""1"",""3645""
","
","","","","","","791.2999997138977","images/sheep5.png","","","learning","5","-5","end","","sheep","animals","2","0","","bad","[-4]"
"html-keyboard-response","162","616368","0.0-9.0-2.0-0.44","6414","2","9","Female","approach_avoid_spark_v1","""event"",""trial"",""time""
""fullscreenenter"",""1"",""3645""
","
","
","""event"",""trial"",""time""
""fullscreenenter"",""1"",""3645""
","
","","","","","","null","<div style=""font-size:60px;"">+</div>","null","","fixation","","","","","","","","","","",""
"aa-learning-trial","163","619376","0.0-9.0-2.0-1.44","6414","2","9","Female","approach_avoid_spark_v1","""event"",""trial"",""time""
""fullscreenenter"",""1"",""3645""
","
","
","""event"",""trial"",""time""
""fullscreenenter"",""1"",""3645""
","
","","","","","","695.0999999046326","images/cow4.png","","","learning","-8","-5","insert","","cow","animals","2","0","","neutral","0"
"html-keyboard-response","164","619881","0.0-9.0-2.0-0.45","6414","2","9","Female","approach_avoid_spark_v1","""event"",""trial"",""time""
""fullscreenenter"",""1"",""3645""
","
","
","""event"",""trial"",""time""
""fullscreenenter"",""1"",""3645""
","
","","","","","","null","<div style=""font-size:60px;"">+</div>","null","","fixation","","","","","","","","","","",""
"aa-learning-trial","165","622889","0.0-9.0-2.0-1.45","6414","2","9","Female","approach_avoid_spark_v1","""event"",""trial"",""time""
""fullscreenenter"",""1"",""3645""
","
","
","""event"",""trial"",""time""
""fullscreenenter"",""1"",""3645""
","
","","","","","","663.3000001907349","images/goat5.png","","","learning","4","-5","end","","goat","animals","2","0","","good","[4]"
"html-keyboard-response","166","623392","0.0-9.0-2.0-0.46","6414","2","9","Female","approach_avoid_spark_v1","""event"",""trial"",""time""
""fullscreenenter"",""1"",""3645""
","
","
","""event"",""trial"",""time""
""fullscreenenter"",""1"",""3645""
","
","","","","","","null","<div style=""font-size:60px;"">+</div>","null","","fixation","","","","","","","","","","",""
"aa-learning-trial","167","626401","0.0-9.0-2.0-1.46","6414","2","9","Female","approach_avoid_spark_v1","""event"",""trial"",""time""
""fullscreenenter"",""1"",""3645""
","
","
","""event"",""trial"",""time""
""fullscreenenter"",""1"",""3645""
","
","","","","","","942.8000001907349","images/sheep7.png","","","learning","-6","-5","insert","","sheep","animals","2","0","","bad","[-4]"
"html-keyboard-response","168","626905","0.0-9.0-2.0-0.47","6414","2","9","Female","approach_avoid_spark_v1","""event"",""trial"",""time""
""fullscreenenter"",""1"",""3645""
","
","
","""event"",""trial"",""time""
""fullscreenenter"",""1"",""3645""
","
","","","","","","null","<div style=""font-size:60px;"">+</div>","null","","fixation","","","","","","","","","","",""
"aa-learning-trial","169","629914","0.0-9.0-2.0-1.47","6414","2","9","Female","approach_avoid_spark_v1","""event"",""trial"",""time""
""fullscreenenter"",""1"",""3645""
","
","
","""event"",""trial"",""time""
""fullscreenenter"",""1"",""3645""
","
","","","","","","798.5999999046326","images/cow8.png","","","learning","-3","-5","insert","","cow","animals","2","0","","neutral","0"
"html-keyboard-response","170","630417","0.0-9.0-2.0-0.48","6414","2","9","Female","approach_avoid_spark_v1","""event"",""trial"",""time""
""fullscreenenter"",""1"",""3645""
","
","
","""event"",""trial"",""time""
""fullscreenenter"",""1"",""3645""
","
","","","","","","null","<div style=""font-size:60px;"">+</div>","null","","fixation","","","","","","","","","","",""
"aa-learning-trial","171","633425","0.0-9.0-2.0-1.48","6414","2","9","Female","approach_avoid_spark_v1","""event"",""trial"",""time""
""fullscreenenter"",""1"",""3645""
","
","
","""event"",""trial"",""time""
""fullscreenenter"",""1"",""3645""
","
","","","","","","590.6999998092651","images/cow8.png","","","learning","-3","-5","insert","","cow","animals","2","0","","neutral","0"
"html-keyboard-response","172","633928","0.0-9.0-2.0-0.49","6414","2","9","Female","approach_avoid_spark_v1","""event"",""trial"",""time""
""fullscreenenter"",""1"",""3645""
","
","
","""event"",""trial"",""time""
""fullscreenenter"",""1"",""3645""
","
","","","","","","null","<div style=""font-size:60px;"">+</div>","null","","fixation","","","","","","","","","","",""
"aa-learning-trial","173","636937","0.0-9.0-2.0-1.49","6414","2","9","Female","approach_avoid_spark_v1","""event"",""trial"",""time""
""fullscreenenter"",""1"",""3645""
","
","
","""event"",""trial"",""time""
""fullscreenenter"",""1"",""3645""
","
","","","","","","1120.2000002861023","images/cow6.png","","","learning","3","-5","insert","","cow","animals","2","0","","neutral","0"
"html-keyboard-response","174","637441","0.0-9.0-2.0-0.50","6414","2","9","Female","approach_avoid_spark_v1","""event"",""trial"",""time""
""fullscreenenter"",""1"",""3645""
","
","
","""event"",""trial"",""time""
""fullscreenenter"",""1"",""3645""
","
","","","","","","null","<div style=""font-size:60px;"">+</div>","null","","fixation","","","","","","","","","","",""
"aa-learning-trial","175","640449","0.0-9.0-2.0-1.50","6414","2","9","Female","approach_avoid_spark_v1","""event"",""trial"",""time""
""fullscreenenter"",""1"",""3645""
","
","
","""event"",""trial"",""time""
""fullscreenenter"",""1"",""3645""
","
","","","","","","782.2999997138977","images/sheep7.png","","","learning","-6","-5","insert","","sheep","animals","2","0","","bad","[-4]"
"html-button-response","176","644234","0.0-9.0-3.0","6414","2","9","Female","approach_avoid_spark_v1","""event"",""trial"",""time""
""fullscreenenter"",""1"",""3645""
","
","
","""event"",""trial"",""time""
""fullscreenenter"",""1"",""3645""
","
","","","","","","3783.300000190735","<p> You have completed the round! <p> In this round, you earned -255 points! </p>","0","","break","","","","","","","","","","",""
"html-button-response","177","645726","0.0-10.0","6414","2","9","Female","approach_avoid_spark_v1","""event"",""trial"",""time""
""fullscreenenter"",""1"",""3645""
","
","
","""event"",""trial"",""time""
""fullscreenenter"",""1"",""3645""
","
","","","","","","1490.9000000953674","<p> Now it's time to play another round. </p>","0","","transition_screen","","","","","","","","","","",""
"preload","178","645848","0.0-11.0-0.0","6414","2","9","Female","approach_avoid_spark_v1","""event"",""trial"",""time""
""fullscreenenter"",""1"",""3645""
","
","
","""event"",""trial"",""time""
""fullscreenenter"",""1"",""3645""
","
","true","false","[]","[]","[]","","","","","","","","","","","","","","","",""
"learning-instructions","179","653342","0.0-11.0-1.0-0.0","6414","2","9","Female","approach_avoid_spark_v1","""event"",""trial"",""time""
""fullscreenenter"",""1"",""3645""
","
","
","""event"",""trial"",""time""
""fullscreenenter"",""1"",""3645""
","
","","","","","","1676.5","<p> Your goal in this round is to take your friend for rides in different vehicles. </p></div>","","0","instructions","","","","","","","","","","",""
"learning-instructions","180","664165","0.0-11.0-1.0-0.1","6414","2","9","Female","approach_avoid_spark_v1","""event"",""trial"",""time""
""fullscreenenter"",""1"",""3645""
","
","
","""event"",""trial"",""time""
""fullscreenenter"",""1"",""3645""
","
","","","","","","870.4000000953674","<p> Your friend enjoys riding in some vehicles but not in others.  </p><p> On each turn, you will see a vehicle.   </p><p> You need to decide whether to take your friend for a ride or not.  </p>","","0","instructions","","","","","","","","","","",""
"learning-instructions","181","672142","0.0-11.0-1.0-0.2","6414","2","9","Female","approach_avoid_spark_v1","""event"",""trial"",""time""
""fullscreenenter"",""1"",""3645""
","
","
","""event"",""trial"",""time""
""fullscreenenter"",""1"",""3645""
","
","","","","","","1426.6999998092651","<p> You can take your friend for a ride in the vehicle by pressing 1 and skip the ride by pressing 0. </p><br><div class=""choice-instructions-grid""> <div class=""choice-option""><img src=""images/approach.png"" class=""choice-option-img"" stage=""instructions"" position=""0"" ><div class=""choice-option-text""> Press ""1."" </div></div><div class=""choice-option""><img src=""images/avoid.png"" class=""choice-option-img"" stage=""instructions"" position=""1"" ><div class=""choice-option-text""> Press ""0."" </div></div>","","0","instructions","","","","","","","","","","",""
"learning-instructions","182","682373","0.0-11.0-1.0-0.3","6414","2","9","Female","approach_avoid_spark_v1","""event"",""trial"",""time""
""fullscreenenter"",""1"",""3645""
","
","
","""event"",""trial"",""time""
""fullscreenenter"",""1"",""3645""
","
","","","","","","1428.8000001907349","<p> If you take them for a ride in a vehicle they like, they will be thrilled! </p><p> But if you take them for a ride in a vehicle they do not like, they will be upset. </p>","","0","instructions","","","","","","","","","","",""
"learning-instructions","183","695638","0.0-11.0-1.0-0.4","6414","2","9","Female","approach_avoid_spark_v1","""event"",""trial"",""time""
""fullscreenenter"",""1"",""3645""
","
","
","""event"",""trial"",""time""
""fullscreenenter"",""1"",""3645""
","
","","","","","","1532.5999999046326","<p> You will earn points based on how you made your friend feel. </p><p> If you made him thrilled, you will WIN anywhere from 1 - 9 points, </p><p> but if you made him upset, you will LOSE anywhere from 1 - 9 points. </p>","","0","instructions","","","","","","","","","","",""
"learning-instructions","184","704110","0.0-11.0-1.0-0.5","6414","2","9","Female","approach_avoid_spark_v1","""event"",""trial"",""time""
""fullscreenenter"",""1"",""3645""
","
","
","""event"",""trial"",""time""
""fullscreenenter"",""1"",""3645""
","
","","","","","","1814.5","<p> You will see how many points you won or lost in the center of the screen. </p><p> Here is what you would see if you won 5 points: </p><p style=""color:green;font-size:50px;font-weight:bolder"">5</p>","","0","instructions","","","","","","","","","","",""
"learning-instructions","185","707550","0.0-11.0-1.0-0.6","6414","2","9","Female","approach_avoid_spark_v1","""event"",""trial"",""time""
""fullscreenenter"",""1"",""3645""
","
","
","""event"",""trial"",""time""
""fullscreenenter"",""1"",""3645""
","
","","","","","","584.6999998092651","<p> And here is what you would see if you lost 3 points: </p><p style=""color:red;font-size:50px;font-weight:bolder"">-3</p>","","0","instructions","","","","","","","","","","",""
"learning-instructions","186","723546","0.0-11.0-1.0-0.7","6414","2","9","Female","approach_avoid_spark_v1","""event"",""trial"",""time""
""fullscreenenter"",""1"",""3645""
","
","
","""event"",""trial"",""time""
""fullscreenenter"",""1"",""3645""
","
","","","","","","701.0999999046326","<p> Some vehicles will make your friend REALLY thrilled or upset. </p><p> These vehicles will make you win or lose LOTS of points. </p><p> Other vehicles will only make him feel a little thrilled or upset. </p><p> These vehicles will make you win or lose small amounts of points. </p>","","0","instructions","","","","","","","","","","",""
"learning-instructions","187","736782","0.0-11.0-1.0-0.8","6414","2","9","Female","approach_avoid_spark_v1","""event"",""trial"",""time""
""fullscreenenter"",""1"",""3645""
","
","
","""event"",""trial"",""time""
""fullscreenenter"",""1"",""3645""
","
","","","","","","1326","<p> If you choose to skip the ride, you will not win or lose any points. </p><p>  However, in the center of the screen, you will see the number of points you WOULD HAVE won or lost if you had taken your friend for a ride. </p>","","0","instructions","","","","","","","","","","",""
"learning-instructions","188","748518","0.0-11.0-1.0-0.9","6414","2","9","Female","approach_avoid_spark_v1","""event"",""trial"",""time""
""fullscreenenter"",""1"",""3645""
","
","
","""event"",""trial"",""time""
""fullscreenenter"",""1"",""3645""
","
","","","","","","752.6999998092651","<p> Here is what you might see if you did not take your friend for a ride but he would have enjoyed it: </p><p style=""color:grey; font-size:50px; display: inline-block; border-spacing: 15px; border-width:3px; border-style:solid; border-color:red"">  &nbsp; 6 &nbsp; </p><p> Remember, in this case, you would not win or lose ANY points because you skipped the ride.  </p>","","0","instructions","","","","","","","","","","",""
"learning-instructions","189","758219","0.0-11.0-1.0-0.10","6414","2","9","Female","approach_avoid_spark_v1","""event"",""trial"",""time""
""fullscreenenter"",""1"",""3645""
","
","
","""event"",""trial"",""time""
""fullscreenenter"",""1"",""3645""
","
","","","","","","2003.0999999046326","<p> Try to make the best choice for each vehicle because </p><p> at the end of the game, you will earn bonus money based on how many points you earned. </p>","","0","instructions","","","","","","","","","","",""
"learning-instructions","190","768591","0.0-11.0-1.0-0.11","6414","2","9","Female","approach_avoid_spark_v1","""event"",""trial"",""time""
""fullscreenenter"",""1"",""3645""
","
","
","""event"",""trial"",""time""
""fullscreenenter"",""1"",""3645""
","
","","","","","","2174.5999999046326","<p> You will have 3 seconds to make each choice. Try to respond before time runs out! </p><p> You will lose 5 points each time you do not make a response. </p>","","0","instructions","","","","","","","","","","",""
"html-keyboard-response","191","769221","0.0-11.0-2.0-0.0","6414","2","9","Female","approach_avoid_spark_v1","""event"",""trial"",""time""
""fullscreenenter"",""1"",""3645""
","
","
","""event"",""trial"",""time""
""fullscreenenter"",""1"",""3645""
","
","","","","","","null","<div style=""font-size:60px;"">+</div>","null","","fixation","","","","","","","","","","",""
"aa-learning-trial","192","772226","0.0-11.0-2.0-1.0","6414","2","9","Female","approach_avoid_spark_v1","""event"",""trial"",""time""
""fullscreenenter"",""1"",""3645""
","
","
","""event"",""trial"",""time""
""fullscreenenter"",""1"",""3645""
","
","","","","","","1378.2999997138977","images/plane6.png","","","learning","-6","-5","end","","plane","vehicles","1","1","","bad","[-5]"
"html-keyboard-response","193","772739","0.0-11.0-2.0-0.1","6414","2","9","Female","approach_avoid_spark_v1","""event"",""trial"",""time""
""fullscreenenter"",""1"",""3645""
","
","
","""event"",""trial"",""time""
""fullscreenenter"",""1"",""3645""
","
","","","","","","null","<div style=""font-size:60px;"">+</div>","null","","fixation","","","","","","","","","","",""
"aa-learning-trial","194","775742","0.0-11.0-2.0-1.1","6414","2","9","Female","approach_avoid_spark_v1","""event"",""trial"",""time""
""fullscreenenter"",""1"",""3645""
","
","
","""event"",""trial"",""time""
""fullscreenenter"",""1"",""3645""
","
","","","","","","925","images/boat6.png","","","learning","2","-5","end","","boat","vehicles","1","1","","good","[4]"
"html-keyboard-response","195","776254","0.0-11.0-2.0-0.2","6414","2","9","Female","approach_avoid_spark_v1","""event"",""trial"",""time""
""fullscreenenter"",""1"",""3645""
","
","
","""event"",""trial"",""time""
""fullscreenenter"",""1"",""3645""
","
","","","","","","null","<div style=""font-size:60px;"">+</div>","null","","fixation","","","","","","","","","","",""
"aa-learning-trial","196","779265","0.0-11.0-2.0-1.2","6414","2","9","Female","approach_avoid_spark_v1","""event"",""trial"",""time""
""fullscreenenter"",""1"",""3645""
","
","
","""event"",""trial"",""time""
""fullscreenenter"",""1"",""3645""
","
","","","","","","913.5","images/train4.png","","","learning","1","-5","end","","train","vehicles","1","1","","neutral","0"
"html-keyboard-response","197","779778","0.0-11.0-2.0-0.3","6414","2","9","Female","approach_avoid_spark_v1","""event"",""trial"",""time""
""fullscreenenter"",""1"",""3645""
","
","
","""event"",""trial"",""time""
""fullscreenenter"",""1"",""3645""
","
","","","","","","null","<div style=""font-size:60px;"">+</div>","null","","fixation","","","","","","","","","","",""
"aa-learning-trial","198","782793","0.0-11.0-2.0-1.3","6414","2","9","Female","approach_avoid_spark_v1","""event"",""trial"",""time""
""fullscreenenter"",""1"",""3645""
","
","
","""event"",""trial"",""time""
""fullscreenenter"",""1"",""3645""
","
","","","","","","758.1999998092651","images/train7.png","","","learning","-1","-5","insert","","train","vehicles","1","1","","neutral","0"
"html-keyboard-response","199","783307","0.0-11.0-2.0-0.4","6414","2","9","Female","approach_avoid_spark_v1","""event"",""trial"",""time""
""fullscreenenter"",""1"",""3645""
","
","
","""event"",""trial"",""time""
""fullscreenenter"",""1"",""3645""
","
","","","","","","null","<div style=""font-size:60px;"">+</div>","null","","fixation","","","","","","","","","","",""
"aa-learning-trial","200","786312","0.0-11.0-2.0-1.4","6414","2","9","Female","approach_avoid_spark_v1","""event"",""trial"",""time""
""fullscreenenter"",""1"",""3645""
","
","
","""event"",""trial"",""time""
""fullscreenenter"",""1"",""3645""
","
","","","","","","917.5","images/plane3.png","","","learning","-4","-5","insert","","plane","vehicles","1","1","","bad","[-5]"
"html-keyboard-response","201","786817","0.0-11.0-2.0-0.5","6414","2","9","Female","approach_avoid_spark_v1","""event"",""trial"",""time""
""fullscreenenter"",""1"",""3645""
","
","
","""event"",""trial"",""time""
""fullscreenenter"",""1"",""3645""
","
","","","","","","null","<div style=""font-size:60px;"">+</div>","null","","fixation","","","","","","","","","","",""
"aa-learning-trial","202","789825","0.0-11.0-2.0-1.5","6414","2","9","Female","approach_avoid_spark_v1","""event"",""trial"",""time""
""fullscreenenter"",""1"",""3645""
","
","
","""event"",""trial"",""time""
""fullscreenenter"",""1"",""3645""
","
","","","","","","798.5","images/boat4.png","","","learning","3","-5","end","","boat","vehicles","1","1","","good","[4]"
"html-keyboard-response","203","790328","0.0-11.0-2.0-0.6","6414","2","9","Female","approach_avoid_spark_v1","""event"",""trial"",""time""
""fullscreenenter"",""1"",""3645""
","
","
","""event"",""trial"",""time""
""fullscreenenter"",""1"",""3645""
","
","","","","","","null","<div style=""font-size:60px;"">+</div>","null","","fixation","","","","","","","","","","",""
"aa-learning-trial","204","793337","0.0-11.0-2.0-1.6","6414","2","9","Female","approach_avoid_spark_v1","""event"",""trial"",""time""
""fullscreenenter"",""1"",""3645""
","
","
","""event"",""trial"",""time""
""fullscreenenter"",""1"",""3645""
","
","","","","","","863.5999999046326","images/plane4.png","","","learning","-3","-5","insert","","plane","vehicles","1","1","","bad","[-5]"
"html-keyboard-response","205","793850","0.0-11.0-2.0-0.7","6414","2","9","Female","approach_avoid_spark_v1","""event"",""trial"",""time""
""fullscreenenter"",""1"",""3645""
","
","
","""event"",""trial"",""time""
""fullscreenenter"",""1"",""3645""
","
","","","","","","null","<div style=""font-size:60px;"">+</div>","null","","fixation","","","","","","","","","","",""
"aa-learning-trial","206","796857","0.0-11.0-2.0-1.7","6414","2","9","Female","approach_avoid_spark_v1","""event"",""trial"",""time""
""fullscreenenter"",""1"",""3645""
","
","
","""event"",""trial"",""time""
""fullscreenenter"",""1"",""3645""
","
","","","","","","1036.7999997138977","images/boat5.png","","","learning","5","-5","end","","boat","vehicles","1","1","","good","[4]"
"html-keyboard-response","207","797361","0.0-11.0-2.0-0.8","6414","2","9","Female","approach_avoid_spark_v1","""event"",""trial"",""time""
""fullscreenenter"",""1"",""3645""
","
","
","""event"",""trial"",""time""
""fullscreenenter"",""1"",""3645""
","
","","","","","","null","<div style=""font-size:60px;"">+</div>","null","","fixation","","","","","","","","","","",""
"aa-learning-trial","208","800368","0.0-11.0-2.0-1.8","6414","2","9","Female","approach_avoid_spark_v1","""event"",""trial"",""time""
""fullscreenenter"",""1"",""3645""
","
","
","""event"",""trial"",""time""
""fullscreenenter"",""1"",""3645""
","
","","","","","","630.2000002861023","images/plane6.png","","","learning","-3","-5","insert","","plane","vehicles","1","1","","bad","[-5]"
"html-keyboard-response","209","800872","0.0-11.0-2.0-0.9","6414","2","9","Female","approach_avoid_spark_v1","""event"",""trial"",""time""
""fullscreenenter"",""1"",""3645""
","
","
","""event"",""trial"",""time""
""fullscreenenter"",""1"",""3645""
","
","","","","","","null","<div style=""font-size:60px;"">+</div>","null","","fixation","","","","","","","","","","",""
"aa-learning-trial","210","803880","0.0-11.0-2.0-1.9","6414","2","9","Female","approach_avoid_spark_v1","""event"",""trial"",""time""
""fullscreenenter"",""1"",""3645""
","
","
","""event"",""trial"",""time""
""fullscreenenter"",""1"",""3645""
","
","","","","","","655.5","images/boat4.png","","","learning","1","-5","end","","boat","vehicles","1","1","","good","[4]"
"html-keyboard-response","211","804384","0.0-11.0-2.0-0.10","6414","2","9","Female","approach_avoid_spark_v1","""event"",""trial"",""time""
""fullscreenenter"",""1"",""3645""
","
","
","""event"",""trial"",""time""
""fullscreenenter"",""1"",""3645""
","
","","","","","","null","<div style=""font-size:60px;"">+</div>","null","","fixation","","","","","","","","","","",""
"aa-learning-trial","212","807392","0.0-11.0-2.0-1.10","6414","2","9","Female","approach_avoid_spark_v1","""event"",""trial"",""time""
""fullscreenenter"",""1"",""3645""
","
","
","""event"",""trial"",""time""
""fullscreenenter"",""1"",""3645""
","
","","","","","","406.7999997138977","images/train4.png","","","learning","[-1]","-5","insert","","train","vehicles","1","1","","neutral","0"
"html-keyboard-response","213","807896","0.0-11.0-2.0-0.11","6414","2","9","Female","approach_avoid_spark_v1","""event"",""trial"",""time""
""fullscreenenter"",""1"",""3645""
","
","
","""event"",""trial"",""time""
""fullscreenenter"",""1"",""3645""
","
","","","","","","null","<div style=""font-size:60px;"">+</div>","null","","fixation","","","","","","","","","","",""
"aa-learning-trial","214","810905","0.0-11.0-2.0-1.11","6414","2","9","Female","approach_avoid_spark_v1","""event"",""trial"",""time""
""fullscreenenter"",""1"",""3645""
","
","
","""event"",""trial"",""time""
""fullscreenenter"",""1"",""3645""
","
","","","","","","767","images/train7.png","","","learning","1","-5","end","","train","vehicles","1","1","","neutral","0"
"html-keyboard-response","215","811408","0.0-11.0-2.0-0.12","6414","2","9","Female","approach_avoid_spark_v1","""event"",""trial"",""time""
""fullscreenenter"",""1"",""3645""
","
","
","""event"",""trial"",""time""
""fullscreenenter"",""1"",""3645""
","
","","","","","","null","<div style=""font-size:60px;"">+</div>","null","","fixation","","","","","","","","","","",""
"aa-learning-trial","216","814417","0.0-11.0-2.0-1.12","6414","2","9","Female","approach_avoid_spark_v1","""event"",""trial"",""time""
""fullscreenenter"",""1"",""3645""
","
","
","""event"",""trial"",""time""
""fullscreenenter"",""1"",""3645""
","
","","","","","","959.3000001907349","images/train5.png","","","learning","-2","-5","insert","","train","vehicles","1","1","","neutral","0"
"html-keyboard-response","217","814920","0.0-11.0-2.0-0.13","6414","2","9","Female","approach_avoid_spark_v1","""event"",""trial"",""time""
""fullscreenenter"",""1"",""3645""
","
","
","""event"",""trial"",""time""
""fullscreenenter"",""1"",""3645""
","
","","","","","","null","<div style=""font-size:60px;"">+</div>","null","","fixation","","","","","","","","","","",""
"aa-learning-trial","218","817928","0.0-11.0-2.0-1.13","6414","2","9","Female","approach_avoid_spark_v1","""event"",""trial"",""time""
""fullscreenenter"",""1"",""3645""
","
","
","""event"",""trial"",""time""
""fullscreenenter"",""1"",""3645""
","
","","","","","","863.5","images/plane4.png","","","learning","-5","-5","insert","","plane","vehicles","1","1","","bad","[-5]"
"html-keyboard-response","219","818433","0.0-11.0-2.0-0.14","6414","2","9","Female","approach_avoid_spark_v1","""event"",""trial"",""time""
""fullscreenenter"",""1"",""3645""
","
","
","""event"",""trial"",""time""
""fullscreenenter"",""1"",""3645""
","
","","","","","","null","<div style=""font-size:60px;"">+</div>","null","","fixation","","","","","","","","","","",""
"aa-learning-trial","220","821441","0.0-11.0-2.0-1.14","6414","2","9","Female","approach_avoid_spark_v1","""event"",""trial"",""time""
""fullscreenenter"",""1"",""3645""
","
","
","""event"",""trial"",""time""
""fullscreenenter"",""1"",""3645""
","
","","","","","","790.0999999046326","images/boat6.png","","","learning","4","-5","end","","boat","vehicles","1","1","","good","[4]"
"html-keyboard-response","221","821948","0.0-11.0-2.0-0.15","6414","2","9","Female","approach_avoid_spark_v1","""event"",""trial"",""time""
""fullscreenenter"",""1"",""3645""
","
","
","""event"",""trial"",""time""
""fullscreenenter"",""1"",""3645""
","
","","","","","","null","<div style=""font-size:60px;"">+</div>","null","","fixation","","","","","","","","","","",""
"aa-learning-trial","222","824953","0.0-11.0-2.0-1.15","6414","2","9","Female","approach_avoid_spark_v1","""event"",""trial"",""time""
""fullscreenenter"",""1"",""3645""
","
","
","""event"",""trial"",""time""
""fullscreenenter"",""1"",""3645""
","
","","","","","","770.7000002861023","images/boat6.png","","","learning","6","-5","end","","boat","vehicles","1","1","","good","[4]"
"html-keyboard-response","223","825456","0.0-11.0-2.0-0.16","6414","2","9","Female","approach_avoid_spark_v1","""event"",""trial"",""time""
""fullscreenenter"",""1"",""3645""
","
","
","""event"",""trial"",""time""
""fullscreenenter"",""1"",""3645""
","
","","","","","","null","<div style=""font-size:60px;"">+</div>","null","","fixation","","","","","","","","","","",""
"aa-learning-trial","224","828464","0.0-11.0-2.0-1.16","6414","2","9","Female","approach_avoid_spark_v1","""event"",""trial"",""time""
""fullscreenenter"",""1"",""3645""
","
","
","""event"",""trial"",""time""
""fullscreenenter"",""1"",""3645""
","
","","","","","","758.5","images/boat4.png","","","learning","8","-5","end","","boat","vehicles","1","1","","good","[4]"
"html-keyboard-response","225","828969","0.0-11.0-2.0-0.17","6414","2","9","Female","approach_avoid_spark_v1","""event"",""trial"",""time""
""fullscreenenter"",""1"",""3645""
","
","
","""event"",""trial"",""time""
""fullscreenenter"",""1"",""3645""
","
","","","","","","null","<div style=""font-size:60px;"">+</div>","null","","fixation","","","","","","","","","","",""
"aa-learning-trial","226","831976","0.0-11.0-2.0-1.17","6414","2","9","Female","approach_avoid_spark_v1","""event"",""trial"",""time""
""fullscreenenter"",""1"",""3645""
","
","
","""event"",""trial"",""time""
""fullscreenenter"",""1"",""3645""
","
","","","","","","751.0999999046326","images/plane3.png","","","learning","-5","-5","insert","","plane","vehicles","1","1","","bad","[-5]"
"html-keyboard-response","227","832480","0.0-11.0-2.0-0.18","6414","2","9","Female","approach_avoid_spark_v1","""event"",""trial"",""time""
""fullscreenenter"",""1"",""3645""
","
","
","""event"",""trial"",""time""
""fullscreenenter"",""1"",""3645""
","
","","","","","","null","<div style=""font-size:60px;"">+</div>","null","","fixation","","","","","","","","","","",""
"aa-learning-trial","228","835488","0.0-11.0-2.0-1.18","6414","2","9","Female","approach_avoid_spark_v1","""event"",""trial"",""time""
""fullscreenenter"",""1"",""3645""
","
","
","""event"",""trial"",""time""
""fullscreenenter"",""1"",""3645""
","
","","","","","","1215.1999998092651","images/train5.png","","","learning","-1","-5","insert","","train","vehicles","1","1","","neutral","0"
"html-keyboard-response","229","835992","0.0-11.0-2.0-0.19","6414","2","9","Female","approach_avoid_spark_v1","""event"",""trial"",""time""
""fullscreenenter"",""1"",""3645""
","
","
","""event"",""trial"",""time""
""fullscreenenter"",""1"",""3645""
","
","","","","","","null","<div style=""font-size:60px;"">+</div>","null","","fixation","","","","","","","","","","",""
"aa-learning-trial","230","839000","0.0-11.0-2.0-1.19","6414","2","9","Female","approach_avoid_spark_v1","""event"",""trial"",""time""
""fullscreenenter"",""1"",""3645""
","
","
","""event"",""trial"",""time""
""fullscreenenter"",""1"",""3645""
","
","","","","","","959.6000003814697","images/train4.png","","","learning","-2","-5","insert","","train","vehicles","1","1","","neutral","0"
"html-keyboard-response","231","839505","0.0-11.0-2.0-0.20","6414","2","9","Female","approach_avoid_spark_v1","""event"",""trial"",""time""
""fullscreenenter"",""1"",""3645""
","
","
","""event"",""trial"",""time""
""fullscreenenter"",""1"",""3645""
","
","","","","","","null","<div style=""font-size:60px;"">+</div>","null","","fixation","","","","","","","","","","",""
"aa-learning-trial","232","842512","0.0-11.0-2.0-1.20","6414","2","9","Female","approach_avoid_spark_v1","""event"",""trial"",""time""
""fullscreenenter"",""1"",""3645""
","
","
","""event"",""trial"",""time""
""fullscreenenter"",""1"",""3645""
","
","","","","","","805.9000000953674","images/train7.png","","","learning","3","-5","end","","train","vehicles","1","1","","neutral","0"
"html-keyboard-response","233","843016","0.0-11.0-2.0-0.21","6414","2","9","Female","approach_avoid_spark_v1","""event"",""trial"",""time""
""fullscreenenter"",""1"",""3645""
","
","
","""event"",""trial"",""time""
""fullscreenenter"",""1"",""3645""
","
","","","","","","null","<div style=""font-size:60px;"">+</div>","null","","fixation","","","","","","","","","","",""
"aa-learning-trial","234","846024","0.0-11.0-2.0-1.21","6414","2","9","Female","approach_avoid_spark_v1","""event"",""trial"",""time""
""fullscreenenter"",""1"",""3645""
","
","
","""event"",""trial"",""time""
""fullscreenenter"",""1"",""3645""
","
","","","","","","792","images/boat4.png","","","learning","5","-5","end","","boat","vehicles","1","1","","good","[4]"
"html-keyboard-response","235","846528","0.0-11.0-2.0-0.22","6414","2","9","Female","approach_avoid_spark_v1","""event"",""trial"",""time""
""fullscreenenter"",""1"",""3645""
","
","
","""event"",""trial"",""time""
""fullscreenenter"",""1"",""3645""
","
","","","","","","null","<div style=""font-size:60px;"">+</div>","null","","fixation","","","","","","","","","","",""
"aa-learning-trial","236","849536","0.0-11.0-2.0-1.22","6414","2","9","Female","approach_avoid_spark_v1","""event"",""trial"",""time""
