"trial_type","trial_index","time_elapsed","internal_node_id","subject_id","task_condition","age","gender","task_version","interactions","blur_events","focus_events","fullscreenenter_events","fullscreenexit_events","success","timeout","failed_images","failed_audio","failed_video","rt","stimulus","response","button_pressed","task_part","approach_reward","points","key_press","option_selected","stim_cat","task_block","block_condition","block_number","correct","cat_type","mean_cat_reward"
"pavlovia","0","3","0.0-0.0","4494","1","14","Male","approach_avoid_spark_v1","""event"",""trial"",""time""
""fullscreenenter"",""1"",""3394""
","
","
","""event"",""trial"",""time""
""fullscreenenter"",""1"",""3394""
","
","","","","","","","","","","","","","","","","","","","","",""
"fullscreen","1","4384","0.0-1.0","4494","1","14","Male","approach_avoid_spark_v1","""event"",""trial"",""time""
""fullscreenenter"",""1"",""3394""
","
","
","""event"",""trial"",""time""
""fullscreenenter"",""1"",""3394""
","
","true","","","","","","","","","","","","","","","","","","","",""
"preload","2","7318","0.0-2.0","4494","1","14","Male","approach_avoid_spark_v1","""event"",""trial"",""time""
""fullscreenenter"",""1"",""3394""
","
","
","""event"",""trial"",""time""
""fullscreenenter"",""1"",""3394""
","
","true","false","[]","[]","[]","","","","","","","","","","","","","","","",""
"audio-keyboard-response","3","10367","0.0-3.0","4494","1","14","Male","approach_avoid_spark_v1","""event"",""trial"",""time""
""fullscreenenter"",""1"",""3394""
","
","
","""event"",""trial"",""time""
""fullscreenenter"",""1"",""3394""
","
","","","","","","3047.6190476190473","audio/beep_loop.wav"," ","","","","","","","","","","","","",""
"audio-button-response","4","12616","0.0-4.0","4494","1","14","Male","approach_avoid_spark_v1","""event"",""trial"",""time""
""fullscreenenter"",""1"",""3394""
","
","
","""event"",""trial"",""time""
""fullscreenenter"",""1"",""3394""
","
","","","","","","2252","audio/shark.wav","4","","","","","","","","","","","","",""
"audio-button-response","5","15315","0.0-5.0","4494","1","14","Male","approach_avoid_spark_v1","""event"",""trial"",""time""
""fullscreenenter"",""1"",""3394""
","
","
","""event"",""trial"",""time""
""fullscreenenter"",""1"",""3394""
","
","","","","","","1695","audio/turtle.wav","1","","","","","","","","","","","","",""
"preload","6","17609","0.0-6.0","4494","1","14","Male","approach_avoid_spark_v1","""event"",""trial"",""time""
""fullscreenenter"",""1"",""3394""
","
","
","""event"",""trial"",""time""
""fullscreenenter"",""1"",""3394""
","
","true","false","[]","[]","[]","","","","","","","","","","","","","","","",""
"html-keyboard-response","7","20270","0.0-7.0","4494","1","14","Male","approach_avoid_spark_v1","""event"",""trial"",""time""
""fullscreenenter"",""1"",""3394""
","
","
","""event"",""trial"",""time""
""fullscreenenter"",""1"",""3394""
","
","","","","","","2659.89999999851","Welcome to the experiment. Press any key to begin and to advance the instructions.","k","","","","","","","","","","","","",""
"learning-instructions","8","28302","0.0-8.0-0.0-0.0","4494","1","14","Male","approach_avoid_spark_v1","""event"",""trial"",""time""
""fullscreenenter"",""1"",""3394""
","
","
","""event"",""trial"",""time""
""fullscreenenter"",""1"",""3394""
","
","","","","","","1080.5","<p> Welcome! Today you are going to play 6 different rounds of a decision-making game. </p><p> Use the mouse to click next to continue. </p>","","0","instructions","","","","","","","","","","",""
"learning-instructions","9","32669","0.0-8.0-0.0-0.1","4494","1","14","Male","approach_avoid_spark_v1","""event"",""trial"",""time""
""fullscreenenter"",""1"",""3394""
","
","
","""event"",""trial"",""time""
""fullscreenenter"",""1"",""3394""
","
","","","","","","1640.4000000003725","<p> You will start with a practice round to learn the rules. </p>","","0","instructions","","","","","","","","","","",""
"learning-instructions","10","37705","0.0-8.0-0.0-0.2","4494","1","14","Male","approach_avoid_spark_v1","""event"",""trial"",""time""
""fullscreenenter"",""1"",""3394""
","
","
","""event"",""trial"",""time""
""fullscreenenter"",""1"",""3394""
","
","","","","","","1590.699999999255","<p> Your goal in this round is to give out sports equipment to kids. </p></div>","","0","instructions","","","","","","","","","","",""
"learning-instructions","11","46056","0.0-8.0-0.0-0.3","4494","1","14","Male","approach_avoid_spark_v1","""event"",""trial"",""time""
""fullscreenenter"",""1"",""3394""
","
","
","""event"",""trial"",""time""
""fullscreenenter"",""1"",""3394""
","
","","","","","","805.6999999992549","<p> The kids only like some of the equipment.  </p><p> On each turn, you will see a piece of sports equipment.   </p><p> You need to decide whether to give it to the kids or not.  </p>","","0","instructions","","","","","","","","","","",""
"learning-instructions","12","52442","0.0-8.0-0.0-0.4","4494","1","14","Male","approach_avoid_spark_v1","""event"",""trial"",""time""
""fullscreenenter"",""1"",""3394""
","
","
","""event"",""trial"",""time""
""fullscreenenter"",""1"",""3394""
","
","","","","","","1635.4000000003725","<p> You can give them the equipment by pressing 1 and choose not to give it to them by pressing 0. </p><br><div class=""choice-instructions-grid""> <div class=""choice-option""><img src=""images/approach.png"" class=""choice-option-img"" stage=""instructions"" position=""0"" ><div class=""choice-option-text""> Press ""1."" </div></div><div class=""choice-option""><img src=""images/avoid.png"" class=""choice-option-img"" stage=""instructions"" position=""1"" ><div class=""choice-option-text""> Press ""0."" </div></div>","","0","instructions","","","","","","","","","","",""
"learning-instructions","13","61177","0.0-8.0-0.0-0.5","4494","1","14","Male","approach_avoid_spark_v1","""event"",""trial"",""time""
""fullscreenenter"",""1"",""3394""
","
","
","""event"",""trial"",""time""
""fullscreenenter"",""1"",""3394""
","
","","","","","","1350.5","<p> If you give them a piece of equipment they like, they will be happy! </p><p> But if you give them a piece of equipment they do not like, they will be sad. </p>","","0","instructions","","","","","","","","","","",""
"learning-instructions","14","72146","0.0-8.0-0.0-0.6","4494","1","14","Male","approach_avoid_spark_v1","""event"",""trial"",""time""
""fullscreenenter"",""1"",""3394""
","
","
","""event"",""trial"",""time""
""fullscreenenter"",""1"",""3394""
","
","","","","","","466.5","<p> You will earn points based on how you make kids feel. </p><p> If you make them happy, you will WIN anywhere from 1 - 9 points, </p><p> but if you make them sad, you will LOSE anywhere from 1 - 9 points. </p>","","0","instructions","","","","","","","","","","",""
"learning-instructions","15","82215","0.0-8.0-0.0-0.7","4494","1","14","Male","approach_avoid_spark_v1","""event"",""trial"",""time""
""fullscreenenter"",""1"",""3394""
","
","
","""event"",""trial"",""time""
""fullscreenenter"",""1"",""3394""
","
","","","","","","516.0999999996275","<p> You will see how many points you won or lost in the center of the screen. </p><p> Here is what you would see if you won 6 points: </p><p style=""color:green;font-size:50px;font-weight:bolder"">6</p><p style=""color:green"">The text is GREEN because you WON points.</p>","","0","instructions","","","","","","","","","","",""
"learning-instructions","16","88266","0.0-8.0-0.0-0.8","4494","1","14","Male","approach_avoid_spark_v1","""event"",""trial"",""time""
""fullscreenenter"",""1"",""3394""
","
","
","""event"",""trial"",""time""
""fullscreenenter"",""1"",""3394""
","
","","","","","","548","<p> And here is what you would see if you lost 4 points: </p><p style=""color:red;font-size:50px;font-weight:bolder"">-4</p><p style=""color:red"">The text is RED because you LOST points. </p>","","0","instructions","","","","","","","","","","",""
"learning-instructions","17","104219","0.0-8.0-0.0-0.9","4494","1","14","Male","approach_avoid_spark_v1","""event"",""trial"",""time""
""fullscreenenter"",""1"",""3394""
","
","
","""event"",""trial"",""time""
""fullscreenenter"",""1"",""3394""
","
","","","","","","1246.0999999996275","<p> Some of the equipment will make the kids VERY happy or sad. </p><p> These pieces of equipment will make you win or lose LOTS of points. </p><p> Other pieces of equipment will only make the kids a little happy or sad. </p><p> These pieces of equipment will make you win or lose small amounts of points. </p>","","0","instructions","","","","","","","","","","",""
"learning-instructions","18","118539","0.0-8.0-0.0-0.10","4494","1","14","Male","approach_avoid_spark_v1","""event"",""trial"",""time""
""fullscreenenter"",""1"",""3394""
","
","
","""event"",""trial"",""time""
""fullscreenenter"",""1"",""3394""
","
","","","","","","3700.9000000003725","<p> If you choose not to give them the equipment, you will not win or lose any points. </p><p>  However, in the center of the screen, you will see the number of points you WOULD HAVE won or lost if you had given them the equipment. </p>","","0","instructions","","","","","","","","","","",""
"learning-instructions","19","140527","0.0-8.0-0.0-0.11","4494","1","14","Male","approach_avoid_spark_v1","""event"",""trial"",""time""
""fullscreenenter"",""1"",""3394""
","
","
","""event"",""trial"",""time""
""fullscreenenter"",""1"",""3394""
","
","","","","","","466.90000000037253","<p> Here is what you might see if you did not give the equipment to the kids but it would have made them happy: </p><p style=""color:grey; font-size:50px; display: inline-block; border-spacing: 15px; border-width:3px; border-style:solid; border-color:red"">  &nbsp; 7 &nbsp; </p><p> Remember, in this case, you would not win or lose ANY points because you did not give them the equipment.  </p><p style=""color:grey"">The text is GREY because you earned ZERO points. </p><p style=""color:red"">However, choosing to give the kids the equipment would have made you win points. The box around the text is RED because you chose the worse option. </p>","","0","instructions","","","","","","","","","","",""
"learning-instructions","20","163031","0.0-8.0-0.0-0.12","4494","1","14","Male","approach_avoid_spark_v1","""event"",""trial"",""time""
""fullscreenenter"",""1"",""3394""
","
","
","""event"",""trial"",""time""
""fullscreenenter"",""1"",""3394""
","
","","","","","","1434.8999999985099","<p> Here is what you might see if you did not give the equipment to the kids but it would have made them sad: </p><p style=""color:grey;font-size:50px; display: inline-block; border-spacing: 15px; border-width:3px; border-style:solid; border-color:green"">  &nbsp; -8 &nbsp; </p><p> Remember, in this case, you would not win or lose ANY points because you did not give them the equipment.  </p><p style=""color:grey"">The text is GREY because you earned ZERO points. </p><p  style=""color:green""> Choosing to give the kids the equipment would have made you lose points. The box around the text is GREEN because you chose the better option.</p>","","0","instructions","","","","","","","","","","",""
"learning-instructions","21","172900","0.0-8.0-0.0-0.13","4494","1","14","Male","approach_avoid_spark_v1","""event"",""trial"",""time""
""fullscreenenter"",""1"",""3394""
","
","
","""event"",""trial"",""time""
""fullscreenenter"",""1"",""3394""
","
","","","","","","1105.5","<p> You will have 3 seconds to make each choice. Try to respond before time runs out! </p><p> You will lose 5 points each time you do not make a response. </p>","","0","instructions","","","","","","","","","","",""
"learning-instructions","22","183003","0.0-8.0-0.0-0.14","4494","1","14","Male","approach_avoid_spark_v1","""event"",""trial"",""time""
""fullscreenenter"",""1"",""3394""
","
","
","""event"",""trial"",""time""
""fullscreenenter"",""1"",""3394""
","
","","","","","","4695.0999999996275","<p> This is just a practice round, but in the real game, your bonus payment will depend on your total number of points.","","0","instructions","","","","","","","","","","",""
"learning-instructions","23","190287","0.0-8.0-0.0-0.15","4494","1","14","Male","approach_avoid_spark_v1","""event"",""trial"",""time""
""fullscreenenter"",""1"",""3394""
","
","
","""event"",""trial"",""time""
""fullscreenenter"",""1"",""3394""
","
","","","","","","1524.5","<p> Remember, you can give them the equipment by pressing 1 and choose not to give it to them by pressing 0. </p><br><div class=""choice-instructions-grid""> <div class=""choice-option""><img src=""images/approach.png"" class=""choice-option-img"" stage=""instructions"" position=""0"" ><div class=""choice-option-text""> Press ""1."" </div></div><div class=""choice-option""><img src=""images/avoid.png"" class=""choice-option-img"" stage=""instructions"" position=""1"" ><div class=""choice-option-text""> Press ""0."" </div></div>","","0","instructions","","","","","","","","","","",""
"html-button-response","24","192089","0.0-8.0-1.0","4494","1","14","Male","approach_avoid_spark_v1","""event"",""trial"",""time""
""fullscreenenter"",""1"",""3394""
","
","
","""event"",""trial"",""time""
""fullscreenenter"",""1"",""3394""
","
","","","","","","1700.0999999996275","<p> Ready to practice? </p>","0","","","","","","","","","","","","",""
"html-keyboard-response","25","192694","0.0-8.0-2.0-0.0","4494","1","14","Male","approach_avoid_spark_v1","""event"",""trial"",""time""
""fullscreenenter"",""1"",""3394""
","
","
","""event"",""trial"",""time""
""fullscreenenter"",""1"",""3394""
","
","","","","","","null","<div style=""font-size:60px;"">+</div>","null","","fixation","","","","","","","","","","",""
"aa-learning-trial","26","195699","0.0-8.0-2.0-1.0","4494","1","14","Male","approach_avoid_spark_v1","""event"",""trial"",""time""
""fullscreenenter"",""1"",""3394""
","
","
","""event"",""trial"",""time""
""fullscreenenter"",""1"",""3394""
","
","","","","","","2799.0999999996275","images/ball2.png","","","learning","6","6","1","1","practice","practice","practice","-1","","",""
"html-keyboard-response","27","196203","0.0-8.0-2.0-0.1","4494","1","14","Male","approach_avoid_spark_v1","""event"",""trial"",""time""
""fullscreenenter"",""1"",""3394""
","
","
","""event"",""trial"",""time""
""fullscreenenter"",""1"",""3394""
","
","","","","","","null","<div style=""font-size:60px;"">+</div>","null","","fixation","","","","","","","","","","",""
"aa-learning-trial","28","199206","0.0-8.0-2.0-1.1","4494","1","14","Male","approach_avoid_spark_v1","""event"",""trial"",""time""
""fullscreenenter"",""1"",""3394""
","
","
","""event"",""trial"",""time""
""fullscreenenter"",""1"",""3394""
","
","","","","","","2369.5999999996275","images/racket4.png","","","learning","-9","-9","1","1","practice","practice","practice","-1","","",""
"html-keyboard-response","29","199709","0.0-8.0-2.0-0.2","4494","1","14","Male","approach_avoid_spark_v1","""event"",""trial"",""time""
""fullscreenenter"",""1"",""3394""
","
","
","""event"",""trial"",""time""
""fullscreenenter"",""1"",""3394""
","
","","","","","","null","<div style=""font-size:60px;"">+</div>","null","","fixation","","","","","","","","","","",""
"aa-learning-trial","30","202716","0.0-8.0-2.0-1.2","4494","1","14","Male","approach_avoid_spark_v1","""event"",""trial"",""time""
""fullscreenenter"",""1"",""3394""
","
","
","""event"",""trial"",""time""
""fullscreenenter"",""1"",""3394""
","
","","","","","","1215.2999999988824","images/racket4.png","","","learning","-9","0","0","0","practice","practice","practice","-1","","",""
"html-keyboard-response","31","203219","0.0-8.0-2.0-0.3","4494","1","14","Male","approach_avoid_spark_v1","""event"",""trial"",""time""
""fullscreenenter"",""1"",""3394""
","
","
","""event"",""trial"",""time""
""fullscreenenter"",""1"",""3394""
","
","","","","","","null","<div style=""font-size:60px;"">+</div>","null","","fixation","","","","","","","","","","",""
"aa-learning-trial","32","206225","0.0-8.0-2.0-1.3","4494","1","14","Male","approach_avoid_spark_v1","""event"",""trial"",""time""
""fullscreenenter"",""1"",""3394""
","
","
","""event"",""trial"",""time""
""fullscreenenter"",""1"",""3394""
","
","","","","","","2162","images/racket4.png","","","learning","-7","0","0","0","practice","practice","practice","-1","","",""
"html-keyboard-response","33","206726","0.0-8.0-2.0-0.4","4494","1","14","Male","approach_avoid_spark_v1","""event"",""trial"",""time""
""fullscreenenter"",""1"",""3394""
","
","
","""event"",""trial"",""time""
""fullscreenenter"",""1"",""3394""
","
","","","","","","null","<div style=""font-size:60px;"">+</div>","null","","fixation","","","","","","","","","","",""
"aa-learning-trial","34","209728","0.0-8.0-2.0-1.4","4494","1","14","Male","approach_avoid_spark_v1","""event"",""trial"",""time""
""fullscreenenter"",""1"",""3394""
","
","
","""event"",""trial"",""time""
""fullscreenenter"",""1"",""3394""
","
","","","","","","1446.9000000003725","images/ball2.png","","","learning","-4","0","0","0","practice","practice","practice","-1","","",""
"html-keyboard-response","35","210233","0.0-8.0-2.0-0.5","4494","1","14","Male","approach_avoid_spark_v1","""event"",""trial"",""time""
""fullscreenenter"",""1"",""3394""
","
","
","""event"",""trial"",""time""
""fullscreenenter"",""1"",""3394""
","
","","","","","","null","<div style=""font-size:60px;"">+</div>","null","","fixation","","","","","","","","","","",""
"aa-learning-trial","36","213240","0.0-8.0-2.0-1.5","4494","1","14","Male","approach_avoid_spark_v1","""event"",""trial"",""time""
""fullscreenenter"",""1"",""3394""
","
","
","""event"",""trial"",""time""
""fullscreenenter"",""1"",""3394""
","
","","","","","","1010.6999999992549","images/racket2.png","","","learning","9","9","1","1","practice","practice","practice","-1","","",""
"html-keyboard-response","37","213745","0.0-8.0-2.0-0.6","4494","1","14","Male","approach_avoid_spark_v1","""event"",""trial"",""time""
""fullscreenenter"",""1"",""3394""
","
","
","""event"",""trial"",""time""
""fullscreenenter"",""1"",""3394""
","
","","","","","","null","<div style=""font-size:60px;"">+</div>","null","","fixation","","","","","","","","","","",""
"aa-learning-trial","38","216752","0.0-8.0-2.0-1.6","4494","1","14","Male","approach_avoid_spark_v1","""event"",""trial"",""time""
""fullscreenenter"",""1"",""3394""
","
","
","""event"",""trial"",""time""
""fullscreenenter"",""1"",""3394""
","
","","","","","","906.8999999985099","images/ball1.png","","","learning","1","1","1","1","practice","practice","practice","-1","","",""
"html-keyboard-response","39","217254","0.0-8.0-2.0-0.7","4494","1","14","Male","approach_avoid_spark_v1","""event"",""trial"",""time""
""fullscreenenter"",""1"",""3394""
","
","
","""event"",""trial"",""time""
""fullscreenenter"",""1"",""3394""
","
","","","","","","null","<div style=""font-size:60px;"">+</div>","null","","fixation","","","","","","","","","","",""
"aa-learning-trial","40","220259","0.0-8.0-2.0-1.7","4494","1","14","Male","approach_avoid_spark_v1","""event"",""trial"",""time""
""fullscreenenter"",""1"",""3394""
","
","
","""event"",""trial"",""time""
""fullscreenenter"",""1"",""3394""
","
","","","","","","975.0999999996275","images/racket1.png","","","learning","-7","0","0","0","practice","practice","practice","-1","","",""
"html-keyboard-response","41","220764","0.0-8.0-2.0-0.8","4494","1","14","Male","approach_avoid_spark_v1","""event"",""trial"",""time""
""fullscreenenter"",""1"",""3394""
","
","
","""event"",""trial"",""time""
""fullscreenenter"",""1"",""3394""
","
","","","","","","null","<div style=""font-size:60px;"">+</div>","null","","fixation","","","","","","","","","","",""
"aa-learning-trial","42","223771","0.0-8.0-2.0-1.8","4494","1","14","Male","approach_avoid_spark_v1","""event"",""trial"",""time""
""fullscreenenter"",""1"",""3394""
","
","
","""event"",""trial"",""time""
""fullscreenenter"",""1"",""3394""
","
","","","","","","1095.9000000003725","images/ball3.png","","","learning","7","7","1","1","practice","practice","practice","-1","","",""
"html-keyboard-response","43","224276","0.0-8.0-2.0-0.9","4494","1","14","Male","approach_avoid_spark_v1","""event"",""trial"",""time""
""fullscreenenter"",""1"",""3394""
","
","
","""event"",""trial"",""time""
""fullscreenenter"",""1"",""3394""
","
","","","","","","null","<div style=""font-size:60px;"">+</div>","null","","fixation","","","","","","","","","","",""
"aa-learning-trial","44","227283","0.0-8.0-2.0-1.9","4494","1","14","Male","approach_avoid_spark_v1","""event"",""trial"",""time""
""fullscreenenter"",""1"",""3394""
","
","
","""event"",""trial"",""time""
""fullscreenenter"",""1"",""3394""
","
","","","","","","2022.300000000745","images/ball1.png","","","learning","-1","0","0","0","practice","practice","practice","-1","","",""
"html-keyboard-response","45","227788","0.0-8.0-2.0-0.10","4494","1","14","Male","approach_avoid_spark_v1","""event"",""trial"",""time""
""fullscreenenter"",""1"",""3394""
","
","
","""event"",""trial"",""time""
""fullscreenenter"",""1"",""3394""
","
","","","","","","null","<div style=""font-size:60px;"">+</div>","null","","fixation","","","","","","","","","","",""
"aa-learning-trial","46","230795","0.0-8.0-2.0-1.10","4494","1","14","Male","approach_avoid_spark_v1","""event"",""trial"",""time""
""fullscreenenter"",""1"",""3394""
","
","
","""event"",""trial"",""time""
""fullscreenenter"",""1"",""3394""
","
","","","","","","1104","images/ball3.png","","","learning","3","0","0","0","practice","practice","practice","-1","","",""
"html-keyboard-response","47","231299","0.0-8.0-2.0-0.11","4494","1","14","Male","approach_avoid_spark_v1","""event"",""trial"",""time""
""fullscreenenter"",""1"",""3394""
","
","
","""event"",""trial"",""time""
""fullscreenenter"",""1"",""3394""
","
","","","","","","null","<div style=""font-size:60px;"">+</div>","null","","fixation","","","","","","","","","","",""
"aa-learning-trial","48","234307","0.0-8.0-2.0-1.11","4494","1","14","Male","approach_avoid_spark_v1","""event"",""trial"",""time""
""fullscreenenter"",""1"",""3394""
","
","
","""event"",""trial"",""time""
""fullscreenenter"",""1"",""3394""
","
","","","","","","1584","images/ball2.png","","","learning","-9","-9","1","1","practice","practice","practice","-1","","",""
"html-button-response","49","237149","0.0-8.0-3.0","4494","1","14","Male","approach_avoid_spark_v1","""event"",""trial"",""time""
""fullscreenenter"",""1"",""3394""
","
","
","""event"",""trial"",""time""
""fullscreenenter"",""1"",""3394""
","
","","","","","","2841.199999999255","<p> You earned 5 points in the practice round! </p>","0","","break","","","","","","","","","","",""
"learning-instructions","50","244518","0.0-8.0-4.0-0.0","4494","1","14","Male","approach_avoid_spark_v1","""event"",""trial"",""time""
""fullscreenenter"",""1"",""3394""
","
","
","""event"",""trial"",""time""
""fullscreenenter"",""1"",""3394""
","
","","","","","","1409.2000000011176","<p> It's almost time to start the real game. </p><p> Before you start, we're going to ask you a few questions about how the game works. </p>","","0","instructions","","","","","","","","","","",""
"preload","51","245503","0.0-8.0-5.0","4494","1","14","Male","approach_avoid_spark_v1","""event"",""trial"",""time""
""fullscreenenter"",""1"",""3394""
","
","
","""event"",""trial"",""time""
""fullscreenenter"",""1"",""3394""
","
","true","false","[]","[]","[]","","","","","","","","","","","","","","","",""
"comp-q","52","251503","0.0-8.0-6.0-0.0","4494","1","14","Male","approach_avoid_spark_v1","""event"",""trial"",""time""
""fullscreenenter"",""1"",""3394""
","
","
","""event"",""trial"",""time""
""fullscreenenter"",""1"",""3394""
","
","","","","","","1010.3000000007451","<p> <b> True or False? </b> </p><p> If you see a number in GREY, that means you earned that many points. </p>","","1","comp_question","","","","","","","","","true","",""
"comp-q","53","261155","0.0-8.0-6.0-1.0","4494","1","14","Male","approach_avoid_spark_v1","""event"",""trial"",""time""
""fullscreenenter"",""1"",""3394""
","
","
","""event"",""trial"",""time""
""fullscreenenter"",""1"",""3394""
","
","","","","","","1294.1000000014901","<p><b> That's right! </b> If you see a grey number, it means you earned ZERO points. <br> The grey numbers show the points you WOULD HAVE earned if you had made the other choice. </p>","","0","comp_answer","","","","","","","","","","",""
"comp-q","54","266656","0.0-8.0-7.0-0.0","4494","1","14","Male","approach_avoid_spark_v1","""event"",""trial"",""time""
""fullscreenenter"",""1"",""3394""
","
","
","""event"",""trial"",""time""
""fullscreenenter"",""1"",""3394""
","
","","","","","","810.1000000014901","<p> <b> True or False? </b> </p><p> You will have as much time as you want to make each choice. </p>","","1","comp_question","","","","","","","","","true","",""
"comp-q","55","272857","0.0-8.0-7.0-1.0","4494","1","14","Male","approach_avoid_spark_v1","""event"",""trial"",""time""
""fullscreenenter"",""1"",""3394""
","
","
","""event"",""trial"",""time""
""fullscreenenter"",""1"",""3394""
","
","","","","","","2164.5","<p> <b> That's right! </b> You will only have 3 seconds to make each choice. </p>","","0","comp_answer","","","","","","","","","","",""
"comp-q","56","278191","0.0-8.0-8.0-0.0","4494","1","14","Male","approach_avoid_spark_v1","""event"",""trial"",""time""
""fullscreenenter"",""1"",""3394""
","
","
","""event"",""trial"",""time""
""fullscreenenter"",""1"",""3394""
","
","","","","","","677.5999999996275","<p> <b> True or False? </b> </p><p> You should use the '1' and '0' keys to make your choices. </p>","","0","comp_question","","","","","","","","","true","",""
"comp-q","57","284043","0.0-8.0-8.0-1.0","4494","1","14","Male","approach_avoid_spark_v1","""event"",""trial"",""time""
""fullscreenenter"",""1"",""3394""
","
","
","""event"",""trial"",""time""
""fullscreenenter"",""1"",""3394""
","
","","","","","","1247.2000000011176","<p> <b> That's right! </b> You should use the '1' and '0' keys to make each choice. </p>","","0","comp_answer","","","","","","","","","","",""
"learning-instructions","58","293545","0.0-8.0-9.0-0.0","4494","1","14","Male","approach_avoid_spark_v1","""event"",""trial"",""time""
""fullscreenenter"",""1"",""3394""
","
","
","""event"",""trial"",""time""
""fullscreenenter"",""1"",""3394""
","
","","","","","","3231.7999999988824","<p> It's now time to start the real game. </p>Do your best, because the points you earn in the next rounds will influence your bonus payment. </p>","","0","instructions","","","","","","","","","","",""
"preload","59","293669","0.0-9.0-0.0","4494","1","14","Male","approach_avoid_spark_v1","""event"",""trial"",""time""
""fullscreenenter"",""1"",""3394""
","
","
","""event"",""trial"",""time""
""fullscreenenter"",""1"",""3394""
","
","true","false","[]","[]","[]","","","","","","","","","","","","","","","",""
"learning-instructions","60","299463","0.0-9.0-1.0-0.0","4494","1","14","Male","approach_avoid_spark_v1","""event"",""trial"",""time""
""fullscreenenter"",""1"",""3394""
","
","
","""event"",""trial"",""time""
""fullscreenenter"",""1"",""3394""
","
","","","","","","1464","<p> Your goal in this round is to decorate your friend's new house with furniture. </p></div>","","0","instructions","","","","","","","","","","",""
"learning-instructions","61","309815","0.0-9.0-1.0-0.1","4494","1","14","Male","approach_avoid_spark_v1","""event"",""trial"",""time""
""fullscreenenter"",""1"",""3394""
","
","
","""event"",""trial"",""time""
""fullscreenenter"",""1"",""3394""
","
","","","","","","944.0999999996275","<p> Your friend likes some pieces of furniture but not others.  </p><p> On each turn, you will see a piece of furniture.   </p><p> You need to decide whether to put it in your friend's house or not.  </p>","","0","instructions","","","","","","","","","","",""
"learning-instructions","62","315583","0.0-9.0-1.0-0.2","4494","1","14","Male","approach_avoid_spark_v1","""event"",""trial"",""time""
""fullscreenenter"",""1"",""3394""
","
","
","""event"",""trial"",""time""
""fullscreenenter"",""1"",""3394""
","
","","","","","","390.80000000074506","<p> You can put the furniture in her house by pressing 1 and deliver it elsewhere by pressing 0. </p><br><div class=""choice-instructions-grid""> <div class=""choice-option""><img src=""images/approach.png"" class=""choice-option-img"" stage=""instructions"" position=""0"" ><div class=""choice-option-text""> Press ""1."" </div></div><div class=""choice-option""><img src=""images/avoid.png"" class=""choice-option-img"" stage=""instructions"" position=""1"" ><div class=""choice-option-text""> Press ""0."" </div></div>","","0","instructions","","","","","","","","","","",""
"learning-instructions","63","324652","0.0-9.0-1.0-0.3","4494","1","14","Male","approach_avoid_spark_v1","""event"",""trial"",""time""
""fullscreenenter"",""1"",""3394""
","
","
","""event"",""trial"",""time""
""fullscreenenter"",""1"",""3394""
","
","","","","","","647.9000000003725","<p> If you decorate your friend's house with furniture she likes, she will be happy! </p><p> But if you give her furniture that she does not like, she will be annoyed. </p>","","0","instructions","","","","","","","","","","",""
"learning-instructions","64","338188","0.0-9.0-1.0-0.4","4494","1","14","Male","approach_avoid_spark_v1","""event"",""trial"",""time""
""fullscreenenter"",""1"",""3394""
","
","
","""event"",""trial"",""time""
""fullscreenenter"",""1"",""3394""
","
","","","","","","1779.1000000014901","<p> You will earn points based on how you made your friend feel. </p><p> If you made her happy, you will WIN anywhere from 1 - 9 points, </p><p> but if you made her annoyed you will LOSE anywhere from 1 - 9 points. </p>","","0","instructions","","","","","","","","","","",""
"learning-instructions","65","346023","0.0-9.0-1.0-0.5","4494","1","14","Male","approach_avoid_spark_v1","""event"",""trial"",""time""
""fullscreenenter"",""1"",""3394""
","
","
","""event"",""trial"",""time""
""fullscreenenter"",""1"",""3394""
","
","","","","","","610.9000000003725","<p> You will see how many points you won or lost in the center of the screen. </p><p> Here is what you would see if you won 5 points: </p><p style=""color:green;font-size:50px;font-weight:bolder"">5</p>","","0","instructions","","","","","","","","","","",""
"learning-instructions","66","349725","0.0-9.0-1.0-0.6","4494","1","14","Male","approach_avoid_spark_v1","""event"",""trial"",""time""
""fullscreenenter"",""1"",""3394""
","
","
","""event"",""trial"",""time""
""fullscreenenter"",""1"",""3394""
","
","","","","","","469.80000000074506","<p> And here is what you would see if you lost 3 points: </p><p style=""color:red;font-size:50px;font-weight:bolder"">-3</p>","","0","instructions","","","","","","","","","","",""
"learning-instructions","67","367979","0.0-9.0-1.0-0.7","4494","1","14","Male","approach_avoid_spark_v1","""event"",""trial"",""time""
""fullscreenenter"",""1"",""3394""
","
","
","""event"",""trial"",""time""
""fullscreenenter"",""1"",""3394""
","
","","","","","","1420","<p> Some pieces of furniture will make her feel very happy or very annoyed. </p><p> These pieces of furniture will make you win or lose LOTS of points. </p><p> Other pieces of furniture will only make her feel a little happy or a little annoyed. </p><p> These pieces of furniture will make you win or lose small amounts of points. </p>","","0","instructions","","","","","","","","","","",""
"learning-instructions","68","380965","0.0-9.0-1.0-0.8","4494","1","14","Male","approach_avoid_spark_v1","""event"",""trial"",""time""
""fullscreenenter"",""1"",""3394""
","
","
","""event"",""trial"",""time""
""fullscreenenter"",""1"",""3394""
","
","","","","","","596.7999999988824","<p> If you choose to deliver a piece of furniture elsewhere, you will not win or lose any points. </p><p>  However, in the center of the screen, you will see the number of points you WOULD HAVE won or lost if you had given the furniture to your friend. </p>","","0","instructions","","","","","","","","","","",""
"learning-instructions","69","392251","0.0-9.0-1.0-0.9","4494","1","14","Male","approach_avoid_spark_v1","""event"",""trial"",""time""
""fullscreenenter"",""1"",""3394""
","
","
","""event"",""trial"",""time""
""fullscreenenter"",""1"",""3394""
","
","","","","","","244.2999999988824","<p> Here is what you might see if you did not give a piece of furniture to your friend that would have made her happy: </p><p style=""color:grey; font-size:50px; display: inline-block; border-spacing: 15px; border-width:3px; border-style:solid; border-color:red"">  &nbsp; 6 &nbsp; </p><p> Remember, in this case, you would not win or lose ANY points because you did not give her the furniture.  </p>","","0","instructions","","","","","","","","","","",""
"learning-instructions","70","400204","0.0-9.0-1.0-0.10","4494","1","14","Male","approach_avoid_spark_v1","""event"",""trial"",""time""
""fullscreenenter"",""1"",""3394""
","
","
","""event"",""trial"",""time""
""fullscreenenter"",""1"",""3394""
","
","","","","","","702.9000000003725","<p> Try to make the best choice for each piece of furniture because </p><p> at the end of the game, you will earn bonus money based on how many points you earned. </p>","","0","instructions","","","","","","","","","","",""
"learning-instructions","71","409489","0.0-9.0-1.0-0.11","4494","1","14","Male","approach_avoid_spark_v1","""event"",""trial"",""time""
""fullscreenenter"",""1"",""3394""
","
","
","""event"",""trial"",""time""
""fullscreenenter"",""1"",""3394""
","
","","","","","","1101.5","<p> You will have 3 seconds to make each choice. Try to respond before time runs out! </p><p> You will lose 5 points each time you do not make a response. </p>","","0","instructions","","","","","","","","","","",""
"html-keyboard-response","72","410094","0.0-9.0-2.0-0.0","4494","1","14","Male","approach_avoid_spark_v1","""event"",""trial"",""time""
""fullscreenenter"",""1"",""3394""
","
","
","""event"",""trial"",""time""
""fullscreenenter"",""1"",""3394""
","
","","","","","","null","<div style=""font-size:60px;"">+</div>","null","","fixation","","","","","","","","","","",""
"aa-learning-trial","73","413097","0.0-9.0-2.0-1.0","4494","1","14","Male","approach_avoid_spark_v1","""event"",""trial"",""time""
""fullscreenenter"",""1"",""3394""
","
","
","""event"",""trial"",""time""
""fullscreenenter"",""1"",""3394""
","
","","","","","","1558.5999999996275","images/chair1.png","","","learning","4","4","1","1","chair","furniture","1","0","","good","[4]"
"html-keyboard-response","74","413600","0.0-9.0-2.0-0.1","4494","1","14","Male","approach_avoid_spark_v1","""event"",""trial"",""time""
""fullscreenenter"",""1"",""3394""
","
","
","""event"",""trial"",""time""
""fullscreenenter"",""1"",""3394""
","
","","","","","","null","<div style=""font-size:60px;"">+</div>","null","","fixation","","","","","","","","","","",""
"aa-learning-trial","75","416607","0.0-9.0-2.0-1.1","4494","1","14","Male","approach_avoid_spark_v1","""event"",""trial"",""time""
""fullscreenenter"",""1"",""3394""
","
","
","""event"",""trial"",""time""
""fullscreenenter"",""1"",""3394""
","
","","","","","","2037","images/chair2.png","","","learning","5","0","0","0","chair","furniture","1","0","","good","[4]"
"html-keyboard-response","76","417112","0.0-9.0-2.0-0.2","4494","1","14","Male","approach_avoid_spark_v1","""event"",""trial"",""time""
""fullscreenenter"",""1"",""3394""
","
","
","""event"",""trial"",""time""
""fullscreenenter"",""1"",""3394""
","
","","","","","","null","<div style=""font-size:60px;"">+</div>","null","","fixation","","","","","","","","","","",""
"aa-learning-trial","77","420115","0.0-9.0-2.0-1.2","4494","1","14","Male","approach_avoid_spark_v1","""event"",""trial"",""time""
""fullscreenenter"",""1"",""3394""
","
","
","""event"",""trial"",""time""
""fullscreenenter"",""1"",""3394""
","
","","","","","","2164.5","images/bed5.png","","","learning","1","1","1","1","bed","furniture","1","0","","neutral","0"
"html-keyboard-response","78","420618","0.0-9.0-2.0-0.3","4494","1","14","Male","approach_avoid_spark_v1","""event"",""trial"",""time""
""fullscreenenter"",""1"",""3394""
","
","
","""event"",""trial"",""time""
""fullscreenenter"",""1"",""3394""
","
","","","","","","null","<div style=""font-size:60px;"">+</div>","null","","fixation","","","","","","","","","","",""
"aa-learning-trial","79","423625","0.0-9.0-2.0-1.3","4494","1","14","Male","approach_avoid_spark_v1","""event"",""trial"",""time""
""fullscreenenter"",""1"",""3394""
","
","
","""event"",""trial"",""time""
""fullscreenenter"",""1"",""3394""
","
","","","","","","1419.300000000745","images/table2.png","","","learning","-8","-8","1","1","table","furniture","1","0","","bad","[-6]"
"html-keyboard-response","80","424130","0.0-9.0-2.0-0.4","4494","1","14","Male","approach_avoid_spark_v1","""event"",""trial"",""time""
""fullscreenenter"",""1"",""3394""
","
","
","""event"",""trial"",""time""
""fullscreenenter"",""1"",""3394""
","
","","","","","","null","<div style=""font-size:60px;"">+</div>","null","","fixation","","","","","","","","","","",""
"aa-learning-trial","81","427137","0.0-9.0-2.0-1.4","4494","1","14","Male","approach_avoid_spark_v1","""event"",""trial"",""time""
""fullscreenenter"",""1"",""3394""
","
","
","""event"",""trial"",""time""
""fullscreenenter"",""1"",""3394""
","
","","","","","","2114.5","images/chair3.png","","","learning","7","0","0","0","chair","furniture","1","0","","good","[4]"
"html-keyboard-response","82","427642","0.0-9.0-2.0-0.5","4494","1","14","Male","approach_avoid_spark_v1","""event"",""trial"",""time""
""fullscreenenter"",""1"",""3394""
","
","
","""event"",""trial"",""time""
""fullscreenenter"",""1"",""3394""
","
","","","","","","null","<div style=""font-size:60px;"">+</div>","null","","fixation","","","","","","","","","","",""
"aa-learning-trial","83","430649","0.0-9.0-2.0-1.5","4494","1","14","Male","approach_avoid_spark_v1","""event"",""trial"",""time""
""fullscreenenter"",""1"",""3394""
","
","
","""event"",""trial"",""time""
""fullscreenenter"",""1"",""3394""
","
","","","","","","1058.699999999255","images/chair2.png","","","learning","4","4","1","1","chair","furniture","1","0","","good","[4]"
"html-keyboard-response","84","431151","0.0-9.0-2.0-0.6","4494","1","14","Male","approach_avoid_spark_v1","""event"",""trial"",""time""
""fullscreenenter"",""1"",""3394""
","
","
","""event"",""trial"",""time""
""fullscreenenter"",""1"",""3394""
","
","","","","","","null","<div style=""font-size:60px;"">+</div>","null","","fixation","","","","","","","","","","",""
"aa-learning-trial","85","434155","0.0-9.0-2.0-1.6","4494","1","14","Male","approach_avoid_spark_v1","""event"",""trial"",""time""
""fullscreenenter"",""1"",""3394""
","
","
","""event"",""trial"",""time""
""fullscreenenter"",""1"",""3394""
","
","","","","","","1157.7000000011176","images/bed5.png","","","learning","[-1]","-1","1","1","bed","furniture","1","0","","neutral","0"
"html-keyboard-response","86","434660","0.0-9.0-2.0-0.7","4494","1","14","Male","approach_avoid_spark_v1","""event"",""trial"",""time""
""fullscreenenter"",""1"",""3394""
","
","
","""event"",""trial"",""time""
""fullscreenenter"",""1"",""3394""
","
","","","","","","null","<div style=""font-size:60px;"">+</div>","null","","fixation","","","","","","","","","","",""
"aa-learning-trial","87","437667","0.0-9.0-2.0-1.7","4494","1","14","Male","approach_avoid_spark_v1","""event"",""trial"",""time""
""fullscreenenter"",""1"",""3394""
","
","
","""event"",""trial"",""time""
""fullscreenenter"",""1"",""3394""
","
","","","","","","1280","images/bed1.png","","","learning","1","1","1","1","bed","furniture","1","0","","neutral","0"
"html-keyboard-response","88","438172","0.0-9.0-2.0-0.8","4494","1","14","Male","approach_avoid_spark_v1","""event"",""trial"",""time""
""fullscreenenter"",""1"",""3394""
","
","
","""event"",""trial"",""time""
""fullscreenenter"",""1"",""3394""
","
","","","","","","null","<div style=""font-size:60px;"">+</div>","null","","fixation","","","","","","","","","","",""
"aa-learning-trial","89","441174","0.0-9.0-2.0-1.8","4494","1","14","Male","approach_avoid_spark_v1","""event"",""trial"",""time""
""fullscreenenter"",""1"",""3394""
","
","
","""event"",""trial"",""time""
""fullscreenenter"",""1"",""3394""
","
","","","","","","632.1999999992549","images/chair3.png","","","learning","4","0","0","0","chair","furniture","1","0","","good","[4]"
"html-keyboard-response","90","441679","0.0-9.0-2.0-0.9","4494","1","14","Male","approach_avoid_spark_v1","""event"",""trial"",""time""
""fullscreenenter"",""1"",""3394""
","
","
","""event"",""trial"",""time""
""fullscreenenter"",""1"",""3394""
","
","","","","","","null","<div style=""font-size:60px;"">+</div>","null","","fixation","","","","","","","","","","",""
"aa-learning-trial","91","444686","0.0-9.0-2.0-1.9","4494","1","14","Male","approach_avoid_spark_v1","""event"",""trial"",""time""
""fullscreenenter"",""1"",""3394""
","
","
","""event"",""trial"",""time""
""fullscreenenter"",""1"",""3394""
","
","","","","","","1501.699999999255","images/table2.png","","","learning","-6","0","0","0","table","furniture","1","0","","bad","[-6]"
"html-keyboard-response","92","445191","0.0-9.0-2.0-0.10","4494","1","14","Male","approach_avoid_spark_v1","""event"",""trial"",""time""
""fullscreenenter"",""1"",""3394""
","
","
","""event"",""trial"",""time""
""fullscreenenter"",""1"",""3394""
","
","","","","","","null","<div style=""font-size:60px;"">+</div>","null","","fixation","","","","","","","","","","",""
"aa-learning-trial","93","448198","0.0-9.0-2.0-1.10","4494","1","14","Male","approach_avoid_spark_v1","""event"",""trial"",""time""
""fullscreenenter"",""1"",""3394""
","
","
","""event"",""trial"",""time""
""fullscreenenter"",""1"",""3394""
","
","","","","","","1540.2000000011176","images/table7.png","","","learning","-9","-9","1","1","table","furniture","1","0","","bad","[-6]"
"html-keyboard-response","94","448703","0.0-9.0-2.0-0.11","4494","1","14","Male","approach_avoid_spark_v1","""event"",""trial"",""time""
""fullscreenenter"",""1"",""3394""
","
","
","""event"",""trial"",""time""
""fullscreenenter"",""1"",""3394""
","
","","","","","","null","<div style=""font-size:60px;"">+</div>","null","","fixation","","","","","","","","","","",""
"aa-learning-trial","95","451706","0.0-9.0-2.0-1.11","4494","1","14","Male","approach_avoid_spark_v1","""event"",""trial"",""time""
""fullscreenenter"",""1"",""3394""
","
","
","""event"",""trial"",""time""
""fullscreenenter"",""1"",""3394""
","
","","","","","","2340.5","images/table5.png","","","learning","-6","-6","1","1","table","furniture","1","0","","bad","[-6]"
"html-keyboard-response","96","452209","0.0-9.0-2.0-0.12","4494","1","14","Male","approach_avoid_spark_v1","""event"",""trial"",""time""
""fullscreenenter"",""1"",""3394""
","
","
","""event"",""trial"",""time""
""fullscreenenter"",""1"",""3394""
","
","","","","","","null","<div style=""font-size:60px;"">+</div>","null","","fixation","","","","","","","","","","",""
"aa-learning-trial","97","455216","0.0-9.0-2.0-1.12","4494","1","14","Male","approach_avoid_spark_v1","""event"",""trial"",""time""
""fullscreenenter"",""1"",""3394""
","
","
","""event"",""trial"",""time""
""fullscreenenter"",""1"",""3394""
","
","","","","","","1355.0999999996275","images/bed8.png","","","learning","-1","-1","1","1","bed","furniture","1","0","","neutral","0"
"html-keyboard-response","98","455721","0.0-9.0-2.0-0.13","4494","1","14","Male","approach_avoid_spark_v1","""event"",""trial"",""time""
""fullscreenenter"",""1"",""3394""
","
","
","""event"",""trial"",""time""
""fullscreenenter"",""1"",""3394""
","
","","","","","","null","<div style=""font-size:60px;"">+</div>","null","","fixation","","","","","","","","","","",""
"aa-learning-trial","99","458728","0.0-9.0-2.0-1.13","4494","1","14","Male","approach_avoid_spark_v1","""event"",""trial"",""time""
""fullscreenenter"",""1"",""3394""
","
","
","""event"",""trial"",""time""
""fullscreenenter"",""1"",""3394""
","
","","","","","","986.9000000003725","images/bed1.png","","","learning","1","1","1","1","bed","furniture","1","0","","neutral","0"
"html-keyboard-response","100","459233","0.0-9.0-2.0-0.14","4494","1","14","Male","approach_avoid_spark_v1","""event"",""trial"",""time""
""fullscreenenter"",""1"",""3394""
","
","
","""event"",""trial"",""time""
""fullscreenenter"",""1"",""3394""
","
","","","","","","null","<div style=""font-size:60px;"">+</div>","null","","fixation","","","","","","","","","","",""
"aa-learning-trial","101","462240","0.0-9.0-2.0-1.14","4494","1","14","Male","approach_avoid_spark_v1","""event"",""trial"",""time""
""fullscreenenter"",""1"",""3394""
","
","
","""event"",""trial"",""time""
""fullscreenenter"",""1"",""3394""
","
","","","","","","1218.5","images/table5.png","","","learning","-8","0","0","0","table","furniture","1","0","","bad","[-6]"
"html-keyboard-response","102","462745","0.0-9.0-2.0-0.15","4494","1","14","Male","approach_avoid_spark_v1","""event"",""trial"",""time""
""fullscreenenter"",""1"",""3394""
","
","
","""event"",""trial"",""time""
""fullscreenenter"",""1"",""3394""
","
","","","","","","null","<div style=""font-size:60px;"">+</div>","null","","fixation","","","","","","","","","","",""
"aa-learning-trial","103","465752","0.0-9.0-2.0-1.15","4494","1","14","Male","approach_avoid_spark_v1","""event"",""trial"",""time""
""fullscreenenter"",""1"",""3394""
","
","
","""event"",""trial"",""time""
""fullscreenenter"",""1"",""3394""
","
","","","","","","1067","images/table2.png","","","learning","-7","-7","1","1","table","furniture","1","0","","bad","[-6]"
"html-keyboard-response","104","466253","0.0-9.0-2.0-0.16","4494","1","14","Male","approach_avoid_spark_v1","""event"",""trial"",""time""
""fullscreenenter"",""1"",""3394""
","
","
","""event"",""trial"",""time""
""fullscreenenter"",""1"",""3394""
","
","","","","","","null","<div style=""font-size:60px;"">+</div>","null","","fixation","","","","","","","","","","",""
"aa-learning-trial","105","469258","0.0-9.0-2.0-1.16","4494","1","14","Male","approach_avoid_spark_v1","""event"",""trial"",""time""
""fullscreenenter"",""1"",""3394""
","
","
","""event"",""trial"",""time""
""fullscreenenter"",""1"",""3394""
","
","","","","","","990","images/chair1.png","","","learning","4","4","1","1","chair","furniture","1","0","","good","[4]"
"html-keyboard-response","106","469763","0.0-9.0-2.0-0.17","4494","1","14","Male","approach_avoid_spark_v1","""event"",""trial"",""time""
""fullscreenenter"",""1"",""3394""
","
","
","""event"",""trial"",""time""
""fullscreenenter"",""1"",""3394""
","
","","","","","","null","<div style=""font-size:60px;"">+</div>","null","","fixation","","","","","","","","","","",""
"aa-learning-trial","107","472767","0.0-9.0-2.0-1.17","4494","1","14","Male","approach_avoid_spark_v1","""event"",""trial"",""time""
""fullscreenenter"",""1"",""3394""
","
","
","""event"",""trial"",""time""
""fullscreenenter"",""1"",""3394""
","
","","","","","","936.6999999992549","images/bed2.png","","","learning","-2","-2","1","1","bed","furniture","1","0","","neutral","0"
"html-keyboard-response","108","473269","0.0-9.0-2.0-0.18","4494","1","14","Male","approach_avoid_spark_v1","""event"",""trial"",""time""
""fullscreenenter"",""1"",""3394""
","
","
","""event"",""trial"",""time""
""fullscreenenter"",""1"",""3394""
","
","","","","","","null","<div style=""font-size:60px;"">+</div>","null","","fixation","","","","","","","","","","",""
"aa-learning-trial","109","476271","0.0-9.0-2.0-1.18","4494","1","14","Male","approach_avoid_spark_v1","""event"",""trial"",""time""
""fullscreenenter"",""1"",""3394""
","
","
","""event"",""trial"",""time""
""fullscreenenter"",""1"",""3394""
","
","","","","","","2158.4000000003725","images/bed1.png","","","learning","[-1]","-1","1","1","bed","furniture","1","0","","neutral","0"
"html-keyboard-response","110","476774","0.0-9.0-2.0-0.19","4494","1","14","Male","approach_avoid_spark_v1","""event"",""trial"",""time""
""fullscreenenter"",""1"",""3394""
","
","
","""event"",""trial"",""time""
""fullscreenenter"",""1"",""3394""
","
","","","","","","null","<div style=""font-size:60px;"">+</div>","null","","fixation","","","","","","","","","","",""
"aa-learning-trial","111","479777","0.0-9.0-2.0-1.19","4494","1","14","Male","approach_avoid_spark_v1","""event"",""trial"",""time""
""fullscreenenter"",""1"",""3394""
","
","
","""event"",""trial"",""time""
""fullscreenenter"",""1"",""3394""
","
","","","","","","723.7999999988824","images/chair2.png","","","learning","4","0","0","0","chair","furniture","1","0","","good","[4]"
"html-keyboard-response","112","480282","0.0-9.0-2.0-0.20","4494","1","14","Male","approach_avoid_spark_v1","""event"",""trial"",""time""
""fullscreenenter"",""1"",""3394""
","
","
","""event"",""trial"",""time""
""fullscreenenter"",""1"",""3394""
","
","","","","","","null","<div style=""font-size:60px;"">+</div>","null","","fixation","","","","","","","","","","",""
"aa-learning-trial","113","483285","0.0-9.0-2.0-1.20","4494","1","14","Male","approach_avoid_spark_v1","""event"",""trial"",""time""
""fullscreenenter"",""1"",""3394""
","
","
","""event"",""trial"",""time""
""fullscreenenter"",""1"",""3394""
","
","","","","","","2203.89999999851","images/bed1.png","","","learning","-1","0","0","0","bed","furniture","1","0","","neutral","0"
"html-keyboard-response","114","483790","0.0-9.0-2.0-0.21","4494","1","14","Male","approach_avoid_spark_v1","""event"",""trial"",""time""
""fullscreenenter"",""1"",""3394""
","
","
","""event"",""trial"",""time""
""fullscreenenter"",""1"",""3394""
","
","","","","","","null","<div style=""font-size:60px;"">+</div>","null","","fixation","","","","","","","","","","",""
"aa-learning-trial","115","486794","0.0-9.0-2.0-1.21","4494","1","14","Male","approach_avoid_spark_v1","""event"",""trial"",""time""
""fullscreenenter"",""1"",""3394""
","
","
","""event"",""trial"",""time""
""fullscreenenter"",""1"",""3394""
","
","","","","","","548.0999999996275","images/table2.png","","","learning","-8","-8","1","1","table","furniture","1","0","","bad","[-6]"
"html-keyboard-response","116","487298","0.0-9.0-2.0-0.22","4494","1","14","Male","approach_avoid_spark_v1","""event"",""trial"",""time""
""fullscreenenter"",""1"",""3394""
","
","
","""event"",""trial"",""time""
""fullscreenenter"",""1"",""3394""
","
","","","","","","null","<div style=""font-size:60px;"">+</div>","null","","fixation","","","","","","","","","","",""
"aa-learning-trial","117","490299","0.0-9.0-2.0-1.22","4494","1","14","Male","approach_avoid_spark_v1","""event"",""trial"",""time""
""fullscreenenter"",""1"",""3394""
","
","
","""event"",""trial"",""time""
""fullscreenenter"",""1"",""3394""
","
","","","","","","1541.300000000745","images/chair2.png","","","learning","1","1","1","1","chair","furniture","1","0","","good","[4]"
"html-keyboard-response","118","490802","0.0-9.0-2.0-0.23","4494","1","14","Male","approach_avoid_spark_v1","""event"",""trial"",""time""
""fullscreenenter"",""1"",""3394""
","
","
","""event"",""trial"",""time""
""fullscreenenter"",""1"",""3394""
","
","","","","","","null","<div style=""font-size:60px;"">+</div>","null","","fixation","","","","","","","","","","",""
"aa-learning-trial","119","493807","0.0-9.0-2.0-1.23","4494","1","14","Male","approach_avoid_spark_v1","""event"",""trial"",""time""
""fullscreenenter"",""1"",""3394""
","
","
","""event"",""trial"",""time""
""fullscreenenter"",""1"",""3394""
","
","","","","","","993.4000000003725","images/bed6.png","","","learning","-1","0","0","0","bed","furniture","1","0","","neutral","0"
"html-keyboard-response","120","494312","0.0-9.0-2.0-0.24","4494","1","14","Male","approach_avoid_spark_v1","""event"",""trial"",""time""
""fullscreenenter"",""1"",""3394""
","
","
","""event"",""trial"",""time""
""fullscreenenter"",""1"",""3394""
","
","","","","","","null","<div style=""font-size:60px;"">+</div>","null","","fixation","","","","","","","","","","",""
"aa-learning-trial","121","497318","0.0-9.0-2.0-1.24","4494","1","14","Male","approach_avoid_spark_v1","""event"",""trial"",""time""
""fullscreenenter"",""1"",""3394""
","
","
","""event"",""trial"",""time""
""fullscreenenter"",""1"",""3394""
","
","","","","","","1065.6000000014901","images/table7.png","","","learning","-6","0","0","0","table","furniture","1","0","","bad","[-6]"
"html-keyboard-response","122","497822","0.0-9.0-2.0-0.25","4494","1","14","Male","approach_avoid_spark_v1","""event"",""trial"",""time""
""fullscreenenter"",""1"",""3394""
","
","
","""event"",""trial"",""time""
""fullscreenenter"",""1"",""3394""
","
","","","","","","null","<div style=""font-size:60px;"">+</div>","null","","fixation","","","","","","","","","","",""
"aa-learning-trial","123","500828","0.0-9.0-2.0-1.25","4494","1","14","Male","approach_avoid_spark_v1","""event"",""trial"",""time""
""fullscreenenter"",""1"",""3394""
","
","
","""event"",""trial"",""time""
""fullscreenenter"",""1"",""3394""
","
","","","","","","769.7000000011176","images/chair8.png","","","learning","7","7","1","1","chair","furniture","1","0","","good","[4]"
"html-keyboard-response","124","501333","0.0-9.0-2.0-0.26","4494","1","14","Male","approach_avoid_spark_v1","""event"",""trial"",""time""
""fullscreenenter"",""1"",""3394""
","
","
","""event"",""trial"",""time""
""fullscreenenter"",""1"",""3394""
","
","","","","","","null","<div style=""font-size:60px;"">+</div>","null","","fixation","","","","","","","","","","",""
"aa-learning-trial","125","504338","0.0-9.0-2.0-1.26","4494","1","14","Male","approach_avoid_spark_v1","""event"",""trial"",""time""
""fullscreenenter"",""1"",""3394""
","
","
","""event"",""trial"",""time""
""fullscreenenter"",""1"",""3394""
","
","","","","","","1746.0999999996275","images/chair3.png","","","learning","6","6","1","1","chair","furniture","1","0","","good","[4]"
"html-keyboard-response","126","504844","0.0-9.0-2.0-0.27","4494","1","14","Male","approach_avoid_spark_v1","""event"",""trial"",""time""
""fullscreenenter"",""1"",""3394""
","
","
","""event"",""trial"",""time""
""fullscreenenter"",""1"",""3394""
","
","","","","","","null","<div style=""font-size:60px;"">+</div>","null","","fixation","","","","","","","","","","",""
"aa-learning-trial","127","507850","0.0-9.0-2.0-1.27","4494","1","14","Male","approach_avoid_spark_v1","""event"",""trial"",""time""
""fullscreenenter"",""1"",""3394""
","
","
","""event"",""trial"",""time""
""fullscreenenter"",""1"",""3394""
","
","","","","","","2457.699999999255","images/table5.png","","","learning","-6","0","0","0","table","furniture","1","0","","bad","[-6]"
"html-keyboard-response","128","508355","0.0-9.0-2.0-0.28","4494","1","14","Male","approach_avoid_spark_v1","""event"",""trial"",""time""
""fullscreenenter"",""1"",""3394""
","
","
","""event"",""trial"",""time""
""fullscreenenter"",""1"",""3394""
","
","","","","","","null","<div style=""font-size:60px;"">+</div>","null","","fixation","","","","","","","","","","",""
"aa-learning-trial","129","511362","0.0-9.0-2.0-1.28","4494","1","14","Male","approach_avoid_spark_v1","""event"",""trial"",""time""
""fullscreenenter"",""1"",""3394""
","
","
","""event"",""trial"",""time""
""fullscreenenter"",""1"",""3394""
","
","","","","","","1281.2000000011176","images/chair2.png","","","learning","4","4","1","1","chair","furniture","1","0","","good","[4]"
"html-keyboard-response","130","511866","0.0-9.0-2.0-0.29","4494","1","14","Male","approach_avoid_spark_v1","""event"",""trial"",""time""
""fullscreenenter"",""1"",""3394""
","
","
","""event"",""trial"",""time""
""fullscreenenter"",""1"",""3394""
","
","","","","","","null","<div style=""font-size:60px;"">+</div>","null","","fixation","","","","","","","","","","",""
"aa-learning-trial","131","514873","0.0-9.0-2.0-1.29","4494","1","14","Male","approach_avoid_spark_v1","""event"",""trial"",""time""
""fullscreenenter"",""1"",""3394""
","
","
","""event"",""trial"",""time""
""fullscreenenter"",""1"",""3394""
","
","","","","","","1626.199999999255","images/bed5.png","","","learning","1","0","0","0","bed","furniture","1","0","","neutral","0"
"html-keyboard-response","132","515378","0.0-9.0-2.0-0.30","4494","1","14","Male","approach_avoid_spark_v1","""event"",""trial"",""time""
""fullscreenenter"",""1"",""3394""
","
","
","""event"",""trial"",""time""
""fullscreenenter"",""1"",""3394""
","
","","","","","","null","<div style=""font-size:60px;"">+</div>","null","","fixation","","","","","","","","","","",""
"aa-learning-trial","133","518384","0.0-9.0-2.0-1.30","4494","1","14","Male","approach_avoid_spark_v1","""event"",""trial"",""time""
""fullscreenenter"",""1"",""3394""
","
","
","""event"",""trial"",""time""
""fullscreenenter"",""1"",""3394""
","
","","","","","","937.3999999985099","images/bed8.png","","","learning","1","1","1","1","bed","furniture","1","0","","neutral","0"
"html-keyboard-response","134","518889","0.0-9.0-2.0-0.31","4494","1","14","Male","approach_avoid_spark_v1","""event"",""trial"",""time""
""fullscreenenter"",""1"",""3394""
","
","
","""event"",""trial"",""time""
""fullscreenenter"",""1"",""3394""
","
","","","","","","null","<div style=""font-size:60px;"">+</div>","null","","fixation","","","","","","","","","","",""
"aa-learning-trial","135","521896","0.0-9.0-2.0-1.31","4494","1","14","Male","approach_avoid_spark_v1","""event"",""trial"",""time""
""fullscreenenter"",""1"",""3394""
","
","
","""event"",""trial"",""time""
""fullscreenenter"",""1"",""3394""
","
","","","","","","1825.199999999255","images/table5.png","","","learning","-4","0","0","0","table","furniture","1","0","","bad","[-6]"
"html-keyboard-response","136","522401","0.0-9.0-2.0-0.32","4494","1","14","Male","approach_avoid_spark_v1","""event"",""trial"",""time""
""fullscreenenter"",""1"",""3394""
","
","
","""event"",""trial"",""time""
""fullscreenenter"",""1"",""3394""
","
","","","","","","null","<div style=""font-size:60px;"">+</div>","null","","fixation","","","","","","","","","","",""
"aa-learning-trial","137","525405","0.0-9.0-2.0-1.32","4494","1","14","Male","approach_avoid_spark_v1","""event"",""trial"",""time""
""fullscreenenter"",""1"",""3394""
","
","
","""event"",""trial"",""time""
""fullscreenenter"",""1"",""3394""
","
","","","","","","1609.7999999988824","images/chair6.png","","","learning","1","1","1","1","chair","furniture","1","0","","good","[4]"
"html-keyboard-response","138","525907","0.0-9.0-2.0-0.33","4494","1","14","Male","approach_avoid_spark_v1","""event"",""trial"",""time""
""fullscreenenter"",""1"",""3394""
","
","
","""event"",""trial"",""time""
""fullscreenenter"",""1"",""3394""
","
","","","","","","null","<div style=""font-size:60px;"">+</div>","null","","fixation","","","","","","","","","","",""
"aa-learning-trial","139","528913","0.0-9.0-2.0-1.33","4494","1","14","Male","approach_avoid_spark_v1","""event"",""trial"",""time""
""fullscreenenter"",""1"",""3394""
","
","
","""event"",""trial"",""time""
""fullscreenenter"",""1"",""3394""
","
","","","","","","1567.4000000003725","images/bed8.png","","","learning","[-1]","0","0","0","bed","furniture","1","0","","neutral","0"
"html-keyboard-response","140","529418","0.0-9.0-2.0-0.34","4494","1","14","Male","approach_avoid_spark_v1","""event"",""trial"",""time""
""fullscreenenter"",""1"",""3394""
","
","
","""event"",""trial"",""time""
""fullscreenenter"",""1"",""3394""
","
","","","","","","null","<div style=""font-size:60px;"">+</div>","null","","fixation","","","","","","","","","","",""
"aa-learning-trial","141","532425","0.0-9.0-2.0-1.34","4494","1","14","Male","approach_avoid_spark_v1","""event"",""trial"",""time""
""fullscreenenter"",""1"",""3394""
","
","
","""event"",""trial"",""time""
""fullscreenenter"",""1"",""3394""
","
","","","","","","1367.0999999996275","images/chair2.png","","","learning","4","4","1","1","chair","furniture","1","0","","good","[4]"
"html-keyboard-response","142","532930","0.0-9.0-2.0-0.35","4494","1","14","Male","approach_avoid_spark_v1","""event"",""trial"",""time""
""fullscreenenter"",""1"",""3394""
","
","
","""event"",""trial"",""time""
""fullscreenenter"",""1"",""3394""
","
","","","","","","null","<div style=""font-size:60px;"">+</div>","null","","fixation","","","","","","","","","","",""
"aa-learning-trial","143","535937","0.0-9.0-2.0-1.35","4494","1","14","Male","approach_avoid_spark_v1","""event"",""trial"",""time""
""fullscreenenter"",""1"",""3394""
","
","
","""event"",""trial"",""time""
""fullscreenenter"",""1"",""3394""
","
","","","","","","1239.699999999255","images/bed5.png","","","learning","1","0","0","0","bed","furniture","1","0","","neutral","0"
"html-keyboard-response","144","536442","0.0-9.0-2.0-0.36","4494","1","14","Male","approach_avoid_spark_v1","""event"",""trial"",""time""
""fullscreenenter"",""1"",""3394""
","
","
","""event"",""trial"",""time""
""fullscreenenter"",""1"",""3394""
","
","","","","","","null","<div style=""font-size:60px;"">+</div>","null","","fixation","","","","","","","","","","",""
"aa-learning-trial","145","539444","0.0-9.0-2.0-1.36","4494","1","14","Male","approach_avoid_spark_v1","""event"",""trial"",""time""
""fullscreenenter"",""1"",""3394""
","
","
","""event"",""trial"",""time""
""fullscreenenter"",""1"",""3394""
","
","","","","","","2997.5","images/table1.png","","","learning","-6","0","0","0","table","furniture","1","0","","bad","[-6]"
"html-keyboard-response","146","539945","0.0-9.0-2.0-0.37","4494","1","14","Male","approach_avoid_spark_v1","""event"",""trial"",""time""
""fullscreenenter"",""1"",""3394""
","
","
","""event"",""trial"",""time""
""fullscreenenter"",""1"",""3394""
","
","","","","","","null","<div style=""font-size:60px;"">+</div>","null","","fixation","","","","","","","","","","",""
"aa-learning-trial","147","542948","0.0-9.0-2.0-1.37","4494","1","14","Male","approach_avoid_spark_v1","""event"",""trial"",""time""
""fullscreenenter"",""1"",""3394""
","
","
","""event"",""trial"",""time""
""fullscreenenter"",""1"",""3394""
","
","","","","","","2360.199999999255","images/table7.png","","","learning","-6","0","0","0","table","furniture","1","0","","bad","[-6]"
"html-keyboard-response","148","543453","0.0-9.0-2.0-0.38","4494","1","14","Male","approach_avoid_spark_v1","""event"",""trial"",""time""
""fullscreenenter"",""1"",""3394""
","
","
","""event"",""trial"",""time""
""fullscreenenter"",""1"",""3394""
","
","","","","","","null","<div style=""font-size:60px;"">+</div>","null","","fixation","","","","","","","","","","",""
"aa-learning-trial","149","546460","0.0-9.0-2.0-1.38","4494","1","14","Male","approach_avoid_spark_v1","""event"",""trial"",""time""
""fullscreenenter"",""1"",""3394""
","
","
","""event"",""trial"",""time""
""fullscreenenter"",""1"",""3394""
","
","","","","","","1467.5","images/bed5.png","","","learning","-1","-1","1","1","bed","furniture","1","0","","neutral","0"
"html-keyboard-response","150","546965","0.0-9.0-2.0-0.39","4494","1","14","Male","approach_avoid_spark_v1","""event"",""trial"",""time""
""fullscreenenter"",""1"",""3394""
","
","
","""event"",""trial"",""time""
""fullscreenenter"",""1"",""3394""
","
","","","","","","null","<div style=""font-size:60px;"">+</div>","null","","fixation","","","","","","","","","","",""
"aa-learning-trial","151","549971","0.0-9.0-2.0-1.39","4494","1","14","Male","approach_avoid_spark_v1","""event"",""trial"",""time""
""fullscreenenter"",""1"",""3394""
","
","
","""event"",""trial"",""time""
""fullscreenenter"",""1"",""3394""
","
","","","","","","1259.5999999996275","images/chair3.png","","","learning","3","3","1","1","chair","furniture","1","0","","good","[4]"
"html-keyboard-response","152","550477","0.0-9.0-2.0-0.40","4494","1","14","Male","approach_avoid_spark_v1","""event"",""trial"",""time""
""fullscreenenter"",""1"",""3394""
","
","
","""event"",""trial"",""time""
""fullscreenenter"",""1"",""3394""
","
","","","","","","null","<div style=""font-size:60px;"">+</div>","null","","fixation","","","","","","","","","","",""
"aa-learning-trial","153","553484","0.0-9.0-2.0-1.40","4494","1","14","Male","approach_avoid_spark_v1","""event"",""trial"",""time""
""fullscreenenter"",""1"",""3394""
","
","
","""event"",""trial"",""time""
""fullscreenenter"",""1"",""3394""
","
","","","","","","946.9000000003725","images/chair3.png","","","learning","4","4","1","1","chair","furniture","1","0","","good","[4]"
"html-keyboard-response","154","553989","0.0-9.0-2.0-0.41","4494","1","14","Male","approach_avoid_spark_v1","""event"",""trial"",""time""
""fullscreenenter"",""1"",""3394""
","
","
","""event"",""trial"",""time""
""fullscreenenter"",""1"",""3394""
","
","","","","","","null","<div style=""font-size:60px;"">+</div>","null","","fixation","","","","","","","","","","",""
"aa-learning-trial","155","556992","0.0-9.0-2.0-1.41","4494","1","14","Male","approach_avoid_spark_v1","""event"",""trial"",""time""
""fullscreenenter"",""1"",""3394""
","
","
","""event"",""trial"",""time""
""fullscreenenter"",""1"",""3394""
","
","","","","","","786.9000000003725","images/table2.png","","","learning","-5","0","0","0","table","furniture","1","0","","bad","[-6]"
"html-keyboard-response","156","557494","0.0-9.0-2.0-0.42","4494","1","14","Male","approach_avoid_spark_v1","""event"",""trial"",""time""
""fullscreenenter"",""1"",""3394""
","
","
","""event"",""trial"",""time""
""fullscreenenter"",""1"",""3394""
","
","","","","","","null","<div style=""font-size:60px;"">+</div>","null","","fixation","","","","","","","","","","",""
"aa-learning-trial","157","560496","0.0-9.0-2.0-1.42","4494","1","14","Male","approach_avoid_spark_v1","""event"",""trial"",""time""
""fullscreenenter"",""1"",""3394""
","
","
","""event"",""trial"",""time""
""fullscreenenter"",""1"",""3394""
","
","","","","","","1241.2999999988824","images/bed5.png","","","learning","[1]","1","1","1","bed","furniture","1","0","","neutral","0"
"html-keyboard-response","158","561001","0.0-9.0-2.0-0.43","4494","1","14","Male","approach_avoid_spark_v1","""event"",""trial"",""time""
""fullscreenenter"",""1"",""3394""
","
","
","""event"",""trial"",""time""
""fullscreenenter"",""1"",""3394""
","
","","","","","","null","<div style=""font-size:60px;"">+</div>","null","","fixation","","","","","","","","","","",""
"aa-learning-trial","159","564004","0.0-9.0-2.0-1.43","4494","1","14","Male","approach_avoid_spark_v1","""event"",""trial"",""time""
""fullscreenenter"",""1"",""3394""
","
","
","""event"",""trial"",""time""
""fullscreenenter"",""1"",""3394""
","
","","","","","","2126.0999999996275","images/table3.png","","","learning","-6","-6","1","1","table","furniture","1","0","","bad","[-6]"
"html-keyboard-response","160","564507","0.0-9.0-2.0-0.44","4494","1","14","Male","approach_avoid_spark_v1","""event"",""trial"",""time""
""fullscreenenter"",""1"",""3394""
","
","
","""event"",""trial"",""time""
""fullscreenenter"",""1"",""3394""
","
","","","","","","null","<div style=""font-size:60px;"">+</div>","null","","fixation","","","","","","","","","","",""
"aa-learning-trial","161","567514","0.0-9.0-2.0-1.44","4494","1","14","Male","approach_avoid_spark_v1","""event"",""trial"",""time""
""fullscreenenter"",""1"",""3394""
","
","
","""event"",""trial"",""time""
""fullscreenenter"",""1"",""3394""
","
","","","","","","1115.9000000003725","images/chair1.png","","","learning","6","6","1","1","chair","furniture","1","0","","good","[4]"
"html-keyboard-response","162","568019","0.0-9.0-2.0-0.45","4494","1","14","Male","approach_avoid_spark_v1","""event"",""trial"",""time""
""fullscreenenter"",""1"",""3394""
","
","
","""event"",""trial"",""time""
""fullscreenenter"",""1"",""3394""
","
","","","","","","null","<div style=""font-size:60px;"">+</div>","null","","fixation","","","","","","","","","","",""
"aa-learning-trial","163","571026","0.0-9.0-2.0-1.45","4494","1","14","Male","approach_avoid_spark_v1","""event"",""trial"",""time""
""fullscreenenter"",""1"",""3394""
","
","
","""event"",""trial"",""time""
""fullscreenenter"",""1"",""3394""
","
","","","","","","1900.9000000003725","images/table5.png","","","learning","-4","0","0","0","table","furniture","1","0","","bad","[-6]"
"html-keyboard-response","164","571531","0.0-9.0-2.0-0.46","4494","1","14","Male","approach_avoid_spark_v1","""event"",""trial"",""time""
""fullscreenenter"",""1"",""3394""
","
","
","""event"",""trial"",""time""
""fullscreenenter"",""1"",""3394""
","
","","","","","","null","<div style=""font-size:60px;"">+</div>","null","","fixation","","","","","","","","","","",""
"aa-learning-trial","165","574538","0.0-9.0-2.0-1.46","4494","1","14","Male","approach_avoid_spark_v1","""event"",""trial"",""time""
""fullscreenenter"",""1"",""3394""
","
","
","""event"",""trial"",""time""
""fullscreenenter"",""1"",""3394""
","
","","","","","","883.9000000003725","images/chair3.png","","","learning","3","3","1","1","chair","furniture","1","0","","good","[4]"
"html-keyboard-response","166","575042","0.0-9.0-2.0-0.47","4494","1","14","Male","approach_avoid_spark_v1","""event"",""trial"",""time""
""fullscreenenter"",""1"",""3394""
","
","
","""event"",""trial"",""time""
""fullscreenenter"",""1"",""3394""
","
","","","","","","null","<div style=""font-size:60px;"">+</div>","null","","fixation","","","","","","","","","","",""
"aa-learning-trial","167","578049","0.0-9.0-2.0-1.47","4494","1","14","Male","approach_avoid_spark_v1","""event"",""trial"",""time""
""fullscreenenter"",""1"",""3394""
","
","
","""event"",""trial"",""time""
""fullscreenenter"",""1"",""3394""
","
","","","","","","1716.7000000011176","images/bed1.png","","","learning","-2","0","0","0","bed","furniture","1","0","","neutral","0"
"html-keyboard-response","168","578554","0.0-9.0-2.0-0.48","4494","1","14","Male","approach_avoid_spark_v1","""event"",""trial"",""time""
""fullscreenenter"",""1"",""3394""
","
","
","""event"",""trial"",""time""
""fullscreenenter"",""1"",""3394""
","
","","","","","","null","<div style=""font-size:60px;"">+</div>","null","","fixation","","","","","","","","","","",""
"aa-learning-trial","169","581561","0.0-9.0-2.0-1.48","4494","1","14","Male","approach_avoid_spark_v1","""event"",""trial"",""time""
""fullscreenenter"",""1"",""3394""
","
","
","""event"",""trial"",""time""
""fullscreenenter"",""1"",""3394""
","
","","","","","","1027.9000000003725","images/bed1.png","","","learning","1","0","0","0","bed","furniture","1","0","","neutral","0"
"html-keyboard-response","170","582066","0.0-9.0-2.0-0.49","4494","1","14","Male","approach_avoid_spark_v1","""event"",""trial"",""time""
""fullscreenenter"",""1"",""3394""
","
","
","""event"",""trial"",""time""
""fullscreenenter"",""1"",""3394""
","
","","","","","","null","<div style=""font-size:60px;"">+</div>","null","","fixation","","","","","","","","","","",""
"aa-learning-trial","171","585073","0.0-9.0-2.0-1.49","4494","1","14","Male","approach_avoid_spark_v1","""event"",""trial"",""time""
""fullscreenenter"",""1"",""3394""
","
","
","""event"",""trial"",""time""
""fullscreenenter"",""1"",""3394""
","
","","","","","","1052.9000000003725","images/table5.png","","","learning","-7","0","0","0","table","furniture","1","0","","bad","[-6]"
"html-keyboard-response","172","585578","0.0-9.0-2.0-0.50","4494","1","14","Male","approach_avoid_spark_v1","""event"",""trial"",""time""
""fullscreenenter"",""1"",""3394""
","
","
","""event"",""trial"",""time""
""fullscreenenter"",""1"",""3394""
","
","","","","","","null","<div style=""font-size:60px;"">+</div>","null","","fixation","","","","","","","","","","",""
"aa-learning-trial","173","588585","0.0-9.0-2.0-1.50","4494","1","14","Male","approach_avoid_spark_v1","""event"",""trial"",""time""
""fullscreenenter"",""1"",""3394""
","
","
","""event"",""trial"",""time""
""fullscreenenter"",""1"",""3394""
","
","","","","","","972","images/table2.png","","","learning","-5","0","0","0","table","furniture","1","0","","bad","[-6]"
"html-button-response","174","594514","0.0-9.0-3.0","4494","1","14","Male","approach_avoid_spark_v1","""event"",""trial"",""time""
""fullscreenenter"",""1"",""3394""
","
","
","""event"",""trial"",""time""
""fullscreenenter"",""1"",""3394""
","
","","","","","","5928.199999999255","<p> You have completed the round! <p> In this round, you earned 6 points! </p>","0","","break","","","","","","","","","","",""
"html-button-response","175","596798","0.0-10.0","4494","1","14","Male","approach_avoid_spark_v1","""event"",""trial"",""time""
""fullscreenenter"",""1"",""3394""
","
","
","""event"",""trial"",""time""
""fullscreenenter"",""1"",""3394""
","
","","","","","","2282.5999999996275","<p> Now it's time to play another round. </p>","0","","transition_screen","","","","","","","","","","",""
"preload","176","596922","0.0-11.0-0.0","4494","1","14","Male","approach_avoid_spark_v1","""event"",""trial"",""time""
""fullscreenenter"",""1"",""3394""
","
","
","""event"",""trial"",""time""
""fullscreenenter"",""1"",""3394""
","
","true","false","[]","[]","[]","","","","","","","","","","","","","","","",""
"learning-instructions","177","603982","0.0-11.0-1.0-0.0","4494","1","14","Male","approach_avoid_spark_v1","""event"",""trial"",""time""
""fullscreenenter"",""1"",""3394""
","
","
","""event"",""trial"",""time""
""fullscreenenter"",""1"",""3394""
","
","","","","","","1757.699999999255","<p> Your goal in this round is to sell different plants to a picky customer. </p></div>","","0","instructions","","","","","","","","","","",""
"learning-instructions","178","616952","0.0-11.0-1.0-0.1","4494","1","14","Male","approach_avoid_spark_v1","""event"",""trial"",""time""
""fullscreenenter"",""1"",""3394""
","
","
","""event"",""trial"",""time""
""fullscreenenter"",""1"",""3394""
","
","","","","","","3924.39999999851","<p> The customer likes some plants and dislikes others.  </p><p> On each turn, you will see a plant.   </p><p> You need to decide whether to offer it to the customer or not.  </p>","","0","instructions","","","","","","","","","","",""
"learning-instructions","179","632421","0.0-11.0-1.0-0.2","4494","1","14","Male","approach_avoid_spark_v1","""event"",""trial"",""time""
""fullscreenenter"",""1"",""3394""
","
","
","""event"",""trial"",""time""
""fullscreenenter"",""1"",""3394""
","
","","","","","","10088.700000001118","<p> You can offer the plant by pressing 1 and decide to not offer it by pressing 0. </p><br><div class=""choice-instructions-grid""> <div class=""choice-option""><img src=""images/approach.png"" class=""choice-option-img"" stage=""instructions"" position=""0"" ><div class=""choice-option-text""> Press ""1."" </div></div><div class=""choice-option""><img src=""images/avoid.png"" class=""choice-option-img"" stage=""instructions"" position=""1"" ><div class=""choice-option-text""> Press ""0."" </div></div>","","0","instructions","","","","","","","","","","",""
"learning-instructions","180","641640","0.0-11.0-1.0-0.3","4494","1","14","Male","approach_avoid_spark_v1","""event"",""trial"",""time""
""fullscreenenter"",""1"",""3394""
","
","
","""event"",""trial"",""time""
""fullscreenenter"",""1"",""3394""
","
","","","","","","569.7000000011176","<p> If you offer a plant to the customer that she likes, she will be very pleased! </p><p> But if you offer a plant that she does NOT like, she will be annoyed. </p>","","0","instructions","","","","","","","","","","",""
"learning-instructions","181","658244","0.0-11.0-1.0-0.4","4494","1","14","Male","approach_avoid_spark_v1","""event"",""trial"",""time""
""fullscreenenter"",""1"",""3394""
","
","
","""event"",""trial"",""time""
""fullscreenenter"",""1"",""3394""
","
","","","","","","4171.199999999255","<p> You will earn points based on how you made the customer feel. </p><p> If you made her pleased, you will WIN anywhere from 1 - 9 points, </p><p> but if you made her annoyed, you will LOSE anywhere from 1 - 9 points. </p>","","0","instructions","","","","","","","","","","",""
"learning-instructions","182","665678","0.0-11.0-1.0-0.5","4494","1","14","Male","approach_avoid_spark_v1","""event"",""trial"",""time""
""fullscreenenter"",""1"",""3394""
","
","
","""event"",""trial"",""time""
""fullscreenenter"",""1"",""3394""
","
","","","","","","786.0999999996275","<p> You will see how many points you won or lost in the center of the screen. </p><p> Here is what you would see if you won 5 points: </p><p style=""color:green;font-size:50px;font-weight:bolder"">5</p>","","0","instructions","","","","","","","","","","",""
"learning-instructions","183","669129","0.0-11.0-1.0-0.6","4494","1","14","Male","approach_avoid_spark_v1","""event"",""trial"",""time""
""fullscreenenter"",""1"",""3394""
","
","
","""event"",""trial"",""time""
""fullscreenenter"",""1"",""3394""
","
","","","","","","620.0999999996275","<p> And here is what you would see if you lost 3 points: </p><p style=""color:red;font-size:50px;font-weight:bolder"">-3</p>","","0","instructions","","","","","","","","","","",""
"learning-instructions","184","684400","0.0-11.0-1.0-0.7","4494","1","14","Male","approach_avoid_spark_v1","""event"",""trial"",""time""
""fullscreenenter"",""1"",""3394""
","
","
","""event"",""trial"",""time""
""fullscreenenter"",""1"",""3394""
","
","","","","","","822.0999999996275","<p> Some plants will make the customer VERY pleased or annoyed. </p><p> These plants will make you win or lose LOTS of points. </p><p> The customer will have less strong feelings about other plants. </p><p> These plants will make you win or lose small amounts of points. </p>","","0","instructions","","","","","","","","","","",""
"learning-instructions","185","697103","0.0-11.0-1.0-0.8","4494","1","14","Male","approach_avoid_spark_v1","""event"",""trial"",""time""
""fullscreenenter"",""1"",""3394""
","
","
","""event"",""trial"",""time""
""fullscreenenter"",""1"",""3394""
","
","","","","","","487.69999999925494","<p> If you choose to not offer the plant to the customer, you will not win or lose any points. </p><p>  However, in the center of the screen, you will see the number of points you WOULD HAVE won or lost if you had offered the plant. </p>","","0","instructions","","","","","","","","","","",""
"learning-instructions","186","709640","0.0-11.0-1.0-0.9","4494","1","14","Male","approach_avoid_spark_v1","""event"",""trial"",""time""
""fullscreenenter"",""1"",""3394""
","
","
","""event"",""trial"",""time""
""fullscreenenter"",""1"",""3394""
","
","","","","","","1397.800000000745","<p> Here is what you might see if you did not offer the plant but the customer would have liked it: </p><p style=""color:grey; font-size:50px; display: inline-block; border-spacing: 15px; border-width:3px; border-style:solid; border-color:red"">  &nbsp; 6 &nbsp; </p><p> Remember, in this case, you would not win or lose ANY points because you did not offer the plant.  </p>","","0","instructions","","","","","","","","","","",""
"learning-instructions","187","717660","0.0-11.0-1.0-0.10","4494","1","14","Male","approach_avoid_spark_v1","""event"",""trial"",""time""
""fullscreenenter"",""1"",""3394""
","
","
","""event"",""trial"",""time""
""fullscreenenter"",""1"",""3394""
","
","","","","","","675.2999999988824","<p> Try to make the best choice for each plant because </p><p> at the end of the game, you will earn bonus money based on how many points you earned. </p>","","0","instructions","","","","","","","","","","",""
"learning-instructions","188","726344","0.0-11.0-1.0-0.11","4494","1","14","Male","approach_avoid_spark_v1","""event"",""trial"",""time""
""fullscreenenter"",""1"",""3394""
","
","
","""event"",""trial"",""time""
""fullscreenenter"",""1"",""3394""
","
","","","","","","501.90000000037253","<p> You will have 3 seconds to make each choice. Try to respond before time runs out! </p><p> You will lose 5 points each time you do not make a response. </p>","","0","instructions","","","","","","","","","","",""
"html-keyboard-response","189","726950","0.0-11.0-2.0-0.0","4494","1","14","Male","approach_avoid_spark_v1","""event"",""trial"",""time""
""fullscreenenter"",""1"",""3394""
","
","
","""event"",""trial"",""time""
""fullscreenenter"",""1"",""3394""
","
","","","","","","null","<div style=""font-size:60px;"">+</div>","null","","fixation","","","","","","","","","","",""
"aa-learning-trial","190","729955","0.0-11.0-2.0-1.0","4494","1","14","Male","approach_avoid_spark_v1","""event"",""trial"",""time""
""fullscreenenter"",""1"",""3394""
","
","
","""event"",""trial"",""time""
""fullscreenenter"",""1"",""3394""
","
","","","","","","1985.1000000014901","images/flower5.png","","","learning","8","8","1","1","flower","plants","2","1","","good","[6]"
"html-keyboard-response","191","730456","0.0-11.0-2.0-0.1","4494","1","14","Male","approach_avoid_spark_v1","""event"",""trial"",""time""
""fullscreenenter"",""1"",""3394""
","
","
","""event"",""trial"",""time""
""fullscreenenter"",""1"",""3394""
","
","","","","","","null","<div style=""font-size:60px;"">+</div>","null","","fixation","","","","","","","","","","",""
"aa-learning-trial","192","733462","0.0-11.0-2.0-1.1","4494","1","14","Male","approach_avoid_spark_v1","""event"",""trial"",""time""
""fullscreenenter"",""1"",""3394""
","
","
","""event"",""trial"",""time""
""fullscreenenter"",""1"",""3394""
","
","","","","","","1398.7999999988824","images/cactus1.png","","","learning","4","-5","-","","cactus","plants","2","1","","bad","[-3]"
"html-keyboard-response","193","733963","0.0-11.0-2.0-0.2","4494","1","14","Male","approach_avoid_spark_v1","""event"",""trial"",""time""
""fullscreenenter"",""1"",""3394""
","
","
","""event"",""trial"",""time""
""fullscreenenter"",""1"",""3394""
","
","","","","","","null","<div style=""font-size:60px;"">+</div>","null","","fixation","","","","","","","","","","",""
"aa-learning-trial","194","736966","0.0-11.0-2.0-1.2","4494","1","14","Male","approach_avoid_spark_v1","""event"",""trial"",""time""
""fullscreenenter"",""1"",""3394""
","
","
","""event"",""trial"",""time""
""fullscreenenter"",""1"",""3394""
","
","","","","","","2140.0999999996275","images/tree4.png","","","learning","2","2","1","1","tree","plants","2","1","","neutral","0"
"html-keyboard-response","195","737469","0.0-11.0-2.0-0.3","4494","1","14","Male","approach_avoid_spark_v1","""event"",""trial"",""time""
""fullscreenenter"",""1"",""3394""
","
","
","""event"",""trial"",""time""
""fullscreenenter"",""1"",""3394""
","
","","","","","","null","<div style=""font-size:60px;"">+</div>","null","","fixation","","","","","","","","","","",""
"aa-learning-trial","196","740474","0.0-11.0-2.0-1.3","4494","1","14","Male","approach_avoid_spark_v1","""event"",""trial"",""time""
""fullscreenenter"",""1"",""3394""
","
","
","""event"",""trial"",""time""
""fullscreenenter"",""1"",""3394""
","
","","","","","","715.4000000003725","images/flower6.png","","","learning","3","3","1","1","flower","plants","2","1","","good","[6]"
"html-keyboard-response","197","740980","0.0-11.0-2.0-0.4","4494","1","14","Male","approach_avoid_spark_v1","""event"",""trial"",""time""
""fullscreenenter"",""1"",""3394""
","
","
","""event"",""trial"",""time""
""fullscreenenter"",""1"",""3394""
","
","","","","","","null","<div style=""font-size:60px;"">+</div>","null","","fixation","","","","","","","","","","",""
"aa-learning-trial","198","743987","0.0-11.0-2.0-1.4","4494","1","14","Male","approach_avoid_spark_v1","""event"",""trial"",""time""
""fullscreenenter"",""1"",""3394""
","
","
","""event"",""trial"",""time""
""fullscreenenter"",""1"",""3394""
","
","","","","","","809.8999999985099","images/tree5.png","","","learning","-4","0","0","0","tree","plants","2","1","","neutral","0"
"html-keyboard-response","199","744492","0.0-11.0-2.0-0.5","4494","1","14","Male","approach_avoid_spark_v1","""event"",""trial"",""time""
""fullscreenenter"",""1"",""3394""
","
","
","""event"",""trial"",""time""
""fullscreenenter"",""1"",""3394""
","
","","","","","","null","<div style=""font-size:60px;"">+</div>","null","","fixation","","","","","","","","","","",""
"aa-learning-trial","200","747499","0.0-11.0-2.0-1.5","4494","1","14","Male","approach_avoid_spark_v1","""event"",""trial"",""time""
""fullscreenenter"",""1"",""3394""
","
","
","""event"",""trial"",""time""
""fullscreenenter"",""1"",""3394""
","
","","","","","","898.4000000003725","images/flower5.png","","","learning","8","8","1","1","flower","plants","2","1","","good","[6]"
"html-keyboard-response","201","748002","0.0-11.0-2.0-0.6","4494","1","14","Male","approach_avoid_spark_v1","""event"",""trial"",""time""
""fullscreenenter"",""1"",""3394""
","
","
","""event"",""trial"",""time""
""fullscreenenter"",""1"",""3394""
","
","","","","","","null","<div style=""font-size:60px;"">+</div>","null","","fixation","","","","","","","","","","",""
"aa-learning-trial","202","751009","0.0-11.0-2.0-1.6","4494","1","14","Male","approach_avoid_spark_v1","""event"",""trial"",""time""
""fullscreenenter"",""1"",""3394""
","
","
","""event"",""trial"",""time""
""fullscreenenter"",""1"",""3394""
","
","","","","","","804.3999999985099","images/flower6.png","","","learning","3","3","1","1","flower","plants","2","1","","good","[6]"
"html-keyboard-response","203","751510","0.0-11.0-2.0-0.7","4494","1","14","Male","approach_avoid_spark_v1","""event"",""trial"",""time""
""fullscreenenter"",""1"",""3394""
","
","
","""event"",""trial"",""time""
""fullscreenenter"",""1"",""3394""
","
","","","","","","null","<div style=""font-size:60px;"">+</div>","null","","fixation","","","","","","","","","","",""
"aa-learning-trial","204","754517","0.0-11.0-2.0-1.7","4494","1","14","Male","approach_avoid_spark_v1","""event"",""trial"",""time""
""fullscreenenter"",""1"",""3394""
","
","
","""event"",""trial"",""time""
""fullscreenenter"",""1"",""3394""
","
","","","","","","1512.0999999996275","images/cactus5.png","","","learning","-5","-5","1","1","cactus","plants","2","1","","bad","[-3]"
"html-keyboard-response","205","755022","0.0-11.0-2.0-0.8","4494","1","14","Male","approach_avoid_spark_v1","""event"",""trial"",""time""
""fullscreenenter"",""1"",""3394""
","
","
","""event"",""trial"",""time""
""fullscreenenter"",""1"",""3394""
","
","","","","","","null","<div style=""font-size:60px;"">+</div>","null","","fixation","","","","","","","","","","",""
"aa-learning-trial","206","758028","0.0-11.0-2.0-1.8","4494","1","14","Male","approach_avoid_spark_v1","""event"",""trial"",""time""
""fullscreenenter"",""1"",""3394""
","
","
","""event"",""trial"",""time""
""fullscreenenter"",""1"",""3394""
","
","","","","","","911.5","images/cactus5.png","","","learning","-5","0","0","0","cactus","plants","2","1","","bad","[-3]"
"html-keyboard-response","207","758528","0.0-11.0-2.0-0.9","4494","1","14","Male","approach_avoid_spark_v1","""event"",""trial"",""time""
""fullscreenenter"",""1"",""3394""
","
","
","""event"",""trial"",""time""
""fullscreenenter"",""1"",""3394""
","
","","","","","","null","<div style=""font-size:60px;"">+</div>","null","","fixation","","","","","","","","","","",""
"aa-learning-trial","208","761536","0.0-11.0-2.0-1.9","4494","1","14","Male","approach_avoid_spark_v1","""event"",""trial"",""time""
""fullscreenenter"",""1"",""3394""
","
","
","""event"",""trial"",""time""
""fullscreenenter"",""1"",""3394""
","
","","","","","","1525.7999999988824","images/cactus1.png","","","learning","4","0","0","0","cactus","plants","2","1","","bad","[-3]"
"html-keyboard-response","209","762041","0.0-11.0-2.0-0.10","4494","1","14","Male","approach_avoid_spark_v1","""event"",""trial"",""time""
""fullscreenenter"",""1"",""3394""
","
","
","""event"",""trial"",""time""
""fullscreenenter"",""1"",""3394""
","
","","","","","","null","<div style=""font-size:60px;"">+</div>","null","","fixation","","","","","","","","","","",""
"aa-learning-trial","210","765048","0.0-11.0-2.0-1.10","4494","1","14","Male","approach_avoid_spark_v1","""event"",""trial"",""time""
""fullscreenenter"",""1"",""3394""
","
","
","""event"",""trial"",""time""
""fullscreenenter"",""1"",""3394""
","
","","","","","","1420.0999999996275","images/tree4.png","","","learning","2","0","0","0","tree","plants","2","1","","neutral","0"
"html-keyboard-response","211","765553","0.0-11.0-2.0-0.11","4494","1","14","Male","approach_avoid_spark_v1","""event"",""trial"",""time""
""fullscreenenter"",""1"",""3394""
","
","
","""event"",""trial"",""time""
""fullscreenenter"",""1"",""3394""
","
","","","","","","null","<div style=""font-size:60px;"">+</div>","null","","fixation","","","","","","","","","","",""
"aa-learning-trial","212","768560","0.0-11.0-2.0-1.11","4494","1","14","Male","approach_avoid_spark_v1","""event"",""trial"",""time""
""fullscreenenter"",""1"",""3394""
","
","
","""event"",""trial"",""time""
""fullscreenenter"",""1"",""3394""
","
","","","","","","2397","images/flower8.png","","","learning","-6","0","0","0","flower","plants","2","1","","good","[6]"
"html-keyboard-response","213","769065","0.0-11.0-2.0-0.12","4494","1","14","Male","approach_avoid_spark_v1","""event"",""trial"",""time""
""fullscreenenter"",""1"",""3394""
","
","
","""event"",""trial"",""time""
""fullscreenenter"",""1"",""3394""
","
","","","","","","null","<div style=""font-size:60px;"">+</div>","null","","fixation","","","","","","","","","","",""
"aa-learning-trial","214","772067","0.0-11.0-2.0-1.12","4494","1","14","Male","approach_avoid_spark_v1","""event"",""trial"",""time""
""fullscreenenter"",""1"",""3394""
","
","
","""event"",""trial"",""time""
""fullscreenenter"",""1"",""3394""
","
","","","","","","1725.199999999255","images/tree2.png","","","learning","5","5","1","1","tree","plants","2","1","","neutral","0"
"html-keyboard-response","215","772571","0.0-11.0-2.0-0.13","4494","1","14","Male","approach_avoid_spark_v1","""event"",""trial"",""time""
""fullscreenenter"",""1"",""3394""
","
","
","""event"",""trial"",""time""
""fullscreenenter"",""1"",""3394""
","
","","","","","","null","<div style=""font-size:60px;"">+</div>","null","","fixation","","","","","","","","","","",""
"aa-learning-trial","216","775578","0.0-11.0-2.0-1.13","4494","1","14","Male","approach_avoid_spark_v1","""event"",""trial"",""time""
""fullscreenenter"",""1"",""3394""
","
","
","""event"",""trial"",""time""
""fullscreenenter"",""1"",""3394""
","
","","","","","","1010.5","images/cactus2.png","","","learning","-2","0","0","0","cactus","plants","2","1","","bad","[-3]"
"html-keyboard-response","217","776082","0.0-11.0-2.0-0.14","4494","1","14","Male","approach_avoid_spark_v1","""event"",""trial"",""time""
""fullscreenenter"",""1"",""3394""
","
","
","""event"",""trial"",""time""
""fullscreenenter"",""1"",""3394""
","
","","","","","","null","<div style=""font-size:60px;"">+</div>","null","","fixation","","","","","","","","","","",""
"aa-learning-trial","218","779089","0.0-11.0-2.0-1.14","4494","1","14","Male","approach_avoid_spark_v1","""event"",""trial"",""time""
""fullscreenenter"",""1"",""3394""
","
","
","""event"",""trial"",""time""
""fullscreenenter"",""1"",""3394""
","
","","","","","","1298.5","images/tree5.png","","","learning","-4","-4","1","1","tree","plants","2","1","","neutral","0"
"html-keyboard-response","219","779594","0.0-11.0-2.0-0.15","4494","1","14","Male","approach_avoid_spark_v1","""event"",""trial"",""time""
""fullscreenenter"",""1"",""3394""
","
","
","""event"",""trial"",""time""
""fullscreenenter"",""1"",""3394""
","
","","","","","","null","<div style=""font-size:60px;"">+</div>","null","","fixation","","","","","","","","","","",""
"aa-learning-trial","220","782601","0.0-11.0-2.0-1.15","4494","1","14","Male","approach_avoid_spark_v1","""event"",""trial"",""time""
""fullscreenenter"",""1"",""3394""
","
","
","""event"",""trial"",""time""
""fullscreenenter"",""1"",""3394""
","
","","","","","","1115.0999999996275","images/cactus1.png","","","learning","4","0","0","0","cactus","plants","2","1","","bad","[-3]"
"html-keyboard-response","221","783106","0.0-11.0-2.0-0.16","4494","1","14","Male","approach_avoid_spark_v1","""event"",""trial"",""time""
""fullscreenenter"",""1"",""3394""
","
","
","""event"",""trial"",""time""
""fullscreenenter"",""1"",""3394""
","
","","","","","","null","<div style=""font-size:60px;"">+</div>","null","","fixation","","","","","","","","","","",""
"aa-learning-trial","222","786113","0.0-11.0-2.0-1.16","4494","1","14","Male","approach_avoid_spark_v1","""event"",""trial"",""time""
""fullscreenenter"",""1"",""3394""
","
","
","""event"",""trial"",""time""
""fullscreenenter"",""1"",""3394""
","
","","","","","","1050.800000000745","images/cactus5.png","","","learning","-5","0","0","0","cactus","plants","2","1","","bad","[-3]"
"html-keyboard-response","223","786618","0.0-11.0-2.0-0.17","4494","1","14","Male","approach_avoid_spark_v1","""event"",""trial"",""time""
""fullscreenenter"",""1"",""3394""
","
","
","""event"",""trial"",""time""
""fullscreenenter"",""1"",""3394""
","
","","","","","","null","<div style=""font-size:60px;"">+</div>","null","","fixation","","","","","","","","","","",""
"aa-learning-trial","224","789625","0.0-11.0-2.0-1.17","4494","1","14","Male","approach_avoid_spark_v1","""event"",""trial"",""time""
""fullscreenenter"",""1"",""3394""
","
","
","""event"",""trial"",""time""
""fullscreenenter"",""1"",""3394""
","
","","","","","","1002.5999999996275","images/tree5.png","","","learning","-4","-4","1","1","tree","plants","2","1","","neutral","0"
"html-keyboard-response","225","790126","0.0-11.0-2.0-0.18","4494","1","14","Male","approach_avoid_spark_v1","""event"",""trial"",""time""
""fullscreenenter"",""1"",""3394""
","
","
","""event"",""trial"",""time""
""fullscreenenter"",""1"",""3394""
","
","","","","","","null","<div style=""font-size:60px;"">+</div>","null","","fixation","","","","","","","","","","",""
"aa-learning-trial","226","793131","0.0-11.0-2.0-1.18","4494","1","14","Male","approach_avoid_spark_v1","""event"",""trial"",""time""
""fullscreenenter"",""1"",""3394""
","
","
","""event"",""trial"",""time""
""fullscreenenter"",""1"",""3394""
","
","","","","","","1150","images/tree4.png","","","learning","2","2","1","1","tree","plants","2","1","","neutral","0"
"html-keyboard-response","227","793636","0.0-11.0-2.0-0.19","4494","1","14","Male","approach_avoid_spark_v1","""event"",""trial"",""time""
""fullscreenenter"",""1"",""3394""
","
","
","""event"",""trial"",""time""
""fullscreenenter"",""1"",""3394""
","
","","","","","","null","<div style=""font-size:60px;"">+</div>","null","","fixation","","","","","","","","","","",""
"aa-learning-trial","228","796643","0.0-11.0-2.0-1.19","4494","1","14","Male","approach_avoid_spark_v1","""event"",""trial"",""time""
""fullscreenenter"",""1"",""3394""
","
","
","""event"",""trial"",""time""
""fullscreenenter"",""1"",""3394""
","
","","","","","","1001.2999999988824","images/tree5.png","","","learning","-4","0","0","0","tree","plants","2","1","","neutral","0"
"html-keyboard-response","229","797144","0.0-11.0-2.0-0.20","4494","1","14","Male","approach_avoid_spark_v1","""event"",""trial"",""time""
""fullscreenenter"",""1"",""3394""
","
","
","""event"",""trial"",""time""
""fullscreenenter"",""1"",""3394""
","
","","","","","","null","<div style=""font-size:60px;"">+</div>","null","","fixation","","","","","","","","","","",""
"aa-learning-trial","230","800148","0.0-11.0-2.0-1.20","4494","1","14","Male","approach_avoid_spark_v1","""event"",""trial"",""time""
""fullscreenenter"",""1"",""3394""
","
","
","""event"",""trial"",""time""
""fullscreenenter"",""1"",""3394""
","
","","","","","","2020.300000000745","images/tree6.png","","","learning","-9","-9","1","1","tree","plants","2","1","","neutral","0"
"html-keyboard-response","231","800654","0.0-11.0-2.0-0.21","4494","1","14","Male","approach_avoid_spark_v1","""event"",""trial"",""time""
""fullscreenenter"",""1"",""3394""
","
","
","""event"",""trial"",""time""
""fullscreenenter"",""1"",""3394""
","
","","","","","","null","<div style=""font-size:60px;"">+</div>","null","","fixation","","","","","","","","","","",""
"aa-learning-trial","232","803661","0.0-11.0-2.0-1.21","4494","1","14","Male","approach_avoid_spark_v1","""event"",""trial"",""time""
""fullscreenenter"",""1"",""3394""
","
","
","""event"",""trial"",""time""
""fullscreenenter"",""1"",""3394""
","
","","","","","","1470.199999999255","images/cactus3.png","","","learning","7","0","0","0","cactus","plants","2","1","","bad","[-3]"
"html-keyboard-response","233","804166","0.0-11.0-2.0-0.22","4494","1","14","Male","approach_avoid_spark_v1","""event"",""trial"",""time""
""fullscreenenter"",""1"",""3394""
","
","
","""event"",""trial"",""time""
""fullscreenenter"",""1"",""3394""
","
","","","","","","null","<div style=""font-size:60px;"">+</div>","null","","fixation","","","","","","","","","","",""
"aa-learning-trial","234","807173","0.0-11.0-2.0-1.22","4494","1","14","Male","approach_avoid_spark_v1","""event"",""trial"",""time""
""fullscreenenter"",""1"",""3394""
","
","
","""event"",""trial"",""time""
""fullscreenenter"",""1"",""3394""
","
","","","","","","1326.699999999255","images/cactus1.png","","","learning","4","4","1","1","cactus","plants","2","1","","bad","[-3]"
"html-keyboard-response","235","807678","0.0-11.0-2.0-0.23","4494","1","14","Male","approach_avoid_spark_v1","""event"",""trial"",""time""
""fullscreenenter"",""1"",""3394""
","
","
","""event"",""trial"",""time""
""fullscreenenter"",""1"",""3394""
","
","","","","","","null","<div style=""font-size:60px;"">+</div>","null","","fixation","","","","","","","","","","",""
"aa-learning-trial","236","810684","0.0-11.0-2.0-1.23","4494","1","14","Male","approach_avoid_spark_v1","""event"",""trial"",""time""
""fullscreenenter"",""1"",""3394""
","
","
","""event"",""trial"",""time""
""fullscreenenter"",""1"",""3394""
","
","","","","","","1838.5","images/tree2.png","","","learning","5","0","0","0","tree","plants","2","1","","neutral","0"
