"trial_type","trial_index","time_elapsed","internal_node_id","subject_id","task_condition","age","gender","task_version","interactions","blur_events","focus_events","fullscreenenter_events","fullscreenexit_events","success","timeout","failed_images","failed_audio","failed_video","rt","stimulus","response","button_pressed","task_part","approach_reward","points","key_press","option_selected","stim_cat","task_block","block_condition","block_number","correct","cat_type","mean_cat_reward"
"pavlovia","0","6","0.0-0.0","4045","2","17","Female","approach_avoid_spark_v1","""event"",""trial"",""time""
""fullscreenenter"",""1"",""1710""
","
","
","""event"",""trial"",""time""
""fullscreenenter"",""1"",""1710""
","
","","","","","","","","","","","","","","","","","","","","",""
"fullscreen","1","2699","0.0-1.0","4045","2","17","Female","approach_avoid_spark_v1","""event"",""trial"",""time""
""fullscreenenter"",""1"",""1710""
","
","
","""event"",""trial"",""time""
""fullscreenenter"",""1"",""1710""
","
","true","","","","","","","","","","","","","","","","","","","",""
"preload","2","9035","0.0-2.0","4045","2","17","Female","approach_avoid_spark_v1","""event"",""trial"",""time""
""fullscreenenter"",""1"",""1710""
","
","
","""event"",""trial"",""time""
""fullscreenenter"",""1"",""1710""
","
","true","false","[]","[]","[]","","","","","","","","","","","","","","","",""
"audio-keyboard-response","3","11159","0.0-3.0","4045","2","17","Female","approach_avoid_spark_v1","""event"",""trial"",""time""
""fullscreenenter"",""1"",""1710""
","
","
","""event"",""trial"",""time""
""fullscreenenter"",""1"",""1710""
","
","","","","","","2120.000000000001","audio/beep_loop.wav"," ","","","","","","","","","","","","",""
"audio-button-response","4","13153","0.0-4.0","4045","2","17","Female","approach_avoid_spark_v1","""event"",""trial"",""time""
""fullscreenenter"",""1"",""1710""
","
","
","""event"",""trial"",""time""
""fullscreenenter"",""1"",""1710""
","
","","","","","","1992","audio/shark.wav","4","","","","","","","","","","","","",""
"audio-button-response","5","15757","0.0-5.0","4045","2","17","Female","approach_avoid_spark_v1","""event"",""trial"",""time""
""fullscreenenter"",""1"",""1710""
","
","
","""event"",""trial"",""time""
""fullscreenenter"",""1"",""1710""
","
","","","","","","1589","audio/turtle.wav","1","","","","","","","","","","","","",""
"preload","6","19691","0.0-6.0","4045","2","17","Female","approach_avoid_spark_v1","""event"",""trial"",""time""
""fullscreenenter"",""1"",""1710""
","
","
","""event"",""trial"",""time""
""fullscreenenter"",""1"",""1710""
","
","true","false","[]","[]","[]","","","","","","","","","","","","","","","",""
"html-keyboard-response","7","24266","0.0-7.0","4045","2","17","Female","approach_avoid_spark_v1","""event"",""trial"",""time""
""fullscreenenter"",""1"",""1710""
","
","
","""event"",""trial"",""time""
""fullscreenenter"",""1"",""1710""
","
","","","","","","4573.600000023842","Welcome to the experiment. Press any key to begin and to advance the instructions."," ","","","","","","","","","","","","",""
"learning-instructions","8","35169","0.0-8.0-0.0-0.0","4045","2","17","Female","approach_avoid_spark_v1","""event"",""trial"",""time""
""fullscreenenter"",""1"",""1710""
","
","
","""event"",""trial"",""time""
""fullscreenenter"",""1"",""1710""
","
","","","","","","3944.600000023842","<p> Welcome! Today you are going to play 6 different rounds of a decision-making game. </p><p> Use the mouse to click next to continue. </p>","","0","instructions","","","","","","","","","","",""
"learning-instructions","9","39240","0.0-8.0-0.0-0.1","4045","2","17","Female","approach_avoid_spark_v1","""event"",""trial"",""time""
""fullscreenenter"",""1"",""1710""
","
","
","""event"",""trial"",""time""
""fullscreenenter"",""1"",""1710""
","
","","","","","","1336.2999999523163","<p> You will start with a practice round to learn the rules. </p>","","0","instructions","","","","","","","","","","",""
"learning-instructions","10","43690","0.0-8.0-0.0-0.2","4045","2","17","Female","approach_avoid_spark_v1","""event"",""trial"",""time""
""fullscreenenter"",""1"",""1710""
","
","
","""event"",""trial"",""time""
""fullscreenenter"",""1"",""1710""
","
","","","","","","996.2000000476837","<p> Your goal in this round is to give out sports equipment to kids. </p></div>","","0","instructions","","","","","","","","","","",""
"learning-instructions","11","52624","0.0-8.0-0.0-0.3","4045","2","17","Female","approach_avoid_spark_v1","""event"",""trial"",""time""
""fullscreenenter"",""1"",""1710""
","
","
","""event"",""trial"",""time""
""fullscreenenter"",""1"",""1710""
","
","","","","","","1358.1000000238419","<p> The kids only like some of the equipment.  </p><p> On each turn, you will see a piece of sports equipment.   </p><p> You need to decide whether to give it to the kids or not.  </p>","","0","instructions","","","","","","","","","","",""
"learning-instructions","12","59195","0.0-8.0-0.0-0.4","4045","2","17","Female","approach_avoid_spark_v1","""event"",""trial"",""time""
""fullscreenenter"",""1"",""1710""
","
","
","""event"",""trial"",""time""
""fullscreenenter"",""1"",""1710""
","
","","","","","","1820.6000000238419","<p> You can give them the equipment by pressing 1 and choose not to give it to them by pressing 0. </p><br><div class=""choice-instructions-grid""> <div class=""choice-option""><img src=""images/approach.png"" class=""choice-option-img"" stage=""instructions"" position=""0"" ><div class=""choice-option-text""> Press ""1."" </div></div><div class=""choice-option""><img src=""images/avoid.png"" class=""choice-option-img"" stage=""instructions"" position=""1"" ><div class=""choice-option-text""> Press ""0."" </div></div>","","0","instructions","","","","","","","","","","",""
"learning-instructions","13","68621","0.0-8.0-0.0-0.5","4045","2","17","Female","approach_avoid_spark_v1","""event"",""trial"",""time""
""fullscreenenter"",""1"",""1710""
","
","
","""event"",""trial"",""time""
""fullscreenenter"",""1"",""1710""
","
","","","","","","2037.2000000476837","<p> If you give them a piece of equipment they like, they will be happy! </p><p> But if you give them a piece of equipment they do not like, they will be sad. </p>","","0","instructions","","","","","","","","","","",""
"learning-instructions","14","82073","0.0-8.0-0.0-0.6","4045","2","17","Female","approach_avoid_spark_v1","""event"",""trial"",""time""
""fullscreenenter"",""1"",""1710""
","
","
","""event"",""trial"",""time""
""fullscreenenter"",""1"",""1710""
","
","","","","","","2938.4000000953674","<p> You will earn points based on how you make kids feel. </p><p> If you make them happy, you will WIN anywhere from 1 - 9 points, </p><p> but if you make them sad, you will LOSE anywhere from 1 - 9 points. </p>","","0","instructions","","","","","","","","","","",""
"learning-instructions","15","92948","0.0-8.0-0.0-0.7","4045","2","17","Female","approach_avoid_spark_v1","""event"",""trial"",""time""
""fullscreenenter"",""1"",""1710""
","
","
","""event"",""trial"",""time""
""fullscreenenter"",""1"",""1710""
","
","","","","","","1322.6999999284744","<p> You will see how many points you won or lost in the center of the screen. </p><p> Here is what you would see if you won 6 points: </p><p style=""color:green;font-size:50px;font-weight:bolder"">6</p><p style=""color:green"">The text is GREEN because you WON points.</p>","","0","instructions","","","","","","","","","","",""
"learning-instructions","16","99590","0.0-8.0-0.0-0.8","4045","2","17","Female","approach_avoid_spark_v1","""event"",""trial"",""time""
""fullscreenenter"",""1"",""1710""
","
","
","""event"",""trial"",""time""
""fullscreenenter"",""1"",""1710""
","
","","","","","","1145","<p> And here is what you would see if you lost 4 points: </p><p style=""color:red;font-size:50px;font-weight:bolder"">-4</p><p style=""color:red"">The text is RED because you LOST points. </p>","","0","instructions","","","","","","","","","","",""
"learning-instructions","17","116231","0.0-8.0-0.0-0.9","4045","2","17","Female","approach_avoid_spark_v1","""event"",""trial"",""time""
""fullscreenenter"",""1"",""1710""
","
","
","""event"",""trial"",""time""
""fullscreenenter"",""1"",""1710""
","
","","","","","","1926.6999999284744","<p> Some of the equipment will make the kids VERY happy or sad. </p><p> These pieces of equipment will make you win or lose LOTS of points. </p><p> Other pieces of equipment will only make the kids a little happy or sad. </p><p> These pieces of equipment will make you win or lose small amounts of points. </p>","","0","instructions","","","","","","","","","","",""
"learning-instructions","18","128751","0.0-8.0-0.0-0.10","4045","2","17","Female","approach_avoid_spark_v1","""event"",""trial"",""time""
""fullscreenenter"",""1"",""1710""
","
","
","""event"",""trial"",""time""
""fullscreenenter"",""1"",""1710""
","
","","","","","","1897","<p> If you choose not to give them the equipment, you will not win or lose any points. </p><p>  However, in the center of the screen, you will see the number of points you WOULD HAVE won or lost if you had given them the equipment. </p>","","0","instructions","","","","","","","","","","",""
"learning-instructions","19","152642","0.0-8.0-0.0-0.11","4045","2","17","Female","approach_avoid_spark_v1","""event"",""trial"",""time""
""fullscreenenter"",""1"",""1710""
","
","
","""event"",""trial"",""time""
""fullscreenenter"",""1"",""1710""
","
","","","","","","2358.1999999284744","<p> Here is what you might see if you did not give the equipment to the kids but it would have made them happy: </p><p style=""color:grey; font-size:50px; display: inline-block; border-spacing: 15px; border-width:3px; border-style:solid; border-color:red"">  &nbsp; 7 &nbsp; </p><p> Remember, in this case, you would not win or lose ANY points because you did not give them the equipment.  </p><p style=""color:grey"">The text is GREY because you earned ZERO points. </p><p style=""color:red"">However, choosing to give the kids the equipment would have made you win points. The box around the text is RED because you chose the worse option. </p>","","0","instructions","","","","","","","","","","",""
"learning-instructions","20","176912","0.0-8.0-0.0-0.12","4045","2","17","Female","approach_avoid_spark_v1","""event"",""trial"",""time""
""fullscreenenter"",""1"",""1710""
","
","
","""event"",""trial"",""time""
""fullscreenenter"",""1"",""1710""
","
","","","","","","3198.600000023842","<p> Here is what you might see if you did not give the equipment to the kids but it would have made them sad: </p><p style=""color:grey;font-size:50px; display: inline-block; border-spacing: 15px; border-width:3px; border-style:solid; border-color:green"">  &nbsp; -8 &nbsp; </p><p> Remember, in this case, you would not win or lose ANY points because you did not give them the equipment.  </p><p style=""color:grey"">The text is GREY because you earned ZERO points. </p><p  style=""color:green""> Choosing to give the kids the equipment would have made you lose points. The box around the text is GREEN because you chose the better option.</p>","","0","instructions","","","","","","","","","","",""
"learning-instructions","21","189383","0.0-8.0-0.0-0.13","4045","2","17","Female","approach_avoid_spark_v1","""event"",""trial"",""time""
""fullscreenenter"",""1"",""1710""
","
","
","""event"",""trial"",""time""
""fullscreenenter"",""1"",""1710""
","
","","","","","","3578.7999999523163","<p> You will have 3 seconds to make each choice. Try to respond before time runs out! </p><p> You will lose 5 points each time you do not make a response. </p>","","0","instructions","","","","","","","","","","",""
"learning-instructions","22","196616","0.0-8.0-0.0-0.14","4045","2","17","Female","approach_avoid_spark_v1","""event"",""trial"",""time""
""fullscreenenter"",""1"",""1710""
","
","
","""event"",""trial"",""time""
""fullscreenenter"",""1"",""1710""
","
","","","","","","1812","<p> This is just a practice round, but in the real game, your bonus payment will depend on your total number of points.","","0","instructions","","","","","","","","","","",""
"learning-instructions","23","205402","0.0-8.0-0.0-0.15","4045","2","17","Female","approach_avoid_spark_v1","""event"",""trial"",""time""
""fullscreenenter"",""1"",""1710""
","
","
","""event"",""trial"",""time""
""fullscreenenter"",""1"",""1710""
","
","","","","","","3027.2000000476837","<p> Remember, you can give them the equipment by pressing 1 and choose not to give it to them by pressing 0. </p><br><div class=""choice-instructions-grid""> <div class=""choice-option""><img src=""images/approach.png"" class=""choice-option-img"" stage=""instructions"" position=""0"" ><div class=""choice-option-text""> Press ""1."" </div></div><div class=""choice-option""><img src=""images/avoid.png"" class=""choice-option-img"" stage=""instructions"" position=""1"" ><div class=""choice-option-text""> Press ""0."" </div></div>","","0","instructions","","","","","","","","","","",""
"html-button-response","24","207009","0.0-8.0-1.0","4045","2","17","Female","approach_avoid_spark_v1","""event"",""trial"",""time""
""fullscreenenter"",""1"",""1710""
","
","
","""event"",""trial"",""time""
""fullscreenenter"",""1"",""1710""
","
","","","","","","1495.2000000476837","<p> Ready to practice? </p>","0","","","","","","","","","","","","",""
"html-keyboard-response","25","207629","0.0-8.0-2.0-0.0","4045","2","17","Female","approach_avoid_spark_v1","""event"",""trial"",""time""
""fullscreenenter"",""1"",""1710""
","
","
","""event"",""trial"",""time""
""fullscreenenter"",""1"",""1710""
","
","","","","","","null","<div style=""font-size:60px;"">+</div>","null","","fixation","","","","","","","","","","",""
"aa-learning-trial","26","210637","0.0-8.0-2.0-1.0","4045","2","17","Female","approach_avoid_spark_v1","""event"",""trial"",""time""
""fullscreenenter"",""1"",""1710""
","
","
","""event"",""trial"",""time""
""fullscreenenter"",""1"",""1710""
","
","","","","","","1904","images/ball4.png","","","learning","-8","-8","1","1","practice","practice","practice","-1","","",""
"html-keyboard-response","27","211147","0.0-8.0-2.0-0.1","4045","2","17","Female","approach_avoid_spark_v1","""event"",""trial"",""time""
""fullscreenenter"",""1"",""1710""
","
","
","""event"",""trial"",""time""
""fullscreenenter"",""1"",""1710""
","
","","","","","","null","<div style=""font-size:60px;"">+</div>","null","","fixation","","","","","","","","","","",""
"aa-learning-trial","28","214158","0.0-8.0-2.0-1.1","4045","2","17","Female","approach_avoid_spark_v1","""event"",""trial"",""time""
""fullscreenenter"",""1"",""1710""
","
","
","""event"",""trial"",""time""
""fullscreenenter"",""1"",""1710""
","
","","","","","","737.8999999761581","images/racket3.png","","","learning","-8","-8","1","1","practice","practice","practice","-1","","",""
"html-keyboard-response","29","214673","0.0-8.0-2.0-0.2","4045","2","17","Female","approach_avoid_spark_v1","""event"",""trial"",""time""
""fullscreenenter"",""1"",""1710""
","
","
","""event"",""trial"",""time""
""fullscreenenter"",""1"",""1710""
","
","","","","","","null","<div style=""font-size:60px;"">+</div>","null","","fixation","","","","","","","","","","",""
"aa-learning-trial","30","217690","0.0-8.0-2.0-1.2","4045","2","17","Female","approach_avoid_spark_v1","""event"",""trial"",""time""
""fullscreenenter"",""1"",""1710""
","
","
","""event"",""trial"",""time""
""fullscreenenter"",""1"",""1710""
","
","","","","","","584.5","images/racket4.png","","","learning","3","3","1","1","practice","practice","practice","-1","","",""
"html-keyboard-response","31","218202","0.0-8.0-2.0-0.3","4045","2","17","Female","approach_avoid_spark_v1","""event"",""trial"",""time""
""fullscreenenter"",""1"",""1710""
","
","
","""event"",""trial"",""time""
""fullscreenenter"",""1"",""1710""
","
","","","","","","null","<div style=""font-size:60px;"">+</div>","null","","fixation","","","","","","","","","","",""
"aa-learning-trial","32","221223","0.0-8.0-2.0-1.3","4045","2","17","Female","approach_avoid_spark_v1","""event"",""trial"",""time""
""fullscreenenter"",""1"",""1710""
","
","
","""event"",""trial"",""time""
""fullscreenenter"",""1"",""1710""
","
","","","","","","1453.3999999761581","images/ball2.png","","","learning","-7","0","0","0","practice","practice","practice","-1","","",""
"html-keyboard-response","33","221739","0.0-8.0-2.0-0.4","4045","2","17","Female","approach_avoid_spark_v1","""event"",""trial"",""time""
""fullscreenenter"",""1"",""1710""
","
","
","""event"",""trial"",""time""
""fullscreenenter"",""1"",""1710""
","
","","","","","","null","<div style=""font-size:60px;"">+</div>","null","","fixation","","","","","","","","","","",""
"aa-learning-trial","34","224747","0.0-8.0-2.0-1.4","4045","2","17","Female","approach_avoid_spark_v1","""event"",""trial"",""time""
""fullscreenenter"",""1"",""1710""
","
","
","""event"",""trial"",""time""
""fullscreenenter"",""1"",""1710""
","
","","","","","","592.1000000238419","images/racket3.png","","","learning","7","7","1","1","practice","practice","practice","-1","","",""
"html-keyboard-response","35","225257","0.0-8.0-2.0-0.5","4045","2","17","Female","approach_avoid_spark_v1","""event"",""trial"",""time""
""fullscreenenter"",""1"",""1710""
","
","
","""event"",""trial"",""time""
""fullscreenenter"",""1"",""1710""
","
","","","","","","null","<div style=""font-size:60px;"">+</div>","null","","fixation","","","","","","","","","","",""
"aa-learning-trial","36","228275","0.0-8.0-2.0-1.5","4045","2","17","Female","approach_avoid_spark_v1","""event"",""trial"",""time""
""fullscreenenter"",""1"",""1710""
","
","
","""event"",""trial"",""time""
""fullscreenenter"",""1"",""1710""
","
","","","","","","795.7000000476837","images/racket3.png","","","learning","5","5","1","1","practice","practice","practice","-1","","",""
"html-keyboard-response","37","228787","0.0-8.0-2.0-0.6","4045","2","17","Female","approach_avoid_spark_v1","""event"",""trial"",""time""
""fullscreenenter"",""1"",""1710""
","
","
","""event"",""trial"",""time""
""fullscreenenter"",""1"",""1710""
","
","","","","","","null","<div style=""font-size:60px;"">+</div>","null","","fixation","","","","","","","","","","",""
"aa-learning-trial","38","231797","0.0-8.0-2.0-1.6","4045","2","17","Female","approach_avoid_spark_v1","""event"",""trial"",""time""
""fullscreenenter"",""1"",""1710""
","
","
","""event"",""trial"",""time""
""fullscreenenter"",""1"",""1710""
","
","","","","","","1520.8000000715256","images/ball3.png","","","learning","6","0","0","0","practice","practice","practice","-1","","",""
"html-keyboard-response","39","232309","0.0-8.0-2.0-0.7","4045","2","17","Female","approach_avoid_spark_v1","""event"",""trial"",""time""
""fullscreenenter"",""1"",""1710""
","
","
","""event"",""trial"",""time""
""fullscreenenter"",""1"",""1710""
","
","","","","","","null","<div style=""font-size:60px;"">+</div>","null","","fixation","","","","","","","","","","",""
"aa-learning-trial","40","235312","0.0-8.0-2.0-1.7","4045","2","17","Female","approach_avoid_spark_v1","""event"",""trial"",""time""
""fullscreenenter"",""1"",""1710""
","
","
","""event"",""trial"",""time""
""fullscreenenter"",""1"",""1710""
","
","","","","","","2305.7000000476837","images/racket1.png","","","learning","1","1","1","1","practice","practice","practice","-1","","",""
"html-keyboard-response","41","235815","0.0-8.0-2.0-0.8","4045","2","17","Female","approach_avoid_spark_v1","""event"",""trial"",""time""
""fullscreenenter"",""1"",""1710""
","
","
","""event"",""trial"",""time""
""fullscreenenter"",""1"",""1710""
","
","","","","","","null","<div style=""font-size:60px;"">+</div>","null","","fixation","","","","","","","","","","",""
"aa-learning-trial","42","238819","0.0-8.0-2.0-1.8","4045","2","17","Female","approach_avoid_spark_v1","""event"",""trial"",""time""
""fullscreenenter"",""1"",""1710""
","
","
","""event"",""trial"",""time""
""fullscreenenter"",""1"",""1710""
","
","","","","","","null","images/racket1.png","","","learning","-1","-5","","null","practice","practice","practice","-1","","",""
"html-keyboard-response","43","239321","0.0-8.0-2.0-0.9","4045","2","17","Female","approach_avoid_spark_v1","""event"",""trial"",""time""
""fullscreenenter"",""1"",""1710""
","
","
","""event"",""trial"",""time""
""fullscreenenter"",""1"",""1710""
","
","","","","","","null","<div style=""font-size:60px;"">+</div>","null","","fixation","","","","","","","","","","",""
"aa-learning-trial","44","242325","0.0-8.0-2.0-1.9","4045","2","17","Female","approach_avoid_spark_v1","""event"",""trial"",""time""
""fullscreenenter"",""1"",""1710""
","
","
","""event"",""trial"",""time""
""fullscreenenter"",""1"",""1710""
","
","","","","","","470.90000009536743","images/ball1.png","","","learning","-1","-1","1","1","practice","practice","practice","-1","","",""
"html-keyboard-response","45","242827","0.0-8.0-2.0-0.10","4045","2","17","Female","approach_avoid_spark_v1","""event"",""trial"",""time""
""fullscreenenter"",""1"",""1710""
","
","
","""event"",""trial"",""time""
""fullscreenenter"",""1"",""1710""
","
","","","","","","null","<div style=""font-size:60px;"">+</div>","null","","fixation","","","","","","","","","","",""
"aa-learning-trial","46","245829","0.0-8.0-2.0-1.10","4045","2","17","Female","approach_avoid_spark_v1","""event"",""trial"",""time""
""fullscreenenter"",""1"",""1710""
","
","
","""event"",""trial"",""time""
""fullscreenenter"",""1"",""1710""
","
","","","","","","413.3000000715256","images/racket4.png","","","learning","-1","0","0","0","practice","practice","practice","-1","","",""
"html-keyboard-response","47","246332","0.0-8.0-2.0-0.11","4045","2","17","Female","approach_avoid_spark_v1","""event"",""trial"",""time""
""fullscreenenter"",""1"",""1710""
","
","
","""event"",""trial"",""time""
""fullscreenenter"",""1"",""1710""
","
","","","","","","null","<div style=""font-size:60px;"">+</div>","null","","fixation","","","","","","","","","","",""
"aa-learning-trial","48","249336","0.0-8.0-2.0-1.11","4045","2","17","Female","approach_avoid_spark_v1","""event"",""trial"",""time""
""fullscreenenter"",""1"",""1710""
","
","
","""event"",""trial"",""time""
""fullscreenenter"",""1"",""1710""
","
","","","","","","428.5","images/racket4.png","","","learning","6","0","0","0","practice","practice","practice","-1","","",""
"html-button-response","49","253039","0.0-8.0-3.0","4045","2","17","Female","approach_avoid_spark_v1","""event"",""trial"",""time""
""fullscreenenter"",""1"",""1710""
","
","
","""event"",""trial"",""time""
""fullscreenenter"",""1"",""1710""
","
","","","","","","3700","<p> You earned -6 points in the practice round! </p>","0","","break","","","","","","","","","","",""
"learning-instructions","50","260470","0.0-8.0-4.0-0.0","4045","2","17","Female","approach_avoid_spark_v1","""event"",""trial"",""time""
""fullscreenenter"",""1"",""1710""
","
","
","""event"",""trial"",""time""
""fullscreenenter"",""1"",""1710""
","
","","","","","","1407.2000000476837","<p> It's almost time to start the real game. </p><p> Before you start, we're going to ask you a few questions about how the game works. </p>","","0","instructions","","","","","","","","","","",""
"preload","51","261763","0.0-8.0-5.0","4045","2","17","Female","approach_avoid_spark_v1","""event"",""trial"",""time""
""fullscreenenter"",""1"",""1710""
","
","
","""event"",""trial"",""time""
""fullscreenenter"",""1"",""1710""
","
","true","false","[]","[]","[]","","","","","","","","","","","","","","","",""
"comp-q","52","268513","0.0-8.0-6.0-0.0","4045","2","17","Female","approach_avoid_spark_v1","""event"",""trial"",""time""
""fullscreenenter"",""1"",""1710""
","
","
","""event"",""trial"",""time""
""fullscreenenter"",""1"",""1710""
","
","","","","","","1749.6000000238419","<p> <b> True or False? </b> </p><p> If you see a number in GREY, that means you earned that many points. </p>","","1","comp_question","","","","","","","","","true","",""
"comp-q","53","279244","0.0-8.0-6.0-1.0","4045","2","17","Female","approach_avoid_spark_v1","""event"",""trial"",""time""
""fullscreenenter"",""1"",""1710""
","
","
","""event"",""trial"",""time""
""fullscreenenter"",""1"",""1710""
","
","","","","","","2351.2000000476837","<p><b> That's right! </b> If you see a grey number, it means you earned ZERO points. <br> The grey numbers show the points you WOULD HAVE earned if you had made the other choice. </p>","","0","comp_answer","","","","","","","","","","",""
"comp-q","54","284661","0.0-8.0-7.0-0.0","4045","2","17","Female","approach_avoid_spark_v1","""event"",""trial"",""time""
""fullscreenenter"",""1"",""1710""
","
","
","""event"",""trial"",""time""
""fullscreenenter"",""1"",""1710""
","
","","","","","","716","<p> <b> True or False? </b> </p><p> You will have as much time as you want to make each choice. </p>","","1","comp_question","","","","","","","","","true","",""
"comp-q","55","291482","0.0-8.0-7.0-1.0","4045","2","17","Female","approach_avoid_spark_v1","""event"",""trial"",""time""
""fullscreenenter"",""1"",""1710""
","
","
","""event"",""trial"",""time""
""fullscreenenter"",""1"",""1710""
","
","","","","","","2778.5","<p> <b> That's right! </b> You will only have 3 seconds to make each choice. </p>","","0","comp_answer","","","","","","","","","","",""
"comp-q","56","296858","0.0-8.0-8.0-0.0","4045","2","17","Female","approach_avoid_spark_v1","""event"",""trial"",""time""
""fullscreenenter"",""1"",""1710""
","
","
","""event"",""trial"",""time""
""fullscreenenter"",""1"",""1710""
","
","","","","","","703.3999999761581","<p> <b> True or False? </b> </p><p> You should use the '1' and '0' keys to make your choices. </p>","","0","comp_question","","","","","","","","","true","",""
"comp-q","57","302610","0.0-8.0-8.0-1.0","4045","2","17","Female","approach_avoid_spark_v1","""event"",""trial"",""time""
""fullscreenenter"",""1"",""1710""
","
","
","""event"",""trial"",""time""
""fullscreenenter"",""1"",""1710""
","
","","","","","","1146.6000000238419","<p> <b> That's right! </b> You should use the '1' and '0' keys to make each choice. </p>","","0","comp_answer","","","","","","","","","","",""
"learning-instructions","58","310234","0.0-8.0-9.0-0.0","4045","2","17","Female","approach_avoid_spark_v1","""event"",""trial"",""time""
""fullscreenenter"",""1"",""1710""
","
","
","""event"",""trial"",""time""
""fullscreenenter"",""1"",""1710""
","
","","","","","","1341.6000000238419","<p> It's now time to start the real game. </p>Do your best, because the points you earn in the next rounds will influence your bonus payment. </p>","","0","instructions","","","","","","","","","","",""
"preload","59","310377","0.0-9.0-0.0","4045","2","17","Female","approach_avoid_spark_v1","""event"",""trial"",""time""
""fullscreenenter"",""1"",""1710""
","
","
","""event"",""trial"",""time""
""fullscreenenter"",""1"",""1710""
","
","true","false","[]","[]","[]","","","","","","","","","","","","","","","",""
"learning-instructions","60","317003","0.0-9.0-1.0-0.0","4045","2","17","Female","approach_avoid_spark_v1","""event"",""trial"",""time""
""fullscreenenter"",""1"",""1710""
","
","
","""event"",""trial"",""time""
""fullscreenenter"",""1"",""1710""
","
","","","","","","1288.5999999046326","<p> Your goal in this round is to decorate your friend's new house with furniture. </p></div>","","0","instructions","","","","","","","","","","",""
"learning-instructions","61","329795","0.0-9.0-1.0-0.1","4045","2","17","Female","approach_avoid_spark_v1","""event"",""trial"",""time""
""fullscreenenter"",""1"",""1710""
","
","
","""event"",""trial"",""time""
""fullscreenenter"",""1"",""1710""
","
","","","","","","1321.1000000238419","<p> Your friend likes some pieces of furniture but not others.  </p><p> On each turn, you will see a piece of furniture.   </p><p> You need to decide whether to put it in your friend's house or not.  </p>","","0","instructions","","","","","","","","","","",""
"learning-instructions","62","336775","0.0-9.0-1.0-0.2","4045","2","17","Female","approach_avoid_spark_v1","""event"",""trial"",""time""
""fullscreenenter"",""1"",""1710""
","
","
","""event"",""trial"",""time""
""fullscreenenter"",""1"",""1710""
","
","","","","","","819.3999999761581","<p> You can put the furniture in her house by pressing 1 and deliver it elsewhere by pressing 0. </p><br><div class=""choice-instructions-grid""> <div class=""choice-option""><img src=""images/approach.png"" class=""choice-option-img"" stage=""instructions"" position=""0"" ><div class=""choice-option-text""> Press ""1."" </div></div><div class=""choice-option""><img src=""images/avoid.png"" class=""choice-option-img"" stage=""instructions"" position=""1"" ><div class=""choice-option-text""> Press ""0."" </div></div>","","0","instructions","","","","","","","","","","",""
"learning-instructions","63","346640","0.0-9.0-1.0-0.3","4045","2","17","Female","approach_avoid_spark_v1","""event"",""trial"",""time""
""fullscreenenter"",""1"",""1710""
","
","
","""event"",""trial"",""time""
""fullscreenenter"",""1"",""1710""
","
","","","","","","527.5","<p> If you decorate your friend's house with furniture she likes, she will be happy! </p><p> But if you give her furniture that she does not like, she will be annoyed. </p>","","0","instructions","","","","","","","","","","",""
"learning-instructions","64","361169","0.0-9.0-1.0-0.4","4045","2","17","Female","approach_avoid_spark_v1","""event"",""trial"",""time""
""fullscreenenter"",""1"",""1710""
","
","
","""event"",""trial"",""time""
""fullscreenenter"",""1"",""1710""
","
","","","","","","1585","<p> You will earn points based on how you made your friend feel. </p><p> If you made her happy, you will WIN anywhere from 1 - 9 points, </p><p> but if you made her annoyed you will LOSE anywhere from 1 - 9 points. </p>","","0","instructions","","","","","","","","","","",""
"learning-instructions","65","369597","0.0-9.0-1.0-0.5","4045","2","17","Female","approach_avoid_spark_v1","""event"",""trial"",""time""
""fullscreenenter"",""1"",""1710""
","
","
","""event"",""trial"",""time""
""fullscreenenter"",""1"",""1710""
","
","","","","","","732.6000000238419","<p> You will see how many points you won or lost in the center of the screen. </p><p> Here is what you would see if you won 5 points: </p><p style=""color:green;font-size:50px;font-weight:bolder"">5</p>","","0","instructions","","","","","","","","","","",""
"learning-instructions","66","373754","0.0-9.0-1.0-0.6","4045","2","17","Female","approach_avoid_spark_v1","""event"",""trial"",""time""
""fullscreenenter"",""1"",""1710""
","
","
","""event"",""trial"",""time""
""fullscreenenter"",""1"",""1710""
","
","","","","","","611.1999999284744","<p> And here is what you would see if you lost 3 points: </p><p style=""color:red;font-size:50px;font-weight:bolder"">-3</p>","","0","instructions","","","","","","","","","","",""
"learning-instructions","67","392592","0.0-9.0-1.0-0.7","4045","2","17","Female","approach_avoid_spark_v1","""event"",""trial"",""time""
""fullscreenenter"",""1"",""1710""
","
","
","""event"",""trial"",""time""
""fullscreenenter"",""1"",""1710""
","
","","","","","","1019.2999999523163","<p> Some pieces of furniture will make her feel very happy or very annoyed. </p><p> These pieces of furniture will make you win or lose LOTS of points. </p><p> Other pieces of furniture will only make her feel a little happy or a little annoyed. </p><p> These pieces of furniture will make you win or lose small amounts of points. </p>","","0","instructions","","","","","","","","","","",""
"learning-instructions","68","407634","0.0-9.0-1.0-0.8","4045","2","17","Female","approach_avoid_spark_v1","""event"",""trial"",""time""
""fullscreenenter"",""1"",""1710""
","
","
","""event"",""trial"",""time""
""fullscreenenter"",""1"",""1710""
","
","","","","","","2220.600000023842","<p> If you choose to deliver a piece of furniture elsewhere, you will not win or lose any points. </p><p>  However, in the center of the screen, you will see the number of points you WOULD HAVE won or lost if you had given the furniture to your friend. </p>","","0","instructions","","","","","","","","","","",""
"learning-instructions","69","420145","0.0-9.0-1.0-0.9","4045","2","17","Female","approach_avoid_spark_v1","""event"",""trial"",""time""
""fullscreenenter"",""1"",""1710""
","
","
","""event"",""trial"",""time""
""fullscreenenter"",""1"",""1710""
","
","","","","","","1282.1000000238419","<p> Here is what you might see if you did not give a piece of furniture to your friend that would have made her happy: </p><p style=""color:grey; font-size:50px; display: inline-block; border-spacing: 15px; border-width:3px; border-style:solid; border-color:red"">  &nbsp; 6 &nbsp; </p><p> Remember, in this case, you would not win or lose ANY points because you did not give her the furniture.  </p>","","0","instructions","","","","","","","","","","",""
"learning-instructions","70","427947","0.0-9.0-1.0-0.10","4045","2","17","Female","approach_avoid_spark_v1","""event"",""trial"",""time""
""fullscreenenter"",""1"",""1710""
","
","
","""event"",""trial"",""time""
""fullscreenenter"",""1"",""1710""
","
","","","","","","473.1999999284744","<p> Try to make the best choice for each piece of furniture because </p><p> at the end of the game, you will earn bonus money based on how many points you earned. </p>","","0","instructions","","","","","","","","","","",""
"learning-instructions","71","436749","0.0-9.0-1.0-0.11","4045","2","17","Female","approach_avoid_spark_v1","""event"",""trial"",""time""
""fullscreenenter"",""1"",""1710""
","
","
","""event"",""trial"",""time""
""fullscreenenter"",""1"",""1710""
","
","","","","","","605.1000000238419","<p> You will have 3 seconds to make each choice. Try to respond before time runs out! </p><p> You will lose 5 points each time you do not make a response. </p>","","0","instructions","","","","","","","","","","",""
"html-keyboard-response","72","437365","0.0-9.0-2.0-0.0","4045","2","17","Female","approach_avoid_spark_v1","""event"",""trial"",""time""
""fullscreenenter"",""1"",""1710""
","
","
","""event"",""trial"",""time""
""fullscreenenter"",""1"",""1710""
","
","","","","","","null","<div style=""font-size:60px;"">+</div>","null","","fixation","","","","","","","","","","",""
"aa-learning-trial","73","440385","0.0-9.0-2.0-1.0","4045","2","17","Female","approach_avoid_spark_v1","""event"",""trial"",""time""
""fullscreenenter"",""1"",""1710""
","
","
","""event"",""trial"",""time""
""fullscreenenter"",""1"",""1710""
","
","","","","","","927.3999999761581","images/sofa5.png","","","learning","-1","-1","1","1","sofa","furniture","2","0","","neutral","0"
"html-keyboard-response","74","440902","0.0-9.0-2.0-0.1","4045","2","17","Female","approach_avoid_spark_v1","""event"",""trial"",""time""
""fullscreenenter"",""1"",""1710""
","
","
","""event"",""trial"",""time""
""fullscreenenter"",""1"",""1710""
","
","","","","","","null","<div style=""font-size:60px;"">+</div>","null","","fixation","","","","","","","","","","",""
"aa-learning-trial","75","443908","0.0-9.0-2.0-1.1","4045","2","17","Female","approach_avoid_spark_v1","""event"",""trial"",""time""
""fullscreenenter"",""1"",""1710""
","
","
","""event"",""trial"",""time""
""fullscreenenter"",""1"",""1710""
","
","","","","","","743.5999999046326","images/sofa3.png","","","learning","-6","0","0","0","sofa","furniture","2","0","","neutral","0"
"html-keyboard-response","76","444412","0.0-9.0-2.0-0.2","4045","2","17","Female","approach_avoid_spark_v1","""event"",""trial"",""time""
""fullscreenenter"",""1"",""1710""
","
","
","""event"",""trial"",""time""
""fullscreenenter"",""1"",""1710""
","
","","","","","","null","<div style=""font-size:60px;"">+</div>","null","","fixation","","","","","","","","","","",""
"aa-learning-trial","77","447424","0.0-9.0-2.0-1.2","4045","2","17","Female","approach_avoid_spark_v1","""event"",""trial"",""time""
""fullscreenenter"",""1"",""1710""
","
","
","""event"",""trial"",""time""
""fullscreenenter"",""1"",""1710""
","
","","","","","","826.1000000238419","images/table8.png","","","learning","-7","0","0","0","table","furniture","2","0","","bad","[-5]"
"html-keyboard-response","78","447940","0.0-9.0-2.0-0.3","4045","2","17","Female","approach_avoid_spark_v1","""event"",""trial"",""time""
""fullscreenenter"",""1"",""1710""
","
","
","""event"",""trial"",""time""
""fullscreenenter"",""1"",""1710""
","
","","","","","","null","<div style=""font-size:60px;"">+</div>","null","","fixation","","","","","","","","","","",""
"aa-learning-trial","79","450944","0.0-9.0-2.0-1.3","4045","2","17","Female","approach_avoid_spark_v1","""event"",""trial"",""time""
""fullscreenenter"",""1"",""1710""
","
","
","""event"",""trial"",""time""
""fullscreenenter"",""1"",""1710""
","
","","","","","","410.7000000476837","images/sofa6.png","","","learning","-3","-3","1","1","sofa","furniture","2","0","","neutral","0"
"html-keyboard-response","80","451457","0.0-9.0-2.0-0.4","4045","2","17","Female","approach_avoid_spark_v1","""event"",""trial"",""time""
""fullscreenenter"",""1"",""1710""
","
","
","""event"",""trial"",""time""
""fullscreenenter"",""1"",""1710""
","
","","","","","","null","<div style=""font-size:60px;"">+</div>","null","","fixation","","","","","","","","","","",""
"aa-learning-trial","81","454470","0.0-9.0-2.0-1.4","4045","2","17","Female","approach_avoid_spark_v1","""event"",""trial"",""time""
""fullscreenenter"",""1"",""1710""
","
","
","""event"",""trial"",""time""
""fullscreenenter"",""1"",""1710""
","
","","","","","","621.5","images/chair5.png","","","learning","-5","-5","1","1","chair","furniture","2","0","","good","[5]"
"html-keyboard-response","82","454982","0.0-9.0-2.0-0.5","4045","2","17","Female","approach_avoid_spark_v1","""event"",""trial"",""time""
""fullscreenenter"",""1"",""1710""
","
","
","""event"",""trial"",""time""
""fullscreenenter"",""1"",""1710""
","
","","","","","","null","<div style=""font-size:60px;"">+</div>","null","","fixation","","","","","","","","","","",""
"aa-learning-trial","83","457993","0.0-9.0-2.0-1.5","4045","2","17","Female","approach_avoid_spark_v1","""event"",""trial"",""time""
""fullscreenenter"",""1"",""1710""
","
","
","""event"",""trial"",""time""
""fullscreenenter"",""1"",""1710""
","
","","","","","","874.0999999046326","images/table5.png","","","learning","2","2","1","1","table","furniture","2","0","","bad","[-5]"
"html-keyboard-response","84","458506","0.0-9.0-2.0-0.6","4045","2","17","Female","approach_avoid_spark_v1","""event"",""trial"",""time""
""fullscreenenter"",""1"",""1710""
","
","
","""event"",""trial"",""time""
""fullscreenenter"",""1"",""1710""
","
","","","","","","null","<div style=""font-size:60px;"">+</div>","null","","fixation","","","","","","","","","","",""
"aa-learning-trial","85","461514","0.0-9.0-2.0-1.6","4045","2","17","Female","approach_avoid_spark_v1","""event"",""trial"",""time""
""fullscreenenter"",""1"",""1710""
","
","
","""event"",""trial"",""time""
""fullscreenenter"",""1"",""1710""
","
","","","","","","1010","images/table2.png","","","learning","3","0","0","0","table","furniture","2","0","","bad","[-5]"
"html-keyboard-response","86","462028","0.0-9.0-2.0-0.7","4045","2","17","Female","approach_avoid_spark_v1","""event"",""trial"",""time""
""fullscreenenter"",""1"",""1710""
","
","
","""event"",""trial"",""time""
""fullscreenenter"",""1"",""1710""
","
","","","","","","null","<div style=""font-size:60px;"">+</div>","null","","fixation","","","","","","","","","","",""
"aa-learning-trial","87","465037","0.0-9.0-2.0-1.7","4045","2","17","Female","approach_avoid_spark_v1","""event"",""trial"",""time""
""fullscreenenter"",""1"",""1710""
","
","
","""event"",""trial"",""time""
""fullscreenenter"",""1"",""1710""
","
","","","","","","992.6000000238419","images/table5.png","","","learning","2","0","0","0","table","furniture","2","0","","bad","[-5]"
"html-keyboard-response","88","465541","0.0-9.0-2.0-0.8","4045","2","17","Female","approach_avoid_spark_v1","""event"",""trial"",""time""
""fullscreenenter"",""1"",""1710""
","
","
","""event"",""trial"",""time""
""fullscreenenter"",""1"",""1710""
","
","","","","","","null","<div style=""font-size:60px;"">+</div>","null","","fixation","","","","","","","","","","",""
"aa-learning-trial","89","468546","0.0-9.0-2.0-1.8","4045","2","17","Female","approach_avoid_spark_v1","""event"",""trial"",""time""
""fullscreenenter"",""1"",""1710""
","
","
","""event"",""trial"",""time""
""fullscreenenter"",""1"",""1710""
","
","","","","","","1048.2999999523163","images/chair5.png","","","learning","-5","0","0","0","chair","furniture","2","0","","good","[5]"
"html-keyboard-response","90","469048","0.0-9.0-2.0-0.9","4045","2","17","Female","approach_avoid_spark_v1","""event"",""trial"",""time""
""fullscreenenter"",""1"",""1710""
","
","
","""event"",""trial"",""time""
""fullscreenenter"",""1"",""1710""
","
","","","","","","null","<div style=""font-size:60px;"">+</div>","null","","fixation","","","","","","","","","","",""
"aa-learning-trial","91","472051","0.0-9.0-2.0-1.9","4045","2","17","Female","approach_avoid_spark_v1","""event"",""trial"",""time""
""fullscreenenter"",""1"",""1710""
","
","
","""event"",""trial"",""time""
""fullscreenenter"",""1"",""1710""
","
","","","","","","1317.7999999523163","images/sofa3.png","","","learning","-6","-6","1","1","sofa","furniture","2","0","","neutral","0"
"html-keyboard-response","92","472553","0.0-9.0-2.0-0.10","4045","2","17","Female","approach_avoid_spark_v1","""event"",""trial"",""time""
""fullscreenenter"",""1"",""1710""
","
","
","""event"",""trial"",""time""
""fullscreenenter"",""1"",""1710""
","
","","","","","","null","<div style=""font-size:60px;"">+</div>","null","","fixation","","","","","","","","","","",""
"aa-learning-trial","93","475556","0.0-9.0-2.0-1.10","4045","2","17","Female","approach_avoid_spark_v1","""event"",""trial"",""time""
""fullscreenenter"",""1"",""1710""
","
","
","""event"",""trial"",""time""
""fullscreenenter"",""1"",""1710""
","
","","","","","","862.8999999761581","images/chair8.png","","","learning","1","1","1","1","chair","furniture","2","0","","good","[5]"
"html-keyboard-response","94","476056","0.0-9.0-2.0-0.11","4045","2","17","Female","approach_avoid_spark_v1","""event"",""trial"",""time""
""fullscreenenter"",""1"",""1710""
","
","
","""event"",""trial"",""time""
""fullscreenenter"",""1"",""1710""
","
","","","","","","null","<div style=""font-size:60px;"">+</div>","null","","fixation","","","","","","","","","","",""
"aa-learning-trial","95","479059","0.0-9.0-2.0-1.11","4045","2","17","Female","approach_avoid_spark_v1","""event"",""trial"",""time""
""fullscreenenter"",""1"",""1710""
","
","
","""event"",""trial"",""time""
""fullscreenenter"",""1"",""1710""
","
","","","","","","912.2999999523163","images/chair8.png","","","learning","1","1","1","1","chair","furniture","2","0","","good","[5]"
"html-keyboard-response","96","479560","0.0-9.0-2.0-0.12","4045","2","17","Female","approach_avoid_spark_v1","""event"",""trial"",""time""
""fullscreenenter"",""1"",""1710""
","
","
","""event"",""trial"",""time""
""fullscreenenter"",""1"",""1710""
","
","","","","","","null","<div style=""font-size:60px;"">+</div>","null","","fixation","","","","","","","","","","",""
"aa-learning-trial","97","482566","0.0-9.0-2.0-1.12","4045","2","17","Female","approach_avoid_spark_v1","""event"",""trial"",""time""
""fullscreenenter"",""1"",""1710""
","
","
","""event"",""trial"",""time""
""fullscreenenter"",""1"",""1710""
","
","","","","","","974.6000000238419","images/sofa5.png","","","learning","-1","-1","1","1","sofa","furniture","2","0","","neutral","0"
"html-keyboard-response","98","483068","0.0-9.0-2.0-0.13","4045","2","17","Female","approach_avoid_spark_v1","""event"",""trial"",""time""
""fullscreenenter"",""1"",""1710""
","
","
","""event"",""trial"",""time""
""fullscreenenter"",""1"",""1710""
","
","","","","","","null","<div style=""font-size:60px;"">+</div>","null","","fixation","","","","","","","","","","",""
"aa-learning-trial","99","486073","0.0-9.0-2.0-1.13","4045","2","17","Female","approach_avoid_spark_v1","""event"",""trial"",""time""
""fullscreenenter"",""1"",""1710""
","
","
","""event"",""trial"",""time""
""fullscreenenter"",""1"",""1710""
","
","","","","","","840.9000000953674","images/table2.png","","","learning","3","3","1","1","table","furniture","2","0","","bad","[-5]"
"html-keyboard-response","100","486576","0.0-9.0-2.0-0.14","4045","2","17","Female","approach_avoid_spark_v1","""event"",""trial"",""time""
""fullscreenenter"",""1"",""1710""
","
","
","""event"",""trial"",""time""
""fullscreenenter"",""1"",""1710""
","
","","","","","","null","<div style=""font-size:60px;"">+</div>","null","","fixation","","","","","","","","","","",""
"aa-learning-trial","101","489581","0.0-9.0-2.0-1.14","4045","2","17","Female","approach_avoid_spark_v1","""event"",""trial"",""time""
""fullscreenenter"",""1"",""1710""
","
","
","""event"",""trial"",""time""
""fullscreenenter"",""1"",""1710""
","
","","","","","","781.7000000476837","images/chair2.png","","","learning","-9","-9","1","1","chair","furniture","2","0","","good","[5]"
"html-keyboard-response","102","490084","0.0-9.0-2.0-0.15","4045","2","17","Female","approach_avoid_spark_v1","""event"",""trial"",""time""
""fullscreenenter"",""1"",""1710""
","
","
","""event"",""trial"",""time""
""fullscreenenter"",""1"",""1710""
","
","","","","","","null","<div style=""font-size:60px;"">+</div>","null","","fixation","","","","","","","","","","",""
"aa-learning-trial","103","493088","0.0-9.0-2.0-1.15","4045","2","17","Female","approach_avoid_spark_v1","""event"",""trial"",""time""
""fullscreenenter"",""1"",""1710""
","
","
","""event"",""trial"",""time""
""fullscreenenter"",""1"",""1710""
","
","","","","","","929.1999999284744","images/chair6.png","","","learning","6","6","1","1","chair","furniture","2","0","","good","[5]"
"html-keyboard-response","104","493590","0.0-9.0-2.0-0.16","4045","2","17","Female","approach_avoid_spark_v1","""event"",""trial"",""time""
""fullscreenenter"",""1"",""1710""
","
","
","""event"",""trial"",""time""
""fullscreenenter"",""1"",""1710""
","
","","","","","","null","<div style=""font-size:60px;"">+</div>","null","","fixation","","","","","","","","","","",""
"aa-learning-trial","105","496596","0.0-9.0-2.0-1.16","4045","2","17","Female","approach_avoid_spark_v1","""event"",""trial"",""time""
""fullscreenenter"",""1"",""1710""
","
","
","""event"",""trial"",""time""
""fullscreenenter"",""1"",""1710""
","
","","","","","","735.9000000953674","images/chair5.png","","","learning","-5","-5","1","1","chair","furniture","2","0","","good","[5]"
"html-keyboard-response","106","497097","0.0-9.0-2.0-0.17","4045","2","17","Female","approach_avoid_spark_v1","""event"",""trial"",""time""
""fullscreenenter"",""1"",""1710""
","
","
","""event"",""trial"",""time""
""fullscreenenter"",""1"",""1710""
","
","","","","","","null","<div style=""font-size:60px;"">+</div>","null","","fixation","","","","","","","","","","",""
"aa-learning-trial","107","500099","0.0-9.0-2.0-1.17","4045","2","17","Female","approach_avoid_spark_v1","""event"",""trial"",""time""
""fullscreenenter"",""1"",""1710""
","
","
","""event"",""trial"",""time""
""fullscreenenter"",""1"",""1710""
","
","","","","","","845.7000000476837","images/chair8.png","","","learning","1","1","1","1","chair","furniture","2","0","","good","[5]"
"html-keyboard-response","108","500601","0.0-9.0-2.0-0.18","4045","2","17","Female","approach_avoid_spark_v1","""event"",""trial"",""time""
""fullscreenenter"",""1"",""1710""
","
","
","""event"",""trial"",""time""
""fullscreenenter"",""1"",""1710""
","
","","","","","","null","<div style=""font-size:60px;"">+</div>","null","","fixation","","","","","","","","","","",""
"aa-learning-trial","109","503605","0.0-9.0-2.0-1.18","4045","2","17","Female","approach_avoid_spark_v1","""event"",""trial"",""time""
""fullscreenenter"",""1"",""1710""
","
","
","""event"",""trial"",""time""
""fullscreenenter"",""1"",""1710""
","
","","","","","","497","images/sofa3.png","","","learning","-6","0","0","0","sofa","furniture","2","0","","neutral","0"
"html-keyboard-response","110","504108","0.0-9.0-2.0-0.19","4045","2","17","Female","approach_avoid_spark_v1","""event"",""trial"",""time""
""fullscreenenter"",""1"",""1710""
","
","
","""event"",""trial"",""time""
""fullscreenenter"",""1"",""1710""
","
","","","","","","null","<div style=""font-size:60px;"">+</div>","null","","fixation","","","","","","","","","","",""
"aa-learning-trial","111","507112","0.0-9.0-2.0-1.19","4045","2","17","Female","approach_avoid_spark_v1","""event"",""trial"",""time""
""fullscreenenter"",""1"",""1710""
","
","
","""event"",""trial"",""time""
""fullscreenenter"",""1"",""1710""
","
","","","","","","1161.2000000476837","images/chair5.png","","","learning","-5","0","0","0","chair","furniture","2","0","","good","[5]"
"html-keyboard-response","112","507615","0.0-9.0-2.0-0.20","4045","2","17","Female","approach_avoid_spark_v1","""event"",""trial"",""time""
""fullscreenenter"",""1"",""1710""
","
","
","""event"",""trial"",""time""
""fullscreenenter"",""1"",""1710""
","
","","","","","","null","<div style=""font-size:60px;"">+</div>","null","","fixation","","","","","","","","","","",""
"aa-learning-trial","113","510619","0.0-9.0-2.0-1.20","4045","2","17","Female","approach_avoid_spark_v1","""event"",""trial"",""time""
""fullscreenenter"",""1"",""1710""
","
","
","""event"",""trial"",""time""
""fullscreenenter"",""1"",""1710""
","
","","","","","","652.3999999761581","images/sofa5.png","","","learning","-1","0","0","0","sofa","furniture","2","0","","neutral","0"
"html-keyboard-response","114","511122","0.0-9.0-2.0-0.21","4045","2","17","Female","approach_avoid_spark_v1","""event"",""trial"",""time""
""fullscreenenter"",""1"",""1710""
","
","
","""event"",""trial"",""time""
""fullscreenenter"",""1"",""1710""
","
","","","","","","null","<div style=""font-size:60px;"">+</div>","null","","fixation","","","","","","","","","","",""
"aa-learning-trial","115","514126","0.0-9.0-2.0-1.21","4045","2","17","Female","approach_avoid_spark_v1","""event"",""trial"",""time""
""fullscreenenter"",""1"",""1710""
","
","
","""event"",""trial"",""time""
""fullscreenenter"",""1"",""1710""
","
","","","","","","1621.1000000238419","images/chair5.png","","","learning","-5","-5"," ","","chair","furniture","2","0","","good","[5]"
"html-keyboard-response","116","514627","0.0-9.0-2.0-0.22","4045","2","17","Female","approach_avoid_spark_v1","""event"",""trial"",""time""
""fullscreenenter"",""1"",""1710""
","
","
","""event"",""trial"",""time""
""fullscreenenter"",""1"",""1710""
","
","","","","","","null","<div style=""font-size:60px;"">+</div>","null","","fixation","","","","","","","","","","",""
"aa-learning-trial","117","517632","0.0-9.0-2.0-1.22","4045","2","17","Female","approach_avoid_spark_v1","""event"",""trial"",""time""
""fullscreenenter"",""1"",""1710""
","
","
","""event"",""trial"",""time""
""fullscreenenter"",""1"",""1710""
","
","","","","","","360.39999997615814","images/table5.png","","","learning","2","2","1","1","table","furniture","2","0","","bad","[-5]"
"html-keyboard-response","118","518135","0.0-9.0-2.0-0.23","4045","2","17","Female","approach_avoid_spark_v1","""event"",""trial"",""time""
""fullscreenenter"",""1"",""1710""
","
","
","""event"",""trial"",""time""
""fullscreenenter"",""1"",""1710""
","
","","","","","","null","<div style=""font-size:60px;"">+</div>","null","","fixation","","","","","","","","","","",""
"aa-learning-trial","119","521140","0.0-9.0-2.0-1.23","4045","2","17","Female","approach_avoid_spark_v1","""event"",""trial"",""time""
""fullscreenenter"",""1"",""1710""
","
","
","""event"",""trial"",""time""
""fullscreenenter"",""1"",""1710""
","
","","","","","","923.6000000238419","images/sofa5.png","","","learning","-1","0","0","0","sofa","furniture","2","0","","neutral","0"
"html-keyboard-response","120","521641","0.0-9.0-2.0-0.24","4045","2","17","Female","approach_avoid_spark_v1","""event"",""trial"",""time""
""fullscreenenter"",""1"",""1710""
","
","
","""event"",""trial"",""time""
""fullscreenenter"",""1"",""1710""
","
","","","","","","null","<div style=""font-size:60px;"">+</div>","null","","fixation","","","","","","","","","","",""
"aa-learning-trial","121","524645","0.0-9.0-2.0-1.24","4045","2","17","Female","approach_avoid_spark_v1","""event"",""trial"",""time""
""fullscreenenter"",""1"",""1710""
","
","
","""event"",""trial"",""time""
""fullscreenenter"",""1"",""1710""
","
","","","","","","793.2999999523163","images/table1.png","","","learning","9","0","0","0","table","furniture","2","0","","bad","[-5]"
"html-keyboard-response","122","525147","0.0-9.0-2.0-0.25","4045","2","17","Female","approach_avoid_spark_v1","""event"",""trial"",""time""
""fullscreenenter"",""1"",""1710""
","
","
","""event"",""trial"",""time""
""fullscreenenter"",""1"",""1710""
","
","","","","","","null","<div style=""font-size:60px;"">+</div>","null","","fixation","","","","","","","","","","",""
"aa-learning-trial","123","528151","0.0-9.0-2.0-1.25","4045","2","17","Female","approach_avoid_spark_v1","""event"",""trial"",""time""
""fullscreenenter"",""1"",""1710""
","
","
","""event"",""trial"",""time""
""fullscreenenter"",""1"",""1710""
","
","","","","","","1294.9000000953674","images/table8.png","","","learning","-7","0","0","0","table","furniture","2","0","","bad","[-5]"
"html-keyboard-response","124","528654","0.0-9.0-2.0-0.26","4045","2","17","Female","approach_avoid_spark_v1","""event"",""trial"",""time""
""fullscreenenter"",""1"",""1710""
","
","
","""event"",""trial"",""time""
""fullscreenenter"",""1"",""1710""
","
","","","","","","null","<div style=""font-size:60px;"">+</div>","null","","fixation","","","","","","","","","","",""
"aa-learning-trial","125","531660","0.0-9.0-2.0-1.26","4045","2","17","Female","approach_avoid_spark_v1","""event"",""trial"",""time""
""fullscreenenter"",""1"",""1710""
","
","
","""event"",""trial"",""time""
""fullscreenenter"",""1"",""1710""
","
","","","","","","856.8999999761581","images/table6.png","","","learning","-4","-4","1","1","table","furniture","2","0","","bad","[-5]"
"html-keyboard-response","126","532163","0.0-9.0-2.0-0.27","4045","2","17","Female","approach_avoid_spark_v1","""event"",""trial"",""time""
""fullscreenenter"",""1"",""1710""
","
","
","""event"",""trial"",""time""
""fullscreenenter"",""1"",""1710""
","
","","","","","","null","<div style=""font-size:60px;"">+</div>","null","","fixation","","","","","","","","","","",""
"aa-learning-trial","127","535166","0.0-9.0-2.0-1.27","4045","2","17","Female","approach_avoid_spark_v1","""event"",""trial"",""time""
""fullscreenenter"",""1"",""1710""
","
","
","""event"",""trial"",""time""
""fullscreenenter"",""1"",""1710""
","
","","","","","","1044.6999999284744","images/sofa2.png","","","learning","8","8","1","1","sofa","furniture","2","0","","neutral","0"
"html-keyboard-response","128","535668","0.0-9.0-2.0-0.28","4045","2","17","Female","approach_avoid_spark_v1","""event"",""trial"",""time""
""fullscreenenter"",""1"",""1710""
","
","
","""event"",""trial"",""time""
""fullscreenenter"",""1"",""1710""
","
","","","","","","null","<div style=""font-size:60px;"">+</div>","null","","fixation","","","","","","","","","","",""
"aa-learning-trial","129","538672","0.0-9.0-2.0-1.28","4045","2","17","Female","approach_avoid_spark_v1","""event"",""trial"",""time""
""fullscreenenter"",""1"",""1710""
","
","
","""event"",""trial"",""time""
""fullscreenenter"",""1"",""1710""
","
","","","","","","806.7000000476837","images/sofa3.png","","","learning","-6","0","0","0","sofa","furniture","2","0","","neutral","0"
"html-keyboard-response","130","539173","0.0-9.0-2.0-0.29","4045","2","17","Female","approach_avoid_spark_v1","""event"",""trial"",""time""
""fullscreenenter"",""1"",""1710""
","
","
","""event"",""trial"",""time""
""fullscreenenter"",""1"",""1710""
","
","","","","","","null","<div style=""font-size:60px;"">+</div>","null","","fixation","","","","","","","","","","",""
"aa-learning-trial","131","542177","0.0-9.0-2.0-1.29","4045","2","17","Female","approach_avoid_spark_v1","""event"",""trial"",""time""
""fullscreenenter"",""1"",""1710""
","
","
","""event"",""trial"",""time""
""fullscreenenter"",""1"",""1710""
","
","","","","","","936.2000000476837","images/table2.png","","","learning","3","0","0","0","table","furniture","2","0","","bad","[-5]"
"html-keyboard-response","132","542678","0.0-9.0-2.0-0.30","4045","2","17","Female","approach_avoid_spark_v1","""event"",""trial"",""time""
""fullscreenenter"",""1"",""1710""
","
","
","""event"",""trial"",""time""
""fullscreenenter"",""1"",""1710""
","
","","","","","","null","<div style=""font-size:60px;"">+</div>","null","","fixation","","","","","","","","","","",""
"aa-learning-trial","133","545683","0.0-9.0-2.0-1.30","4045","2","17","Female","approach_avoid_spark_v1","""event"",""trial"",""time""
""fullscreenenter"",""1"",""1710""
","
","
","""event"",""trial"",""time""
""fullscreenenter"",""1"",""1710""
","
","","","","","","731.5999999046326","images/sofa6.png","","","learning","-3","-3","1","1","sofa","furniture","2","0","","neutral","0"
"html-keyboard-response","134","546188","0.0-9.0-2.0-0.31","4045","2","17","Female","approach_avoid_spark_v1","""event"",""trial"",""time""
""fullscreenenter"",""1"",""1710""
","
","
","""event"",""trial"",""time""
""fullscreenenter"",""1"",""1710""
","
","","","","","","null","<div style=""font-size:60px;"">+</div>","null","","fixation","","","","","","","","","","",""
"aa-learning-trial","135","549194","0.0-9.0-2.0-1.31","4045","2","17","Female","approach_avoid_spark_v1","""event"",""trial"",""time""
""fullscreenenter"",""1"",""1710""
","
","
","""event"",""trial"",""time""
""fullscreenenter"",""1"",""1710""
","
","","","","","","978.5999999046326","images/sofa3.png","","","learning","-6","0","0","0","sofa","furniture","2","0","","neutral","0"
"html-keyboard-response","136","549696","0.0-9.0-2.0-0.32","4045","2","17","Female","approach_avoid_spark_v1","""event"",""trial"",""time""
""fullscreenenter"",""1"",""1710""
","
","
","""event"",""trial"",""time""
""fullscreenenter"",""1"",""1710""
","
","","","","","","null","<div style=""font-size:60px;"">+</div>","null","","fixation","","","","","","","","","","",""
"aa-learning-trial","137","552699","0.0-9.0-2.0-1.32","4045","2","17","Female","approach_avoid_spark_v1","""event"",""trial"",""time""
""fullscreenenter"",""1"",""1710""
","
","
","""event"",""trial"",""time""
""fullscreenenter"",""1"",""1710""
","
","","","","","","1042.7999999523163","images/table5.png","","","learning","2","0","0","0","table","furniture","2","0","","bad","[-5]"
"html-keyboard-response","138","553201","0.0-9.0-2.0-0.33","4045","2","17","Female","approach_avoid_spark_v1","""event"",""trial"",""time""
""fullscreenenter"",""1"",""1710""
","
","
","""event"",""trial"",""time""
""fullscreenenter"",""1"",""1710""
","
","","","","","","null","<div style=""font-size:60px;"">+</div>","null","","fixation","","","","","","","","","","",""
"aa-learning-trial","139","556205","0.0-9.0-2.0-1.33","4045","2","17","Female","approach_avoid_spark_v1","""event"",""trial"",""time""
""fullscreenenter"",""1"",""1710""
","
","
","""event"",""trial"",""time""
""fullscreenenter"",""1"",""1710""
","
","","","","","","990.8999999761581","images/sofa5.png","","","learning","-1","0","0","0","sofa","furniture","2","0","","neutral","0"
"html-keyboard-response","140","556707","0.0-9.0-2.0-0.34","4045","2","17","Female","approach_avoid_spark_v1","""event"",""trial"",""time""
""fullscreenenter"",""1"",""1710""
","
","
","""event"",""trial"",""time""
""fullscreenenter"",""1"",""1710""
","
","","","","","","null","<div style=""font-size:60px;"">+</div>","null","","fixation","","","","","","","","","","",""
"aa-learning-trial","141","559709","0.0-9.0-2.0-1.34","4045","2","17","Female","approach_avoid_spark_v1","""event"",""trial"",""time""
""fullscreenenter"",""1"",""1710""
","
","
","""event"",""trial"",""time""
""fullscreenenter"",""1"",""1710""
","
","","","","","","1122","images/chair8.png","","","learning","1","0","0","0","chair","furniture","2","0","","good","[5]"
"html-keyboard-response","142","560211","0.0-9.0-2.0-0.35","4045","2","17","Female","approach_avoid_spark_v1","""event"",""trial"",""time""
""fullscreenenter"",""1"",""1710""
","
","
","""event"",""trial"",""time""
""fullscreenenter"",""1"",""1710""
","
","","","","","","null","<div style=""font-size:60px;"">+</div>","null","","fixation","","","","","","","","","","",""
"aa-learning-trial","143","563216","0.0-9.0-2.0-1.35","4045","2","17","Female","approach_avoid_spark_v1","""event"",""trial"",""time""
""fullscreenenter"",""1"",""1710""
","
","
","""event"",""trial"",""time""
""fullscreenenter"",""1"",""1710""
","
","","","","","","465.7000000476837","images/chair5.png","","","learning","-5","0","0","0","chair","furniture","2","0","","good","[5]"
"html-keyboard-response","144","563719","0.0-9.0-2.0-0.36","4045","2","17","Female","approach_avoid_spark_v1","""event"",""trial"",""time""
""fullscreenenter"",""1"",""1710""
","
","
","""event"",""trial"",""time""
""fullscreenenter"",""1"",""1710""
","
","","","","","","null","<div style=""font-size:60px;"">+</div>","null","","fixation","","","","","","","","","","",""
"aa-learning-trial","145","566725","0.0-9.0-2.0-1.36","4045","2","17","Female","approach_avoid_spark_v1","""event"",""trial"",""time""
""fullscreenenter"",""1"",""1710""
","
","
","""event"",""trial"",""time""
""fullscreenenter"",""1"",""1710""
","
","","","","","","1034.6000000238419","images/chair2.png","","","learning","-9","0","0","0","chair","furniture","2","0","","good","[5]"
"html-keyboard-response","146","567237","0.0-9.0-2.0-0.37","4045","2","17","Female","approach_avoid_spark_v1","""event"",""trial"",""time""
""fullscreenenter"",""1"",""1710""
","
","
","""event"",""trial"",""time""
""fullscreenenter"",""1"",""1710""
","
","","","","","","null","<div style=""font-size:60px;"">+</div>","null","","fixation","","","","","","","","","","",""
"aa-learning-trial","147","570242","0.0-9.0-2.0-1.37","4045","2","17","Female","approach_avoid_spark_v1","""event"",""trial"",""time""
""fullscreenenter"",""1"",""1710""
","
","
","""event"",""trial"",""time""
""fullscreenenter"",""1"",""1710""
","
","","","","","","782.7999999523163","images/chair7.png","","","learning","4","4","1","1","chair","furniture","2","0","","good","[5]"
"html-keyboard-response","148","570745","0.0-9.0-2.0-0.38","4045","2","17","Female","approach_avoid_spark_v1","""event"",""trial"",""time""
""fullscreenenter"",""1"",""1710""
","
","
","""event"",""trial"",""time""
""fullscreenenter"",""1"",""1710""
","
","","","","","","null","<div style=""font-size:60px;"">+</div>","null","","fixation","","","","","","","","","","",""
"aa-learning-trial","149","573750","0.0-9.0-2.0-1.38","4045","2","17","Female","approach_avoid_spark_v1","""event"",""trial"",""time""
""fullscreenenter"",""1"",""1710""
","
","
","""event"",""trial"",""time""
""fullscreenenter"",""1"",""1710""
","
","","","","","","592.2000000476837","images/table8.png","","","learning","-7","-7","1","1","table","furniture","2","0","","bad","[-5]"
"html-keyboard-response","150","574251","0.0-9.0-2.0-0.39","4045","2","17","Female","approach_avoid_spark_v1","""event"",""trial"",""time""
""fullscreenenter"",""1"",""1710""
","
","
","""event"",""trial"",""time""
""fullscreenenter"",""1"",""1710""
","
","","","","","","null","<div style=""font-size:60px;"">+</div>","null","","fixation","","","","","","","","","","",""
"aa-learning-trial","151","577257","0.0-9.0-2.0-1.39","4045","2","17","Female","approach_avoid_spark_v1","""event"",""trial"",""time""
""fullscreenenter"",""1"",""1710""
","
","
","""event"",""trial"",""time""
""fullscreenenter"",""1"",""1710""
","
","","","","","","379.39999997615814","images/sofa8.png","","","learning","5","0","0","0","sofa","furniture","2","0","","neutral","0"
"html-keyboard-response","152","577758","0.0-9.0-2.0-0.40","4045","2","17","Female","approach_avoid_spark_v1","""event"",""trial"",""time""
""fullscreenenter"",""1"",""1710""
","
","
","""event"",""trial"",""time""
""fullscreenenter"",""1"",""1710""
","
","","","","","","null","<div style=""font-size:60px;"">+</div>","null","","fixation","","","","","","","","","","",""
"aa-learning-trial","153","580763","0.0-9.0-2.0-1.40","4045","2","17","Female","approach_avoid_spark_v1","""event"",""trial"",""time""
""fullscreenenter"",""1"",""1710""
","
","
","""event"",""trial"",""time""
""fullscreenenter"",""1"",""1710""
","
","","","","","","759.2999999523163","images/sofa5.png","","","learning","-1","0","0","0","sofa","furniture","2","0","","neutral","0"
"html-keyboard-response","154","581266","0.0-9.0-2.0-0.41","4045","2","17","Female","approach_avoid_spark_v1","""event"",""trial"",""time""
""fullscreenenter"",""1"",""1710""
","
","
","""event"",""trial"",""time""
""fullscreenenter"",""1"",""1710""
","
","","","","","","null","<div style=""font-size:60px;"">+</div>","null","","fixation","","","","","","","","","","",""
"aa-learning-trial","155","584269","0.0-9.0-2.0-1.41","4045","2","17","Female","approach_avoid_spark_v1","""event"",""trial"",""time""
""fullscreenenter"",""1"",""1710""
","
","
","""event"",""trial"",""time""
""fullscreenenter"",""1"",""1710""
","
","","","","","","503","images/sofa6.png","","","learning","-3","-3","1","1","sofa","furniture","2","0","","neutral","0"
"html-keyboard-response","156","584770","0.0-9.0-2.0-0.42","4045","2","17","Female","approach_avoid_spark_v1","""event"",""trial"",""time""
""fullscreenenter"",""1"",""1710""
","
","
","""event"",""trial"",""time""
""fullscreenenter"",""1"",""1710""
","
","","","","","","null","<div style=""font-size:60px;"">+</div>","null","","fixation","","","","","","","","","","",""
"aa-learning-trial","157","587772","0.0-9.0-2.0-1.42","4045","2","17","Female","approach_avoid_spark_v1","""event"",""trial"",""time""
""fullscreenenter"",""1"",""1710""
","
","
","""event"",""trial"",""time""
""fullscreenenter"",""1"",""1710""
","
","","","","","","697","images/chair8.png","","","learning","1","1","1","1","chair","furniture","2","0","","good","[5]"
"html-keyboard-response","158","588274","0.0-9.0-2.0-0.43","4045","2","17","Female","approach_avoid_spark_v1","""event"",""trial"",""time""
""fullscreenenter"",""1"",""1710""
","
","
","""event"",""trial"",""time""
""fullscreenenter"",""1"",""1710""
","
","","","","","","null","<div style=""font-size:60px;"">+</div>","null","","fixation","","","","","","","","","","",""
"aa-learning-trial","159","591281","0.0-9.0-2.0-1.43","4045","2","17","Female","approach_avoid_spark_v1","""event"",""trial"",""time""
""fullscreenenter"",""1"",""1710""
","
","
","""event"",""trial"",""time""
""fullscreenenter"",""1"",""1710""
","
","","","","","","1248","images/table2.png","","","learning","3","3","1","1","table","furniture","2","0","","bad","[-5]"
"html-keyboard-response","160","591783","0.0-9.0-2.0-0.44","4045","2","17","Female","approach_avoid_spark_v1","""event"",""trial"",""time""
""fullscreenenter"",""1"",""1710""
","
","
","""event"",""trial"",""time""
""fullscreenenter"",""1"",""1710""
","
","","","","","","null","<div style=""font-size:60px;"">+</div>","null","","fixation","","","","","","","","","","",""
"aa-learning-trial","161","594786","0.0-9.0-2.0-1.44","4045","2","17","Female","approach_avoid_spark_v1","""event"",""trial"",""time""
""fullscreenenter"",""1"",""1710""
","
","
","""event"",""trial"",""time""
""fullscreenenter"",""1"",""1710""
","
","","","","","","877.8000000715256","images/sofa3.png","","","learning","-6","0","0","0","sofa","furniture","2","0","","neutral","0"
"html-keyboard-response","162","595288","0.0-9.0-2.0-0.45","4045","2","17","Female","approach_avoid_spark_v1","""event"",""trial"",""time""
""fullscreenenter"",""1"",""1710""
","
","
","""event"",""trial"",""time""
""fullscreenenter"",""1"",""1710""
","
","","","","","","null","<div style=""font-size:60px;"">+</div>","null","","fixation","","","","","","","","","","",""
"aa-learning-trial","163","598293","0.0-9.0-2.0-1.45","4045","2","17","Female","approach_avoid_spark_v1","""event"",""trial"",""time""
""fullscreenenter"",""1"",""1710""
","
","
","""event"",""trial"",""time""
""fullscreenenter"",""1"",""1710""
","
","","","","","","847.7000000476837","images/chair2.png","","","learning","-9","-9","1","1","chair","furniture","2","0","","good","[5]"
"html-keyboard-response","164","598795","0.0-9.0-2.0-0.46","4045","2","17","Female","approach_avoid_spark_v1","""event"",""trial"",""time""
""fullscreenenter"",""1"",""1710""
","
","
","""event"",""trial"",""time""
""fullscreenenter"",""1"",""1710""
","
","","","","","","null","<div style=""font-size:60px;"">+</div>","null","","fixation","","","","","","","","","","",""
"aa-learning-trial","165","601800","0.0-9.0-2.0-1.46","4045","2","17","Female","approach_avoid_spark_v1","""event"",""trial"",""time""
""fullscreenenter"",""1"",""1710""
","
","
","""event"",""trial"",""time""
""fullscreenenter"",""1"",""1710""
","
","","","","","","635.5","images/table5.png","","","learning","2","0","0","0","table","furniture","2","0","","bad","[-5]"
"html-keyboard-response","166","602313","0.0-9.0-2.0-0.47","4045","2","17","Female","approach_avoid_spark_v1","""event"",""trial"",""time""
""fullscreenenter"",""1"",""1710""
","
","
","""event"",""trial"",""time""
""fullscreenenter"",""1"",""1710""
","
","","","","","","null","<div style=""font-size:60px;"">+</div>","null","","fixation","","","","","","","","","","",""
"aa-learning-trial","167","605319","0.0-9.0-2.0-1.47","4045","2","17","Female","approach_avoid_spark_v1","""event"",""trial"",""time""
""fullscreenenter"",""1"",""1710""
","
","
","""event"",""trial"",""time""
""fullscreenenter"",""1"",""1710""
","
","","","","","","790.7999999523163","images/table2.png","","","learning","3","3","1","1","table","furniture","2","0","","bad","[-5]"
"html-keyboard-response","168","605821","0.0-9.0-2.0-0.48","4045","2","17","Female","approach_avoid_spark_v1","""event"",""trial"",""time""
""fullscreenenter"",""1"",""1710""
","
","
","""event"",""trial"",""time""
""fullscreenenter"",""1"",""1710""
","
","","","","","","null","<div style=""font-size:60px;"">+</div>","null","","fixation","","","","","","","","","","",""
"aa-learning-trial","169","608826","0.0-9.0-2.0-1.48","4045","2","17","Female","approach_avoid_spark_v1","""event"",""trial"",""time""
""fullscreenenter"",""1"",""1710""
","
","
","""event"",""trial"",""time""
""fullscreenenter"",""1"",""1710""
","
","","","","","","716","images/table2.png","","","learning","3","3","1","1","table","furniture","2","0","","bad","[-5]"
"html-keyboard-response","170","609327","0.0-9.0-2.0-0.49","4045","2","17","Female","approach_avoid_spark_v1","""event"",""trial"",""time""
""fullscreenenter"",""1"",""1710""
","
","
","""event"",""trial"",""time""
""fullscreenenter"",""1"",""1710""
","
","","","","","","null","<div style=""font-size:60px;"">+</div>","null","","fixation","","","","","","","","","","",""
"aa-learning-trial","171","612333","0.0-9.0-2.0-1.49","4045","2","17","Female","approach_avoid_spark_v1","""event"",""trial"",""time""
""fullscreenenter"",""1"",""1710""
","
","
","""event"",""trial"",""time""
""fullscreenenter"",""1"",""1710""
","
","","","","","","593.5","images/table5.png","","","learning","2","2","1","1","table","furniture","2","0","","bad","[-5]"
"html-keyboard-response","172","612835","0.0-9.0-2.0-0.50","4045","2","17","Female","approach_avoid_spark_v1","""event"",""trial"",""time""
""fullscreenenter"",""1"",""1710""
","
","
","""event"",""trial"",""time""
""fullscreenenter"",""1"",""1710""
","
","","","","","","null","<div style=""font-size:60px;"">+</div>","null","","fixation","","","","","","","","","","",""
"aa-learning-trial","173","615841","0.0-9.0-2.0-1.50","4045","2","17","Female","approach_avoid_spark_v1","""event"",""trial"",""time""
""fullscreenenter"",""1"",""1710""
","
","
","""event"",""trial"",""time""
""fullscreenenter"",""1"",""1710""
","
","","","","","","582.1000000238419","images/chair8.png","","","learning","1","1","1","1","chair","furniture","2","0","","good","[5]"
"html-button-response","174","618174","0.0-9.0-3.0","4045","2","17","Female","approach_avoid_spark_v1","""event"",""trial"",""time""
""fullscreenenter"",""1"",""1710""
","
","
","""event"",""trial"",""time""
""fullscreenenter"",""1"",""1710""
","
","","","","","","2330.7999999523163","<p> You have completed the round! <p> In this round, you earned -20 points! </p>","0","","break","","","","","","","","","","",""
"html-button-response","175","620400","0.0-10.0","4045","2","17","Female","approach_avoid_spark_v1","""event"",""trial"",""time""
""fullscreenenter"",""1"",""1710""
","
","
","""event"",""trial"",""time""
""fullscreenenter"",""1"",""1710""
","
","","","","","","2224.2999999523163","<p> Now it's time to play another round. </p>","0","","transition_screen","","","","","","","","","","",""
"preload","176","620525","0.0-11.0-0.0","4045","2","17","Female","approach_avoid_spark_v1","""event"",""trial"",""time""
""fullscreenenter"",""1"",""1710""
","
","
","""event"",""trial"",""time""
""fullscreenenter"",""1"",""1710""
","
","true","false","[]","[]","[]","","","","","","","","","","","","","","","",""
"learning-instructions","177","627086","0.0-11.0-1.0-0.0","4045","2","17","Female","approach_avoid_spark_v1","""event"",""trial"",""time""
""fullscreenenter"",""1"",""1710""
","
","
","""event"",""trial"",""time""
""fullscreenenter"",""1"",""1710""
","
","","","","","","1685.8999999761581","<p> Your goal in this round is to take care of lots of farm animals. </p></div>","","0","instructions","","","","","","","","","","",""
"learning-instructions","178","637629","0.0-11.0-1.0-0.1","4045","2","17","Female","approach_avoid_spark_v1","""event"",""trial"",""time""
""fullscreenenter"",""1"",""1710""
","
","
","""event"",""trial"",""time""
""fullscreenenter"",""1"",""1710""
","
","","","","","","878.3999999761581","<p> Some farm animals are hungry, while other farm animals are already full.  </p><p> On each turn, you will see a farm animal.   </p><p> You need to decide whether to feed it or not.  </p>","","0","instructions","","","","","","","","","","",""
"learning-instructions","179","644124","0.0-11.0-1.0-0.2","4045","2","17","Female","approach_avoid_spark_v1","""event"",""trial"",""time""
""fullscreenenter"",""1"",""1710""
","
","
","""event"",""trial"",""time""
""fullscreenenter"",""1"",""1710""
","
","","","","","","812.5","<p> You can feed the farm animal by pressing 1 and leave the farm animal alone by pressing 0. </p><br><div class=""choice-instructions-grid""> <div class=""choice-option""><img src=""images/approach.png"" class=""choice-option-img"" stage=""instructions"" position=""0"" ><div class=""choice-option-text""> Press ""1."" </div></div><div class=""choice-option""><img src=""images/avoid.png"" class=""choice-option-img"" stage=""instructions"" position=""1"" ><div class=""choice-option-text""> Press ""0."" </div></div>","","0","instructions","","","","","","","","","","",""
"learning-instructions","180","656617","0.0-11.0-1.0-0.3","4045","2","17","Female","approach_avoid_spark_v1","""event"",""trial"",""time""
""fullscreenenter"",""1"",""1710""
","
","
","""event"",""trial"",""time""
""fullscreenenter"",""1"",""1710""
","
","","","","","","1285.7000000476837","<p> If you feed a hungry farm animal, you will make it feel satisfied! </p><p> But if you feed the farm animal and it was already full, you will make it feel sick. </p>","","0","instructions","","","","","","","","","","",""
"learning-instructions","181","670912","0.0-11.0-1.0-0.4","4045","2","17","Female","approach_avoid_spark_v1","""event"",""trial"",""time""
""fullscreenenter"",""1"",""1710""
","
","
","""event"",""trial"",""time""
""fullscreenenter"",""1"",""1710""
","
","","","","","","630.7000000476837","<p> You will earn points based on how you made the farm animal feel. </p><p> If you made it satisfied, you will WIN anywhere from 1 - 9 points, </p><p> but if you made it sick, you will LOSE anywhere from 1 - 9 points. </p>","","0","instructions","","","","","","","","","","",""
"learning-instructions","182","678366","0.0-11.0-1.0-0.5","4045","2","17","Female","approach_avoid_spark_v1","""event"",""trial"",""time""
""fullscreenenter"",""1"",""1710""
","
","
","""event"",""trial"",""time""
""fullscreenenter"",""1"",""1710""
","
","","","","","","805.1000000238419","<p> You will see how many points you won or lost in the center of the screen. </p><p> Here is what you would see if you won 5 points: </p><p style=""color:green;font-size:50px;font-weight:bolder"">5</p>","","0","instructions","","","","","","","","","","",""
"learning-instructions","183","682603","0.0-11.0-1.0-0.6","4045","2","17","Female","approach_avoid_spark_v1","""event"",""trial"",""time""
""fullscreenenter"",""1"",""1710""
","
","
","""event"",""trial"",""time""
""fullscreenenter"",""1"",""1710""
","
","","","","","","1401.8999999761581","<p> And here is what you would see if you lost 3 points: </p><p style=""color:red;font-size:50px;font-weight:bolder"">-3</p>","","0","instructions","","","","","","","","","","",""
"learning-instructions","184","700309","0.0-11.0-1.0-0.7","4045","2","17","Female","approach_avoid_spark_v1","""event"",""trial"",""time""
""fullscreenenter"",""1"",""1710""
","
","
","""event"",""trial"",""time""
""fullscreenenter"",""1"",""1710""
","
","","","","","","927.5","<p> Some farm animals will become very satisfied or very sick. </p><p> These farm animals will make you win or lose LOTS of points. </p><p> Other farm animals have less strong feelings. </p><p> These farm animals will make you win or lose small amounts of points. </p>","","0","instructions","","","","","","","","","","",""
"learning-instructions","185","713622","0.0-11.0-1.0-0.8","4045","2","17","Female","approach_avoid_spark_v1","""event"",""trial"",""time""
""fullscreenenter"",""1"",""1710""
","
","
","""event"",""trial"",""time""
""fullscreenenter"",""1"",""1710""
","
","","","","","","680.8000000715256","<p> If you choose to leave the farm animal alone, you will not win or lose any points. </p><p>  However, in the center of the screen, you will see the number of points you WOULD HAVE won or lost if you had fed the farm animal. </p>","","0","instructions","","","","","","","","","","",""
"learning-instructions","186","725998","0.0-11.0-1.0-0.9","4045","2","17","Female","approach_avoid_spark_v1","""event"",""trial"",""time""
""fullscreenenter"",""1"",""1710""
","
","
","""event"",""trial"",""time""
""fullscreenenter"",""1"",""1710""
","
","","","","","","746.7000000476837","<p> Here is what you might see if you did not feed the farm animal but the animal was hungry: </p><p style=""color:grey; font-size:50px; display: inline-block; border-spacing: 15px; border-width:3px; border-style:solid; border-color:red"">  &nbsp; 6 &nbsp; </p><p> Remember, in this case, you would not win or lose ANY points because you did not feed the farm animal.  </p>","","0","instructions","","","","","","","","","","",""
"learning-instructions","187","734548","0.0-11.0-1.0-0.10","4045","2","17","Female","approach_avoid_spark_v1","""event"",""trial"",""time""
""fullscreenenter"",""1"",""1710""
","
","
","""event"",""trial"",""time""
""fullscreenenter"",""1"",""1710""
","
","","","","","","766.8999999761581","<p> Try to make the best choice for each farm animal because </p><p> at the end of the game, you will earn bonus money based on how many points you earned. </p>","","0","instructions","","","","","","","","","","",""
"learning-instructions","188","744738","0.0-11.0-1.0-0.11","4045","2","17","Female","approach_avoid_spark_v1","""event"",""trial"",""time""
""fullscreenenter"",""1"",""1710""
","
","
","""event"",""trial"",""time""
""fullscreenenter"",""1"",""1710""
","
","","","","","","1987.2999999523163","<p> You will have 3 seconds to make each choice. Try to respond before time runs out! </p><p> You will lose 5 points each time you do not make a response. </p>","","0","instructions","","","","","","","","","","",""
"html-keyboard-response","189","745364","0.0-11.0-2.0-0.0","4045","2","17","Female","approach_avoid_spark_v1","""event"",""trial"",""time""
""fullscreenenter"",""1"",""1710""
","
","
","""event"",""trial"",""time""
""fullscreenenter"",""1"",""1710""
","
","","","","","","null","<div style=""font-size:60px;"">+</div>","null","","fixation","","","","","","","","","","",""
"aa-learning-trial","190","748384","0.0-11.0-2.0-1.0","4045","2","17","Female","approach_avoid_spark_v1","""event"",""trial"",""time""
""fullscreenenter"",""1"",""1710""
","
","
","""event"",""trial"",""time""
""fullscreenenter"",""1"",""1710""
","
","","","","","","1666.2999999523163","images/cow7.png","","","learning","-5","-5","1","1","cow","animals","1","1","","bad","[-6]"
"html-keyboard-response","191","748897","0.0-11.0-2.0-0.1","4045","2","17","Female","approach_avoid_spark_v1","""event"",""trial"",""time""
""fullscreenenter"",""1"",""1710""
","
","
","""event"",""trial"",""time""
""fullscreenenter"",""1"",""1710""
","
","","","","","","null","<div style=""font-size:60px;"">+</div>","null","","fixation","","","","","","","","","","",""
"aa-learning-trial","192","751916","0.0-11.0-2.0-1.1","4045","2","17","Female","approach_avoid_spark_v1","""event"",""trial"",""time""
""fullscreenenter"",""1"",""1710""
","
","
","""event"",""trial"",""time""
""fullscreenenter"",""1"",""1710""
","
","","","","","","1075.2000000476837","images/goat4.png","","","learning","2","0","0","0","goat","animals","1","1","","neutral","0"
"html-keyboard-response","193","752430","0.0-11.0-2.0-0.2","4045","2","17","Female","approach_avoid_spark_v1","""event"",""trial"",""time""
""fullscreenenter"",""1"",""1710""
","
","
","""event"",""trial"",""time""
""fullscreenenter"",""1"",""1710""
","
","","","","","","null","<div style=""font-size:60px;"">+</div>","null","","fixation","","","","","","","","","","",""
"aa-learning-trial","194","755435","0.0-11.0-2.0-1.2","4045","2","17","Female","approach_avoid_spark_v1","""event"",""trial"",""time""
""fullscreenenter"",""1"",""1710""
","
","
","""event"",""trial"",""time""
""fullscreenenter"",""1"",""1710""
","
","","","","","","986.3999999761581","images/cow1.png","","","learning","-8","-8","1","1","cow","animals","1","1","","bad","[-6]"
"html-keyboard-response","195","755937","0.0-11.0-2.0-0.3","4045","2","17","Female","approach_avoid_spark_v1","""event"",""trial"",""time""
""fullscreenenter"",""1"",""1710""
","
","
","""event"",""trial"",""time""
""fullscreenenter"",""1"",""1710""
","
","","","","","","null","<div style=""font-size:60px;"">+</div>","null","","fixation","","","","","","","","","","",""
"aa-learning-trial","196","758952","0.0-11.0-2.0-1.3","4045","2","17","Female","approach_avoid_spark_v1","""event"",""trial"",""time""
""fullscreenenter"",""1"",""1710""
","
","
","""event"",""trial"",""time""
""fullscreenenter"",""1"",""1710""
","
","","","","","","689.6000000238419","images/horse1.png","","","learning","5","0","0","0","horse","animals","1","1","","good","[5]"
"html-keyboard-response","197","759454","0.0-11.0-2.0-0.4","4045","2","17","Female","approach_avoid_spark_v1","""event"",""trial"",""time""
""fullscreenenter"",""1"",""1710""
","
","
","""event"",""trial"",""time""
""fullscreenenter"",""1"",""1710""
","
","","","","","","null","<div style=""font-size:60px;"">+</div>","null","","fixation","","","","","","","","","","",""
"aa-learning-trial","198","762459","0.0-11.0-2.0-1.4","4045","2","17","Female","approach_avoid_spark_v1","""event"",""trial"",""time""
""fullscreenenter"",""1"",""1710""
","
","
","""event"",""trial"",""time""
""fullscreenenter"",""1"",""1710""
","
","","","","","","888","images/cow4.png","","","learning","-5","-5","1","1","cow","animals","1","1","","bad","[-6]"
"html-keyboard-response","199","762974","0.0-11.0-2.0-0.5","4045","2","17","Female","approach_avoid_spark_v1","""event"",""trial"",""time""
""fullscreenenter"",""1"",""1710""
","
","
","""event"",""trial"",""time""
""fullscreenenter"",""1"",""1710""
","
","","","","","","null","<div style=""font-size:60px;"">+</div>","null","","fixation","","","","","","","","","","",""
"aa-learning-trial","200","765993","0.0-11.0-2.0-1.5","4045","2","17","Female","approach_avoid_spark_v1","""event"",""trial"",""time""
""fullscreenenter"",""1"",""1710""
","
","
","""event"",""trial"",""time""
""fullscreenenter"",""1"",""1710""
","
","","","","","","543","images/goat8.png","","","learning","[1]","1","1","1","goat","animals","1","1","","neutral","0"
"html-keyboard-response","201","766509","0.0-11.0-2.0-0.6","4045","2","17","Female","approach_avoid_spark_v1","""event"",""trial"",""time""
""fullscreenenter"",""1"",""1710""
","
","
","""event"",""trial"",""time""
""fullscreenenter"",""1"",""1710""
","
","","","","","","null","<div style=""font-size:60px;"">+</div>","null","","fixation","","","","","","","","","","",""
"aa-learning-trial","202","769512","0.0-11.0-2.0-1.6","4045","2","17","Female","approach_avoid_spark_v1","""event"",""trial"",""time""
""fullscreenenter"",""1"",""1710""
","
","
","""event"",""trial"",""time""
""fullscreenenter"",""1"",""1710""
","
","","","","","","608.2000000476837","images/goat7.png","","","learning","2","2","1","1","goat","animals","1","1","","neutral","0"
"html-keyboard-response","203","770025","0.0-11.0-2.0-0.7","4045","2","17","Female","approach_avoid_spark_v1","""event"",""trial"",""time""
""fullscreenenter"",""1"",""1710""
","
","
","""event"",""trial"",""time""
""fullscreenenter"",""1"",""1710""
","
","","","","","","null","<div style=""font-size:60px;"">+</div>","null","","fixation","","","","","","","","","","",""
"aa-learning-trial","204","773031","0.0-11.0-2.0-1.7","4045","2","17","Female","approach_avoid_spark_v1","""event"",""trial"",""time""
""fullscreenenter"",""1"",""1710""
","
","
","""event"",""trial"",""time""
""fullscreenenter"",""1"",""1710""
","
","","","","","","634.7999999523163","images/goat8.png","","","learning","-1","-1","1","1","goat","animals","1","1","","neutral","0"
"html-keyboard-response","205","773533","0.0-11.0-2.0-0.8","4045","2","17","Female","approach_avoid_spark_v1","""event"",""trial"",""time""
""fullscreenenter"",""1"",""1710""
","
","
","""event"",""trial"",""time""
""fullscreenenter"",""1"",""1710""
","
","","","","","","null","<div style=""font-size:60px;"">+</div>","null","","fixation","","","","","","","","","","",""
"aa-learning-trial","206","776538","0.0-11.0-2.0-1.8","4045","2","17","Female","approach_avoid_spark_v1","""event"",""trial"",""time""
""fullscreenenter"",""1"",""1710""
","
","
","""event"",""trial"",""time""
""fullscreenenter"",""1"",""1710""
","
","","","","","","1023.4000000953674","images/horse2.png","","","learning","5","5","1","1","horse","animals","1","1","","good","[5]"
"html-keyboard-response","207","777040","0.0-11.0-2.0-0.9","4045","2","17","Female","approach_avoid_spark_v1","""event"",""trial"",""time""
""fullscreenenter"",""1"",""1710""
","
","
","""event"",""trial"",""time""
""fullscreenenter"",""1"",""1710""
","
","","","","","","null","<div style=""font-size:60px;"">+</div>","null","","fixation","","","","","","","","","","",""
"aa-learning-trial","208","780045","0.0-11.0-2.0-1.9","4045","2","17","Female","approach_avoid_spark_v1","""event"",""trial"",""time""
""fullscreenenter"",""1"",""1710""
","
","
","""event"",""trial"",""time""
""fullscreenenter"",""1"",""1710""
","
","","","","","","715.5","images/horse4.png","","","learning","7","7","1","1","horse","animals","1","1","","good","[5]"
"html-keyboard-response","209","780547","0.0-11.0-2.0-0.10","4045","2","17","Female","approach_avoid_spark_v1","""event"",""trial"",""time""
""fullscreenenter"",""1"",""1710""
","
","
","""event"",""trial"",""time""
""fullscreenenter"",""1"",""1710""
","
","","","","","","null","<div style=""font-size:60px;"">+</div>","null","","fixation","","","","","","","","","","",""
"aa-learning-trial","210","783552","0.0-11.0-2.0-1.10","4045","2","17","Female","approach_avoid_spark_v1","""event"",""trial"",""time""
""fullscreenenter"",""1"",""1710""
","
","
","""event"",""trial"",""time""
""fullscreenenter"",""1"",""1710""
","
","","","","","","594.0999999046326","images/horse2.png","","","learning","6","6","1","1","horse","animals","1","1","","good","[5]"
"html-keyboard-response","211","784055","0.0-11.0-2.0-0.11","4045","2","17","Female","approach_avoid_spark_v1","""event"",""trial"",""time""
""fullscreenenter"",""1"",""1710""
","
","
","""event"",""trial"",""time""
""fullscreenenter"",""1"",""1710""
","
","","","","","","null","<div style=""font-size:60px;"">+</div>","null","","fixation","","","","","","","","","","",""
"aa-learning-trial","212","787059","0.0-11.0-2.0-1.11","4045","2","17","Female","approach_avoid_spark_v1","""event"",""trial"",""time""
""fullscreenenter"",""1"",""1710""
","
","
","""event"",""trial"",""time""
""fullscreenenter"",""1"",""1710""
","
","","","","","","582.5","images/cow1.png","","","learning","-6","0","0","0","cow","animals","1","1","","bad","[-6]"
"html-keyboard-response","213","787562","0.0-11.0-2.0-0.12","4045","2","17","Female","approach_avoid_spark_v1","""event"",""trial"",""time""
""fullscreenenter"",""1"",""1710""
","
","
","""event"",""trial"",""time""
""fullscreenenter"",""1"",""1710""
","
","","","","","","null","<div style=""font-size:60px;"">+</div>","null","","fixation","","","","","","","","","","",""
"aa-learning-trial","214","790564","0.0-11.0-2.0-1.12","4045","2","17","Female","approach_avoid_spark_v1","""event"",""trial"",""time""
""fullscreenenter"",""1"",""1710""
","
","
","""event"",""trial"",""time""
""fullscreenenter"",""1"",""1710""
","
","","","","","","1009.8999999761581","images/goat7.png","","","learning","1","1","1","1","goat","animals","1","1","","neutral","0"
"html-keyboard-response","215","791067","0.0-11.0-2.0-0.13","4045","2","17","Female","approach_avoid_spark_v1","""event"",""trial"",""time""
""fullscreenenter"",""1"",""1710""
","
","
","""event"",""trial"",""time""
""fullscreenenter"",""1"",""1710""
","
","","","","","","null","<div style=""font-size:60px;"">+</div>","null","","fixation","","","","","","","","","","",""
"aa-learning-trial","216","794071","0.0-11.0-2.0-1.13","4045","2","17","Female","approach_avoid_spark_v1","""event"",""trial"",""time""
""fullscreenenter"",""1"",""1710""
","
","
","""event"",""trial"",""time""
""fullscreenenter"",""1"",""1710""
","
","","","","","","637.3000000715256","images/cow4.png","","","learning","-5","0","0","0","cow","animals","1","1","","bad","[-6]"
"html-keyboard-response","217","794572","0.0-11.0-2.0-0.14","4045","2","17","Female","approach_avoid_spark_v1","""event"",""trial"",""time""
""fullscreenenter"",""1"",""1710""
","
","
","""event"",""trial"",""time""
""fullscreenenter"",""1"",""1710""
","
","","","","","","null","<div style=""font-size:60px;"">+</div>","null","","fixation","","","","","","","","","","",""
"aa-learning-trial","218","797577","0.0-11.0-2.0-1.14","4045","2","17","Female","approach_avoid_spark_v1","""event"",""trial"",""time""
""fullscreenenter"",""1"",""1710""
","
","
","""event"",""trial"",""time""
""fullscreenenter"",""1"",""1710""
","
","","","","","","638.8999999761581","images/horse1.png","","","learning","4","4","1","1","horse","animals","1","1","","good","[5]"
"html-keyboard-response","219","798079","0.0-11.0-2.0-0.15","4045","2","17","Female","approach_avoid_spark_v1","""event"",""trial"",""time""
""fullscreenenter"",""1"",""1710""
","
","
","""event"",""trial"",""time""
""fullscreenenter"",""1"",""1710""
","
","","","","","","null","<div style=""font-size:60px;"">+</div>","null","","fixation","","","","","","","","","","",""
"aa-learning-trial","220","801085","0.0-11.0-2.0-1.15","4045","2","17","Female","approach_avoid_spark_v1","""event"",""trial"",""time""
""fullscreenenter"",""1"",""1710""
","
","
","""event"",""trial"",""time""
""fullscreenenter"",""1"",""1710""
","
","","","","","","539.2999999523163","images/cow7.png","","","learning","-3","0","0","0","cow","animals","1","1","","bad","[-6]"
"html-keyboard-response","221","801587","0.0-11.0-2.0-0.16","4045","2","17","Female","approach_avoid_spark_v1","""event"",""trial"",""time""
""fullscreenenter"",""1"",""1710""
","
","
","""event"",""trial"",""time""
""fullscreenenter"",""1"",""1710""
","
","","","","","","null","<div style=""font-size:60px;"">+</div>","null","","fixation","","","","","","","","","","",""
"aa-learning-trial","222","804592","0.0-11.0-2.0-1.16","4045","2","17","Female","approach_avoid_spark_v1","""event"",""trial"",""time""
""fullscreenenter"",""1"",""1710""
","
","
","""event"",""trial"",""time""
""fullscreenenter"",""1"",""1710""
","
","","","","","","504.39999997615814","images/goat7.png","","","learning","[1]","1","1","1","goat","animals","1","1","","neutral","0"
"html-keyboard-response","223","805094","0.0-11.0-2.0-0.17","4045","2","17","Female","approach_avoid_spark_v1","""event"",""trial"",""time""
""fullscreenenter"",""1"",""1710""
","
","
","""event"",""trial"",""time""
""fullscreenenter"",""1"",""1710""
","
","","","","","","null","<div style=""font-size:60px;"">+</div>","null","","fixation","","","","","","","","","","",""
"aa-learning-trial","224","808098","0.0-11.0-2.0-1.17","4045","2","17","Female","approach_avoid_spark_v1","""event"",""trial"",""time""
""fullscreenenter"",""1"",""1710""
","
","
","""event"",""trial"",""time""
""fullscreenenter"",""1"",""1710""
","
","","","","","","516.8999999761581","images/goat4.png","","","learning","-2","-2","1","1","goat","animals","1","1","","neutral","0"
"html-keyboard-response","225","808601","0.0-11.0-2.0-0.18","4045","2","17","Female","approach_avoid_spark_v1","""event"",""trial"",""time""
""fullscreenenter"",""1"",""1710""
","
","
","""event"",""trial"",""time""
""fullscreenenter"",""1"",""1710""
","
","","","","","","null","<div style=""font-size:60px;"">+</div>","null","","fixation","","","","","","","","","","",""
"aa-learning-trial","226","811606","0.0-11.0-2.0-1.18","4045","2","17","Female","approach_avoid_spark_v1","""event"",""trial"",""time""
""fullscreenenter"",""1"",""1710""
","
","
","""event"",""trial"",""time""
""fullscreenenter"",""1"",""1710""
","
","","","","","","616.2999999523163","images/horse1.png","","","learning","3","3","1","1","horse","animals","1","1","","good","[5]"
"html-keyboard-response","227","812108","0.0-11.0-2.0-0.19","4045","2","17","Female","approach_avoid_spark_v1","""event"",""trial"",""time""
""fullscreenenter"",""1"",""1710""
","
","
","""event"",""trial"",""time""
""fullscreenenter"",""1"",""1710""
","
","","","","","","null","<div style=""font-size:60px;"">+</div>","null","","fixation","","","","","","","","","","",""
"aa-learning-trial","228","815114","0.0-11.0-2.0-1.19","4045","2","17","Female","approach_avoid_spark_v1","""event"",""trial"",""time""
""fullscreenenter"",""1"",""1710""
","
","
","""event"",""trial"",""time""
""fullscreenenter"",""1"",""1710""
","
","","","","","","845.2999999523163","images/goat4.png","","","learning","-1","-1","1","1","goat","animals","1","1","","neutral","0"
"html-keyboard-response","229","815616","0.0-11.0-2.0-0.20","4045","2","17","Female","approach_avoid_spark_v1","""event"",""trial"",""time""
""fullscreenenter"",""1"",""1710""
","
","
","""event"",""trial"",""time""
""fullscreenenter"",""1"",""1710""
","
","","","","","","null","<div style=""font-size:60px;"">+</div>","null","","fixation","","","","","","","","","","",""
"aa-learning-trial","230","818620","0.0-11.0-2.0-1.20","4045","2","17","Female","approach_avoid_spark_v1","""event"",""trial"",""time""
""fullscreenenter"",""1"",""1710""
","
","
","""event"",""trial"",""time""
""fullscreenenter"",""1"",""1710""
","
","","","","","","489","images/horse2.png","","","learning","4","4","1","1","horse","animals","1","1","","good","[5]"
"html-keyboard-response","231","819122","0.0-11.0-2.0-0.21","4045","2","17","Female","approach_avoid_spark_v1","""event"",""trial"",""time""
""fullscreenenter"",""1"",""1710""
","
","
","""event"",""trial"",""time""
""fullscreenenter"",""1"",""1710""
","
","","","","","","null","<div style=""font-size:60px;"">+</div>","null","","fixation","","","","","","","","","","",""
"aa-learning-trial","232","822126","0.0-11.0-2.0-1.21","4045","2","17","Female","approach_avoid_spark_v1","""event"",""trial"",""time""
""fullscreenenter"",""1"",""1710""
","
","
","""event"",""trial"",""time""
""fullscreenenter"",""1"",""1710""
","
","","","","","","494.59999990463257","images/goat1.png","","","learning","1","1","1","1","goat","animals","1","1","","neutral","0"
"html-keyboard-response","233","822628","0.0-11.0-2.0-0.22","4045","2","17","Female","approach_avoid_spark_v1","""event"",""trial"",""time""
""fullscreenenter"",""1"",""1710""
","
","
","""event"",""trial"",""time""
""fullscreenenter"",""1"",""1710""
","
","","","","","","null","<div style=""font-size:60px;"">+</div>","null","","fixation","","","","","","","","","","",""
"aa-learning-trial","234","825636","0.0-11.0-2.0-1.22","4045","2","17","Female","approach_avoid_spark_v1","""event"",""trial"",""time""
""fullscreenenter"",""1"",""1710""
","
","
","""event"",""trial"",""time""
""fullscreenenter"",""1"",""1710""
","
","","","","","","783","images/horse4.png","","","learning","4","4","1","1","horse","animals","1","1","","good","[5]"
"html-keyboard-response","235","826139","0.0-11.0-2.0-0.23","4045","2","17","Female","approach_avoid_spark_v1","""event"",""trial"",""time""
""fullscreenenter"",""1"",""1710""
","
","
","""event"",""trial"",""time""
""fullscreenenter"",""1"",""1710""
","
","","","","","","null","<div style=""font-size:60px;"">+</div>","null","","fixation","","","","","","","","","","",""
