"trial_type","trial_index","time_elapsed","internal_node_id","subject_id","task_condition","age","gender","task_version","interactions","blur_events","focus_events","fullscreenenter_events","fullscreenexit_events","success","timeout","failed_images","failed_audio","failed_video","rt","stimulus","response","button_pressed","task_part","approach_reward","points","key_press","option_selected","stim_cat","task_block","block_condition","block_number","correct","cat_type","mean_cat_reward"
"pavlovia","0","11","0.0-0.0","3769","2","13","Male","approach_avoid_spark_v1","""event"",""trial"",""time""
""fullscreenenter"",""1"",""2903""
","
","
","""event"",""trial"",""time""
""fullscreenenter"",""1"",""2903""
","
","","","","","","","","","","","","","","","","","","","","",""
"fullscreen","1","3883","0.0-1.0","3769","2","13","Male","approach_avoid_spark_v1","""event"",""trial"",""time""
""fullscreenenter"",""1"",""2903""
","
","
","""event"",""trial"",""time""
""fullscreenenter"",""1"",""2903""
","
","true","","","","","","","","","","","","","","","","","","","",""
"preload","2","18325","0.0-2.0","3769","2","13","Male","approach_avoid_spark_v1","""event"",""trial"",""time""
""fullscreenenter"",""1"",""2903""
","
","
","""event"",""trial"",""time""
""fullscreenenter"",""1"",""2903""
","
","true","false","[]","[]","[]","","","","","","","","","","","","","","","",""
"audio-keyboard-response","3","19911","0.0-3.0","3769","2","13","Male","approach_avoid_spark_v1","""event"",""trial"",""time""
""fullscreenenter"",""1"",""2903""
","
","
","""event"",""trial"",""time""
""fullscreenenter"",""1"",""2903""
","
","","","","","","1581.3333333333333","audio/beep_loop.wav"," ","","","","","","","","","","","","",""
"audio-button-response","4","21640","0.0-4.0","3769","2","13","Male","approach_avoid_spark_v1","""event"",""trial"",""time""
""fullscreenenter"",""1"",""2903""
","
","
","""event"",""trial"",""time""
""fullscreenenter"",""1"",""2903""
","
","","","","","","1739","audio/shark.wav","4","","","","","","","","","","","","",""
"audio-button-response","5","23576","0.0-5.0","3769","2","13","Male","approach_avoid_spark_v1","""event"",""trial"",""time""
""fullscreenenter"",""1"",""2903""
","
","
","""event"",""trial"",""time""
""fullscreenenter"",""1"",""2903""
","
","","","","","","931","audio/turtle.wav","1","","","","","","","","","","","","",""
"preload","6","29777","0.0-6.0","3769","2","13","Male","approach_avoid_spark_v1","""event"",""trial"",""time""
""fullscreenenter"",""1"",""2903""
","
","
","""event"",""trial"",""time""
""fullscreenenter"",""1"",""2903""
","
","true","false","[]","[]","[]","","","","","","","","","","","","","","","",""
"html-keyboard-response","7","31077","0.0-7.0","3769","2","13","Male","approach_avoid_spark_v1","""event"",""trial"",""time""
""fullscreenenter"",""1"",""2903""
","
","
","""event"",""trial"",""time""
""fullscreenenter"",""1"",""2903""
","
","","","","","","1300","Welcome to the experiment. Press any key to begin and to advance the instructions."," ","","","","","","","","","","","","",""
"learning-instructions","8","39240","0.0-8.0-0.0-0.0","3769","2","13","Male","approach_avoid_spark_v1","""event"",""trial"",""time""
""fullscreenenter"",""1"",""2903""
","
","
","""event"",""trial"",""time""
""fullscreenenter"",""1"",""2903""
","
","","","","","","1200","<p> Welcome! Today you are going to play 6 different rounds of a decision-making game. </p><p> Use the mouse to click next to continue. </p>","","0","instructions","","","","","","","","","","",""
"learning-instructions","9","42216","0.0-8.0-0.0-0.1","3769","2","13","Male","approach_avoid_spark_v1","""event"",""trial"",""time""
""fullscreenenter"",""1"",""2903""
","
","
","""event"",""trial"",""time""
""fullscreenenter"",""1"",""2903""
","
","","","","","","237","<p> You will start with a practice round to learn the rules. </p>","","0","instructions","","","","","","","","","","",""
"learning-instructions","10","46120","0.0-8.0-0.0-0.2","3769","2","13","Male","approach_avoid_spark_v1","""event"",""trial"",""time""
""fullscreenenter"",""1"",""2903""
","
","
","""event"",""trial"",""time""
""fullscreenenter"",""1"",""2903""
","
","","","","","","440","<p> Your goal in this round is to give out sports equipment to kids. </p></div>","","0","instructions","","","","","","","","","","",""
"learning-instructions","11","53951","0.0-8.0-0.0-0.3","3769","2","13","Male","approach_avoid_spark_v1","""event"",""trial"",""time""
""fullscreenenter"",""1"",""2903""
","
","
","""event"",""trial"",""time""
""fullscreenenter"",""1"",""2903""
","
","","","","","","272","<p> The kids only like some of the equipment.  </p><p> On each turn, you will see a piece of sports equipment.   </p><p> You need to decide whether to give it to the kids or not.  </p>","","0","instructions","","","","","","","","","","",""
"learning-instructions","12","59182","0.0-8.0-0.0-0.4","3769","2","13","Male","approach_avoid_spark_v1","""event"",""trial"",""time""
""fullscreenenter"",""1"",""2903""
","
","
","""event"",""trial"",""time""
""fullscreenenter"",""1"",""2903""
","
","","","","","","474","<p> You can give them the equipment by pressing 1 and choose not to give it to them by pressing 0. </p><br><div class=""choice-instructions-grid""> <div class=""choice-option""><img src=""images/approach.png"" class=""choice-option-img"" stage=""instructions"" position=""0"" ><div class=""choice-option-text""> Press ""1."" </div></div><div class=""choice-option""><img src=""images/avoid.png"" class=""choice-option-img"" stage=""instructions"" position=""1"" ><div class=""choice-option-text""> Press ""0."" </div></div>","","0","instructions","","","","","","","","","","",""
"learning-instructions","13","67167","0.0-8.0-0.0-0.5","3769","2","13","Male","approach_avoid_spark_v1","""event"",""trial"",""time""
""fullscreenenter"",""1"",""2903""
","
","
","""event"",""trial"",""time""
""fullscreenenter"",""1"",""2903""
","
","","","","","","597","<p> If you give them a piece of equipment they like, they will be happy! </p><p> But if you give them a piece of equipment they do not like, they will be sad. </p>","","0","instructions","","","","","","","","","","",""
"learning-instructions","14","78062","0.0-8.0-0.0-0.6","3769","2","13","Male","approach_avoid_spark_v1","""event"",""trial"",""time""
""fullscreenenter"",""1"",""2903""
","
","
","""event"",""trial"",""time""
""fullscreenenter"",""1"",""2903""
","
","","","","","","374","<p> You will earn points based on how you make kids feel. </p><p> If you make them happy, you will WIN anywhere from 1 - 9 points, </p><p> but if you make them sad, you will LOSE anywhere from 1 - 9 points. </p>","","0","instructions","","","","","","","","","","",""
"learning-instructions","15","88030","0.0-8.0-0.0-0.7","3769","2","13","Male","approach_avoid_spark_v1","""event"",""trial"",""time""
""fullscreenenter"",""1"",""2903""
","
","
","""event"",""trial"",""time""
""fullscreenenter"",""1"",""2903""
","
","","","","","","392","<p> You will see how many points you won or lost in the center of the screen. </p><p> Here is what you would see if you won 6 points: </p><p style=""color:green;font-size:50px;font-weight:bolder"">6</p><p style=""color:green"">The text is GREEN because you WON points.</p>","","0","instructions","","","","","","","","","","",""
"learning-instructions","16","93950","0.0-8.0-0.0-0.8","3769","2","13","Male","approach_avoid_spark_v1","""event"",""trial"",""time""
""fullscreenenter"",""1"",""2903""
","
","
","""event"",""trial"",""time""
""fullscreenenter"",""1"",""2903""
","
","","","","","","413","<p> And here is what you would see if you lost 4 points: </p><p style=""color:red;font-size:50px;font-weight:bolder"">-4</p><p style=""color:red"">The text is RED because you LOST points. </p>","","0","instructions","","","","","","","","","","",""
"learning-instructions","17","109173","0.0-8.0-0.0-0.9","3769","2","13","Male","approach_avoid_spark_v1","""event"",""trial"",""time""
""fullscreenenter"",""1"",""2903""
","
","
","""event"",""trial"",""time""
""fullscreenenter"",""1"",""2903""
","
","","","","","","506","<p> Some of the equipment will make the kids VERY happy or sad. </p><p> These pieces of equipment will make you win or lose LOTS of points. </p><p> Other pieces of equipment will only make the kids a little happy or sad. </p><p> These pieces of equipment will make you win or lose small amounts of points. </p>","","0","instructions","","","","","","","","","","",""
"learning-instructions","18","121125","0.0-8.0-0.0-0.10","3769","2","13","Male","approach_avoid_spark_v1","""event"",""trial"",""time""
""fullscreenenter"",""1"",""2903""
","
","
","""event"",""trial"",""time""
""fullscreenenter"",""1"",""2903""
","
","","","","","","1329","<p> If you choose not to give them the equipment, you will not win or lose any points. </p><p>  However, in the center of the screen, you will see the number of points you WOULD HAVE won or lost if you had given them the equipment. </p>","","0","instructions","","","","","","","","","","",""
"learning-instructions","19","142899","0.0-8.0-0.0-0.11","3769","2","13","Male","approach_avoid_spark_v1","""event"",""trial"",""time""
""fullscreenenter"",""1"",""2903""
","
","
","""event"",""trial"",""time""
""fullscreenenter"",""1"",""2903""
","
","","","","","","244","<p> Here is what you might see if you did not give the equipment to the kids but it would have made them happy: </p><p style=""color:grey; font-size:50px; display: inline-block; border-spacing: 15px; border-width:3px; border-style:solid; border-color:red"">  &nbsp; 7 &nbsp; </p><p> Remember, in this case, you would not win or lose ANY points because you did not give them the equipment.  </p><p style=""color:grey"">The text is GREY because you earned ZERO points. </p><p style=""color:red"">However, choosing to give the kids the equipment would have made you win points. The box around the text is RED because you chose the worse option. </p>","","0","instructions","","","","","","","","","","",""
"learning-instructions","20","164778","0.0-8.0-0.0-0.12","3769","2","13","Male","approach_avoid_spark_v1","""event"",""trial"",""time""
""fullscreenenter"",""1"",""2903""
","
","
","""event"",""trial"",""time""
""fullscreenenter"",""1"",""2903""
","
","","","","","","794","<p> Here is what you might see if you did not give the equipment to the kids but it would have made them sad: </p><p style=""color:grey;font-size:50px; display: inline-block; border-spacing: 15px; border-width:3px; border-style:solid; border-color:green"">  &nbsp; -8 &nbsp; </p><p> Remember, in this case, you would not win or lose ANY points because you did not give them the equipment.  </p><p style=""color:grey"">The text is GREY because you earned ZERO points. </p><p  style=""color:green""> Choosing to give the kids the equipment would have made you lose points. The box around the text is GREEN because you chose the better option.</p>","","0","instructions","","","","","","","","","","",""
"learning-instructions","21","175106","0.0-8.0-0.0-0.13","3769","2","13","Male","approach_avoid_spark_v1","""event"",""trial"",""time""
""fullscreenenter"",""1"",""2903""
","
","
","""event"",""trial"",""time""
""fullscreenenter"",""1"",""2903""
","
","","","","","","1202","<p> You will have 3 seconds to make each choice. Try to respond before time runs out! </p><p> You will lose 5 points each time you do not make a response. </p>","","0","instructions","","","","","","","","","","",""
"learning-instructions","22","181050","0.0-8.0-0.0-0.14","3769","2","13","Male","approach_avoid_spark_v1","""event"",""trial"",""time""
""fullscreenenter"",""1"",""2903""
","
","
","""event"",""trial"",""time""
""fullscreenenter"",""1"",""2903""
","
","","","","","","515","<p> This is just a practice round, but in the real game, your bonus payment will depend on your total number of points.","","0","instructions","","","","","","","","","","",""
"learning-instructions","23","187297","0.0-8.0-0.0-0.15","3769","2","13","Male","approach_avoid_spark_v1","""event"",""trial"",""time""
""fullscreenenter"",""1"",""2903""
","
","
","""event"",""trial"",""time""
""fullscreenenter"",""1"",""2903""
","
","","","","","","474","<p> Remember, you can give them the equipment by pressing 1 and choose not to give it to them by pressing 0. </p><br><div class=""choice-instructions-grid""> <div class=""choice-option""><img src=""images/approach.png"" class=""choice-option-img"" stage=""instructions"" position=""0"" ><div class=""choice-option-text""> Press ""1."" </div></div><div class=""choice-option""><img src=""images/avoid.png"" class=""choice-option-img"" stage=""instructions"" position=""1"" ><div class=""choice-option-text""> Press ""0."" </div></div>","","0","instructions","","","","","","","","","","",""
"html-button-response","24","189274","0.0-8.0-1.0","3769","2","13","Male","approach_avoid_spark_v1","""event"",""trial"",""time""
""fullscreenenter"",""1"",""2903""
","
","
","""event"",""trial"",""time""
""fullscreenenter"",""1"",""2903""
","
","","","","","","1870","<p> Ready to practice? </p>","0","","","","","","","","","","","","",""
"html-keyboard-response","25","189891","0.0-8.0-2.0-0.0","3769","2","13","Male","approach_avoid_spark_v1","""event"",""trial"",""time""
""fullscreenenter"",""1"",""2903""
","
","
","""event"",""trial"",""time""
""fullscreenenter"",""1"",""2903""
","
","","","","","","null","<div style=""font-size:60px;"">+</div>","null","","fixation","","","","","","","","","","",""
"aa-learning-trial","26","193167","0.0-8.0-2.0-1.0","3769","2","13","Male","approach_avoid_spark_v1","""event"",""trial"",""time""
""fullscreenenter"",""1"",""2903""
","
","
","""event"",""trial"",""time""
""fullscreenenter"",""1"",""2903""
","
","","","","","","1496","images/racket4.png","","","learning","-1","-1","1","1","practice","practice","practice","-1","","",""
"html-keyboard-response","27","193671","0.0-8.0-2.0-0.1","3769","2","13","Male","approach_avoid_spark_v1","""event"",""trial"",""time""
""fullscreenenter"",""1"",""2903""
","
","
","""event"",""trial"",""time""
""fullscreenenter"",""1"",""2903""
","
","","","","","","null","<div style=""font-size:60px;"">+</div>","null","","fixation","","","","","","","","","","",""
"aa-learning-trial","28","196681","0.0-8.0-2.0-1.1","3769","2","13","Male","approach_avoid_spark_v1","""event"",""trial"",""time""
""fullscreenenter"",""1"",""2903""
","
","
","""event"",""trial"",""time""
""fullscreenenter"",""1"",""2903""
","
","","","","","","1076","images/racket3.png","","","learning","3","0","0","0","practice","practice","practice","-1","","",""
"html-keyboard-response","29","197190","0.0-8.0-2.0-0.2","3769","2","13","Male","approach_avoid_spark_v1","""event"",""trial"",""time""
""fullscreenenter"",""1"",""2903""
","
","
","""event"",""trial"",""time""
""fullscreenenter"",""1"",""2903""
","
","","","","","","null","<div style=""font-size:60px;"">+</div>","null","","fixation","","","","","","","","","","",""
"aa-learning-trial","30","200200","0.0-8.0-2.0-1.2","3769","2","13","Male","approach_avoid_spark_v1","""event"",""trial"",""time""
""fullscreenenter"",""1"",""2903""
","
","
","""event"",""trial"",""time""
""fullscreenenter"",""1"",""2903""
","
","","","","","","829","images/ball1.png","","","learning","-4","-4","1","1","practice","practice","practice","-1","","",""
"html-keyboard-response","31","200710","0.0-8.0-2.0-0.3","3769","2","13","Male","approach_avoid_spark_v1","""event"",""trial"",""time""
""fullscreenenter"",""1"",""2903""
","
","
","""event"",""trial"",""time""
""fullscreenenter"",""1"",""2903""
","
","","","","","","null","<div style=""font-size:60px;"">+</div>","null","","fixation","","","","","","","","","","",""
"aa-learning-trial","32","203721","0.0-8.0-2.0-1.3","3769","2","13","Male","approach_avoid_spark_v1","""event"",""trial"",""time""
""fullscreenenter"",""1"",""2903""
","
","
","""event"",""trial"",""time""
""fullscreenenter"",""1"",""2903""
","
","","","","","","316","images/ball2.png","","","learning","-5","-5","1","1","practice","practice","practice","-1","","",""
"html-keyboard-response","33","204230","0.0-8.0-2.0-0.4","3769","2","13","Male","approach_avoid_spark_v1","""event"",""trial"",""time""
""fullscreenenter"",""1"",""2903""
","
","
","""event"",""trial"",""time""
""fullscreenenter"",""1"",""2903""
","
","","","","","","null","<div style=""font-size:60px;"">+</div>","null","","fixation","","","","","","","","","","",""
"aa-learning-trial","34","207240","0.0-8.0-2.0-1.4","3769","2","13","Male","approach_avoid_spark_v1","""event"",""trial"",""time""
""fullscreenenter"",""1"",""2903""
","
","
","""event"",""trial"",""time""
""fullscreenenter"",""1"",""2903""
","
","","","","","","325","images/racket1.png","","","learning","6","6","1","1","practice","practice","practice","-1","","",""
"html-keyboard-response","35","207750","0.0-8.0-2.0-0.5","3769","2","13","Male","approach_avoid_spark_v1","""event"",""trial"",""time""
""fullscreenenter"",""1"",""2903""
","
","
","""event"",""trial"",""time""
""fullscreenenter"",""1"",""2903""
","
","","","","","","null","<div style=""font-size:60px;"">+</div>","null","","fixation","","","","","","","","","","",""
"aa-learning-trial","36","210752","0.0-8.0-2.0-1.5","3769","2","13","Male","approach_avoid_spark_v1","""event"",""trial"",""time""
""fullscreenenter"",""1"",""2903""
","
","
","""event"",""trial"",""time""
""fullscreenenter"",""1"",""2903""
","
","","","","","","670","images/ball4.png","","","learning","5","5","1","1","practice","practice","practice","-1","","",""
"html-keyboard-response","37","211262","0.0-8.0-2.0-0.6","3769","2","13","Male","approach_avoid_spark_v1","""event"",""trial"",""time""
""fullscreenenter"",""1"",""2903""
","
","
","""event"",""trial"",""time""
""fullscreenenter"",""1"",""2903""
","
","","","","","","null","<div style=""font-size:60px;"">+</div>","null","","fixation","","","","","","","","","","",""
"aa-learning-trial","38","214272","0.0-8.0-2.0-1.6","3769","2","13","Male","approach_avoid_spark_v1","""event"",""trial"",""time""
""fullscreenenter"",""1"",""2903""
","
","
","""event"",""trial"",""time""
""fullscreenenter"",""1"",""2903""
","
","","","","","","430","images/ball3.png","","","learning","-6","-6","1","1","practice","practice","practice","-1","","",""
"html-keyboard-response","39","214781","0.0-8.0-2.0-0.7","3769","2","13","Male","approach_avoid_spark_v1","""event"",""trial"",""time""
""fullscreenenter"",""1"",""2903""
","
","
","""event"",""trial"",""time""
""fullscreenenter"",""1"",""2903""
","
","","","","","","null","<div style=""font-size:60px;"">+</div>","null","","fixation","","","","","","","","","","",""
"aa-learning-trial","40","217792","0.0-8.0-2.0-1.7","3769","2","13","Male","approach_avoid_spark_v1","""event"",""trial"",""time""
""fullscreenenter"",""1"",""2903""
","
","
","""event"",""trial"",""time""
""fullscreenenter"",""1"",""2903""
","
","","","","","","341","images/ball4.png","","","learning","2","2","1","1","practice","practice","practice","-1","","",""
"html-keyboard-response","41","218301","0.0-8.0-2.0-0.8","3769","2","13","Male","approach_avoid_spark_v1","""event"",""trial"",""time""
""fullscreenenter"",""1"",""2903""
","
","
","""event"",""trial"",""time""
""fullscreenenter"",""1"",""2903""
","
","","","","","","null","<div style=""font-size:60px;"">+</div>","null","","fixation","","","","","","","","","","",""
"aa-learning-trial","42","221312","0.0-8.0-2.0-1.8","3769","2","13","Male","approach_avoid_spark_v1","""event"",""trial"",""time""
""fullscreenenter"",""1"",""2903""
","
","
","""event"",""trial"",""time""
""fullscreenenter"",""1"",""2903""
","
","","","","","","750","images/racket2.png","","","learning","-1","-1","1","1","practice","practice","practice","-1","","",""
"html-keyboard-response","43","221821","0.0-8.0-2.0-0.9","3769","2","13","Male","approach_avoid_spark_v1","""event"",""trial"",""time""
""fullscreenenter"",""1"",""2903""
","
","
","""event"",""trial"",""time""
""fullscreenenter"",""1"",""2903""
","
","","","","","","null","<div style=""font-size:60px;"">+</div>","null","","fixation","","","","","","","","","","",""
"aa-learning-trial","44","224832","0.0-8.0-2.0-1.9","3769","2","13","Male","approach_avoid_spark_v1","""event"",""trial"",""time""
""fullscreenenter"",""1"",""2903""
","
","
","""event"",""trial"",""time""
""fullscreenenter"",""1"",""2903""
","
","","","","","","645","images/racket3.png","","","learning","-3","-3","1","1","practice","practice","practice","-1","","",""
"html-keyboard-response","45","225341","0.0-8.0-2.0-0.10","3769","2","13","Male","approach_avoid_spark_v1","""event"",""trial"",""time""
""fullscreenenter"",""1"",""2903""
","
","
","""event"",""trial"",""time""
""fullscreenenter"",""1"",""2903""
","
","","","","","","null","<div style=""font-size:60px;"">+</div>","null","","fixation","","","","","","","","","","",""
"aa-learning-trial","46","228351","0.0-8.0-2.0-1.10","3769","2","13","Male","approach_avoid_spark_v1","""event"",""trial"",""time""
""fullscreenenter"",""1"",""2903""
","
","
","""event"",""trial"",""time""
""fullscreenenter"",""1"",""2903""
","
","","","","","","613","images/racket3.png","","","learning","-9","0","0","0","practice","practice","practice","-1","","",""
"html-keyboard-response","47","228861","0.0-8.0-2.0-0.11","3769","2","13","Male","approach_avoid_spark_v1","""event"",""trial"",""time""
""fullscreenenter"",""1"",""2903""
","
","
","""event"",""trial"",""time""
""fullscreenenter"",""1"",""2903""
","
","","","","","","null","<div style=""font-size:60px;"">+</div>","null","","fixation","","","","","","","","","","",""
"aa-learning-trial","48","231871","0.0-8.0-2.0-1.11","3769","2","13","Male","approach_avoid_spark_v1","""event"",""trial"",""time""
""fullscreenenter"",""1"",""2903""
","
","
","""event"",""trial"",""time""
""fullscreenenter"",""1"",""2903""
","
","","","","","","645","images/ball4.png","","","learning","5","5","1","1","practice","practice","practice","-1","","",""
"html-button-response","49","235407","0.0-8.0-3.0","3769","2","13","Male","approach_avoid_spark_v1","""event"",""trial"",""time""
""fullscreenenter"",""1"",""2903""
","
","
","""event"",""trial"",""time""
""fullscreenenter"",""1"",""2903""
","
","","","","","","3534","<p> You earned -2 points in the practice round! </p>","0","","break","","","","","","","","","","",""
"learning-instructions","50","244151","0.0-8.0-4.0-0.0","3769","2","13","Male","approach_avoid_spark_v1","""event"",""trial"",""time""
""fullscreenenter"",""1"",""2903""
","
","
","""event"",""trial"",""time""
""fullscreenenter"",""1"",""2903""
","
","","","","","","2781","<p> It's almost time to start the real game. </p><p> Before you start, we're going to ask you a few questions about how the game works. </p>","","0","instructions","","","","","","","","","","",""
"preload","51","246604","0.0-8.0-5.0","3769","2","13","Male","approach_avoid_spark_v1","""event"",""trial"",""time""
""fullscreenenter"",""1"",""2903""
","
","
","""event"",""trial"",""time""
""fullscreenenter"",""1"",""2903""
","
","true","false","[]","[]","[]","","","","","","","","","","","","","","","",""
"comp-q","52","252462","0.0-8.0-6.0-0.0","3769","2","13","Male","approach_avoid_spark_v1","""event"",""trial"",""time""
""fullscreenenter"",""1"",""2903""
","
","
","""event"",""trial"",""time""
""fullscreenenter"",""1"",""2903""
","
","","","","","","851","<p> <b> True or False? </b> </p><p> If you see a number in GREY, that means you earned that many points. </p>","","1","comp_question","","","","","","","","","true","",""
"comp-q","53","263725","0.0-8.0-6.0-1.0","3769","2","13","Male","approach_avoid_spark_v1","""event"",""trial"",""time""
""fullscreenenter"",""1"",""2903""
","
","
","""event"",""trial"",""time""
""fullscreenenter"",""1"",""2903""
","
","","","","","","2885","<p><b> That's right! </b> If you see a grey number, it means you earned ZERO points. <br> The grey numbers show the points you WOULD HAVE earned if you had made the other choice. </p>","","0","comp_answer","","","","","","","","","","",""
"comp-q","54","269013","0.0-8.0-7.0-0.0","3769","2","13","Male","approach_avoid_spark_v1","""event"",""trial"",""time""
""fullscreenenter"",""1"",""2903""
","
","
","""event"",""trial"",""time""
""fullscreenenter"",""1"",""2903""
","
","","","","","","585","<p> <b> True or False? </b> </p><p> You will have as much time as you want to make each choice. </p>","","1","comp_question","","","","","","","","","true","",""
"comp-q","55","274301","0.0-8.0-7.0-1.0","3769","2","13","Male","approach_avoid_spark_v1","""event"",""trial"",""time""
""fullscreenenter"",""1"",""2903""
","
","
","""event"",""trial"",""time""
""fullscreenenter"",""1"",""2903""
","
","","","","","","1232","<p> <b> That's right! </b> You will only have 3 seconds to make each choice. </p>","","0","comp_answer","","","","","","","","","","",""
"comp-q","56","281597","0.0-8.0-8.0-0.0","3769","2","13","Male","approach_avoid_spark_v1","""event"",""trial"",""time""
""fullscreenenter"",""1"",""2903""
","
","
","""event"",""trial"",""time""
""fullscreenenter"",""1"",""2903""
","
","","","","","","2627","<p> <b> True or False? </b> </p><p> You should use the '1' and '0' keys to make your choices. </p>","","0","comp_question","","","","","","","","","true","",""
"comp-q","57","287621","0.0-8.0-8.0-1.0","3769","2","13","Male","approach_avoid_spark_v1","""event"",""trial"",""time""
""fullscreenenter"",""1"",""2903""
","
","
","""event"",""trial"",""time""
""fullscreenenter"",""1"",""2903""
","
","","","","","","1402","<p> <b> That's right! </b> You should use the '1' and '0' keys to make each choice. </p>","","0","comp_answer","","","","","","","","","","",""
"learning-instructions","58","296229","0.0-8.0-9.0-0.0","3769","2","13","Male","approach_avoid_spark_v1","""event"",""trial"",""time""
""fullscreenenter"",""1"",""2903""
","
","
","""event"",""trial"",""time""
""fullscreenenter"",""1"",""2903""
","
","","","","","","2330","<p> It's now time to start the real game. </p>Do your best, because the points you earn in the next rounds will influence your bonus payment. </p>","","0","instructions","","","","","","","","","","",""
"preload","59","296361","0.0-9.0-0.0","3769","2","13","Male","approach_avoid_spark_v1","""event"",""trial"",""time""
""fullscreenenter"",""1"",""2903""
","
","
","""event"",""trial"",""time""
""fullscreenenter"",""1"",""2903""
","
","true","false","[]","[]","[]","","","","","","","","","","","","","","","",""
"learning-instructions","60","304523","0.0-9.0-1.0-0.0","3769","2","13","Male","approach_avoid_spark_v1","""event"",""trial"",""time""
""fullscreenenter"",""1"",""2903""
","
","
","""event"",""trial"",""time""
""fullscreenenter"",""1"",""2903""
","
","","","","","","3835","<p> Your goal in this round is to take care of lots of farm animals. </p></div>","","0","instructions","","","","","","","","","","",""
"learning-instructions","61","315587","0.0-9.0-1.0-0.1","3769","2","13","Male","approach_avoid_spark_v1","""event"",""trial"",""time""
""fullscreenenter"",""1"",""2903""
","
","
","""event"",""trial"",""time""
""fullscreenenter"",""1"",""2903""
","
","","","","","","981","<p> Some farm animals are hungry, while other farm animals are already full.  </p><p> On each turn, you will see a farm animal.   </p><p> You need to decide whether to feed it or not.  </p>","","0","instructions","","","","","","","","","","",""
"learning-instructions","62","321987","0.0-9.0-1.0-0.2","3769","2","13","Male","approach_avoid_spark_v1","""event"",""trial"",""time""
""fullscreenenter"",""1"",""2903""
","
","
","""event"",""trial"",""time""
""fullscreenenter"",""1"",""2903""
","
","","","","","","460","<p> You can feed the farm animal by pressing 1 and leave the farm animal alone by pressing 0. </p><br><div class=""choice-instructions-grid""> <div class=""choice-option""><img src=""images/approach.png"" class=""choice-option-img"" stage=""instructions"" position=""0"" ><div class=""choice-option-text""> Press ""1."" </div></div><div class=""choice-option""><img src=""images/avoid.png"" class=""choice-option-img"" stage=""instructions"" position=""1"" ><div class=""choice-option-text""> Press ""0."" </div></div>","","0","instructions","","","","","","","","","","",""
"learning-instructions","63","332874","0.0-9.0-1.0-0.3","3769","2","13","Male","approach_avoid_spark_v1","""event"",""trial"",""time""
""fullscreenenter"",""1"",""2903""
","
","
","""event"",""trial"",""time""
""fullscreenenter"",""1"",""2903""
","
","","","","","","1258","<p> If you feed a hungry farm animal, you will make it feel satisfied! </p><p> But if you feed the farm animal and it was already full, you will make it feel sick. </p>","","0","instructions","","","","","","","","","","",""
"learning-instructions","64","346347","0.0-9.0-1.0-0.4","3769","2","13","Male","approach_avoid_spark_v1","""event"",""trial"",""time""
""fullscreenenter"",""1"",""2903""
","
","
","""event"",""trial"",""time""
""fullscreenenter"",""1"",""2903""
","
","","","","","","920","<p> You will earn points based on how you made the farm animal feel. </p><p> If you made it satisfied, you will WIN anywhere from 1 - 9 points, </p><p> but if you made it sick, you will LOSE anywhere from 1 - 9 points. </p>","","0","instructions","","","","","","","","","","",""
"learning-instructions","65","357257","0.0-9.0-1.0-0.5","3769","2","13","Male","approach_avoid_spark_v1","""event"",""trial"",""time""
""fullscreenenter"",""1"",""2903""
","
","
","""event"",""trial"",""time""
""fullscreenenter"",""1"",""2903""
","
","","","","","","3282","<p> You will see how many points you won or lost in the center of the screen. </p><p> Here is what you would see if you won 5 points: </p><p style=""color:green;font-size:50px;font-weight:bolder"">5</p>","","0","instructions","","","","","","","","","","",""
"learning-instructions","66","361993","0.0-9.0-1.0-0.6","3769","2","13","Male","approach_avoid_spark_v1","""event"",""trial"",""time""
""fullscreenenter"",""1"",""2903""
","
","
","""event"",""trial"",""time""
""fullscreenenter"",""1"",""2903""
","
","","","","","","1228","<p> And here is what you would see if you lost 3 points: </p><p style=""color:red;font-size:50px;font-weight:bolder"">-3</p>","","0","instructions","","","","","","","","","","",""
"learning-instructions","67","380712","0.0-9.0-1.0-0.7","3769","2","13","Male","approach_avoid_spark_v1","""event"",""trial"",""time""
""fullscreenenter"",""1"",""2903""
","
","
","""event"",""trial"",""time""
""fullscreenenter"",""1"",""2903""
","
","","","","","","3119","<p> Some farm animals will become very satisfied or very sick. </p><p> These farm animals will make you win or lose LOTS of points. </p><p> Other farm animals have less strong feelings. </p><p> These farm animals will make you win or lose small amounts of points. </p>","","0","instructions","","","","","","","","","","",""
"learning-instructions","68","393736","0.0-9.0-1.0-0.8","3769","2","13","Male","approach_avoid_spark_v1","""event"",""trial"",""time""
""fullscreenenter"",""1"",""2903""
","
","
","""event"",""trial"",""time""
""fullscreenenter"",""1"",""2903""
","
","","","","","","921","<p> If you choose to leave the farm animal alone, you will not win or lose any points. </p><p>  However, in the center of the screen, you will see the number of points you WOULD HAVE won or lost if you had fed the farm animal. </p>","","0","instructions","","","","","","","","","","",""
"learning-instructions","69","408735","0.0-9.0-1.0-0.9","3769","2","13","Male","approach_avoid_spark_v1","""event"",""trial"",""time""
""fullscreenenter"",""1"",""2903""
","
","
","""event"",""trial"",""time""
""fullscreenenter"",""1"",""2903""
","
","","","","","","3302","<p> Here is what you might see if you did not feed the farm animal but the animal was hungry: </p><p style=""color:grey; font-size:50px; display: inline-block; border-spacing: 15px; border-width:3px; border-style:solid; border-color:red"">  &nbsp; 6 &nbsp; </p><p> Remember, in this case, you would not win or lose ANY points because you did not feed the farm animal.  </p>","","0","instructions","","","","","","","","","","",""
"learning-instructions","70","421743","0.0-9.0-1.0-0.10","3769","2","13","Male","approach_avoid_spark_v1","""event"",""trial"",""time""
""fullscreenenter"",""1"",""2903""
","
","
","""event"",""trial"",""time""
""fullscreenenter"",""1"",""2903""
","
","","","","","","5091","<p> Try to make the best choice for each farm animal because </p><p> at the end of the game, you will earn bonus money based on how many points you earned. </p>","","0","instructions","","","","","","","","","","",""
"learning-instructions","71","430903","0.0-9.0-1.0-0.11","3769","2","13","Male","approach_avoid_spark_v1","""event"",""trial"",""time""
""fullscreenenter"",""1"",""2903""
","
","
","""event"",""trial"",""time""
""fullscreenenter"",""1"",""2903""
","
","","","","","","961","<p> You will have 3 seconds to make each choice. Try to respond before time runs out! </p><p> You will lose 5 points each time you do not make a response. </p>","","0","instructions","","","","","","","","","","",""
"html-keyboard-response","72","431514","0.0-9.0-2.0-0.0","3769","2","13","Male","approach_avoid_spark_v1","""event"",""trial"",""time""
""fullscreenenter"",""1"",""2903""
","
","
","""event"",""trial"",""time""
""fullscreenenter"",""1"",""2903""
","
","","","","","","null","<div style=""font-size:60px;"">+</div>","null","","fixation","","","","","","","","","","",""
"aa-learning-trial","73","434525","0.0-9.0-2.0-1.0","3769","2","13","Male","approach_avoid_spark_v1","""event"",""trial"",""time""
""fullscreenenter"",""1"",""2903""
","
","
","""event"",""trial"",""time""
""fullscreenenter"",""1"",""2903""
","
","","","","","","1768","images/horse2.png","","","learning","-2","0","0","0","horse","animals","2","0","","bad","[-5]"
"html-keyboard-response","74","435034","0.0-9.0-2.0-0.1","3769","2","13","Male","approach_avoid_spark_v1","""event"",""trial"",""time""
""fullscreenenter"",""1"",""2903""
","
","
","""event"",""trial"",""time""
""fullscreenenter"",""1"",""2903""
","
","","","","","","null","<div style=""font-size:60px;"">+</div>","null","","fixation","","","","","","","","","","",""
"aa-learning-trial","75","438044","0.0-9.0-2.0-1.1","3769","2","13","Male","approach_avoid_spark_v1","""event"",""trial"",""time""
""fullscreenenter"",""1"",""2903""
","
","
","""event"",""trial"",""time""
""fullscreenenter"",""1"",""2903""
","
","","","","","","455","images/sheep3.png","","","learning","-4","-4","1","1","sheep","animals","2","0","","neutral","0"
"html-keyboard-response","76","438554","0.0-9.0-2.0-0.2","3769","2","13","Male","approach_avoid_spark_v1","""event"",""trial"",""time""
""fullscreenenter"",""1"",""2903""
","
","
","""event"",""trial"",""time""
""fullscreenenter"",""1"",""2903""
","
","","","","","","null","<div style=""font-size:60px;"">+</div>","null","","fixation","","","","","","","","","","",""
"aa-learning-trial","77","441564","0.0-9.0-2.0-1.2","3769","2","13","Male","approach_avoid_spark_v1","""event"",""trial"",""time""
""fullscreenenter"",""1"",""2903""
","
","
","""event"",""trial"",""time""
""fullscreenenter"",""1"",""2903""
","
","","","","","","208","images/sheep4.png","","","learning","1","1","1","1","sheep","animals","2","0","","neutral","0"
"html-keyboard-response","78","442073","0.0-9.0-2.0-0.3","3769","2","13","Male","approach_avoid_spark_v1","""event"",""trial"",""time""
""fullscreenenter"",""1"",""2903""
","
","
","""event"",""trial"",""time""
""fullscreenenter"",""1"",""2903""
","
","","","","","","null","<div style=""font-size:60px;"">+</div>","null","","fixation","","","","","","","","","","",""
"aa-learning-trial","79","445084","0.0-9.0-2.0-1.3","3769","2","13","Male","approach_avoid_spark_v1","""event"",""trial"",""time""
""fullscreenenter"",""1"",""2903""
","
","
","""event"",""trial"",""time""
""fullscreenenter"",""1"",""2903""
","
","","","","","","576","images/horse2.png","","","learning","-2","-2","1","1","horse","animals","2","0","","bad","[-5]"
"html-keyboard-response","80","445594","0.0-9.0-2.0-0.4","3769","2","13","Male","approach_avoid_spark_v1","""event"",""trial"",""time""
""fullscreenenter"",""1"",""2903""
","
","
","""event"",""trial"",""time""
""fullscreenenter"",""1"",""2903""
","
","","","","","","null","<div style=""font-size:60px;"">+</div>","null","","fixation","","","","","","","","","","",""
"aa-learning-trial","81","448603","0.0-9.0-2.0-1.4","3769","2","13","Male","approach_avoid_spark_v1","""event"",""trial"",""time""
""fullscreenenter"",""1"",""2903""
","
","
","""event"",""trial"",""time""
""fullscreenenter"",""1"",""2903""
","
","","","","","","1119","images/cow6.png","","","learning","-1","-1","1","1","cow","animals","2","0","","good","[6]"
"html-keyboard-response","82","449114","0.0-9.0-2.0-0.5","3769","2","13","Male","approach_avoid_spark_v1","""event"",""trial"",""time""
""fullscreenenter"",""1"",""2903""
","
","
","""event"",""trial"",""time""
""fullscreenenter"",""1"",""2903""
","
","","","","","","null","<div style=""font-size:60px;"">+</div>","null","","fixation","","","","","","","","","","",""
"aa-learning-trial","83","452123","0.0-9.0-2.0-1.5","3769","2","13","Male","approach_avoid_spark_v1","""event"",""trial"",""time""
""fullscreenenter"",""1"",""2903""
","
","
","""event"",""trial"",""time""
""fullscreenenter"",""1"",""2903""
","
","","","","","","1414","images/cow6.png","","","learning","-1","0","0","0","cow","animals","2","0","","good","[6]"
"html-keyboard-response","84","452633","0.0-9.0-2.0-0.6","3769","2","13","Male","approach_avoid_spark_v1","""event"",""trial"",""time""
""fullscreenenter"",""1"",""2903""
","
","
","""event"",""trial"",""time""
""fullscreenenter"",""1"",""2903""
","
","","","","","","null","<div style=""font-size:60px;"">+</div>","null","","fixation","","","","","","","","","","",""
"aa-learning-trial","85","455644","0.0-9.0-2.0-1.6","3769","2","13","Male","approach_avoid_spark_v1","""event"",""trial"",""time""
""fullscreenenter"",""1"",""2903""
","
","
","""event"",""trial"",""time""
""fullscreenenter"",""1"",""2903""
","
","","","","","","624","images/sheep4.png","","","learning","1","0","0","0","sheep","animals","2","0","","neutral","0"
"html-keyboard-response","86","456153","0.0-9.0-2.0-0.7","3769","2","13","Male","approach_avoid_spark_v1","""event"",""trial"",""time""
""fullscreenenter"",""1"",""2903""
","
","
","""event"",""trial"",""time""
""fullscreenenter"",""1"",""2903""
","
","","","","","","null","<div style=""font-size:60px;"">+</div>","null","","fixation","","","","","","","","","","",""
"aa-learning-trial","87","459163","0.0-9.0-2.0-1.7","3769","2","13","Male","approach_avoid_spark_v1","""event"",""trial"",""time""
""fullscreenenter"",""1"",""2903""
","
","
","""event"",""trial"",""time""
""fullscreenenter"",""1"",""2903""
","
","","","","","","1863","images/sheep3.png","","","learning","-4","0","0","0","sheep","animals","2","0","","neutral","0"
"html-keyboard-response","88","459673","0.0-9.0-2.0-0.8","3769","2","13","Male","approach_avoid_spark_v1","""event"",""trial"",""time""
""fullscreenenter"",""1"",""2903""
","
","
","""event"",""trial"",""time""
""fullscreenenter"",""1"",""2903""
","
","","","","","","null","<div style=""font-size:60px;"">+</div>","null","","fixation","","","","","","","","","","",""
"aa-learning-trial","89","462683","0.0-9.0-2.0-1.8","3769","2","13","Male","approach_avoid_spark_v1","""event"",""trial"",""time""
""fullscreenenter"",""1"",""2903""
","
","
","""event"",""trial"",""time""
""fullscreenenter"",""1"",""2903""
","
","","","","","","695","images/sheep7.png","","","learning","7","0","0","0","sheep","animals","2","0","","neutral","0"
"html-keyboard-response","90","463193","0.0-9.0-2.0-0.9","3769","2","13","Male","approach_avoid_spark_v1","""event"",""trial"",""time""
""fullscreenenter"",""1"",""2903""
","
","
","""event"",""trial"",""time""
""fullscreenenter"",""1"",""2903""
","
","","","","","","null","<div style=""font-size:60px;"">+</div>","null","","fixation","","","","","","","","","","",""
"aa-learning-trial","91","466203","0.0-9.0-2.0-1.9","3769","2","13","Male","approach_avoid_spark_v1","""event"",""trial"",""time""
""fullscreenenter"",""1"",""2903""
","
","
","""event"",""trial"",""time""
""fullscreenenter"",""1"",""2903""
","
","","","","","","615","images/cow7.png","","","learning","-7","-7","1","1","cow","animals","2","0","","good","[6]"
"html-keyboard-response","92","466713","0.0-9.0-2.0-0.10","3769","2","13","Male","approach_avoid_spark_v1","""event"",""trial"",""time""
""fullscreenenter"",""1"",""2903""
","
","
","""event"",""trial"",""time""
""fullscreenenter"",""1"",""2903""
","
","","","","","","null","<div style=""font-size:60px;"">+</div>","null","","fixation","","","","","","","","","","",""
"aa-learning-trial","93","469723","0.0-9.0-2.0-1.10","3769","2","13","Male","approach_avoid_spark_v1","""event"",""trial"",""time""
""fullscreenenter"",""1"",""2903""
","
","
","""event"",""trial"",""time""
""fullscreenenter"",""1"",""2903""
","
","","","","","","null","images/cow1.png","","","learning","-3","-5","","null","cow","animals","2","0","","good","[6]"
"html-keyboard-response","94","470232","0.0-9.0-2.0-0.11","3769","2","13","Male","approach_avoid_spark_v1","""event"",""trial"",""time""
""fullscreenenter"",""1"",""2903""
","
","
","""event"",""trial"",""time""
""fullscreenenter"",""1"",""2903""
","
","","","","","","null","<div style=""font-size:60px;"">+</div>","null","","fixation","","","","","","","","","","",""
"aa-learning-trial","95","473235","0.0-9.0-2.0-1.11","3769","2","13","Male","approach_avoid_spark_v1","""event"",""trial"",""time""
""fullscreenenter"",""1"",""2903""
","
","
","""event"",""trial"",""time""
""fullscreenenter"",""1"",""2903""
","
","","","","","","918","images/horse8.png","","","learning","-5","-5","1","1","horse","animals","2","0","","bad","[-5]"
"html-keyboard-response","96","473744","0.0-9.0-2.0-0.12","3769","2","13","Male","approach_avoid_spark_v1","""event"",""trial"",""time""
""fullscreenenter"",""1"",""2903""
","
","
","""event"",""trial"",""time""
""fullscreenenter"",""1"",""2903""
","
","","","","","","null","<div style=""font-size:60px;"">+</div>","null","","fixation","","","","","","","","","","",""
"aa-learning-trial","97","476755","0.0-9.0-2.0-1.12","3769","2","13","Male","approach_avoid_spark_v1","""event"",""trial"",""time""
""fullscreenenter"",""1"",""2903""
","
","
","""event"",""trial"",""time""
""fullscreenenter"",""1"",""2903""
","
","","","","","","null","images/horse3.png","","","learning","3","-5","","null","horse","animals","2","0","","bad","[-5]"
"html-keyboard-response","98","477264","0.0-9.0-2.0-0.13","3769","2","13","Male","approach_avoid_spark_v1","""event"",""trial"",""time""
""fullscreenenter"",""1"",""2903""
","
","
","""event"",""trial"",""time""
""fullscreenenter"",""1"",""2903""
","
","","","","","","null","<div style=""font-size:60px;"">+</div>","null","","fixation","","","","","","","","","","",""
"aa-learning-trial","99","480274","0.0-9.0-2.0-1.13","3769","2","13","Male","approach_avoid_spark_v1","""event"",""trial"",""time""
""fullscreenenter"",""1"",""2903""
","
","
","""event"",""trial"",""time""
""fullscreenenter"",""1"",""2903""
","
","","","","","","735","images/cow7.png","","","learning","-7","0","0","0","cow","animals","2","0","","good","[6]"
"html-keyboard-response","100","480785","0.0-9.0-2.0-0.14","3769","2","13","Male","approach_avoid_spark_v1","""event"",""trial"",""time""
""fullscreenenter"",""1"",""2903""
","
","
","""event"",""trial"",""time""
""fullscreenenter"",""1"",""2903""
","
","","","","","","null","<div style=""font-size:60px;"">+</div>","null","","fixation","","","","","","","","","","",""
"aa-learning-trial","101","483787","0.0-9.0-2.0-1.14","3769","2","13","Male","approach_avoid_spark_v1","""event"",""trial"",""time""
""fullscreenenter"",""1"",""2903""
","
","
","""event"",""trial"",""time""
""fullscreenenter"",""1"",""2903""
","
","","","","","","1230","images/horse3.png","","","learning","3","3","1","1","horse","animals","2","0","","bad","[-5]"
"html-keyboard-response","102","484296","0.0-9.0-2.0-0.15","3769","2","13","Male","approach_avoid_spark_v1","""event"",""trial"",""time""
""fullscreenenter"",""1"",""2903""
","
","
","""event"",""trial"",""time""
""fullscreenenter"",""1"",""2903""
","
","","","","","","null","<div style=""font-size:60px;"">+</div>","null","","fixation","","","","","","","","","","",""
"aa-learning-trial","103","487306","0.0-9.0-2.0-1.15","3769","2","13","Male","approach_avoid_spark_v1","""event"",""trial"",""time""
""fullscreenenter"",""1"",""2903""
","
","
","""event"",""trial"",""time""
""fullscreenenter"",""1"",""2903""
","
","","","","","","751","images/horse3.png","","","learning","3","3","1","1","horse","animals","2","0","","bad","[-5]"
"html-keyboard-response","104","487816","0.0-9.0-2.0-0.16","3769","2","13","Male","approach_avoid_spark_v1","""event"",""trial"",""time""
""fullscreenenter"",""1"",""2903""
","
","
","""event"",""trial"",""time""
""fullscreenenter"",""1"",""2903""
","
","","","","","","null","<div style=""font-size:60px;"">+</div>","null","","fixation","","","","","","","","","","",""
"aa-learning-trial","105","490826","0.0-9.0-2.0-1.16","3769","2","13","Male","approach_avoid_spark_v1","""event"",""trial"",""time""
""fullscreenenter"",""1"",""2903""
","
","
","""event"",""trial"",""time""
""fullscreenenter"",""1"",""2903""
","
","","","","","","607","images/cow7.png","","","learning","-7","-7","1","1","cow","animals","2","0","","good","[6]"
"html-keyboard-response","106","491335","0.0-9.0-2.0-0.17","3769","2","13","Male","approach_avoid_spark_v1","""event"",""trial"",""time""
""fullscreenenter"",""1"",""2903""
","
","
","""event"",""trial"",""time""
""fullscreenenter"",""1"",""2903""
","
","","","","","","null","<div style=""font-size:60px;"">+</div>","null","","fixation","","","","","","","","","","",""
"aa-learning-trial","107","494337","0.0-9.0-2.0-1.17","3769","2","13","Male","approach_avoid_spark_v1","""event"",""trial"",""time""
""fullscreenenter"",""1"",""2903""
","
","
","""event"",""trial"",""time""
""fullscreenenter"",""1"",""2903""
","
","","","","","","515","images/horse3.png","","","learning","3","3","1","1","horse","animals","2","0","","bad","[-5]"
"html-keyboard-response","108","494847","0.0-9.0-2.0-0.18","3769","2","13","Male","approach_avoid_spark_v1","""event"",""trial"",""time""
""fullscreenenter"",""1"",""2903""
","
","
","""event"",""trial"",""time""
""fullscreenenter"",""1"",""2903""
","
","","","","","","null","<div style=""font-size:60px;"">+</div>","null","","fixation","","","","","","","","","","",""
"aa-learning-trial","109","497857","0.0-9.0-2.0-1.18","3769","2","13","Male","approach_avoid_spark_v1","""event"",""trial"",""time""
""fullscreenenter"",""1"",""2903""
","
","
","""event"",""trial"",""time""
""fullscreenenter"",""1"",""2903""
","
","","","","","","703","images/horse2.png","","","learning","-2","0","0","0","horse","animals","2","0","","bad","[-5]"
"html-keyboard-response","110","498368","0.0-9.0-2.0-0.19","3769","2","13","Male","approach_avoid_spark_v1","""event"",""trial"",""time""
""fullscreenenter"",""1"",""2903""
","
","
","""event"",""trial"",""time""
""fullscreenenter"",""1"",""2903""
","
","","","","","","null","<div style=""font-size:60px;"">+</div>","null","","fixation","","","","","","","","","","",""
"aa-learning-trial","111","501378","0.0-9.0-2.0-1.19","3769","2","13","Male","approach_avoid_spark_v1","""event"",""trial"",""time""
""fullscreenenter"",""1"",""2903""
","
","
","""event"",""trial"",""time""
""fullscreenenter"",""1"",""2903""
","
","","","","","","767","images/cow7.png","","","learning","-7","-7","1","1","cow","animals","2","0","","good","[6]"
"html-keyboard-response","112","501888","0.0-9.0-2.0-0.20","3769","2","13","Male","approach_avoid_spark_v1","""event"",""trial"",""time""
""fullscreenenter"",""1"",""2903""
","
","
","""event"",""trial"",""time""
""fullscreenenter"",""1"",""2903""
","
","","","","","","null","<div style=""font-size:60px;"">+</div>","null","","fixation","","","","","","","","","","",""
"aa-learning-trial","113","504898","0.0-9.0-2.0-1.20","3769","2","13","Male","approach_avoid_spark_v1","""event"",""trial"",""time""
""fullscreenenter"",""1"",""2903""
","
","
","""event"",""trial"",""time""
""fullscreenenter"",""1"",""2903""
","
","","","","","","783","images/cow6.png","","","learning","-1","-1","1","1","cow","animals","2","0","","good","[6]"
"html-keyboard-response","114","505407","0.0-9.0-2.0-0.21","3769","2","13","Male","approach_avoid_spark_v1","""event"",""trial"",""time""
""fullscreenenter"",""1"",""2903""
","
","
","""event"",""trial"",""time""
""fullscreenenter"",""1"",""2903""
","
","","","","","","null","<div style=""font-size:60px;"">+</div>","null","","fixation","","","","","","","","","","",""
"aa-learning-trial","115","508417","0.0-9.0-2.0-1.21","3769","2","13","Male","approach_avoid_spark_v1","""event"",""trial"",""time""
""fullscreenenter"",""1"",""2903""
","
","
","""event"",""trial"",""time""
""fullscreenenter"",""1"",""2903""
","
","","","","","","1103","images/cow7.png","","","learning","-7","0","0","0","cow","animals","2","0","","good","[6]"
"html-keyboard-response","116","508927","0.0-9.0-2.0-0.22","3769","2","13","Male","approach_avoid_spark_v1","""event"",""trial"",""time""
""fullscreenenter"",""1"",""2903""
","
","
","""event"",""trial"",""time""
""fullscreenenter"",""1"",""2903""
","
","","","","","","null","<div style=""font-size:60px;"">+</div>","null","","fixation","","","","","","","","","","",""
"aa-learning-trial","117","511938","0.0-9.0-2.0-1.22","3769","2","13","Male","approach_avoid_spark_v1","""event"",""trial"",""time""
""fullscreenenter"",""1"",""2903""
","
","
","""event"",""trial"",""time""
""fullscreenenter"",""1"",""2903""
","
","","","","","","919","images/sheep5.png","","","learning","5","5","1","1","sheep","animals","2","0","","neutral","0"
"html-keyboard-response","118","512448","0.0-9.0-2.0-0.23","3769","2","13","Male","approach_avoid_spark_v1","""event"",""trial"",""time""
""fullscreenenter"",""1"",""2903""
","
","
","""event"",""trial"",""time""
""fullscreenenter"",""1"",""2903""
","
","","","","","","null","<div style=""font-size:60px;"">+</div>","null","","fixation","","","","","","","","","","",""
"aa-learning-trial","119","515458","0.0-9.0-2.0-1.23","3769","2","13","Male","approach_avoid_spark_v1","""event"",""trial"",""time""
""fullscreenenter"",""1"",""2903""
","
","
","""event"",""trial"",""time""
""fullscreenenter"",""1"",""2903""
","
","","","","","","1101","images/sheep3.png","","","learning","-4","0","0","0","sheep","animals","2","0","","neutral","0"
"html-keyboard-response","120","515968","0.0-9.0-2.0-0.24","3769","2","13","Male","approach_avoid_spark_v1","""event"",""trial"",""time""
""fullscreenenter"",""1"",""2903""
","
","
","""event"",""trial"",""time""
""fullscreenenter"",""1"",""2903""
","
","","","","","","null","<div style=""font-size:60px;"">+</div>","null","","fixation","","","","","","","","","","",""
"aa-learning-trial","121","518977","0.0-9.0-2.0-1.24","3769","2","13","Male","approach_avoid_spark_v1","""event"",""trial"",""time""
""fullscreenenter"",""1"",""2903""
","
","
","""event"",""trial"",""time""
""fullscreenenter"",""1"",""2903""
","
","","","","","","693","images/horse2.png","","","learning","-2","0","0","0","horse","animals","2","0","","bad","[-5]"
"html-keyboard-response","122","519487","0.0-9.0-2.0-0.25","3769","2","13","Male","approach_avoid_spark_v1","""event"",""trial"",""time""
""fullscreenenter"",""1"",""2903""
","
","
","""event"",""trial"",""time""
""fullscreenenter"",""1"",""2903""
","
","","","","","","null","<div style=""font-size:60px;"">+</div>","null","","fixation","","","","","","","","","","",""
"aa-learning-trial","123","522498","0.0-9.0-2.0-1.25","3769","2","13","Male","approach_avoid_spark_v1","""event"",""trial"",""time""
""fullscreenenter"",""1"",""2903""
","
","
","""event"",""trial"",""time""
""fullscreenenter"",""1"",""2903""
","
","","","","","","1566","images/cow1.png","","","learning","-3","-3","1","1","cow","animals","2","0","","good","[6]"
"html-keyboard-response","124","523008","0.0-9.0-2.0-0.26","3769","2","13","Male","approach_avoid_spark_v1","""event"",""trial"",""time""
""fullscreenenter"",""1"",""2903""
","
","
","""event"",""trial"",""time""
""fullscreenenter"",""1"",""2903""
","
","","","","","","null","<div style=""font-size:60px;"">+</div>","null","","fixation","","","","","","","","","","",""
"aa-learning-trial","125","526017","0.0-9.0-2.0-1.26","3769","2","13","Male","approach_avoid_spark_v1","""event"",""trial"",""time""
""fullscreenenter"",""1"",""2903""
","
","
","""event"",""trial"",""time""
""fullscreenenter"",""1"",""2903""
","
","","","","","","542","images/horse3.png","","","learning","3","3","1","1","horse","animals","2","0","","bad","[-5]"
"html-keyboard-response","126","526527","0.0-9.0-2.0-0.27","3769","2","13","Male","approach_avoid_spark_v1","""event"",""trial"",""time""
""fullscreenenter"",""1"",""2903""
","
","
","""event"",""trial"",""time""
""fullscreenenter"",""1"",""2903""
","
","","","","","","null","<div style=""font-size:60px;"">+</div>","null","","fixation","","","","","","","","","","",""
"aa-learning-trial","127","529537","0.0-9.0-2.0-1.27","3769","2","13","Male","approach_avoid_spark_v1","""event"",""trial"",""time""
""fullscreenenter"",""1"",""2903""
","
","
","""event"",""trial"",""time""
""fullscreenenter"",""1"",""2903""
","
","","","","","","950","images/horse8.png","","","learning","-5","-5","1","1","horse","animals","2","0","","bad","[-5]"
"html-keyboard-response","128","530047","0.0-9.0-2.0-0.28","3769","2","13","Male","approach_avoid_spark_v1","""event"",""trial"",""time""
""fullscreenenter"",""1"",""2903""
","
","
","""event"",""trial"",""time""
""fullscreenenter"",""1"",""2903""
","
","","","","","","null","<div style=""font-size:60px;"">+</div>","null","","fixation","","","","","","","","","","",""
"aa-learning-trial","129","533057","0.0-9.0-2.0-1.28","3769","2","13","Male","approach_avoid_spark_v1","""event"",""trial"",""time""
""fullscreenenter"",""1"",""2903""
","
","
","""event"",""trial"",""time""
""fullscreenenter"",""1"",""2903""
","
","","","","","","542","images/cow1.png","","","learning","-3","0","0","0","cow","animals","2","0","","good","[6]"
"html-keyboard-response","130","533567","0.0-9.0-2.0-0.29","3769","2","13","Male","approach_avoid_spark_v1","""event"",""trial"",""time""
""fullscreenenter"",""1"",""2903""
","
","
","""event"",""trial"",""time""
""fullscreenenter"",""1"",""2903""
","
","","","","","","null","<div style=""font-size:60px;"">+</div>","null","","fixation","","","","","","","","","","",""
"aa-learning-trial","131","536569","0.0-9.0-2.0-1.29","3769","2","13","Male","approach_avoid_spark_v1","""event"",""trial"",""time""
""fullscreenenter"",""1"",""2903""
","
","
","""event"",""trial"",""time""
""fullscreenenter"",""1"",""2903""
","
","","","","","","1550","images/cow6.png","","","learning","-1","0","0","0","cow","animals","2","0","","good","[6]"
"html-keyboard-response","132","537078","0.0-9.0-2.0-0.30","3769","2","13","Male","approach_avoid_spark_v1","""event"",""trial"",""time""
""fullscreenenter"",""1"",""2903""
","
","
","""event"",""trial"",""time""
""fullscreenenter"",""1"",""2903""
","
","","","","","","null","<div style=""font-size:60px;"">+</div>","null","","fixation","","","","","","","","","","",""
"aa-learning-trial","133","540089","0.0-9.0-2.0-1.30","3769","2","13","Male","approach_avoid_spark_v1","""event"",""trial"",""time""
""fullscreenenter"",""1"",""2903""
","
","
","""event"",""trial"",""time""
""fullscreenenter"",""1"",""2903""
","
","","","","","","1094","images/sheep4.png","","","learning","1","0","0","0","sheep","animals","2","0","","neutral","0"
"html-keyboard-response","134","540598","0.0-9.0-2.0-0.31","3769","2","13","Male","approach_avoid_spark_v1","""event"",""trial"",""time""
""fullscreenenter"",""1"",""2903""
","
","
","""event"",""trial"",""time""
""fullscreenenter"",""1"",""2903""
","
","","","","","","null","<div style=""font-size:60px;"">+</div>","null","","fixation","","","","","","","","","","",""
"aa-learning-trial","135","543609","0.0-9.0-2.0-1.31","3769","2","13","Male","approach_avoid_spark_v1","""event"",""trial"",""time""
""fullscreenenter"",""1"",""2903""
","
","
","""event"",""trial"",""time""
""fullscreenenter"",""1"",""2903""
","
","","","","","","719","images/horse2.png","","","learning","-2","0","0","0","horse","animals","2","0","","bad","[-5]"
"html-keyboard-response","136","544119","0.0-9.0-2.0-0.32","3769","2","13","Male","approach_avoid_spark_v1","""event"",""trial"",""time""
""fullscreenenter"",""1"",""2903""
","
","
","""event"",""trial"",""time""
""fullscreenenter"",""1"",""2903""
","
","","","","","","null","<div style=""font-size:60px;"">+</div>","null","","fixation","","","","","","","","","","",""
"aa-learning-trial","137","547129","0.0-9.0-2.0-1.32","3769","2","13","Male","approach_avoid_spark_v1","""event"",""trial"",""time""
""fullscreenenter"",""1"",""2903""
","
","
","""event"",""trial"",""time""
""fullscreenenter"",""1"",""2903""
","
","","","","","","486","images/horse3.png","","","learning","3","3","1","1","horse","animals","2","0","","bad","[-5]"
"html-keyboard-response","138","547638","0.0-9.0-2.0-0.33","3769","2","13","Male","approach_avoid_spark_v1","""event"",""trial"",""time""
""fullscreenenter"",""1"",""2903""
","
","
","""event"",""trial"",""time""
""fullscreenenter"",""1"",""2903""
","
","","","","","","null","<div style=""font-size:60px;"">+</div>","null","","fixation","","","","","","","","","","",""
"aa-learning-trial","139","550648","0.0-9.0-2.0-1.33","3769","2","13","Male","approach_avoid_spark_v1","""event"",""trial"",""time""
""fullscreenenter"",""1"",""2903""
","
","
","""event"",""trial"",""time""
""fullscreenenter"",""1"",""2903""
","
","","","","","","2815","images/cow7.png","","","learning","-7","0","0","0","cow","animals","2","0","","good","[6]"
"html-keyboard-response","140","551158","0.0-9.0-2.0-0.34","3769","2","13","Male","approach_avoid_spark_v1","""event"",""trial"",""time""
""fullscreenenter"",""1"",""2903""
","
","
","""event"",""trial"",""time""
""fullscreenenter"",""1"",""2903""
","
","","","","","","null","<div style=""font-size:60px;"">+</div>","null","","fixation","","","","","","","","","","",""
"aa-learning-trial","141","554168","0.0-9.0-2.0-1.34","3769","2","13","Male","approach_avoid_spark_v1","""event"",""trial"",""time""
""fullscreenenter"",""1"",""2903""
","
","
","""event"",""trial"",""time""
""fullscreenenter"",""1"",""2903""
","
","","","","","","910","images/sheep7.png","","","learning","7","0","0","0","sheep","animals","2","0","","neutral","0"
"html-keyboard-response","142","554678","0.0-9.0-2.0-0.35","3769","2","13","Male","approach_avoid_spark_v1","""event"",""trial"",""time""
""fullscreenenter"",""1"",""2903""
","
","
","""event"",""trial"",""time""
""fullscreenenter"",""1"",""2903""
","
","","","","","","null","<div style=""font-size:60px;"">+</div>","null","","fixation","","","","","","","","","","",""
"aa-learning-trial","143","557688","0.0-9.0-2.0-1.35","3769","2","13","Male","approach_avoid_spark_v1","""event"",""trial"",""time""
""fullscreenenter"",""1"",""2903""
","
","
","""event"",""trial"",""time""
""fullscreenenter"",""1"",""2903""
","
","","","","","","886","images/sheep2.png","","","learning","-8","-8","1","1","sheep","animals","2","0","","neutral","0"
"html-keyboard-response","144","558198","0.0-9.0-2.0-0.36","3769","2","13","Male","approach_avoid_spark_v1","""event"",""trial"",""time""
""fullscreenenter"",""1"",""2903""
","
","
","""event"",""trial"",""time""
""fullscreenenter"",""1"",""2903""
","
","","","","","","null","<div style=""font-size:60px;"">+</div>","null","","fixation","","","","","","","","","","",""
"aa-learning-trial","145","561208","0.0-9.0-2.0-1.36","3769","2","13","Male","approach_avoid_spark_v1","""event"",""trial"",""time""
""fullscreenenter"",""1"",""2903""
","
","
","""event"",""trial"",""time""
""fullscreenenter"",""1"",""2903""
","
","","","","","","1230","images/cow4.png","","","learning","4","4","1","1","cow","animals","2","0","","good","[6]"
"html-keyboard-response","146","561718","0.0-9.0-2.0-0.37","3769","2","13","Male","approach_avoid_spark_v1","""event"",""trial"",""time""
""fullscreenenter"",""1"",""2903""
","
","
","""event"",""trial"",""time""
""fullscreenenter"",""1"",""2903""
","
","","","","","","null","<div style=""font-size:60px;"">+</div>","null","","fixation","","","","","","","","","","",""
"aa-learning-trial","147","564720","0.0-9.0-2.0-1.37","3769","2","13","Male","approach_avoid_spark_v1","""event"",""trial"",""time""
""fullscreenenter"",""1"",""2903""
","
","
","""event"",""trial"",""time""
""fullscreenenter"",""1"",""2903""
","
","","","","","","742","images/cow6.png","","","learning","-1","0","0","0","cow","animals","2","0","","good","[6]"
"html-keyboard-response","148","565229","0.0-9.0-2.0-0.38","3769","2","13","Male","approach_avoid_spark_v1","""event"",""trial"",""time""
""fullscreenenter"",""1"",""2903""
","
","
","""event"",""trial"",""time""
""fullscreenenter"",""1"",""2903""
","
","","","","","","null","<div style=""font-size:60px;"">+</div>","null","","fixation","","","","","","","","","","",""
"aa-learning-trial","149","568240","0.0-9.0-2.0-1.38","3769","2","13","Male","approach_avoid_spark_v1","""event"",""trial"",""time""
""fullscreenenter"",""1"",""2903""
","
","
","""event"",""trial"",""time""
""fullscreenenter"",""1"",""2903""
","
","","","","","","686","images/sheep4.png","","","learning","1","1","1","1","sheep","animals","2","0","","neutral","0"
"html-keyboard-response","150","568749","0.0-9.0-2.0-0.39","3769","2","13","Male","approach_avoid_spark_v1","""event"",""trial"",""time""
""fullscreenenter"",""1"",""2903""
","
","
","""event"",""trial"",""time""
""fullscreenenter"",""1"",""2903""
","
","","","","","","null","<div style=""font-size:60px;"">+</div>","null","","fixation","","","","","","","","","","",""
"aa-learning-trial","151","571759","0.0-9.0-2.0-1.39","3769","2","13","Male","approach_avoid_spark_v1","""event"",""trial"",""time""
""fullscreenenter"",""1"",""2903""
","
","
","""event"",""trial"",""time""
""fullscreenenter"",""1"",""2903""
","
","","","","","","702","images/cow2.png","","","learning","6","6","1","1","cow","animals","2","0","","good","[6]"
"html-keyboard-response","152","572269","0.0-9.0-2.0-0.40","3769","2","13","Male","approach_avoid_spark_v1","""event"",""trial"",""time""
""fullscreenenter"",""1"",""2903""
","
","
","""event"",""trial"",""time""
""fullscreenenter"",""1"",""2903""
","
","","","","","","null","<div style=""font-size:60px;"">+</div>","null","","fixation","","","","","","","","","","",""
"aa-learning-trial","153","575279","0.0-9.0-2.0-1.40","3769","2","13","Male","approach_avoid_spark_v1","""event"",""trial"",""time""
""fullscreenenter"",""1"",""2903""
","
","
","""event"",""trial"",""time""
""fullscreenenter"",""1"",""2903""
","
","","","","","","null","images/sheep4.png","","","learning","1","-5","","null","sheep","animals","2","0","","neutral","0"
"html-keyboard-response","154","575789","0.0-9.0-2.0-0.41","3769","2","13","Male","approach_avoid_spark_v1","""event"",""trial"",""time""
""fullscreenenter"",""1"",""2903""
","
","
","""event"",""trial"",""time""
""fullscreenenter"",""1"",""2903""
","
","","","","","","null","<div style=""font-size:60px;"">+</div>","null","","fixation","","","","","","","","","","",""
"aa-learning-trial","155","578799","0.0-9.0-2.0-1.41","3769","2","13","Male","approach_avoid_spark_v1","""event"",""trial"",""time""
""fullscreenenter"",""1"",""2903""
","
","
","""event"",""trial"",""time""
""fullscreenenter"",""1"",""2903""
","
","","","","","","1734","images/sheep3.png","","","learning","-4","0","0","0","sheep","animals","2","0","","neutral","0"
"html-keyboard-response","156","579308","0.0-9.0-2.0-0.42","3769","2","13","Male","approach_avoid_spark_v1","""event"",""trial"",""time""
""fullscreenenter"",""1"",""2903""
","
","
","""event"",""trial"",""time""
""fullscreenenter"",""1"",""2903""
","
","","","","","","null","<div style=""font-size:60px;"">+</div>","null","","fixation","","","","","","","","","","",""
"aa-learning-trial","157","582319","0.0-9.0-2.0-1.42","3769","2","13","Male","approach_avoid_spark_v1","""event"",""trial"",""time""
""fullscreenenter"",""1"",""2903""
","
","
","""event"",""trial"",""time""
""fullscreenenter"",""1"",""2903""
","
","","","","","","590","images/sheep3.png","","","learning","-4","0","0","0","sheep","animals","2","0","","neutral","0"
"html-keyboard-response","158","582828","0.0-9.0-2.0-0.43","3769","2","13","Male","approach_avoid_spark_v1","""event"",""trial"",""time""
""fullscreenenter"",""1"",""2903""
","
","
","""event"",""trial"",""time""
""fullscreenenter"",""1"",""2903""
","
","","","","","","null","<div style=""font-size:60px;"">+</div>","null","","fixation","","","","","","","","","","",""
"aa-learning-trial","159","585839","0.0-9.0-2.0-1.43","3769","2","13","Male","approach_avoid_spark_v1","""event"",""trial"",""time""
""fullscreenenter"",""1"",""2903""
","
","
","""event"",""trial"",""time""
""fullscreenenter"",""1"",""2903""
","
","","","","","","638","images/sheep3.png","","","learning","-4","0","0","0","sheep","animals","2","0","","neutral","0"
"html-keyboard-response","160","586348","0.0-9.0-2.0-0.44","3769","2","13","Male","approach_avoid_spark_v1","""event"",""trial"",""time""
""fullscreenenter"",""1"",""2903""
","
","
","""event"",""trial"",""time""
""fullscreenenter"",""1"",""2903""
","
","","","","","","null","<div style=""font-size:60px;"">+</div>","null","","fixation","","","","","","","","","","",""
"aa-learning-trial","161","589358","0.0-9.0-2.0-1.44","3769","2","13","Male","approach_avoid_spark_v1","""event"",""trial"",""time""
""fullscreenenter"",""1"",""2903""
","
","
","""event"",""trial"",""time""
""fullscreenenter"",""1"",""2903""
","
","","","","","","630","images/sheep4.png","","","learning","1","1","1","1","sheep","animals","2","0","","neutral","0"
"html-keyboard-response","162","589860","0.0-9.0-2.0-0.45","3769","2","13","Male","approach_avoid_spark_v1","""event"",""trial"",""time""
""fullscreenenter"",""1"",""2903""
","
","
","""event"",""trial"",""time""
""fullscreenenter"",""1"",""2903""
","
","","","","","","null","<div style=""font-size:60px;"">+</div>","null","","fixation","","","","","","","","","","",""
"aa-learning-trial","163","592871","0.0-9.0-2.0-1.45","3769","2","13","Male","approach_avoid_spark_v1","""event"",""trial"",""time""
""fullscreenenter"",""1"",""2903""
","
","
","""event"",""trial"",""time""
""fullscreenenter"",""1"",""2903""
","
","","","","","","701","images/sheep7.png","","","learning","7","7","1","1","sheep","animals","2","0","","neutral","0"
"html-keyboard-response","164","593380","0.0-9.0-2.0-0.46","3769","2","13","Male","approach_avoid_spark_v1","""event"",""trial"",""time""
""fullscreenenter"",""1"",""2903""
","
","
","""event"",""trial"",""time""
""fullscreenenter"",""1"",""2903""
","
","","","","","","null","<div style=""font-size:60px;"">+</div>","null","","fixation","","","","","","","","","","",""
"aa-learning-trial","165","596391","0.0-9.0-2.0-1.46","3769","2","13","Male","approach_avoid_spark_v1","""event"",""trial"",""time""
""fullscreenenter"",""1"",""2903""
","
","
","""event"",""trial"",""time""
""fullscreenenter"",""1"",""2903""
","
","","","","","","702","images/horse8.png","","","learning","-5","-5","1","1","horse","animals","2","0","","bad","[-5]"
"html-keyboard-response","166","596900","0.0-9.0-2.0-0.47","3769","2","13","Male","approach_avoid_spark_v1","""event"",""trial"",""time""
""fullscreenenter"",""1"",""2903""
","
","
","""event"",""trial"",""time""
""fullscreenenter"",""1"",""2903""
","
","","","","","","null","<div style=""font-size:60px;"">+</div>","null","","fixation","","","","","","","","","","",""
"aa-learning-trial","167","599910","0.0-9.0-2.0-1.47","3769","2","13","Male","approach_avoid_spark_v1","""event"",""trial"",""time""
""fullscreenenter"",""1"",""2903""
","
","
","""event"",""trial"",""time""
""fullscreenenter"",""1"",""2903""
","
","","","","","","486","images/cow6.png","","","learning","-1","-1","1","1","cow","animals","2","0","","good","[6]"
"html-keyboard-response","168","600420","0.0-9.0-2.0-0.48","3769","2","13","Male","approach_avoid_spark_v1","""event"",""trial"",""time""
""fullscreenenter"",""1"",""2903""
","
","
","""event"",""trial"",""time""
""fullscreenenter"",""1"",""2903""
","
","","","","","","null","<div style=""font-size:60px;"">+</div>","null","","fixation","","","","","","","","","","",""
"aa-learning-trial","169","603430","0.0-9.0-2.0-1.48","3769","2","13","Male","approach_avoid_spark_v1","""event"",""trial"",""time""
""fullscreenenter"",""1"",""2903""
","
","
","""event"",""trial"",""time""
""fullscreenenter"",""1"",""2903""
","
","","","","","","791","images/horse2.png","","","learning","-2","0","0","0","horse","animals","2","0","","bad","[-5]"
"html-keyboard-response","170","603939","0.0-9.0-2.0-0.49","3769","2","13","Male","approach_avoid_spark_v1","""event"",""trial"",""time""
""fullscreenenter"",""1"",""2903""
","
","
","""event"",""trial"",""time""
""fullscreenenter"",""1"",""2903""
","
","","","","","","null","<div style=""font-size:60px;"">+</div>","null","","fixation","","","","","","","","","","",""
"aa-learning-trial","171","606950","0.0-9.0-2.0-1.49","3769","2","13","Male","approach_avoid_spark_v1","""event"",""trial"",""time""
""fullscreenenter"",""1"",""2903""
","
","
","""event"",""trial"",""time""
""fullscreenenter"",""1"",""2903""
","
","","","","","","1102","images/horse7.png","","","learning","9","9","1","1","horse","animals","2","0","","bad","[-5]"
"html-keyboard-response","172","607459","0.0-9.0-2.0-0.50","3769","2","13","Male","approach_avoid_spark_v1","""event"",""trial"",""time""
""fullscreenenter"",""1"",""2903""
","
","
","""event"",""trial"",""time""
""fullscreenenter"",""1"",""2903""
","
","","","","","","null","<div style=""font-size:60px;"">+</div>","null","","fixation","","","","","","","","","","",""
"aa-learning-trial","173","610469","0.0-9.0-2.0-1.50","3769","2","13","Male","approach_avoid_spark_v1","""event"",""trial"",""time""
""fullscreenenter"",""1"",""2903""
","
","
","""event"",""trial"",""time""
""fullscreenenter"",""1"",""2903""
","
","","","","","","773","images/horse5.png","","","learning","-9","-9","1","1","horse","animals","2","0","","bad","[-5]"
"html-button-response","174","656628","0.0-9.0-3.0","3769","2","13","Male","approach_avoid_spark_v1","""event"",""trial"",""time""
""fullscreenenter"",""1"",""2903""
","
","
","""event"",""trial"",""time""
""fullscreenenter"",""1"",""2903""
","
","","","","","","46158","<p> You have completed the round! <p> In this round, you earned -31 points! </p>","0","","break","","","","","","","","","","",""
"html-button-response","175","657356","0.0-10.0","3769","2","13","Male","approach_avoid_spark_v1","""event"",""trial"",""time""
""fullscreenenter"",""1"",""2903""
","
","
","""event"",""trial"",""time""
""fullscreenenter"",""1"",""2903""
","
","","","","","","726","<p> Now it's time to play another round. </p>","0","","transition_screen","","","","","","","","","","",""
"preload","176","657488","0.0-11.0-0.0","3769","2","13","Male","approach_avoid_spark_v1","""event"",""trial"",""time""
""fullscreenenter"",""1"",""2903""
","
","
","""event"",""trial"",""time""
""fullscreenenter"",""1"",""2903""
","
","true","false","[]","[]","[]","","","","","","","","","","","","","","","",""
"learning-instructions","177","668947","0.0-11.0-1.0-0.0","3769","2","13","Male","approach_avoid_spark_v1","""event"",""trial"",""time""
""fullscreenenter"",""1"",""2903""
","
","
","""event"",""trial"",""time""
""fullscreenenter"",""1"",""2903""
","
","","","","","","6784","<p> Your goal in this round is to take care of lots of animals. </p></div>","","0","instructions","","","","","","","","","","",""
"learning-instructions","178","680331","0.0-11.0-1.0-0.1","3769","2","13","Male","approach_avoid_spark_v1","""event"",""trial"",""time""
""fullscreenenter"",""1"",""2903""
","
","
","""event"",""trial"",""time""
""fullscreenenter"",""1"",""2903""
","
","","","","","","1750","<p> Some animals want to be pet, while other animals want to be left alone.  </p><p> On each turn, you will see an animal.   </p><p> You need to decide whether to pet it or not.  </p>","","0","instructions","","","","","","","","","","",""
"learning-instructions","179","686651","0.0-11.0-1.0-0.2","3769","2","13","Male","approach_avoid_spark_v1","""event"",""trial"",""time""
""fullscreenenter"",""1"",""2903""
","
","
","""event"",""trial"",""time""
""fullscreenenter"",""1"",""2903""
","
","","","","","","1190","<p> You can pet the animal by pressing 1 and leave the animal alone by pressing 0. </p><br><div class=""choice-instructions-grid""> <div class=""choice-option""><img src=""images/approach.png"" class=""choice-option-img"" stage=""instructions"" position=""0"" ><div class=""choice-option-text""> Press ""1."" </div></div><div class=""choice-option""><img src=""images/avoid.png"" class=""choice-option-img"" stage=""instructions"" position=""1"" ><div class=""choice-option-text""> Press ""0."" </div></div>","","0","instructions","","","","","","","","","","",""
"learning-instructions","180","696570","0.0-11.0-1.0-0.3","3769","2","13","Male","approach_avoid_spark_v1","""event"",""trial"",""time""
""fullscreenenter"",""1"",""2903""
","
","
","""event"",""trial"",""time""
""fullscreenenter"",""1"",""2903""
","
","","","","","","1250","<p> If you pet an animal that wants to be pet, you will make it feel happy! </p><p> But if you pet an animal that wants to be left alone, you will make it feel angry. </p>","","0","instructions","","","","","","","","","","",""
"learning-instructions","181","712025","0.0-11.0-1.0-0.4","3769","2","13","Male","approach_avoid_spark_v1","""event"",""trial"",""time""
""fullscreenenter"",""1"",""2903""
","
","
","""event"",""trial"",""time""
""fullscreenenter"",""1"",""2903""
","
","","","","","","3065","<p> You will earn points based on how you made the animal feel. </p><p> If you made it feel happy, you will WIN anywhere from 1 - 9 points, </p><p> but if you made it feel angry, you will LOSE anywhere from 1 - 9 points. </p>","","0","instructions","","","","","","","","","","",""
"learning-instructions","182","719377","0.0-11.0-1.0-0.5","3769","2","13","Male","approach_avoid_spark_v1","""event"",""trial"",""time""
""fullscreenenter"",""1"",""2903""
","
","
","""event"",""trial"",""time""
""fullscreenenter"",""1"",""2903""
","
","","","","","","696","<p> You will see how many points you won or lost in the center of the screen. </p><p> Here is what you would see if you won 5 points: </p><p style=""color:green;font-size:50px;font-weight:bolder"">5</p>","","0","instructions","","","","","","","","","","",""
"learning-instructions","183","722408","0.0-11.0-1.0-0.6","3769","2","13","Male","approach_avoid_spark_v1","""event"",""trial"",""time""
""fullscreenenter"",""1"",""2903""
","
","
","""event"",""trial"",""time""
""fullscreenenter"",""1"",""2903""
","
","","","","","","188","<p> And here is what you would see if you lost 3 points: </p><p style=""color:red;font-size:50px;font-weight:bolder"">-3</p>","","0","instructions","","","","","","","","","","",""
"learning-instructions","184","738040","0.0-11.0-1.0-0.7","3769","2","13","Male","approach_avoid_spark_v1","""event"",""trial"",""time""
""fullscreenenter"",""1"",""2903""
","
","
","""event"",""trial"",""time""
""fullscreenenter"",""1"",""2903""
","
","","","","","","1800","<p> Some animals will become very happy or very angry. </p><p> These animals will make you win or lose LOTS of points. </p><p> Other animals have less strong feelings. </p><p> These animals will make you win or lose small amounts of points. </p>","","0","instructions","","","","","","","","","","",""
"learning-instructions","185","757279","0.0-11.0-1.0-0.8","3769","2","13","Male","approach_avoid_spark_v1","""event"",""trial"",""time""
""fullscreenenter"",""1"",""2903""
","
","
","""event"",""trial"",""time""
""fullscreenenter"",""1"",""2903""
","
","","","","","","8020","<p> If you choose to leave the animal alone, you will not win or lose any points. </p><p>  However, in the center of the screen, you will see the number of points you WOULD HAVE won or lost if you had pet the animal. </p>","","0","instructions","","","","","","","","","","",""
"learning-instructions","186","775470","0.0-11.0-1.0-0.9","3769","2","13","Male","approach_avoid_spark_v1","""event"",""trial"",""time""
""fullscreenenter"",""1"",""2903""
","
","
","""event"",""trial"",""time""
""fullscreenenter"",""1"",""2903""
","
","","","","","","6271","<p> Here is what you might see if you did not pet the animal but the animal wanted to be pet: </p><p style=""color:grey; font-size:50px; display: inline-block; border-spacing: 15px; border-width:3px; border-style:solid; border-color:red"">  &nbsp; 6 &nbsp; </p><p> Remember, in this case, you would not win or lose ANY points because you did not pet the animal.  </p>","","0","instructions","","","","","","","","","","",""
"learning-instructions","187","783422","0.0-11.0-1.0-0.10","3769","2","13","Male","approach_avoid_spark_v1","""event"",""trial"",""time""
""fullscreenenter"",""1"",""2903""
","
","
","""event"",""trial"",""time""
""fullscreenenter"",""1"",""2903""
","
","","","","","","694","<p> Try to make the best choice for each animal because </p><p> at the end of the game, you will earn bonus money based on how many points you earned. </p>","","0","instructions","","","","","","","","","","",""
"learning-instructions","188","801941","0.0-11.0-1.0-0.11","3769","2","13","Male","approach_avoid_spark_v1","""event"",""trial"",""time""
""fullscreenenter"",""1"",""2903""
","
","
","""event"",""trial"",""time""
""fullscreenenter"",""1"",""2903""
","
","","","","","","10324","<p> You will have 3 seconds to make each choice. Try to respond before time runs out! </p><p> You will lose 5 points each time you do not make a response. </p>","","0","instructions","","","","","","","","","","",""
"html-keyboard-response","189","802556","0.0-11.0-2.0-0.0","3769","2","13","Male","approach_avoid_spark_v1","""event"",""trial"",""time""
""fullscreenenter"",""1"",""2903""
","
","
","""event"",""trial"",""time""
""fullscreenenter"",""1"",""2903""
","
","","","","","","null","<div style=""font-size:60px;"">+</div>","null","","fixation","","","","","","","","","","",""
"aa-learning-trial","190","805566","0.0-11.0-2.0-1.0","3769","2","13","Male","approach_avoid_spark_v1","""event"",""trial"",""time""
""fullscreenenter"",""1"",""2903""
","
","
","""event"",""trial"",""time""
""fullscreenenter"",""1"",""2903""
","
","","","","","","836","images/rodent1.png","","","learning","-4","-4","1","1","rodent","pets","1","1","","bad","[-5]"
"html-keyboard-response","191","806076","0.0-11.0-2.0-0.1","3769","2","13","Male","approach_avoid_spark_v1","""event"",""trial"",""time""
""fullscreenenter"",""1"",""2903""
","
","
","""event"",""trial"",""time""
""fullscreenenter"",""1"",""2903""
","
","","","","","","null","<div style=""font-size:60px;"">+</div>","null","","fixation","","","","","","","","","","",""
"aa-learning-trial","192","809086","0.0-11.0-2.0-1.1","3769","2","13","Male","approach_avoid_spark_v1","""event"",""trial"",""time""
""fullscreenenter"",""1"",""2903""
","
","
","""event"",""trial"",""time""
""fullscreenenter"",""1"",""2903""
","
","","","","","","null","images/dog3.png","","","learning","5","-5","","null","dog","pets","1","1","","good","[3]"
"html-keyboard-response","193","809595","0.0-11.0-2.0-0.2","3769","2","13","Male","approach_avoid_spark_v1","""event"",""trial"",""time""
""fullscreenenter"",""1"",""2903""
","
","
","""event"",""trial"",""time""
""fullscreenenter"",""1"",""2903""
","
","","","","","","null","<div style=""font-size:60px;"">+</div>","null","","fixation","","","","","","","","","","",""
"aa-learning-trial","194","812606","0.0-11.0-2.0-1.2","3769","2","13","Male","approach_avoid_spark_v1","""event"",""trial"",""time""
""fullscreenenter"",""1"",""2903""
","
","
","""event"",""trial"",""time""
""fullscreenenter"",""1"",""2903""
","
","","","","","","1267","images/cat6.png","","","learning","2","0","0","0","cat","pets","1","1","","neutral","0"
"html-keyboard-response","195","813115","0.0-11.0-2.0-0.3","3769","2","13","Male","approach_avoid_spark_v1","""event"",""trial"",""time""
""fullscreenenter"",""1"",""2903""
","
","
","""event"",""trial"",""time""
""fullscreenenter"",""1"",""2903""
","
","","","","","","null","<div style=""font-size:60px;"">+</div>","null","","fixation","","","","","","","","","","",""
"aa-learning-trial","196","816126","0.0-11.0-2.0-1.3","3769","2","13","Male","approach_avoid_spark_v1","""event"",""trial"",""time""
""fullscreenenter"",""1"",""2903""
","
","
","""event"",""trial"",""time""
""fullscreenenter"",""1"",""2903""
","
","","","","","","844","images/cat6.png","","","learning","-3","-3","1","1","cat","pets","1","1","","neutral","0"
"html-keyboard-response","197","816635","0.0-11.0-2.0-0.4","3769","2","13","Male","approach_avoid_spark_v1","""event"",""trial"",""time""
""fullscreenenter"",""1"",""2903""
","
","
","""event"",""trial"",""time""
""fullscreenenter"",""1"",""2903""
","
","","","","","","null","<div style=""font-size:60px;"">+</div>","null","","fixation","","","","","","","","","","",""
"aa-learning-trial","198","819646","0.0-11.0-2.0-1.4","3769","2","13","Male","approach_avoid_spark_v1","""event"",""trial"",""time""
""fullscreenenter"",""1"",""2903""
","
","
","""event"",""trial"",""time""
""fullscreenenter"",""1"",""2903""
","
","","","","","","932","images/rodent2.png","","","learning","-4","0","0","0","rodent","pets","1","1","","bad","[-5]"
"html-keyboard-response","199","820155","0.0-11.0-2.0-0.5","3769","2","13","Male","approach_avoid_spark_v1","""event"",""trial"",""time""
""fullscreenenter"",""1"",""2903""
","
","
","""event"",""trial"",""time""
""fullscreenenter"",""1"",""2903""
","
","","","","","","null","<div style=""font-size:60px;"">+</div>","null","","fixation","","","","","","","","","","",""
"aa-learning-trial","200","823166","0.0-11.0-2.0-1.5","3769","2","13","Male","approach_avoid_spark_v1","""event"",""trial"",""time""
""fullscreenenter"",""1"",""2903""
","
","
","""event"",""trial"",""time""
""fullscreenenter"",""1"",""2903""
","
","","","","","","509","images/dog4.png","","","learning","4","0","0","0","dog","pets","1","1","","good","[3]"
"html-keyboard-response","201","823675","0.0-11.0-2.0-0.6","3769","2","13","Male","approach_avoid_spark_v1","""event"",""trial"",""time""
""fullscreenenter"",""1"",""2903""
","
","
","""event"",""trial"",""time""
""fullscreenenter"",""1"",""2903""
","
","","","","","","null","<div style=""font-size:60px;"">+</div>","null","","fixation","","","","","","","","","","",""
"aa-learning-trial","202","826686","0.0-11.0-2.0-1.6","3769","2","13","Male","approach_avoid_spark_v1","""event"",""trial"",""time""
""fullscreenenter"",""1"",""2903""
","
","
","""event"",""trial"",""time""
""fullscreenenter"",""1"",""2903""
","
","","","","","","null","images/rodent7.png","","","learning","-5","-5","","null","rodent","pets","1","1","","bad","[-5]"
"html-keyboard-response","203","827195","0.0-11.0-2.0-0.7","3769","2","13","Male","approach_avoid_spark_v1","""event"",""trial"",""time""
""fullscreenenter"",""1"",""2903""
","
","
","""event"",""trial"",""time""
""fullscreenenter"",""1"",""2903""
","
","","","","","","null","<div style=""font-size:60px;"">+</div>","null","","fixation","","","","","","","","","","",""
"aa-learning-trial","204","830205","0.0-11.0-2.0-1.7","3769","2","13","Male","approach_avoid_spark_v1","""event"",""trial"",""time""
""fullscreenenter"",""1"",""2903""
","
","
","""event"",""trial"",""time""
""fullscreenenter"",""1"",""2903""
","
","","","","","","2060","images/cat7.png","","","learning","-2","0","0","0","cat","pets","1","1","","neutral","0"
"html-keyboard-response","205","830715","0.0-11.0-2.0-0.8","3769","2","13","Male","approach_avoid_spark_v1","""event"",""trial"",""time""
""fullscreenenter"",""1"",""2903""
","
","
","""event"",""trial"",""time""
""fullscreenenter"",""1"",""2903""
","
","","","","","","null","<div style=""font-size:60px;"">+</div>","null","","fixation","","","","","","","","","","",""
"aa-learning-trial","206","833725","0.0-11.0-2.0-1.8","3769","2","13","Male","approach_avoid_spark_v1","""event"",""trial"",""time""
""fullscreenenter"",""1"",""2903""
","
","
","""event"",""trial"",""time""
""fullscreenenter"",""1"",""2903""
","
","","","","","","852","images/dog6.png","","","learning","4","4","1","1","dog","pets","1","1","","good","[3]"
"html-keyboard-response","207","834235","0.0-11.0-2.0-0.9","3769","2","13","Male","approach_avoid_spark_v1","""event"",""trial"",""time""
""fullscreenenter"",""1"",""2903""
","
","
","""event"",""trial"",""time""
""fullscreenenter"",""1"",""2903""
","
","","","","","","null","<div style=""font-size:60px;"">+</div>","null","","fixation","","","","","","","","","","",""
"aa-learning-trial","208","837245","0.0-11.0-2.0-1.9","3769","2","13","Male","approach_avoid_spark_v1","""event"",""trial"",""time""
""fullscreenenter"",""1"",""2903""
","
","
","""event"",""trial"",""time""
""fullscreenenter"",""1"",""2903""
","
","","","","","","628","images/rodent2.png","","","learning","-5","0","0","0","rodent","pets","1","1","","bad","[-5]"
"html-keyboard-response","209","837755","0.0-11.0-2.0-0.10","3769","2","13","Male","approach_avoid_spark_v1","""event"",""trial"",""time""
""fullscreenenter"",""1"",""2903""
","
","
","""event"",""trial"",""time""
""fullscreenenter"",""1"",""2903""
","
","","","","","","null","<div style=""font-size:60px;"">+</div>","null","","fixation","","","","","","","","","","",""
"aa-learning-trial","210","840764","0.0-11.0-2.0-1.10","3769","2","13","Male","approach_avoid_spark_v1","""event"",""trial"",""time""
""fullscreenenter"",""1"",""2903""
","
","
","""event"",""trial"",""time""
""fullscreenenter"",""1"",""2903""
","
","","","","","","627","images/dog4.png","","","learning","1","1","1","1","dog","pets","1","1","","good","[3]"
"html-keyboard-response","211","841275","0.0-11.0-2.0-0.11","3769","2","13","Male","approach_avoid_spark_v1","""event"",""trial"",""time""
""fullscreenenter"",""1"",""2903""
","
","
","""event"",""trial"",""time""
""fullscreenenter"",""1"",""2903""
","
","","","","","","null","<div style=""font-size:60px;"">+</div>","null","","fixation","","","","","","","","","","",""
"aa-learning-trial","212","844285","0.0-11.0-2.0-1.11","3769","2","13","Male","approach_avoid_spark_v1","""event"",""trial"",""time""
""fullscreenenter"",""1"",""2903""
","
","
","""event"",""trial"",""time""
""fullscreenenter"",""1"",""2903""
","
","","","","","","1500","images/rodent1.png","","","learning","-6","-6","1","1","rodent","pets","1","1","","bad","[-5]"
"html-keyboard-response","213","844794","0.0-11.0-2.0-0.12","3769","2","13","Male","approach_avoid_spark_v1","""event"",""trial"",""time""
""fullscreenenter"",""1"",""2903""
","
","
","""event"",""trial"",""time""
""fullscreenenter"",""1"",""2903""
","
","","","","","","null","<div style=""font-size:60px;"">+</div>","null","","fixation","","","","","","","","","","",""
"aa-learning-trial","214","847804","0.0-11.0-2.0-1.12","3769","2","13","Male","approach_avoid_spark_v1","""event"",""trial"",""time""
""fullscreenenter"",""1"",""2903""
","
","
","""event"",""trial"",""time""
""fullscreenenter"",""1"",""2903""
","
","","","","","","null","images/cat3.png","","","learning","[-1]","-5","","null","cat","pets","1","1","","neutral","0"
"html-keyboard-response","215","848314","0.0-11.0-2.0-0.13","3769","2","13","Male","approach_avoid_spark_v1","""event"",""trial"",""time""
""fullscreenenter"",""1"",""2903""
","
","
","""event"",""trial"",""time""
""fullscreenenter"",""1"",""2903""
","
","","","","","","null","<div style=""font-size:60px;"">+</div>","null","","fixation","","","","","","","","","","",""
"aa-learning-trial","216","851325","0.0-11.0-2.0-1.13","3769","2","13","Male","approach_avoid_spark_v1","""event"",""trial"",""time""
""fullscreenenter"",""1"",""2903""
","
","
","""event"",""trial"",""time""
""fullscreenenter"",""1"",""2903""
","
","","","","","","604","images/dog6.png","","","learning","7","7","1","1","dog","pets","1","1","","good","[3]"
"html-keyboard-response","217","851834","0.0-11.0-2.0-0.14","3769","2","13","Male","approach_avoid_spark_v1","""event"",""trial"",""time""
""fullscreenenter"",""1"",""2903""
","
","
","""event"",""trial"",""time""
""fullscreenenter"",""1"",""2903""
","
","","","","","","null","<div style=""font-size:60px;"">+</div>","null","","fixation","","","","","","","","","","",""
"aa-learning-trial","218","854845","0.0-11.0-2.0-1.14","3769","2","13","Male","approach_avoid_spark_v1","""event"",""trial"",""time""
""fullscreenenter"",""1"",""2903""
","
","
","""event"",""trial"",""time""
""fullscreenenter"",""1"",""2903""
","
","","","","","","1139","images/cat3.png","","","learning","[-1]","0","0","0","cat","pets","1","1","","neutral","0"
"html-keyboard-response","219","855354","0.0-11.0-2.0-0.15","3769","2","13","Male","approach_avoid_spark_v1","""event"",""trial"",""time""
""fullscreenenter"",""1"",""2903""
","
","
","""event"",""trial"",""time""
""fullscreenenter"",""1"",""2903""
","
","","","","","","null","<div style=""font-size:60px;"">+</div>","null","","fixation","","","","","","","","","","",""
"aa-learning-trial","220","858364","0.0-11.0-2.0-1.15","3769","2","13","Male","approach_avoid_spark_v1","""event"",""trial"",""time""
""fullscreenenter"",""1"",""2903""
","
","
","""event"",""trial"",""time""
""fullscreenenter"",""1"",""2903""
","
","","","","","","693","images/rodent1.png","","","learning","-5","0","0","0","rodent","pets","1","1","","bad","[-5]"
"html-keyboard-response","221","858874","0.0-11.0-2.0-0.16","3769","2","13","Male","approach_avoid_spark_v1","""event"",""trial"",""time""
""fullscreenenter"",""1"",""2903""
","
","
","""event"",""trial"",""time""
""fullscreenenter"",""1"",""2903""
","
","","","","","","null","<div style=""font-size:60px;"">+</div>","null","","fixation","","","","","","","","","","",""
"aa-learning-trial","222","861884","0.0-11.0-2.0-1.16","3769","2","13","Male","approach_avoid_spark_v1","""event"",""trial"",""time""
""fullscreenenter"",""1"",""2903""
","
","
","""event"",""trial"",""time""
""fullscreenenter"",""1"",""2903""
","
","","","","","","572","images/dog6.png","","","learning","1","1","1","1","dog","pets","1","1","","good","[3]"
"html-keyboard-response","223","862394","0.0-11.0-2.0-0.17","3769","2","13","Male","approach_avoid_spark_v1","""event"",""trial"",""time""
""fullscreenenter"",""1"",""2903""
","
","
","""event"",""trial"",""time""
""fullscreenenter"",""1"",""2903""
","
","","","","","","null","<div style=""font-size:60px;"">+</div>","null","","fixation","","","","","","","","","","",""
"aa-learning-trial","224","865404","0.0-11.0-2.0-1.17","3769","2","13","Male","approach_avoid_spark_v1","""event"",""trial"",""time""
""fullscreenenter"",""1"",""2903""
","
","
","""event"",""trial"",""time""
""fullscreenenter"",""1"",""2903""
","
","","","","","","1332","images/cat6.png","","","learning","[-1]","0","0","0","cat","pets","1","1","","neutral","0"
"html-keyboard-response","225","865913","0.0-11.0-2.0-0.18","3769","2","13","Male","approach_avoid_spark_v1","""event"",""trial"",""time""
""fullscreenenter"",""1"",""2903""
","
","
","""event"",""trial"",""time""
""fullscreenenter"",""1"",""2903""
","
","","","","","","null","<div style=""font-size:60px;"">+</div>","null","","fixation","","","","","","","","","","",""
"aa-learning-trial","226","868924","0.0-11.0-2.0-1.18","3769","2","13","Male","approach_avoid_spark_v1","""event"",""trial"",""time""
""fullscreenenter"",""1"",""2903""
","
","
","""event"",""trial"",""time""
""fullscreenenter"",""1"",""2903""
","
","","","","","","null","images/cat6.png","","","learning","-2","-5","","null","cat","pets","1","1","","neutral","0"
"html-keyboard-response","227","869434","0.0-11.0-2.0-0.19","3769","2","13","Male","approach_avoid_spark_v1","""event"",""trial"",""time""
""fullscreenenter"",""1"",""2903""
","
","
","""event"",""trial"",""time""
""fullscreenenter"",""1"",""2903""
","
","","","","","","null","<div style=""font-size:60px;"">+</div>","null","","fixation","","","","","","","","","","",""
"aa-learning-trial","228","872445","0.0-11.0-2.0-1.19","3769","2","13","Male","approach_avoid_spark_v1","""event"",""trial"",""time""
""fullscreenenter"",""1"",""2903""
","
","
","""event"",""trial"",""time""
""fullscreenenter"",""1"",""2903""
","
","","","","","","1156","images/dog6.png","","","learning","2","0","0","0","dog","pets","1","1","","good","[3]"
"html-keyboard-response","229","872954","0.0-11.0-2.0-0.20","3769","2","13","Male","approach_avoid_spark_v1","""event"",""trial"",""time""
""fullscreenenter"",""1"",""2903""
","
","
","""event"",""trial"",""time""
""fullscreenenter"",""1"",""2903""
","
","","","","","","null","<div style=""font-size:60px;"">+</div>","null","","fixation","","","","","","","","","","",""
"aa-learning-trial","230","875964","0.0-11.0-2.0-1.20","3769","2","13","Male","approach_avoid_spark_v1","""event"",""trial"",""time""
""fullscreenenter"",""1"",""2903""
","
","
","""event"",""trial"",""time""
""fullscreenenter"",""1"",""2903""
","
","","","","","","1155","images/cat3.png","","","learning","[1]","1","1","1","cat","pets","1","1","","neutral","0"
"html-keyboard-response","231","876473","0.0-11.0-2.0-0.21","3769","2","13","Male","approach_avoid_spark_v1","""event"",""trial"",""time""
""fullscreenenter"",""1"",""2903""
","
","
","""event"",""trial"",""time""
""fullscreenenter"",""1"",""2903""
","
","","","","","","null","<div style=""font-size:60px;"">+</div>","null","","fixation","","","","","","","","","","",""
"aa-learning-trial","232","879484","0.0-11.0-2.0-1.21","3769","2","13","Male","approach_avoid_spark_v1","""event"",""trial"",""time""
""fullscreenenter"",""1"",""2903""
","
","
","""event"",""trial"",""time""
""fullscreenenter"",""1"",""2903""
","
","","","","","","548","images/rodent1.png","","","learning","-5","0","0","0","rodent","pets","1","1","","bad","[-5]"
"html-keyboard-response","233","879994","0.0-11.0-2.0-0.22","3769","2","13","Male","approach_avoid_spark_v1","""event"",""trial"",""time""
""fullscreenenter"",""1"",""2903""
","
","
","""event"",""trial"",""time""
""fullscreenenter"",""1"",""2903""
","
","","","","","","null","<div style=""font-size:60px;"">+</div>","null","","fixation","","","","","","","","","","",""
"aa-learning-trial","234","883003","0.0-11.0-2.0-1.22","3769","2","13","Male","approach_avoid_spark_v1","""event"",""trial"",""time""
""fullscreenenter"",""1"",""2903""
","
","
","""event"",""trial"",""time""
""fullscreenenter"",""1"",""2903""
","
","","","","","","795","images/rodent8.png","","","learning","-3","0","0","0","rodent","pets","1","1","","bad","[-5]"
"html-keyboard-response","235","883513","0.0-11.0-2.0-0.23","3769","2","13","Male","approach_avoid_spark_v1","""event"",""trial"",""time""
""fullscreenenter"",""1"",""2903""
","
","
","""event"",""trial"",""time""
""fullscreenenter"",""1"",""2903""
","
","","","","","","null","<div style=""font-size:60px;"">+</div>","null","","fixation","","","","","","","","","","",""
"aa-learning-trial","236","886523","0.0-11.0-2.0-1.23","3769","2","13","Male","approach_avoid_spark_v1","""event"",""trial"",""time""
""fullscreenenter"",""1"",""2903""
","
","
","""event"",""trial"",""time""
""fullscreenenter"",""1"",""2903""
","
","","","","","","876","images/dog5.png","","","learning","1","1","1","1","dog","pets","1","1","","good","[3]"
"html-keyboard-response","237","887033","0.0-11.0-2.0-0.24","3769","2","13","Male","approach_avoid_spark_v1","""event"",""trial"",""time""
""fullscreenenter"",""1"",""2903""
","
","
","""event"",""trial"",""time""
""fullscreenenter"",""1"",""2903""
","
","","","","","","null","<div style=""font-size:60px;"">+</div>","null","","fixation","","","","","","","","","","",""
"aa-learning-trial","238","890043","0.0-11.0-2.0-1.24","3769","2","13","Male","approach_avoid_spark_v1","""event"",""trial"",""time""
""fullscreenenter"",""1"",""2903""
","
","
","""event"",""trial"",""time""
""fullscreenenter"",""1"",""2903""
","
","","","","","","444","images/dog4.png","","","learning","5","5","1","1","dog","pets","1","1","","good","[3]"
"html-keyboard-response","239","890553","0.0-11.0-2.0-0.25","3769","2","13","Male","approach_avoid_spark_v1","""event"",""trial"",""time""
""fullscreenenter"",""1"",""2903""
","
","
","""event"",""trial"",""time""
""fullscreenenter"",""1"",""2903""
","
","","","","","","null","<div style=""font-size:60px;"">+</div>","null","","fixation","","","","","","","","","","",""
"aa-learning-trial","240","893563","0.0-11.0-2.0-1.25","3769","2","13","Male","approach_avoid_spark_v1","""event"",""trial"",""time""
""fullscreenenter"",""1"",""2903""
","
","
","""event"",""trial"",""time""
""fullscreenenter"",""1"",""2903""
","
","","","","","","null","images/cat7.png","","","learning","[-1]","-5","","null","cat","pets","1","1","","neutral","0"
"html-keyboard-response","241","894073","0.0-11.0-2.0-0.26","3769","2","13","Male","approach_avoid_spark_v1","""event"",""trial"",""time""
""fullscreenenter"",""1"",""2903""
","
","
","""event"",""trial"",""time""
""fullscreenenter"",""1"",""2903""
","
","","","","","","null","<div style=""font-size:60px;"">+</div>","null","","fixation","","","","","","","","","","",""
"aa-learning-trial","242","897083","0.0-11.0-2.0-1.26","3769","2","13","Male","approach_avoid_spark_v1","""event"",""trial"",""time""
""fullscreenenter"",""1"",""2903""
