"trial_type","trial_index","time_elapsed","internal_node_id","subject_id","task_condition","age","gender","task_version","interactions","blur_events","focus_events","fullscreenenter_events","fullscreenexit_events","success","timeout","failed_images","failed_audio","failed_video","rt","stimulus","response","button_pressed","task_part","approach_reward","points","key_press","option_selected","stim_cat","task_block","block_condition","block_number","correct","cat_type","mean_cat_reward"
"pavlovia","0","7","0.0-0.0","6407","2","10","Male","approach_avoid_spark_v1","""event"",""trial"",""time""
""fullscreenenter"",""1"",""8208""
","
","
","""event"",""trial"",""time""
""fullscreenenter"",""1"",""8208""
","
","","","","","","","","","","","","","","","","","","","","",""
"fullscreen","1","9156","0.0-1.0","6407","2","10","Male","approach_avoid_spark_v1","""event"",""trial"",""time""
""fullscreenenter"",""1"",""8208""
","
","
","""event"",""trial"",""time""
""fullscreenenter"",""1"",""8208""
","
","true","","","","","","","","","","","","","","","","","","","",""
"preload","2","24102","0.0-2.0","6407","2","10","Male","approach_avoid_spark_v1","""event"",""trial"",""time""
""fullscreenenter"",""1"",""8208""
","
","
","""event"",""trial"",""time""
""fullscreenenter"",""1"",""8208""
","
","true","false","[]","[]","[]","","","","","","","","","","","","","","","",""
"audio-keyboard-response","3","30341","0.0-3.0","6407","2","10","Male","approach_avoid_spark_v1","""event"",""trial"",""time""
""fullscreenenter"",""1"",""8208""
","
","
","""event"",""trial"",""time""
""fullscreenenter"",""1"",""8208""
","
","","","","","","6240","audio/beep_loop.wav"," ","","","","","","","","","","","","",""
"audio-button-response","4","33668","0.0-4.0","6407","2","10","Male","approach_avoid_spark_v1","""event"",""trial"",""time""
""fullscreenenter"",""1"",""8208""
","
","
","""event"",""trial"",""time""
""fullscreenenter"",""1"",""8208""
","
","","","","","","3328","audio/shark.wav","4","","","","","","","","","","","","",""
"audio-button-response","5","37941","0.0-5.0","6407","2","10","Male","approach_avoid_spark_v1","""event"",""trial"",""time""
""fullscreenenter"",""1"",""8208""
","
","
","""event"",""trial"",""time""
""fullscreenenter"",""1"",""8208""
","
","","","","","","3253","audio/turtle.wav","1","","","","","","","","","","","","",""
"preload","6","43716","0.0-6.0","6407","2","10","Male","approach_avoid_spark_v1","""event"",""trial"",""time""
""fullscreenenter"",""1"",""8208""
","
","
","""event"",""trial"",""time""
""fullscreenenter"",""1"",""8208""
","
","true","false","[]","[]","[]","","","","","","","","","","","","","","","",""
"html-keyboard-response","7","47423","0.0-7.0","6407","2","10","Male","approach_avoid_spark_v1","""event"",""trial"",""time""
""fullscreenenter"",""1"",""8208""
","
","
","""event"",""trial"",""time""
""fullscreenenter"",""1"",""8208""
","
","","","","","","3703.8999996185303","Welcome to the experiment. Press any key to begin and to advance the instructions."," ","","","","","","","","","","","","",""
"learning-instructions","8","56628","0.0-8.0-0.0-0.0","6407","2","10","Male","approach_avoid_spark_v1","""event"",""trial"",""time""
""fullscreenenter"",""1"",""8208""
","
","
","""event"",""trial"",""time""
""fullscreenenter"",""1"",""8208""
","
","","","","","","2255.2999997138977","<p> Welcome! Today you are going to play 6 different rounds of a decision-making game. </p><p> Use the mouse to click next to continue. </p>","","0","instructions","","","","","","","","","","",""
"learning-instructions","9","61295","0.0-8.0-0.0-0.1","6407","2","10","Male","approach_avoid_spark_v1","""event"",""trial"",""time""
""fullscreenenter"",""1"",""8208""
","
","
","""event"",""trial"",""time""
""fullscreenenter"",""1"",""8208""
","
","","","","","","1930.3999996185303","<p> You will start with a practice round to learn the rules. </p>","","0","instructions","","","","","","","","","","",""
"learning-instructions","10","66150","0.0-8.0-0.0-0.2","6407","2","10","Male","approach_avoid_spark_v1","""event"",""trial"",""time""
""fullscreenenter"",""1"",""8208""
","
","
","""event"",""trial"",""time""
""fullscreenenter"",""1"",""8208""
","
","","","","","","1399.0999999046326","<p> Your goal in this round is to give out sports equipment to kids. </p></div>","","0","instructions","","","","","","","","","","",""
"learning-instructions","11","75312","0.0-8.0-0.0-0.3","6407","2","10","Male","approach_avoid_spark_v1","""event"",""trial"",""time""
""fullscreenenter"",""1"",""8208""
","
","
","""event"",""trial"",""time""
""fullscreenenter"",""1"",""8208""
","
","","","","","","1600.3000001907349","<p> The kids only like some of the equipment.  </p><p> On each turn, you will see a piece of sports equipment.   </p><p> You need to decide whether to give it to the kids or not.  </p>","","0","instructions","","","","","","","","","","",""
"learning-instructions","12","82813","0.0-8.0-0.0-0.4","6407","2","10","Male","approach_avoid_spark_v1","""event"",""trial"",""time""
""fullscreenenter"",""1"",""8208""
","
","
","""event"",""trial"",""time""
""fullscreenenter"",""1"",""8208""
","
","","","","","","2744.300000190735","<p> You can give them the equipment by pressing 1 and choose not to give it to them by pressing 0. </p><br><div class=""choice-instructions-grid""> <div class=""choice-option""><img src=""images/approach.png"" class=""choice-option-img"" stage=""instructions"" position=""0"" ><div class=""choice-option-text""> Press ""1."" </div></div><div class=""choice-option""><img src=""images/avoid.png"" class=""choice-option-img"" stage=""instructions"" position=""1"" ><div class=""choice-option-text""> Press ""0."" </div></div>","","0","instructions","","","","","","","","","","",""
"learning-instructions","13","92154","0.0-8.0-0.0-0.5","6407","2","10","Male","approach_avoid_spark_v1","""event"",""trial"",""time""
""fullscreenenter"",""1"",""8208""
","
","
","""event"",""trial"",""time""
""fullscreenenter"",""1"",""8208""
","
","","","","","","1951.3000001907349","<p> If you give them a piece of equipment they like, they will be happy! </p><p> But if you give them a piece of equipment they do not like, they will be sad. </p>","","0","instructions","","","","","","","","","","",""
"learning-instructions","14","106422","0.0-8.0-0.0-0.6","6407","2","10","Male","approach_avoid_spark_v1","""event"",""trial"",""time""
""fullscreenenter"",""1"",""8208""
","
","
","""event"",""trial"",""time""
""fullscreenenter"",""1"",""8208""
","
","","","","","","3758.199999809265","<p> You will earn points based on how you make kids feel. </p><p> If you make them happy, you will WIN anywhere from 1 - 9 points, </p><p> but if you make them sad, you will LOSE anywhere from 1 - 9 points. </p>","","0","instructions","","","","","","","","","","",""
"learning-instructions","15","118251","0.0-8.0-0.0-0.7","6407","2","10","Male","approach_avoid_spark_v1","""event"",""trial"",""time""
""fullscreenenter"",""1"",""8208""
","
","
","""event"",""trial"",""time""
""fullscreenenter"",""1"",""8208""
","
","","","","","","2259.300000190735","<p> You will see how many points you won or lost in the center of the screen. </p><p> Here is what you would see if you won 6 points: </p><p style=""color:green;font-size:50px;font-weight:bolder"">6</p><p style=""color:green"">The text is GREEN because you WON points.</p>","","0","instructions","","","","","","","","","","",""
"learning-instructions","16","125835","0.0-8.0-0.0-0.8","6407","2","10","Male","approach_avoid_spark_v1","""event"",""trial"",""time""
""fullscreenenter"",""1"",""8208""
","
","
","""event"",""trial"",""time""
""fullscreenenter"",""1"",""8208""
","
","","","","","","2058.5999999046326","<p> And here is what you would see if you lost 4 points: </p><p style=""color:red;font-size:50px;font-weight:bolder"">-4</p><p style=""color:red"">The text is RED because you LOST points. </p>","","0","instructions","","","","","","","","","","",""
"learning-instructions","17","142421","0.0-8.0-0.0-0.9","6407","2","10","Male","approach_avoid_spark_v1","""event"",""trial"",""time""
""fullscreenenter"",""1"",""8208""
","
","
","""event"",""trial"",""time""
""fullscreenenter"",""1"",""8208""
","
","","","","","","1867.6000003814697","<p> Some of the equipment will make the kids VERY happy or sad. </p><p> These pieces of equipment will make you win or lose LOTS of points. </p><p> Other pieces of equipment will only make the kids a little happy or sad. </p><p> These pieces of equipment will make you win or lose small amounts of points. </p>","","0","instructions","","","","","","","","","","",""
"learning-instructions","18","155370","0.0-8.0-0.0-0.10","6407","2","10","Male","approach_avoid_spark_v1","""event"",""trial"",""time""
""fullscreenenter"",""1"",""8208""
","
","
","""event"",""trial"",""time""
""fullscreenenter"",""1"",""8208""
","
","","","","","","2315.3999996185303","<p> If you choose not to give them the equipment, you will not win or lose any points. </p><p>  However, in the center of the screen, you will see the number of points you WOULD HAVE won or lost if you had given them the equipment. </p>","","0","instructions","","","","","","","","","","",""
"learning-instructions","19","180779","0.0-8.0-0.0-0.11","6407","2","10","Male","approach_avoid_spark_v1","""event"",""trial"",""time""
""fullscreenenter"",""1"",""8208""
","
","
","""event"",""trial"",""time""
""fullscreenenter"",""1"",""8208""
","
","","","","","","3869","<p> Here is what you might see if you did not give the equipment to the kids but it would have made them happy: </p><p style=""color:grey; font-size:50px; display: inline-block; border-spacing: 15px; border-width:3px; border-style:solid; border-color:red"">  &nbsp; 7 &nbsp; </p><p> Remember, in this case, you would not win or lose ANY points because you did not give them the equipment.  </p><p style=""color:grey"">The text is GREY because you earned ZERO points. </p><p style=""color:red"">However, choosing to give the kids the equipment would have made you win points. The box around the text is RED because you chose the worse option. </p>","","0","instructions","","","","","","","","","","",""
"learning-instructions","20","204949","0.0-8.0-0.0-0.12","6407","2","10","Male","approach_avoid_spark_v1","""event"",""trial"",""time""
""fullscreenenter"",""1"",""8208""
","
","
","""event"",""trial"",""time""
""fullscreenenter"",""1"",""8208""
","
","","","","","","3084.5999999046326","<p> Here is what you might see if you did not give the equipment to the kids but it would have made them sad: </p><p style=""color:grey;font-size:50px; display: inline-block; border-spacing: 15px; border-width:3px; border-style:solid; border-color:green"">  &nbsp; -8 &nbsp; </p><p> Remember, in this case, you would not win or lose ANY points because you did not give them the equipment.  </p><p style=""color:grey"">The text is GREY because you earned ZERO points. </p><p  style=""color:green""> Choosing to give the kids the equipment would have made you lose points. The box around the text is GREEN because you chose the better option.</p>","","0","instructions","","","","","","","","","","",""
"learning-instructions","21","220742","0.0-8.0-0.0-0.13","6407","2","10","Male","approach_avoid_spark_v1","""event"",""trial"",""time""
""fullscreenenter"",""1"",""8208""
","
","
","""event"",""trial"",""time""
""fullscreenenter"",""1"",""8208""
","
","","","","","","6408.5","<p> You will have 3 seconds to make each choice. Try to respond before time runs out! </p><p> You will lose 5 points each time you do not make a response. </p>","","0","instructions","","","","","","","","","","",""
"learning-instructions","22","227510","0.0-8.0-0.0-0.14","6407","2","10","Male","approach_avoid_spark_v1","""event"",""trial"",""time""
""fullscreenenter"",""1"",""8208""
","
","
","""event"",""trial"",""time""
""fullscreenenter"",""1"",""8208""
","
","","","","","","1347","<p> This is just a practice round, but in the real game, your bonus payment will depend on your total number of points.","","0","instructions","","","","","","","","","","",""
"learning-instructions","23","234783","0.0-8.0-0.0-0.15","6407","2","10","Male","approach_avoid_spark_v1","""event"",""trial"",""time""
""fullscreenenter"",""1"",""8208""
","
","
","""event"",""trial"",""time""
""fullscreenenter"",""1"",""8208""
","
","","","","","","1503.9000000953674","<p> Remember, you can give them the equipment by pressing 1 and choose not to give it to them by pressing 0. </p><br><div class=""choice-instructions-grid""> <div class=""choice-option""><img src=""images/approach.png"" class=""choice-option-img"" stage=""instructions"" position=""0"" ><div class=""choice-option-text""> Press ""1."" </div></div><div class=""choice-option""><img src=""images/avoid.png"" class=""choice-option-img"" stage=""instructions"" position=""1"" ><div class=""choice-option-text""> Press ""0."" </div></div>","","0","instructions","","","","","","","","","","",""
"html-button-response","24","237475","0.0-8.0-1.0","6407","2","10","Male","approach_avoid_spark_v1","""event"",""trial"",""time""
""fullscreenenter"",""1"",""8208""
","
","
","""event"",""trial"",""time""
""fullscreenenter"",""1"",""8208""
","
","","","","","","2581.0999999046326","<p> Ready to practice? </p>","0","","","","","","","","","","","","",""
"html-keyboard-response","25","238102","0.0-8.0-2.0-0.0","6407","2","10","Male","approach_avoid_spark_v1","""event"",""trial"",""time""
""fullscreenenter"",""1"",""8208""
","
","
","""event"",""trial"",""time""
""fullscreenenter"",""1"",""8208""
","
","","","","","","null","<div style=""font-size:60px;"">+</div>","null","","fixation","","","","","","","","","","",""
"aa-learning-trial","26","241112","0.0-8.0-2.0-1.0","6407","2","10","Male","approach_avoid_spark_v1","""event"",""trial"",""time""
""fullscreenenter"",""1"",""8208""
","
","
","""event"",""trial"",""time""
""fullscreenenter"",""1"",""8208""
","
","","","","","","null","images/ball4.png","","","learning","-9","-5","","null","practice","practice","practice","-1","","",""
"html-keyboard-response","27","241616","0.0-8.0-2.0-0.1","6407","2","10","Male","approach_avoid_spark_v1","""event"",""trial"",""time""
""fullscreenenter"",""1"",""8208""
","
","
","""event"",""trial"",""time""
""fullscreenenter"",""1"",""8208""
","
","","","","","","null","<div style=""font-size:60px;"">+</div>","null","","fixation","","","","","","","","","","",""
"aa-learning-trial","28","244625","0.0-8.0-2.0-1.1","6407","2","10","Male","approach_avoid_spark_v1","""event"",""trial"",""time""
""fullscreenenter"",""1"",""8208""
","
","
","""event"",""trial"",""time""
""fullscreenenter"",""1"",""8208""
","
","","","","","","481.09999990463257","images/ball1.png","","","learning","-1","-1","1","1","practice","practice","practice","-1","","",""
"html-keyboard-response","29","245132","0.0-8.0-2.0-0.2","6407","2","10","Male","approach_avoid_spark_v1","""event"",""trial"",""time""
""fullscreenenter"",""1"",""8208""
","
","
","""event"",""trial"",""time""
""fullscreenenter"",""1"",""8208""
","
","","","","","","null","<div style=""font-size:60px;"">+</div>","null","","fixation","","","","","","","","","","",""
"aa-learning-trial","30","248137","0.0-8.0-2.0-1.2","6407","2","10","Male","approach_avoid_spark_v1","""event"",""trial"",""time""
""fullscreenenter"",""1"",""8208""
","
","
","""event"",""trial"",""time""
""fullscreenenter"",""1"",""8208""
","
","","","","","","906.3999996185303","images/ball1.png","","","learning","-4","0","0","0","practice","practice","practice","-1","","",""
"html-keyboard-response","31","248642","0.0-8.0-2.0-0.3","6407","2","10","Male","approach_avoid_spark_v1","""event"",""trial"",""time""
""fullscreenenter"",""1"",""8208""
","
","
","""event"",""trial"",""time""
""fullscreenenter"",""1"",""8208""
","
","","","","","","null","<div style=""font-size:60px;"">+</div>","null","","fixation","","","","","","","","","","",""
"aa-learning-trial","32","251651","0.0-8.0-2.0-1.3","6407","2","10","Male","approach_avoid_spark_v1","""event"",""trial"",""time""
""fullscreenenter"",""1"",""8208""
","
","
","""event"",""trial"",""time""
""fullscreenenter"",""1"",""8208""
","
","","","","","","581.8999996185303","images/ball3.png","","","learning","2","0","0","0","practice","practice","practice","-1","","",""
"html-keyboard-response","33","252161","0.0-8.0-2.0-0.4","6407","2","10","Male","approach_avoid_spark_v1","""event"",""trial"",""time""
""fullscreenenter"",""1"",""8208""
","
","
","""event"",""trial"",""time""
""fullscreenenter"",""1"",""8208""
","
","","","","","","null","<div style=""font-size:60px;"">+</div>","null","","fixation","","","","","","","","","","",""
"aa-learning-trial","34","255168","0.0-8.0-2.0-1.4","6407","2","10","Male","approach_avoid_spark_v1","""event"",""trial"",""time""
""fullscreenenter"",""1"",""8208""
","
","
","""event"",""trial"",""time""
""fullscreenenter"",""1"",""8208""
","
","","","","","","322.19999980926514","images/ball2.png","","","learning","6","6","1","1","practice","practice","practice","-1","","",""
"html-keyboard-response","35","255677","0.0-8.0-2.0-0.5","6407","2","10","Male","approach_avoid_spark_v1","""event"",""trial"",""time""
""fullscreenenter"",""1"",""8208""
","
","
","""event"",""trial"",""time""
""fullscreenenter"",""1"",""8208""
","
","","","","","","null","<div style=""font-size:60px;"">+</div>","null","","fixation","","","","","","","","","","",""
"aa-learning-trial","36","258692","0.0-8.0-2.0-1.5","6407","2","10","Male","approach_avoid_spark_v1","""event"",""trial"",""time""
""fullscreenenter"",""1"",""8208""
","
","
","""event"",""trial"",""time""
""fullscreenenter"",""1"",""8208""
","
","","","","","","323.69999980926514","images/ball2.png","","","learning","-5","-5","1","1","practice","practice","practice","-1","","",""
"html-keyboard-response","37","259200","0.0-8.0-2.0-0.6","6407","2","10","Male","approach_avoid_spark_v1","""event"",""trial"",""time""
""fullscreenenter"",""1"",""8208""
","
","
","""event"",""trial"",""time""
""fullscreenenter"",""1"",""8208""
","
","","","","","","null","<div style=""font-size:60px;"">+</div>","null","","fixation","","","","","","","","","","",""
"aa-learning-trial","38","262214","0.0-8.0-2.0-1.6","6407","2","10","Male","approach_avoid_spark_v1","""event"",""trial"",""time""
""fullscreenenter"",""1"",""8208""
","
","
","""event"",""trial"",""time""
""fullscreenenter"",""1"",""8208""
","
","","","","","","1338.9000000953674","images/ball4.png","","","learning","1","0","0","0","practice","practice","practice","-1","","",""
"html-keyboard-response","39","262725","0.0-8.0-2.0-0.7","6407","2","10","Male","approach_avoid_spark_v1","""event"",""trial"",""time""
""fullscreenenter"",""1"",""8208""
","
","
","""event"",""trial"",""time""
""fullscreenenter"",""1"",""8208""
","
","","","","","","null","<div style=""font-size:60px;"">+</div>","null","","fixation","","","","","","","","","","",""
"aa-learning-trial","40","265733","0.0-8.0-2.0-1.7","6407","2","10","Male","approach_avoid_spark_v1","""event"",""trial"",""time""
""fullscreenenter"",""1"",""8208""
","
","
","""event"",""trial"",""time""
""fullscreenenter"",""1"",""8208""
","
","","","","","","918.1000003814697","images/racket1.png","","","learning","9","9","1","1","practice","practice","practice","-1","","",""
"html-keyboard-response","41","266247","0.0-8.0-2.0-0.8","6407","2","10","Male","approach_avoid_spark_v1","""event"",""trial"",""time""
""fullscreenenter"",""1"",""8208""
","
","
","""event"",""trial"",""time""
""fullscreenenter"",""1"",""8208""
","
","","","","","","null","<div style=""font-size:60px;"">+</div>","null","","fixation","","","","","","","","","","",""
"aa-learning-trial","42","269256","0.0-8.0-2.0-1.8","6407","2","10","Male","approach_avoid_spark_v1","""event"",""trial"",""time""
""fullscreenenter"",""1"",""8208""
","
","
","""event"",""trial"",""time""
""fullscreenenter"",""1"",""8208""
","
","","","","","","847.9000000953674","images/racket3.png","","","learning","-2","-2","1","1","practice","practice","practice","-1","","",""
"html-keyboard-response","43","269763","0.0-8.0-2.0-0.9","6407","2","10","Male","approach_avoid_spark_v1","""event"",""trial"",""time""
""fullscreenenter"",""1"",""8208""
","
","
","""event"",""trial"",""time""
""fullscreenenter"",""1"",""8208""
","
","","","","","","null","<div style=""font-size:60px;"">+</div>","null","","fixation","","","","","","","","","","",""
"aa-learning-trial","44","272774","0.0-8.0-2.0-1.9","6407","2","10","Male","approach_avoid_spark_v1","""event"",""trial"",""time""
""fullscreenenter"",""1"",""8208""
","
","
","""event"",""trial"",""time""
""fullscreenenter"",""1"",""8208""
","
","","","","","","1224.5999999046326","images/racket1.png","","","learning","2","0","0","0","practice","practice","practice","-1","","",""
"html-keyboard-response","45","273285","0.0-8.0-2.0-0.10","6407","2","10","Male","approach_avoid_spark_v1","""event"",""trial"",""time""
""fullscreenenter"",""1"",""8208""
","
","
","""event"",""trial"",""time""
""fullscreenenter"",""1"",""8208""
","
","","","","","","null","<div style=""font-size:60px;"">+</div>","null","","fixation","","","","","","","","","","",""
"aa-learning-trial","46","276298","0.0-8.0-2.0-1.10","6407","2","10","Male","approach_avoid_spark_v1","""event"",""trial"",""time""
""fullscreenenter"",""1"",""8208""
","
","
","""event"",""trial"",""time""
""fullscreenenter"",""1"",""8208""
","
","","","","","","1416.0999999046326","images/racket3.png","","","learning","9","9","1","1","practice","practice","practice","-1","","",""
"html-keyboard-response","47","276807","0.0-8.0-2.0-0.11","6407","2","10","Male","approach_avoid_spark_v1","""event"",""trial"",""time""
""fullscreenenter"",""1"",""8208""
","
","
","""event"",""trial"",""time""
""fullscreenenter"",""1"",""8208""
","
","","","","","","null","<div style=""font-size:60px;"">+</div>","null","","fixation","","","","","","","","","","",""
"aa-learning-trial","48","279811","0.0-8.0-2.0-1.11","6407","2","10","Male","approach_avoid_spark_v1","""event"",""trial"",""time""
""fullscreenenter"",""1"",""8208""
","
","
","""event"",""trial"",""time""
""fullscreenenter"",""1"",""8208""
","
","","","","","","1075.0999999046326","images/racket1.png","","","learning","-1","0","0","0","practice","practice","practice","-1","","",""
"html-button-response","49","281447","0.0-8.0-3.0","6407","2","10","Male","approach_avoid_spark_v1","""event"",""trial"",""time""
""fullscreenenter"",""1"",""8208""
","
","
","""event"",""trial"",""time""
""fullscreenenter"",""1"",""8208""
","
","","","","","","1630.5999999046326","<p> You earned 11 points in the practice round! </p>","0","","break","","","","","","","","","","",""
"learning-instructions","50","290167","0.0-8.0-4.0-0.0","6407","2","10","Male","approach_avoid_spark_v1","""event"",""trial"",""time""
""fullscreenenter"",""1"",""8208""
","
","
","""event"",""trial"",""time""
""fullscreenenter"",""1"",""8208""
","
","","","","","","2694.2000002861023","<p> It's almost time to start the real game. </p><p> Before you start, we're going to ask you a few questions about how the game works. </p>","","0","instructions","","","","","","","","","","",""
"preload","51","292761","0.0-8.0-5.0","6407","2","10","Male","approach_avoid_spark_v1","""event"",""trial"",""time""
""fullscreenenter"",""1"",""8208""
","
","
","""event"",""trial"",""time""
""fullscreenenter"",""1"",""8208""
","
","true","false","[]","[]","[]","","","","","","","","","","","","","","","",""
"comp-q","52","299607","0.0-8.0-6.0-0.0","6407","2","10","Male","approach_avoid_spark_v1","""event"",""trial"",""time""
""fullscreenenter"",""1"",""8208""
","
","
","""event"",""trial"",""time""
""fullscreenenter"",""1"",""8208""
","
","","","","","","1837.0999999046326","<p> <b> True or False? </b> </p><p> If you see a number in GREY, that means you earned that many points. </p>","","1","comp_question","","","","","","","","","true","",""
"comp-q","53","310515","0.0-8.0-6.0-1.0","6407","2","10","Male","approach_avoid_spark_v1","""event"",""trial"",""time""
""fullscreenenter"",""1"",""8208""
","
","
","""event"",""trial"",""time""
""fullscreenenter"",""1"",""8208""
","
","","","","","","2540.699999809265","<p><b> That's right! </b> If you see a grey number, it means you earned ZERO points. <br> The grey numbers show the points you WOULD HAVE earned if you had made the other choice. </p>","","0","comp_answer","","","","","","","","","","",""
"comp-q","54","316053","0.0-8.0-7.0-0.0","6407","2","10","Male","approach_avoid_spark_v1","""event"",""trial"",""time""
""fullscreenenter"",""1"",""8208""
","
","
","""event"",""trial"",""time""
""fullscreenenter"",""1"",""8208""
","
","","","","","","844","<p> <b> True or False? </b> </p><p> You will have as much time as you want to make each choice. </p>","","1","comp_question","","","","","","","","","true","",""
"comp-q","55","323093","0.0-8.0-7.0-1.0","6407","2","10","Male","approach_avoid_spark_v1","""event"",""trial"",""time""
""fullscreenenter"",""1"",""8208""
","
","
","""event"",""trial"",""time""
""fullscreenenter"",""1"",""8208""
","
","","","","","","3002.4000000953674","<p> <b> That's right! </b> You will only have 3 seconds to make each choice. </p>","","0","comp_answer","","","","","","","","","","",""
"comp-q","56","330547","0.0-8.0-8.0-0.0","6407","2","10","Male","approach_avoid_spark_v1","""event"",""trial"",""time""
""fullscreenenter"",""1"",""8208""
","
","
","""event"",""trial"",""time""
""fullscreenenter"",""1"",""8208""
","
","","","","","","2797.7000002861023","<p> <b> True or False? </b> </p><p> You should use the '1' and '0' keys to make your choices. </p>","","0","comp_question","","","","","","","","","true","",""
"comp-q","57","337072","0.0-8.0-8.0-1.0","6407","2","10","Male","approach_avoid_spark_v1","""event"",""trial"",""time""
""fullscreenenter"",""1"",""8208""
","
","
","""event"",""trial"",""time""
""fullscreenenter"",""1"",""8208""
","
","","","","","","1908.6999998092651","<p> <b> That's right! </b> You should use the '1' and '0' keys to make each choice. </p>","","0","comp_answer","","","","","","","","","","",""
"learning-instructions","58","345830","0.0-8.0-9.0-0.0","6407","2","10","Male","approach_avoid_spark_v1","""event"",""trial"",""time""
""fullscreenenter"",""1"",""8208""
","
","
","""event"",""trial"",""time""
""fullscreenenter"",""1"",""8208""
","
","","","","","","2484.2000002861023","<p> It's now time to start the real game. </p>Do your best, because the points you earn in the next rounds will influence your bonus payment. </p>","","0","instructions","","","","","","","","","","",""
"preload","59","345978","0.0-9.0-0.0","6407","2","10","Male","approach_avoid_spark_v1","""event"",""trial"",""time""
""fullscreenenter"",""1"",""8208""
","
","
","""event"",""trial"",""time""
""fullscreenenter"",""1"",""8208""
","
","true","false","[]","[]","[]","","","","","","","","","","","","","","","",""
"learning-instructions","60","352006","0.0-9.0-1.0-0.0","6407","2","10","Male","approach_avoid_spark_v1","""event"",""trial"",""time""
""fullscreenenter"",""1"",""8208""
","
","
","""event"",""trial"",""time""
""fullscreenenter"",""1"",""8208""
","
","","","","","","1120","<p> Your goal in this round is to decorate your friend's new house with furniture. </p></div>","","0","instructions","","","","","","","","","","",""
"learning-instructions","61","363699","0.0-9.0-1.0-0.1","6407","2","10","Male","approach_avoid_spark_v1","""event"",""trial"",""time""
""fullscreenenter"",""1"",""8208""
","
","
","""event"",""trial"",""time""
""fullscreenenter"",""1"",""8208""
","
","","","","","","1729.5999999046326","<p> Your friend likes some pieces of furniture but not others.  </p><p> On each turn, you will see a piece of furniture.   </p><p> You need to decide whether to put it in your friend's house or not.  </p>","","0","instructions","","","","","","","","","","",""
"learning-instructions","62","370898","0.0-9.0-1.0-0.2","6407","2","10","Male","approach_avoid_spark_v1","""event"",""trial"",""time""
""fullscreenenter"",""1"",""8208""
","
","
","""event"",""trial"",""time""
""fullscreenenter"",""1"",""8208""
","
","","","","","","1237.2000002861023","<p> You can put the furniture in her house by pressing 1 and deliver it elsewhere by pressing 0. </p><br><div class=""choice-instructions-grid""> <div class=""choice-option""><img src=""images/approach.png"" class=""choice-option-img"" stage=""instructions"" position=""0"" ><div class=""choice-option-text""> Press ""1."" </div></div><div class=""choice-option""><img src=""images/avoid.png"" class=""choice-option-img"" stage=""instructions"" position=""1"" ><div class=""choice-option-text""> Press ""0."" </div></div>","","0","instructions","","","","","","","","","","",""
"learning-instructions","63","381491","0.0-9.0-1.0-0.3","6407","2","10","Male","approach_avoid_spark_v1","""event"",""trial"",""time""
""fullscreenenter"",""1"",""8208""
","
","
","""event"",""trial"",""time""
""fullscreenenter"",""1"",""8208""
","
","","","","","","1484.7000002861023","<p> If you decorate your friend's house with furniture she likes, she will be happy! </p><p> But if you give her furniture that she does not like, she will be annoyed. </p>","","0","instructions","","","","","","","","","","",""
"learning-instructions","64","395321","0.0-9.0-1.0-0.4","6407","2","10","Male","approach_avoid_spark_v1","""event"",""trial"",""time""
""fullscreenenter"",""1"",""8208""
","
","
","""event"",""trial"",""time""
""fullscreenenter"",""1"",""8208""
","
","","","","","","1524","<p> You will earn points based on how you made your friend feel. </p><p> If you made her happy, you will WIN anywhere from 1 - 9 points, </p><p> but if you made her annoyed you will LOSE anywhere from 1 - 9 points. </p>","","0","instructions","","","","","","","","","","",""
"learning-instructions","65","404455","0.0-9.0-1.0-0.5","6407","2","10","Male","approach_avoid_spark_v1","""event"",""trial"",""time""
""fullscreenenter"",""1"",""8208""
","
","
","""event"",""trial"",""time""
""fullscreenenter"",""1"",""8208""
","
","","","","","","1386.9000000953674","<p> You will see how many points you won or lost in the center of the screen. </p><p> Here is what you would see if you won 5 points: </p><p style=""color:green;font-size:50px;font-weight:bolder"">5</p>","","0","instructions","","","","","","","","","","",""
"learning-instructions","66","410566","0.0-9.0-1.0-0.6","6407","2","10","Male","approach_avoid_spark_v1","""event"",""trial"",""time""
""fullscreenenter"",""1"",""8208""
","
","
","""event"",""trial"",""time""
""fullscreenenter"",""1"",""8208""
","
","","","","","","2443.2999997138977","<p> And here is what you would see if you lost 3 points: </p><p style=""color:red;font-size:50px;font-weight:bolder"">-3</p>","","0","instructions","","","","","","","","","","",""
"learning-instructions","67","430014","0.0-9.0-1.0-0.7","6407","2","10","Male","approach_avoid_spark_v1","""event"",""trial"",""time""
""fullscreenenter"",""1"",""8208""
","
","
","""event"",""trial"",""time""
""fullscreenenter"",""1"",""8208""
","
","","","","","","1505.4000000953674","<p> Some pieces of furniture will make her feel very happy or very annoyed. </p><p> These pieces of furniture will make you win or lose LOTS of points. </p><p> Other pieces of furniture will only make her feel a little happy or a little annoyed. </p><p> These pieces of furniture will make you win or lose small amounts of points. </p>","","0","instructions","","","","","","","","","","",""
"learning-instructions","68","443603","0.0-9.0-1.0-0.8","6407","2","10","Male","approach_avoid_spark_v1","""event"",""trial"",""time""
""fullscreenenter"",""1"",""8208""
","
","
","""event"",""trial"",""time""
""fullscreenenter"",""1"",""8208""
","
","","","","","","650.9000000953674","<p> If you choose to deliver a piece of furniture elsewhere, you will not win or lose any points. </p><p>  However, in the center of the screen, you will see the number of points you WOULD HAVE won or lost if you had given the furniture to your friend. </p>","","0","instructions","","","","","","","","","","",""
"learning-instructions","69","457922","0.0-9.0-1.0-0.9","6407","2","10","Male","approach_avoid_spark_v1","""event"",""trial"",""time""
""fullscreenenter"",""1"",""8208""
","
","
","""event"",""trial"",""time""
""fullscreenenter"",""1"",""8208""
","
","","","","","","2575.4000000953674","<p> Here is what you might see if you did not give a piece of furniture to your friend that would have made her happy: </p><p style=""color:grey; font-size:50px; display: inline-block; border-spacing: 15px; border-width:3px; border-style:solid; border-color:red"">  &nbsp; 6 &nbsp; </p><p> Remember, in this case, you would not win or lose ANY points because you did not give her the furniture.  </p>","","0","instructions","","","","","","","","","","",""
"learning-instructions","70","466941","0.0-9.0-1.0-0.10","6407","2","10","Male","approach_avoid_spark_v1","""event"",""trial"",""time""
""fullscreenenter"",""1"",""8208""
","
","
","""event"",""trial"",""time""
""fullscreenenter"",""1"",""8208""
","
","","","","","","1311.4000000953674","<p> Try to make the best choice for each piece of furniture because </p><p> at the end of the game, you will earn bonus money based on how many points you earned. </p>","","0","instructions","","","","","","","","","","",""
"learning-instructions","71","476095","0.0-9.0-1.0-0.11","6407","2","10","Male","approach_avoid_spark_v1","""event"",""trial"",""time""
""fullscreenenter"",""1"",""8208""
","
","
","""event"",""trial"",""time""
""fullscreenenter"",""1"",""8208""
","
","","","","","","960.8999996185303","<p> You will have 3 seconds to make each choice. Try to respond before time runs out! </p><p> You will lose 5 points each time you do not make a response. </p>","","0","instructions","","","","","","","","","","",""
"html-keyboard-response","72","476707","0.0-9.0-2.0-0.0","6407","2","10","Male","approach_avoid_spark_v1","""event"",""trial"",""time""
""fullscreenenter"",""1"",""8208""
","
","
","""event"",""trial"",""time""
""fullscreenenter"",""1"",""8208""
","
","","","","","","null","<div style=""font-size:60px;"">+</div>","null","","fixation","","","","","","","","","","",""
"aa-learning-trial","73","479715","0.0-9.0-2.0-1.0","6407","2","10","Male","approach_avoid_spark_v1","""event"",""trial"",""time""
""fullscreenenter"",""1"",""8208""
","
","
","""event"",""trial"",""time""
""fullscreenenter"",""1"",""8208""
","
","","","","","","1610.4000000953674","images/chair6.png","","","learning","-2","-2","1","1","chair","furniture","2","0","","neutral","0"
"html-keyboard-response","74","480227","0.0-9.0-2.0-0.1","6407","2","10","Male","approach_avoid_spark_v1","""event"",""trial"",""time""
""fullscreenenter"",""1"",""8208""
","
","
","""event"",""trial"",""time""
""fullscreenenter"",""1"",""8208""
","
","","","","","","null","<div style=""font-size:60px;"">+</div>","null","","fixation","","","","","","","","","","",""
"aa-learning-trial","75","483233","0.0-9.0-2.0-1.1","6407","2","10","Male","approach_avoid_spark_v1","""event"",""trial"",""time""
""fullscreenenter"",""1"",""8208""
","
","
","""event"",""trial"",""time""
""fullscreenenter"",""1"",""8208""
","
","","","","","","1371.0999999046326","images/chair4.png","","","learning","-8","-8","1","1","chair","furniture","2","0","","neutral","0"
"html-keyboard-response","76","483736","0.0-9.0-2.0-0.2","6407","2","10","Male","approach_avoid_spark_v1","""event"",""trial"",""time""
""fullscreenenter"",""1"",""8208""
","
","
","""event"",""trial"",""time""
""fullscreenenter"",""1"",""8208""
","
","","","","","","null","<div style=""font-size:60px;"">+</div>","null","","fixation","","","","","","","","","","",""
"aa-learning-trial","77","486740","0.0-9.0-2.0-1.2","6407","2","10","Male","approach_avoid_spark_v1","""event"",""trial"",""time""
""fullscreenenter"",""1"",""8208""
","
","
","""event"",""trial"",""time""
""fullscreenenter"",""1"",""8208""
","
","","","","","","453.30000019073486","images/table2.png","","","learning","-3","0","0","0","table","furniture","2","0","","good","[6]"
"html-keyboard-response","78","487249","0.0-9.0-2.0-0.3","6407","2","10","Male","approach_avoid_spark_v1","""event"",""trial"",""time""
""fullscreenenter"",""1"",""8208""
","
","
","""event"",""trial"",""time""
""fullscreenenter"",""1"",""8208""
","
","","","","","","null","<div style=""font-size:60px;"">+</div>","null","","fixation","","","","","","","","","","",""
"aa-learning-trial","79","490260","0.0-9.0-2.0-1.3","6407","2","10","Male","approach_avoid_spark_v1","""event"",""trial"",""time""
""fullscreenenter"",""1"",""8208""
","
","
","""event"",""trial"",""time""
""fullscreenenter"",""1"",""8208""
","
","","","","","","341.7999997138977","images/bed1.png","","","learning","3","0","0","0","bed","furniture","2","0","","bad","[-5]"
"html-keyboard-response","80","490770","0.0-9.0-2.0-0.4","6407","2","10","Male","approach_avoid_spark_v1","""event"",""trial"",""time""
""fullscreenenter"",""1"",""8208""
","
","
","""event"",""trial"",""time""
""fullscreenenter"",""1"",""8208""
","
","","","","","","null","<div style=""font-size:60px;"">+</div>","null","","fixation","","","","","","","","","","",""
"aa-learning-trial","81","493777","0.0-9.0-2.0-1.4","6407","2","10","Male","approach_avoid_spark_v1","""event"",""trial"",""time""
""fullscreenenter"",""1"",""8208""
","
","
","""event"",""trial"",""time""
""fullscreenenter"",""1"",""8208""
","
","","","","","","260.7000002861023","images/chair7.png","","","learning","5","5","1","1","chair","furniture","2","0","","neutral","0"
"html-keyboard-response","82","494284","0.0-9.0-2.0-0.5","6407","2","10","Male","approach_avoid_spark_v1","""event"",""trial"",""time""
""fullscreenenter"",""1"",""8208""
","
","
","""event"",""trial"",""time""
""fullscreenenter"",""1"",""8208""
","
","","","","","","null","<div style=""font-size:60px;"">+</div>","null","","fixation","","","","","","","","","","",""
"aa-learning-trial","83","497294","0.0-9.0-2.0-1.5","6407","2","10","Male","approach_avoid_spark_v1","""event"",""trial"",""time""
""fullscreenenter"",""1"",""8208""
","
","
","""event"",""trial"",""time""
""fullscreenenter"",""1"",""8208""
","
","","","","","","636.2000002861023","images/bed1.png","","","learning","3","3","1","1","bed","furniture","2","0","","bad","[-5]"
"html-keyboard-response","84","497795","0.0-9.0-2.0-0.6","6407","2","10","Male","approach_avoid_spark_v1","""event"",""trial"",""time""
""fullscreenenter"",""1"",""8208""
","
","
","""event"",""trial"",""time""
""fullscreenenter"",""1"",""8208""
","
","","","","","","null","<div style=""font-size:60px;"">+</div>","null","","fixation","","","","","","","","","","",""
"aa-learning-trial","85","500805","0.0-9.0-2.0-1.6","6407","2","10","Male","approach_avoid_spark_v1","""event"",""trial"",""time""
""fullscreenenter"",""1"",""8208""
","
","
","""event"",""trial"",""time""
""fullscreenenter"",""1"",""8208""
","
","","","","","","353.69999980926514","images/chair6.png","","","learning","-2","0","0","0","chair","furniture","2","0","","neutral","0"
"html-keyboard-response","86","501316","0.0-9.0-2.0-0.7","6407","2","10","Male","approach_avoid_spark_v1","""event"",""trial"",""time""
""fullscreenenter"",""1"",""8208""
","
","
","""event"",""trial"",""time""
""fullscreenenter"",""1"",""8208""
","
","","","","","","null","<div style=""font-size:60px;"">+</div>","null","","fixation","","","","","","","","","","",""
"aa-learning-trial","87","504331","0.0-9.0-2.0-1.7","6407","2","10","Male","approach_avoid_spark_v1","""event"",""trial"",""time""
""fullscreenenter"",""1"",""8208""
","
","
","""event"",""trial"",""time""
""fullscreenenter"",""1"",""8208""
","
","","","","","","685","images/chair4.png","","","learning","-8","0","0","0","chair","furniture","2","0","","neutral","0"
"html-keyboard-response","88","504840","0.0-9.0-2.0-0.8","6407","2","10","Male","approach_avoid_spark_v1","""event"",""trial"",""time""
""fullscreenenter"",""1"",""8208""
","
","
","""event"",""trial"",""time""
""fullscreenenter"",""1"",""8208""
","
","","","","","","null","<div style=""font-size:60px;"">+</div>","null","","fixation","","","","","","","","","","",""
"aa-learning-trial","89","507847","0.0-9.0-2.0-1.8","6407","2","10","Male","approach_avoid_spark_v1","""event"",""trial"",""time""
""fullscreenenter"",""1"",""8208""
","
","
","""event"",""trial"",""time""
""fullscreenenter"",""1"",""8208""
","
","","","","","","487.7999997138977","images/bed5.png","","","learning","-5","-5","1","1","bed","furniture","2","0","","bad","[-5]"
"html-keyboard-response","90","508362","0.0-9.0-2.0-0.9","6407","2","10","Male","approach_avoid_spark_v1","""event"",""trial"",""time""
""fullscreenenter"",""1"",""8208""
","
","
","""event"",""trial"",""time""
""fullscreenenter"",""1"",""8208""
","
","","","","","","null","<div style=""font-size:60px;"">+</div>","null","","fixation","","","","","","","","","","",""
"aa-learning-trial","91","511370","0.0-9.0-2.0-1.9","6407","2","10","Male","approach_avoid_spark_v1","""event"",""trial"",""time""
""fullscreenenter"",""1"",""8208""
","
","
","""event"",""trial"",""time""
""fullscreenenter"",""1"",""8208""
","
","","","","","","1094.9000000953674","images/table3.png","","","learning","4","4","1","1","table","furniture","2","0","","good","[6]"
"html-keyboard-response","92","511882","0.0-9.0-2.0-0.10","6407","2","10","Male","approach_avoid_spark_v1","""event"",""trial"",""time""
""fullscreenenter"",""1"",""8208""
","
","
","""event"",""trial"",""time""
""fullscreenenter"",""1"",""8208""
","
","","","","","","null","<div style=""font-size:60px;"">+</div>","null","","fixation","","","","","","","","","","",""
"aa-learning-trial","93","514889","0.0-9.0-2.0-1.10","6407","2","10","Male","approach_avoid_spark_v1","""event"",""trial"",""time""
""fullscreenenter"",""1"",""8208""
","
","
","""event"",""trial"",""time""
""fullscreenenter"",""1"",""8208""
","
","","","","","","446.7999997138977","images/table1.png","","","learning","8","8","1","1","table","furniture","2","0","","good","[6]"
"html-keyboard-response","94","515401","0.0-9.0-2.0-0.11","6407","2","10","Male","approach_avoid_spark_v1","""event"",""trial"",""time""
""fullscreenenter"",""1"",""8208""
","
","
","""event"",""trial"",""time""
""fullscreenenter"",""1"",""8208""
","
","","","","","","null","<div style=""font-size:60px;"">+</div>","null","","fixation","","","","","","","","","","",""
"aa-learning-trial","95","518409","0.0-9.0-2.0-1.11","6407","2","10","Male","approach_avoid_spark_v1","""event"",""trial"",""time""
""fullscreenenter"",""1"",""8208""
","
","
","""event"",""trial"",""time""
""fullscreenenter"",""1"",""8208""
","
","","","","","","664.5","images/bed3.png","","","learning","-1","-1","1","1","bed","furniture","2","0","","bad","[-5]"
"html-keyboard-response","96","518921","0.0-9.0-2.0-0.12","6407","2","10","Male","approach_avoid_spark_v1","""event"",""trial"",""time""
""fullscreenenter"",""1"",""8208""
","
","
","""event"",""trial"",""time""
""fullscreenenter"",""1"",""8208""
","
","","","","","","null","<div style=""font-size:60px;"">+</div>","null","","fixation","","","","","","","","","","",""
"aa-learning-trial","97","521930","0.0-9.0-2.0-1.12","6407","2","10","Male","approach_avoid_spark_v1","""event"",""trial"",""time""
""fullscreenenter"",""1"",""8208""
","
","
","""event"",""trial"",""time""
""fullscreenenter"",""1"",""8208""
","
","","","","","","753.6999998092651","images/table3.png","","","learning","4","0","0","0","table","furniture","2","0","","good","[6]"
"html-keyboard-response","98","522436","0.0-9.0-2.0-0.13","6407","2","10","Male","approach_avoid_spark_v1","""event"",""trial"",""time""
""fullscreenenter"",""1"",""8208""
","
","
","""event"",""trial"",""time""
""fullscreenenter"",""1"",""8208""
","
","","","","","","null","<div style=""font-size:60px;"">+</div>","null","","fixation","","","","","","","","","","",""
"aa-learning-trial","99","525446","0.0-9.0-2.0-1.13","6407","2","10","Male","approach_avoid_spark_v1","""event"",""trial"",""time""
""fullscreenenter"",""1"",""8208""
","
","
","""event"",""trial"",""time""
""fullscreenenter"",""1"",""8208""
","
","","","","","","502","images/bed5.png","","","learning","-5","-5","1","1","bed","furniture","2","0","","bad","[-5]"
"html-keyboard-response","100","525958","0.0-9.0-2.0-0.14","6407","2","10","Male","approach_avoid_spark_v1","""event"",""trial"",""time""
""fullscreenenter"",""1"",""8208""
","
","
","""event"",""trial"",""time""
""fullscreenenter"",""1"",""8208""
","
","","","","","","null","<div style=""font-size:60px;"">+</div>","null","","fixation","","","","","","","","","","",""
"aa-learning-trial","101","528965","0.0-9.0-2.0-1.14","6407","2","10","Male","approach_avoid_spark_v1","""event"",""trial"",""time""
""fullscreenenter"",""1"",""8208""
","
","
","""event"",""trial"",""time""
""fullscreenenter"",""1"",""8208""
","
","","","","","","1149.7000002861023","images/table1.png","","","learning","8","8","1","1","table","furniture","2","0","","good","[6]"
"html-keyboard-response","102","529478","0.0-9.0-2.0-0.15","6407","2","10","Male","approach_avoid_spark_v1","""event"",""trial"",""time""
""fullscreenenter"",""1"",""8208""
","
","
","""event"",""trial"",""time""
""fullscreenenter"",""1"",""8208""
","
","","","","","","null","<div style=""font-size:60px;"">+</div>","null","","fixation","","","","","","","","","","",""
"aa-learning-trial","103","532484","0.0-9.0-2.0-1.15","6407","2","10","Male","approach_avoid_spark_v1","""event"",""trial"",""time""
""fullscreenenter"",""1"",""8208""
","
","
","""event"",""trial"",""time""
""fullscreenenter"",""1"",""8208""
","
","","","","","","1393","images/chair4.png","","","learning","-8","0","0","0","chair","furniture","2","0","","neutral","0"
"html-keyboard-response","104","533003","0.0-9.0-2.0-0.16","6407","2","10","Male","approach_avoid_spark_v1","""event"",""trial"",""time""
""fullscreenenter"",""1"",""8208""
","
","
","""event"",""trial"",""time""
""fullscreenenter"",""1"",""8208""
","
","","","","","","null","<div style=""font-size:60px;"">+</div>","null","","fixation","","","","","","","","","","",""
"aa-learning-trial","105","536014","0.0-9.0-2.0-1.16","6407","2","10","Male","approach_avoid_spark_v1","""event"",""trial"",""time""
""fullscreenenter"",""1"",""8208""
","
","
","""event"",""trial"",""time""
""fullscreenenter"",""1"",""8208""
","
","","","","","","1245","images/bed6.png","","","learning","-9","-9","1","1","bed","furniture","2","0","","bad","[-5]"
"html-keyboard-response","106","536519","0.0-9.0-2.0-0.17","6407","2","10","Male","approach_avoid_spark_v1","""event"",""trial"",""time""
""fullscreenenter"",""1"",""8208""
","
","
","""event"",""trial"",""time""
""fullscreenenter"",""1"",""8208""
","
","","","","","","null","<div style=""font-size:60px;"">+</div>","null","","fixation","","","","","","","","","","",""
"aa-learning-trial","107","539525","0.0-9.0-2.0-1.17","6407","2","10","Male","approach_avoid_spark_v1","""event"",""trial"",""time""
""fullscreenenter"",""1"",""8208""
","
","
","""event"",""trial"",""time""
""fullscreenenter"",""1"",""8208""
","
","","","","","","792","images/table3.png","","","learning","4","0","0","0","table","furniture","2","0","","good","[6]"
"html-keyboard-response","108","540039","0.0-9.0-2.0-0.18","6407","2","10","Male","approach_avoid_spark_v1","""event"",""trial"",""time""
""fullscreenenter"",""1"",""8208""
","
","
","""event"",""trial"",""time""
""fullscreenenter"",""1"",""8208""
","
","","","","","","null","<div style=""font-size:60px;"">+</div>","null","","fixation","","","","","","","","","","",""
"aa-learning-trial","109","543058","0.0-9.0-2.0-1.18","6407","2","10","Male","approach_avoid_spark_v1","""event"",""trial"",""time""
""fullscreenenter"",""1"",""8208""
","
","
","""event"",""trial"",""time""
""fullscreenenter"",""1"",""8208""
","
","","","","","","910.9000000953674","images/table3.png","","","learning","4","4","1","1","table","furniture","2","0","","good","[6]"
"html-keyboard-response","110","543567","0.0-9.0-2.0-0.19","6407","2","10","Male","approach_avoid_spark_v1","""event"",""trial"",""time""
""fullscreenenter"",""1"",""8208""
","
","
","""event"",""trial"",""time""
""fullscreenenter"",""1"",""8208""
","
","","","","","","null","<div style=""font-size:60px;"">+</div>","null","","fixation","","","","","","","","","","",""
"aa-learning-trial","111","546579","0.0-9.0-2.0-1.19","6407","2","10","Male","approach_avoid_spark_v1","""event"",""trial"",""time""
""fullscreenenter"",""1"",""8208""
","
","
","""event"",""trial"",""time""
""fullscreenenter"",""1"",""8208""
","
","","","","","","2189.0999999046326","images/bed1.png","","","learning","3","0","0","0","bed","furniture","2","0","","bad","[-5]"
"html-keyboard-response","112","547083","0.0-9.0-2.0-0.20","6407","2","10","Male","approach_avoid_spark_v1","""event"",""trial"",""time""
""fullscreenenter"",""1"",""8208""
","
","
","""event"",""trial"",""time""
""fullscreenenter"",""1"",""8208""
","
","","","","","","null","<div style=""font-size:60px;"">+</div>","null","","fixation","","","","","","","","","","",""
"aa-learning-trial","113","550093","0.0-9.0-2.0-1.20","6407","2","10","Male","approach_avoid_spark_v1","""event"",""trial"",""time""
""fullscreenenter"",""1"",""8208""
","
","
","""event"",""trial"",""time""
""fullscreenenter"",""1"",""8208""
","
","","","","","","917","images/bed3.png","","","learning","-1","-1","1","1","bed","furniture","2","0","","bad","[-5]"
"html-keyboard-response","114","550601","0.0-9.0-2.0-0.21","6407","2","10","Male","approach_avoid_spark_v1","""event"",""trial"",""time""
""fullscreenenter"",""1"",""8208""
","
","
","""event"",""trial"",""time""
""fullscreenenter"",""1"",""8208""
","
","","","","","","null","<div style=""font-size:60px;"">+</div>","null","","fixation","","","","","","","","","","",""
"aa-learning-trial","115","553610","0.0-9.0-2.0-1.21","6407","2","10","Male","approach_avoid_spark_v1","""event"",""trial"",""time""
""fullscreenenter"",""1"",""8208""
","
","
","""event"",""trial"",""time""
""fullscreenenter"",""1"",""8208""
","
","","","","","","801","images/table3.png","","","learning","4","4","1","1","table","furniture","2","0","","good","[6]"
"html-keyboard-response","116","554120","0.0-9.0-2.0-0.22","6407","2","10","Male","approach_avoid_spark_v1","""event"",""trial"",""time""
""fullscreenenter"",""1"",""8208""
","
","
","""event"",""trial"",""time""
""fullscreenenter"",""1"",""8208""
","
","","","","","","null","<div style=""font-size:60px;"">+</div>","null","","fixation","","","","","","","","","","",""
"aa-learning-trial","117","557127","0.0-9.0-2.0-1.22","6407","2","10","Male","approach_avoid_spark_v1","""event"",""trial"",""time""
""fullscreenenter"",""1"",""8208""
","
","
","""event"",""trial"",""time""
""fullscreenenter"",""1"",""8208""
","
","","","","","","807.5999999046326","images/chair6.png","","","learning","-2","-2","1","1","chair","furniture","2","0","","neutral","0"
"html-keyboard-response","118","557635","0.0-9.0-2.0-0.23","6407","2","10","Male","approach_avoid_spark_v1","""event"",""trial"",""time""
""fullscreenenter"",""1"",""8208""
","
","
","""event"",""trial"",""time""
""fullscreenenter"",""1"",""8208""
","
","","","","","","null","<div style=""font-size:60px;"">+</div>","null","","fixation","","","","","","","","","","",""
"aa-learning-trial","119","560650","0.0-9.0-2.0-1.23","6407","2","10","Male","approach_avoid_spark_v1","""event"",""trial"",""time""
""fullscreenenter"",""1"",""8208""
","
","
","""event"",""trial"",""time""
""fullscreenenter"",""1"",""8208""
","
","","","","","","972.7000002861023","images/table2.png","","","learning","-3","-3","1","1","table","furniture","2","0","","good","[6]"
"html-keyboard-response","120","561158","0.0-9.0-2.0-0.24","6407","2","10","Male","approach_avoid_spark_v1","""event"",""trial"",""time""
""fullscreenenter"",""1"",""8208""
","
","
","""event"",""trial"",""time""
""fullscreenenter"",""1"",""8208""
","
","","","","","","null","<div style=""font-size:60px;"">+</div>","null","","fixation","","","","","","","","","","",""
"aa-learning-trial","121","564163","0.0-9.0-2.0-1.24","6407","2","10","Male","approach_avoid_spark_v1","""event"",""trial"",""time""
""fullscreenenter"",""1"",""8208""
","
","
","""event"",""trial"",""time""
""fullscreenenter"",""1"",""8208""
","
","","","","","","916.1999998092651","images/table1.png","","","learning","8","8","1","1","table","furniture","2","0","","good","[6]"
"html-keyboard-response","122","564672","0.0-9.0-2.0-0.25","6407","2","10","Male","approach_avoid_spark_v1","""event"",""trial"",""time""
""fullscreenenter"",""1"",""8208""
","
","
","""event"",""trial"",""time""
""fullscreenenter"",""1"",""8208""
","
","","","","","","null","<div style=""font-size:60px;"">+</div>","null","","fixation","","","","","","","","","","",""
"aa-learning-trial","123","567685","0.0-9.0-2.0-1.25","6407","2","10","Male","approach_avoid_spark_v1","""event"",""trial"",""time""
""fullscreenenter"",""1"",""8208""
","
","
","""event"",""trial"",""time""
""fullscreenenter"",""1"",""8208""
","
","","","","","","773.0999999046326","images/table1.png","","","learning","8","8","1","1","table","furniture","2","0","","good","[6]"
"html-keyboard-response","124","568198","0.0-9.0-2.0-0.26","6407","2","10","Male","approach_avoid_spark_v1","""event"",""trial"",""time""
""fullscreenenter"",""1"",""8208""
","
","
","""event"",""trial"",""time""
""fullscreenenter"",""1"",""8208""
","
","","","","","","null","<div style=""font-size:60px;"">+</div>","null","","fixation","","","","","","","","","","",""
"aa-learning-trial","125","571206","0.0-9.0-2.0-1.26","6407","2","10","Male","approach_avoid_spark_v1","""event"",""trial"",""time""
""fullscreenenter"",""1"",""8208""
","
","
","""event"",""trial"",""time""
""fullscreenenter"",""1"",""8208""
","
","","","","","","1256.4000000953674","images/bed1.png","","","learning","3","3","1","1","bed","furniture","2","0","","bad","[-5]"
"html-keyboard-response","126","571719","0.0-9.0-2.0-0.27","6407","2","10","Male","approach_avoid_spark_v1","""event"",""trial"",""time""
""fullscreenenter"",""1"",""8208""
","
","
","""event"",""trial"",""time""
""fullscreenenter"",""1"",""8208""
","
","","","","","","null","<div style=""font-size:60px;"">+</div>","null","","fixation","","","","","","","","","","",""
"aa-learning-trial","127","574724","0.0-9.0-2.0-1.27","6407","2","10","Male","approach_avoid_spark_v1","""event"",""trial"",""time""
""fullscreenenter"",""1"",""8208""
","
","
","""event"",""trial"",""time""
""fullscreenenter"",""1"",""8208""
","
","","","","","","1025.3000001907349","images/bed5.png","","","learning","-5","0","0","0","bed","furniture","2","0","","bad","[-5]"
"html-keyboard-response","128","575237","0.0-9.0-2.0-0.28","6407","2","10","Male","approach_avoid_spark_v1","""event"",""trial"",""time""
""fullscreenenter"",""1"",""8208""
","
","
","""event"",""trial"",""time""
""fullscreenenter"",""1"",""8208""
","
","","","","","","null","<div style=""font-size:60px;"">+</div>","null","","fixation","","","","","","","","","","",""
"aa-learning-trial","129","578250","0.0-9.0-2.0-1.28","6407","2","10","Male","approach_avoid_spark_v1","""event"",""trial"",""time""
""fullscreenenter"",""1"",""8208""
","
","
","""event"",""trial"",""time""
""fullscreenenter"",""1"",""8208""
","
","","","","","","963.5","images/chair6.png","","","learning","-2","0","0","0","chair","furniture","2","0","","neutral","0"
"html-keyboard-response","130","578759","0.0-9.0-2.0-0.29","6407","2","10","Male","approach_avoid_spark_v1","""event"",""trial"",""time""
""fullscreenenter"",""1"",""8208""
","
","
","""event"",""trial"",""time""
""fullscreenenter"",""1"",""8208""
","
","","","","","","null","<div style=""font-size:60px;"">+</div>","null","","fixation","","","","","","","","","","",""
"aa-learning-trial","131","581763","0.0-9.0-2.0-1.29","6407","2","10","Male","approach_avoid_spark_v1","""event"",""trial"",""time""
""fullscreenenter"",""1"",""8208""
","
","
","""event"",""trial"",""time""
""fullscreenenter"",""1"",""8208""
","
","","","","","","1023.9000000953674","images/chair7.png","","","learning","5","0","0","0","chair","furniture","2","0","","neutral","0"
"html-keyboard-response","132","582267","0.0-9.0-2.0-0.30","6407","2","10","Male","approach_avoid_spark_v1","""event"",""trial"",""time""
""fullscreenenter"",""1"",""8208""
","
","
","""event"",""trial"",""time""
""fullscreenenter"",""1"",""8208""
","
","","","","","","null","<div style=""font-size:60px;"">+</div>","null","","fixation","","","","","","","","","","",""
"aa-learning-trial","133","585270","0.0-9.0-2.0-1.30","6407","2","10","Male","approach_avoid_spark_v1","""event"",""trial"",""time""
""fullscreenenter"",""1"",""8208""
","
","
","""event"",""trial"",""time""
""fullscreenenter"",""1"",""8208""
","
","","","","","","1078.7999997138977","images/bed5.png","","","learning","-5","0","0","0","bed","furniture","2","0","","bad","[-5]"
"html-keyboard-response","134","585781","0.0-9.0-2.0-0.31","6407","2","10","Male","approach_avoid_spark_v1","""event"",""trial"",""time""
""fullscreenenter"",""1"",""8208""
","
","
","""event"",""trial"",""time""
""fullscreenenter"",""1"",""8208""
","
","","","","","","null","<div style=""font-size:60px;"">+</div>","null","","fixation","","","","","","","","","","",""
"aa-learning-trial","135","588792","0.0-9.0-2.0-1.31","6407","2","10","Male","approach_avoid_spark_v1","""event"",""trial"",""time""
""fullscreenenter"",""1"",""8208""
","
","
","""event"",""trial"",""time""
""fullscreenenter"",""1"",""8208""
","
","","","","","","1447.0999999046326","images/chair4.png","","","learning","-8","0","0","0","chair","furniture","2","0","","neutral","0"
"html-keyboard-response","136","589300","0.0-9.0-2.0-0.32","6407","2","10","Male","approach_avoid_spark_v1","""event"",""trial"",""time""
""fullscreenenter"",""1"",""8208""
","
","
","""event"",""trial"",""time""
""fullscreenenter"",""1"",""8208""
","
","","","","","","null","<div style=""font-size:60px;"">+</div>","null","","fixation","","","","","","","","","","",""
"aa-learning-trial","137","592308","0.0-9.0-2.0-1.32","6407","2","10","Male","approach_avoid_spark_v1","""event"",""trial"",""time""
""fullscreenenter"",""1"",""8208""
","
","
","""event"",""trial"",""time""
""fullscreenenter"",""1"",""8208""
","
","","","","","","1464.5","images/chair7.png","","","learning","5","5","1","1","chair","furniture","2","0","","neutral","0"
"html-keyboard-response","138","592821","0.0-9.0-2.0-0.33","6407","2","10","Male","approach_avoid_spark_v1","""event"",""trial"",""time""
""fullscreenenter"",""1"",""8208""
","
","
","""event"",""trial"",""time""
""fullscreenenter"",""1"",""8208""
","
","","","","","","null","<div style=""font-size:60px;"">+</div>","null","","fixation","","","","","","","","","","",""
"aa-learning-trial","139","595834","0.0-9.0-2.0-1.33","6407","2","10","Male","approach_avoid_spark_v1","""event"",""trial"",""time""
""fullscreenenter"",""1"",""8208""
","
","
","""event"",""trial"",""time""
""fullscreenenter"",""1"",""8208""
","
","","","","","","876.7999997138977","images/chair6.png","","","learning","-2","0","0","0","chair","furniture","2","0","","neutral","0"
"html-keyboard-response","140","596341","0.0-9.0-2.0-0.34","6407","2","10","Male","approach_avoid_spark_v1","""event"",""trial"",""time""
""fullscreenenter"",""1"",""8208""
","
","
","""event"",""trial"",""time""
""fullscreenenter"",""1"",""8208""
","
","","","","","","null","<div style=""font-size:60px;"">+</div>","null","","fixation","","","","","","","","","","",""
"aa-learning-trial","141","599349","0.0-9.0-2.0-1.34","6407","2","10","Male","approach_avoid_spark_v1","""event"",""trial"",""time""
""fullscreenenter"",""1"",""8208""
","
","
","""event"",""trial"",""time""
""fullscreenenter"",""1"",""8208""
","
","","","","","","727.9000000953674","images/chair6.png","","","learning","-2","0","0","0","chair","furniture","2","0","","neutral","0"
"html-keyboard-response","142","599860","0.0-9.0-2.0-0.35","6407","2","10","Male","approach_avoid_spark_v1","""event"",""trial"",""time""
""fullscreenenter"",""1"",""8208""
","
","
","""event"",""trial"",""time""
""fullscreenenter"",""1"",""8208""
","
","","","","","","null","<div style=""font-size:60px;"">+</div>","null","","fixation","","","","","","","","","","",""
"aa-learning-trial","143","602867","0.0-9.0-2.0-1.35","6407","2","10","Male","approach_avoid_spark_v1","""event"",""trial"",""time""
""fullscreenenter"",""1"",""8208""
","
","
","""event"",""trial"",""time""
""fullscreenenter"",""1"",""8208""
","
","","","","","","1047.7999997138977","images/bed5.png","","","learning","-5","0","0","0","bed","furniture","2","0","","bad","[-5]"
"html-keyboard-response","144","603376","0.0-9.0-2.0-0.36","6407","2","10","Male","approach_avoid_spark_v1","""event"",""trial"",""time""
""fullscreenenter"",""1"",""8208""
","
","
","""event"",""trial"",""time""
""fullscreenenter"",""1"",""8208""
","
","","","","","","null","<div style=""font-size:60px;"">+</div>","null","","fixation","","","","","","","","","","",""
"aa-learning-trial","145","606389","0.0-9.0-2.0-1.36","6407","2","10","Male","approach_avoid_spark_v1","""event"",""trial"",""time""
""fullscreenenter"",""1"",""8208""
","
","
","""event"",""trial"",""time""
""fullscreenenter"",""1"",""8208""
","
","","","","","","884.5999999046326","images/bed5.png","","","learning","-5","0","0","0","bed","furniture","2","0","","bad","[-5]"
"html-keyboard-response","146","606902","0.0-9.0-2.0-0.37","6407","2","10","Male","approach_avoid_spark_v1","""event"",""trial"",""time""
""fullscreenenter"",""1"",""8208""
","
","
","""event"",""trial"",""time""
""fullscreenenter"",""1"",""8208""
","
","","","","","","null","<div style=""font-size:60px;"">+</div>","null","","fixation","","","","","","","","","","",""
"aa-learning-trial","147","609908","0.0-9.0-2.0-1.37","6407","2","10","Male","approach_avoid_spark_v1","""event"",""trial"",""time""
""fullscreenenter"",""1"",""8208""
","
","
","""event"",""trial"",""time""
""fullscreenenter"",""1"",""8208""
","
","","","","","","1003.8000001907349","images/bed3.png","","","learning","-1","-1","1","1","bed","furniture","2","0","","bad","[-5]"
"html-keyboard-response","148","610423","0.0-9.0-2.0-0.38","6407","2","10","Male","approach_avoid_spark_v1","""event"",""trial"",""time""
""fullscreenenter"",""1"",""8208""
","
","
","""event"",""trial"",""time""
""fullscreenenter"",""1"",""8208""
","
","","","","","","null","<div style=""font-size:60px;"">+</div>","null","","fixation","","","","","","","","","","",""
"aa-learning-trial","149","613429","0.0-9.0-2.0-1.38","6407","2","10","Male","approach_avoid_spark_v1","""event"",""trial"",""time""
""fullscreenenter"",""1"",""8208""
","
","
","""event"",""trial"",""time""
""fullscreenenter"",""1"",""8208""
","
","","","","","","900.6000003814697","images/chair4.png","","","learning","-8","0","0","0","chair","furniture","2","0","","neutral","0"
"html-keyboard-response","150","613944","0.0-9.0-2.0-0.39","6407","2","10","Male","approach_avoid_spark_v1","""event"",""trial"",""time""
""fullscreenenter"",""1"",""8208""
","
","
","""event"",""trial"",""time""
""fullscreenenter"",""1"",""8208""
","
","","","","","","null","<div style=""font-size:60px;"">+</div>","null","","fixation","","","","","","","","","","",""
"aa-learning-trial","151","616954","0.0-9.0-2.0-1.39","6407","2","10","Male","approach_avoid_spark_v1","""event"",""trial"",""time""
""fullscreenenter"",""1"",""8208""
","
","
","""event"",""trial"",""time""
""fullscreenenter"",""1"",""8208""
","
","","","","","","1545.3000001907349","images/bed8.png","","","learning","6","0","0","0","bed","furniture","2","0","","bad","[-5]"
"html-keyboard-response","152","617465","0.0-9.0-2.0-0.40","6407","2","10","Male","approach_avoid_spark_v1","""event"",""trial"",""time""
""fullscreenenter"",""1"",""8208""
","
","
","""event"",""trial"",""time""
""fullscreenenter"",""1"",""8208""
","
","","","","","","null","<div style=""font-size:60px;"">+</div>","null","","fixation","","","","","","","","","","",""
"aa-learning-trial","153","620478","0.0-9.0-2.0-1.40","6407","2","10","Male","approach_avoid_spark_v1","""event"",""trial"",""time""
""fullscreenenter"",""1"",""8208""
","
","
","""event"",""trial"",""time""
""fullscreenenter"",""1"",""8208""
","
","","","","","","1045.2999997138977","images/table1.png","","","learning","8","8","1","1","table","furniture","2","0","","good","[6]"
"html-keyboard-response","154","620984","0.0-9.0-2.0-0.41","6407","2","10","Male","approach_avoid_spark_v1","""event"",""trial"",""time""
""fullscreenenter"",""1"",""8208""
","
","
","""event"",""trial"",""time""
""fullscreenenter"",""1"",""8208""
","
","","","","","","null","<div style=""font-size:60px;"">+</div>","null","","fixation","","","","","","","","","","",""
"aa-learning-trial","155","623991","0.0-9.0-2.0-1.41","6407","2","10","Male","approach_avoid_spark_v1","""event"",""trial"",""time""
""fullscreenenter"",""1"",""8208""
","
","
","""event"",""trial"",""time""
""fullscreenenter"",""1"",""8208""
","
","","","","","","882.2000002861023","images/table1.png","","","learning","8","8","1","1","table","furniture","2","0","","good","[6]"
"html-keyboard-response","156","624506","0.0-9.0-2.0-0.42","6407","2","10","Male","approach_avoid_spark_v1","""event"",""trial"",""time""
""fullscreenenter"",""1"",""8208""
","
","
","""event"",""trial"",""time""
""fullscreenenter"",""1"",""8208""
","
","","","","","","null","<div style=""font-size:60px;"">+</div>","null","","fixation","","","","","","","","","","",""
"aa-learning-trial","157","627510","0.0-9.0-2.0-1.42","6407","2","10","Male","approach_avoid_spark_v1","""event"",""trial"",""time""
""fullscreenenter"",""1"",""8208""
","
","
","""event"",""trial"",""time""
""fullscreenenter"",""1"",""8208""
","
","","","","","","1009.6000003814697","images/bed1.png","","","learning","3","3","1","1","bed","furniture","2","0","","bad","[-5]"
"html-keyboard-response","158","628015","0.0-9.0-2.0-0.43","6407","2","10","Male","approach_avoid_spark_v1","""event"",""trial"",""time""
""fullscreenenter"",""1"",""8208""
","
","
","""event"",""trial"",""time""
""fullscreenenter"",""1"",""8208""
","
","","","","","","null","<div style=""font-size:60px;"">+</div>","null","","fixation","","","","","","","","","","",""
"aa-learning-trial","159","631025","0.0-9.0-2.0-1.43","6407","2","10","Male","approach_avoid_spark_v1","""event"",""trial"",""time""
""fullscreenenter"",""1"",""8208""
","
","
","""event"",""trial"",""time""
""fullscreenenter"",""1"",""8208""
","
","","","","","","1077.6000003814697","images/chair1.png","","","learning","7","0","0","0","chair","furniture","2","0","","neutral","0"
"html-keyboard-response","160","631537","0.0-9.0-2.0-0.44","6407","2","10","Male","approach_avoid_spark_v1","""event"",""trial"",""time""
""fullscreenenter"",""1"",""8208""
","
","
","""event"",""trial"",""time""
""fullscreenenter"",""1"",""8208""
","
","","","","","","null","<div style=""font-size:60px;"">+</div>","null","","fixation","","","","","","","","","","",""
"aa-learning-trial","161","634542","0.0-9.0-2.0-1.44","6407","2","10","Male","approach_avoid_spark_v1","""event"",""trial"",""time""
""fullscreenenter"",""1"",""8208""
","
","
","""event"",""trial"",""time""
""fullscreenenter"",""1"",""8208""
","
","","","","","","1126.7999997138977","images/chair4.png","","","learning","-8","0","0","0","chair","furniture","2","0","","neutral","0"
"html-keyboard-response","162","635044","0.0-9.0-2.0-0.45","6407","2","10","Male","approach_avoid_spark_v1","""event"",""trial"",""time""
""fullscreenenter"",""1"",""8208""
","
","
","""event"",""trial"",""time""
""fullscreenenter"",""1"",""8208""
","
","","","","","","null","<div style=""font-size:60px;"">+</div>","null","","fixation","","","","","","","","","","",""
"aa-learning-trial","163","638053","0.0-9.0-2.0-1.45","6407","2","10","Male","approach_avoid_spark_v1","""event"",""trial"",""time""
""fullscreenenter"",""1"",""8208""
","
","
","""event"",""trial"",""time""
""fullscreenenter"",""1"",""8208""
","
","","","","","","1286","images/table2.png","","","learning","-3","0","0","0","table","furniture","2","0","","good","[6]"
"html-keyboard-response","164","638557","0.0-9.0-2.0-0.46","6407","2","10","Male","approach_avoid_spark_v1","""event"",""trial"",""time""
""fullscreenenter"",""1"",""8208""
","
","
","""event"",""trial"",""time""
""fullscreenenter"",""1"",""8208""
","
","","","","","","null","<div style=""font-size:60px;"">+</div>","null","","fixation","","","","","","","","","","",""
"aa-learning-trial","165","641569","0.0-9.0-2.0-1.46","6407","2","10","Male","approach_avoid_spark_v1","""event"",""trial"",""time""
""fullscreenenter"",""1"",""8208""
","
","
","""event"",""trial"",""time""
""fullscreenenter"",""1"",""8208""
","
","","","","","","1130.8000001907349","images/table5.png","","","learning","-7","-7","1","1","table","furniture","2","0","","good","[6]"
"html-keyboard-response","166","642080","0.0-9.0-2.0-0.47","6407","2","10","Male","approach_avoid_spark_v1","""event"",""trial"",""time""
""fullscreenenter"",""1"",""8208""
","
","
","""event"",""trial"",""time""
""fullscreenenter"",""1"",""8208""
","
","","","","","","null","<div style=""font-size:60px;"">+</div>","null","","fixation","","","","","","","","","","",""
"aa-learning-trial","167","645087","0.0-9.0-2.0-1.47","6407","2","10","Male","approach_avoid_spark_v1","""event"",""trial"",""time""
""fullscreenenter"",""1"",""8208""
","
","
","""event"",""trial"",""time""
""fullscreenenter"",""1"",""8208""
","
","","","","","","1087.2999997138977","images/table8.png","","","learning","2","2","1","1","table","furniture","2","0","","good","[6]"
"html-keyboard-response","168","645597","0.0-9.0-2.0-0.48","6407","2","10","Male","approach_avoid_spark_v1","""event"",""trial"",""time""
""fullscreenenter"",""1"",""8208""
","
","
","""event"",""trial"",""time""
""fullscreenenter"",""1"",""8208""
","
","","","","","","null","<div style=""font-size:60px;"">+</div>","null","","fixation","","","","","","","","","","",""
"aa-learning-trial","169","648606","0.0-9.0-2.0-1.48","6407","2","10","Male","approach_avoid_spark_v1","""event"",""trial"",""time""
""fullscreenenter"",""1"",""8208""
","
","
","""event"",""trial"",""time""
""fullscreenenter"",""1"",""8208""
","
","","","","","","966.8000001907349","images/table3.png","","","learning","4","4","1","1","table","furniture","2","0","","good","[6]"
"html-keyboard-response","170","649107","0.0-9.0-2.0-0.49","6407","2","10","Male","approach_avoid_spark_v1","""event"",""trial"",""time""
""fullscreenenter"",""1"",""8208""
","
","
","""event"",""trial"",""time""
""fullscreenenter"",""1"",""8208""
","
","","","","","","null","<div style=""font-size:60px;"">+</div>","null","","fixation","","","","","","","","","","",""
"aa-learning-trial","171","652119","0.0-9.0-2.0-1.49","6407","2","10","Male","approach_avoid_spark_v1","""event"",""trial"",""time""
""fullscreenenter"",""1"",""8208""
","
","
","""event"",""trial"",""time""
""fullscreenenter"",""1"",""8208""
","
","","","","","","1141.5","images/chair5.png","","","learning","-4","-4","1","1","chair","furniture","2","0","","neutral","0"
"html-keyboard-response","172","652620","0.0-9.0-2.0-0.50","6407","2","10","Male","approach_avoid_spark_v1","""event"",""trial"",""time""
""fullscreenenter"",""1"",""8208""
","
","
","""event"",""trial"",""time""
""fullscreenenter"",""1"",""8208""
","
","","","","","","null","<div style=""font-size:60px;"">+</div>","null","","fixation","","","","","","","","","","",""
"aa-learning-trial","173","655631","0.0-9.0-2.0-1.50","6407","2","10","Male","approach_avoid_spark_v1","""event"",""trial"",""time""
""fullscreenenter"",""1"",""8208""
","
","
","""event"",""trial"",""time""
""fullscreenenter"",""1"",""8208""
","
","","","","","","1096.7999997138977","images/bed1.png","","","learning","3","3","1","1","bed","furniture","2","0","","bad","[-5]"
"html-button-response","174","659062","0.0-9.0-3.0","6407","2","10","Male","approach_avoid_spark_v1","""event"",""trial"",""time""
""fullscreenenter"",""1"",""8208""
","
","
","""event"",""trial"",""time""
""fullscreenenter"",""1"",""8208""
","
","","","","","","3427.699999809265","<p> You have completed the round! <p> In this round, you earned 40 points! </p>","0","","break","","","","","","","","","","",""
"html-button-response","175","663407","0.0-10.0","6407","2","10","Male","approach_avoid_spark_v1","""event"",""trial"",""time""
""fullscreenenter"",""1"",""8208""
","
","
","""event"",""trial"",""time""
""fullscreenenter"",""1"",""8208""
","
","","","","","","4340.200000286102","<p> Now it's time to play another round. </p>","0","","transition_screen","","","","","","","","","","",""
"preload","176","663565","0.0-11.0-0.0","6407","2","10","Male","approach_avoid_spark_v1","""event"",""trial"",""time""
""fullscreenenter"",""1"",""8208""
","
","
","""event"",""trial"",""time""
""fullscreenenter"",""1"",""8208""
","
","true","false","[]","[]","[]","","","","","","","","","","","","","","","",""
"learning-instructions","177","689352","0.0-11.0-1.0-0.0","6407","2","10","Male","approach_avoid_spark_v1","""event"",""trial"",""time""
""fullscreenenter"",""1"",""8208""
","
","
","""event"",""trial"",""time""
""fullscreenenter"",""1"",""8208""
","
","","","","","","20702.199999809265","<p> Your goal in this round is to take care of lots of animals. </p></div>","","0","instructions","","","","","","","","","","",""
"learning-instructions","178","706297","0.0-11.0-1.0-0.1","6407","2","10","Male","approach_avoid_spark_v1","""event"",""trial"",""time""
""fullscreenenter"",""1"",""8208""
","
","
","""event"",""trial"",""time""
""fullscreenenter"",""1"",""8208""
","
","","","","","","2436.9000000953674","<p> Some animals want to be pet, while other animals want to be left alone.  </p><p> On each turn, you will see an animal.   </p><p> You need to decide whether to pet it or not.  </p>","","0","instructions","","","","","","","","","","",""
"learning-instructions","179","714690","0.0-11.0-1.0-0.2","6407","2","10","Male","approach_avoid_spark_v1","""event"",""trial"",""time""
""fullscreenenter"",""1"",""8208""
","
","
","""event"",""trial"",""time""
""fullscreenenter"",""1"",""8208""
","
","","","","","","2327","<p> You can pet the animal by pressing 1 and leave the animal alone by pressing 0. </p><br><div class=""choice-instructions-grid""> <div class=""choice-option""><img src=""images/approach.png"" class=""choice-option-img"" stage=""instructions"" position=""0"" ><div class=""choice-option-text""> Press ""1."" </div></div><div class=""choice-option""><img src=""images/avoid.png"" class=""choice-option-img"" stage=""instructions"" position=""1"" ><div class=""choice-option-text""> Press ""0."" </div></div>","","0","instructions","","","","","","","","","","",""
"learning-instructions","180","727608","0.0-11.0-1.0-0.3","6407","2","10","Male","approach_avoid_spark_v1","""event"",""trial"",""time""
""fullscreenenter"",""1"",""8208""
","
","
","""event"",""trial"",""time""
""fullscreenenter"",""1"",""8208""
","
","","","","","","2359.699999809265","<p> If you pet an animal that wants to be pet, you will make it feel happy! </p><p> But if you pet an animal that wants to be left alone, you will make it feel angry. </p>","","0","instructions","","","","","","","","","","",""
"learning-instructions","181","747860","0.0-11.0-1.0-0.4","6407","2","10","Male","approach_avoid_spark_v1","""event"",""trial"",""time""
""fullscreenenter"",""1"",""8208""
","
","
","""event"",""trial"",""time""
""fullscreenenter"",""1"",""8208""
","
","","","","","","5808","<p> You will earn points based on how you made the animal feel. </p><p> If you made it feel happy, you will WIN anywhere from 1 - 9 points, </p><p> but if you made it feel angry, you will LOSE anywhere from 1 - 9 points. </p>","","0","instructions","","","","","","","","","","",""
"learning-instructions","182","762531","0.0-11.0-1.0-0.5","6407","2","10","Male","approach_avoid_spark_v1","""event"",""trial"",""time""
""fullscreenenter"",""1"",""8208""
","
","
","""event"",""trial"",""time""
""fullscreenenter"",""1"",""8208""
","
","","","","","","8022.300000190735","<p> You will see how many points you won or lost in the center of the screen. </p><p> Here is what you would see if you won 5 points: </p><p style=""color:green;font-size:50px;font-weight:bolder"">5</p>","","0","instructions","","","","","","","","","","",""
"learning-instructions","183","768293","0.0-11.0-1.0-0.6","6407","2","10","Male","approach_avoid_spark_v1","""event"",""trial"",""time""
""fullscreenenter"",""1"",""8208""
","
","
","""event"",""trial"",""time""
""fullscreenenter"",""1"",""8208""
","
","","","","","","2924.800000190735","<p> And here is what you would see if you lost 3 points: </p><p style=""color:red;font-size:50px;font-weight:bolder"">-3</p>","","0","instructions","","","","","","","","","","",""
"learning-instructions","184","809302","0.0-11.0-1.0-0.7","6407","2","10","Male","approach_avoid_spark_v1","""event"",""trial"",""time""
""fullscreenenter"",""1"",""8208""
","
","
","""event"",""trial"",""time""
""fullscreenenter"",""1"",""8208""
","
","","","","","","25238.599999904633","<p> Some animals will become very happy or very angry. </p><p> These animals will make you win or lose LOTS of points. </p><p> Other animals have less strong feelings. </p><p> These animals will make you win or lose small amounts of points. </p>","","0","instructions","","","","","","","","","","",""
"learning-instructions","185","824963","0.0-11.0-1.0-0.8","6407","2","10","Male","approach_avoid_spark_v1","""event"",""trial"",""time""
""fullscreenenter"",""1"",""8208""
","
","
","""event"",""trial"",""time""
""fullscreenenter"",""1"",""8208""
","
","","","","","","3213.300000190735","<p> If you choose to leave the animal alone, you will not win or lose any points. </p><p>  However, in the center of the screen, you will see the number of points you WOULD HAVE won or lost if you had pet the animal. </p>","","0","instructions","","","","","","","","","","",""
"learning-instructions","186","839947","0.0-11.0-1.0-0.9","6407","2","10","Male","approach_avoid_spark_v1","""event"",""trial"",""time""
""fullscreenenter"",""1"",""8208""
","
","
","""event"",""trial"",""time""
""fullscreenenter"",""1"",""8208""
","
","","","","","","1972.3000001907349","<p> Here is what you might see if you did not pet the animal but the animal wanted to be pet: </p><p style=""color:grey; font-size:50px; display: inline-block; border-spacing: 15px; border-width:3px; border-style:solid; border-color:red"">  &nbsp; 6 &nbsp; </p><p> Remember, in this case, you would not win or lose ANY points because you did not pet the animal.  </p>","","0","instructions","","","","","","","","","","",""
"learning-instructions","187","849067","0.0-11.0-1.0-0.10","6407","2","10","Male","approach_avoid_spark_v1","""event"",""trial"",""time""
""fullscreenenter"",""1"",""8208""
","
","
","""event"",""trial"",""time""
""fullscreenenter"",""1"",""8208""
","
","","","","","","1470.5999999046326","<p> Try to make the best choice for each animal because </p><p> at the end of the game, you will earn bonus money based on how many points you earned. </p>","","0","instructions","","","","","","","","","","",""
"learning-instructions","188","858390","0.0-11.0-1.0-0.11","6407","2","10","Male","approach_avoid_spark_v1","""event"",""trial"",""time""
""fullscreenenter"",""1"",""8208""
","
","
","""event"",""trial"",""time""
""fullscreenenter"",""1"",""8208""
","
","","","","","","1129.5999999046326","<p> You will have 3 seconds to make each choice. Try to respond before time runs out! </p><p> You will lose 5 points each time you do not make a response. </p>","","0","instructions","","","","","","","","","","",""
"html-keyboard-response","189","859015","0.0-11.0-2.0-0.0","6407","2","10","Male","approach_avoid_spark_v1","""event"",""trial"",""time""
""fullscreenenter"",""1"",""8208""
","
","
","""event"",""trial"",""time""
""fullscreenenter"",""1"",""8208""
","
","","","","","","null","<div style=""font-size:60px;"">+</div>","null","","fixation","","","","","","","","","","",""
"aa-learning-trial","190","862022","0.0-11.0-2.0-1.0","6407","2","10","Male","approach_avoid_spark_v1","""event"",""trial"",""time""
""fullscreenenter"",""1"",""8208""
","
","
","""event"",""trial"",""time""
""fullscreenenter"",""1"",""8208""
","
","","","","","","1769","images/rodent5.png","","","learning","-5","-5","1","1","rodent","pets","1","1","","bad","[-5]"
"html-keyboard-response","191","862534","0.0-11.0-2.0-0.1","6407","2","10","Male","approach_avoid_spark_v1","""event"",""trial"",""time""
""fullscreenenter"",""1"",""8208""
","
","
","""event"",""trial"",""time""
""fullscreenenter"",""1"",""8208""
","
","","","","","","null","<div style=""font-size:60px;"">+</div>","null","","fixation","","","","","","","","","","",""
"aa-learning-trial","192","865538","0.0-11.0-2.0-1.1","6407","2","10","Male","approach_avoid_spark_v1","""event"",""trial"",""time""
""fullscreenenter"",""1"",""8208""
","
","
","""event"",""trial"",""time""
""fullscreenenter"",""1"",""8208""
","
","","","","","","1021.5","images/rodent4.png","","","learning","-6","0","0","0","rodent","pets","1","1","","bad","[-5]"
"html-keyboard-response","193","866049","0.0-11.0-2.0-0.2","6407","2","10","Male","approach_avoid_spark_v1","""event"",""trial"",""time""
""fullscreenenter"",""1"",""8208""
","
","
","""event"",""trial"",""time""
""fullscreenenter"",""1"",""8208""
","
","","","","","","null","<div style=""font-size:60px;"">+</div>","null","","fixation","","","","","","","","","","",""
"aa-learning-trial","194","869060","0.0-11.0-2.0-1.2","6407","2","10","Male","approach_avoid_spark_v1","""event"",""trial"",""time""
""fullscreenenter"",""1"",""8208""
","
","
","""event"",""trial"",""time""
""fullscreenenter"",""1"",""8208""
","
","","","","","","948.5999999046326","images/rabbit1.png","","","learning","[-1]","-1","1","1","rabbit","pets","1","1","","neutral","0"
"html-keyboard-response","195","869577","0.0-11.0-2.0-0.3","6407","2","10","Male","approach_avoid_spark_v1","""event"",""trial"",""time""
""fullscreenenter"",""1"",""8208""
","
","
","""event"",""trial"",""time""
""fullscreenenter"",""1"",""8208""
","
","","","","","","null","<div style=""font-size:60px;"">+</div>","null","","fixation","","","","","","","","","","",""
"aa-learning-trial","196","872586","0.0-11.0-2.0-1.3","6407","2","10","Male","approach_avoid_spark_v1","""event"",""trial"",""time""
""fullscreenenter"",""1"",""8208""
","
","
","""event"",""trial"",""time""
""fullscreenenter"",""1"",""8208""
","
","","","","","","1192.9000000953674","images/rodent1.png","","","learning","-4","0","0","0","rodent","pets","1","1","","bad","[-5]"
"html-keyboard-response","197","873095","0.0-11.0-2.0-0.4","6407","2","10","Male","approach_avoid_spark_v1","""event"",""trial"",""time""
""fullscreenenter"",""1"",""8208""
","
","
","""event"",""trial"",""time""
""fullscreenenter"",""1"",""8208""
","
","","","","","","null","<div style=""font-size:60px;"">+</div>","null","","fixation","","","","","","","","","","",""
"aa-learning-trial","198","876104","0.0-11.0-2.0-1.4","6407","2","10","Male","approach_avoid_spark_v1","""event"",""trial"",""time""
""fullscreenenter"",""1"",""8208""
","
","
","""event"",""trial"",""time""
""fullscreenenter"",""1"",""8208""
","
","","","","","","1119.5999999046326","images/rabbit6.png","","","learning","-3","0","0","0","rabbit","pets","1","1","","neutral","0"
"html-keyboard-response","199","876616","0.0-11.0-2.0-0.5","6407","2","10","Male","approach_avoid_spark_v1","""event"",""trial"",""time""
""fullscreenenter"",""1"",""8208""
","
","
","""event"",""trial"",""time""
""fullscreenenter"",""1"",""8208""
","
","","","","","","null","<div style=""font-size:60px;"">+</div>","null","","fixation","","","","","","","","","","",""
"aa-learning-trial","200","879625","0.0-11.0-2.0-1.5","6407","2","10","Male","approach_avoid_spark_v1","""event"",""trial"",""time""
""fullscreenenter"",""1"",""8208""
","
","
","""event"",""trial"",""time""
""fullscreenenter"",""1"",""8208""
","
","","","","","","989.1000003814697","images/cat7.png","","","learning","5","5","1","1","cat","pets","1","1","","good","[6]"
"html-keyboard-response","201","880136","0.0-11.0-2.0-0.6","6407","2","10","Male","approach_avoid_spark_v1","""event"",""trial"",""time""
""fullscreenenter"",""1"",""8208""
","
","
","""event"",""trial"",""time""
""fullscreenenter"",""1"",""8208""
","
","","","","","","null","<div style=""font-size:60px;"">+</div>","null","","fixation","","","","","","","","","","",""
"aa-learning-trial","202","883145","0.0-11.0-2.0-1.6","6407","2","10","Male","approach_avoid_spark_v1","""event"",""trial"",""time""
""fullscreenenter"",""1"",""8208""
","
","
","""event"",""trial"",""time""
""fullscreenenter"",""1"",""8208""
","
","","","","","","940.5999999046326","images/cat2.png","","","learning","6","6","1","1","cat","pets","1","1","","good","[6]"
"html-keyboard-response","203","883656","0.0-11.0-2.0-0.7","6407","2","10","Male","approach_avoid_spark_v1","""event"",""trial"",""time""
""fullscreenenter"",""1"",""8208""
","
","
","""event"",""trial"",""time""
""fullscreenenter"",""1"",""8208""
","
","","","","","","null","<div style=""font-size:60px;"">+</div>","null","","fixation","","","","","","","","","","",""
"aa-learning-trial","204","886664","0.0-11.0-2.0-1.7","6407","2","10","Male","approach_avoid_spark_v1","""event"",""trial"",""time""
""fullscreenenter"",""1"",""8208""
","
","
","""event"",""trial"",""time""
""fullscreenenter"",""1"",""8208""
","
","","","","","","1012.1999998092651","images/cat8.png","","","learning","6","6","1","1","cat","pets","1","1","","good","[6]"
"html-keyboard-response","205","887169","0.0-11.0-2.0-0.8","6407","2","10","Male","approach_avoid_spark_v1","""event"",""trial"",""time""
""fullscreenenter"",""1"",""8208""
","
","
","""event"",""trial"",""time""
""fullscreenenter"",""1"",""8208""
","
","","","","","","null","<div style=""font-size:60px;"">+</div>","null","","fixation","","","","","","","","","","",""
"aa-learning-trial","206","890186","0.0-11.0-2.0-1.8","6407","2","10","Male","approach_avoid_spark_v1","""event"",""trial"",""time""
""fullscreenenter"",""1"",""8208""
","
","
","""event"",""trial"",""time""
""fullscreenenter"",""1"",""8208""
","
","","","","","","1055.6999998092651","images/rodent5.png","","","learning","-6","0","0","0","rodent","pets","1","1","","bad","[-5]"
"html-keyboard-response","207","890695","0.0-11.0-2.0-0.9","6407","2","10","Male","approach_avoid_spark_v1","""event"",""trial"",""time""
""fullscreenenter"",""1"",""8208""
","
","
","""event"",""trial"",""time""
""fullscreenenter"",""1"",""8208""
","
","","","","","","null","<div style=""font-size:60px;"">+</div>","null","","fixation","","","","","","","","","","",""
"aa-learning-trial","208","893699","0.0-11.0-2.0-1.9","6407","2","10","Male","approach_avoid_spark_v1","""event"",""trial"",""time""
""fullscreenenter"",""1"",""8208""
","
","
","""event"",""trial"",""time""
""fullscreenenter"",""1"",""8208""
","
","","","","","","820.0999999046326","images/cat7.png","","","learning","8","8","1","1","cat","pets","1","1","","good","[6]"
"html-keyboard-response","209","894217","0.0-11.0-2.0-0.10","6407","2","10","Male","approach_avoid_spark_v1","""event"",""trial"",""time""
""fullscreenenter"",""1"",""8208""
","
","
","""event"",""trial"",""time""
""fullscreenenter"",""1"",""8208""
","
","","","","","","null","<div style=""font-size:60px;"">+</div>","null","","fixation","","","","","","","","","","",""
"aa-learning-trial","210","897226","0.0-11.0-2.0-1.10","6407","2","10","Male","approach_avoid_spark_v1","""event"",""trial"",""time""
""fullscreenenter"",""1"",""8208""
","
","
","""event"",""trial"",""time""
""fullscreenenter"",""1"",""8208""
","
","","","","","","849.8000001907349","images/rabbit4.png","","","learning","1","0","0","0","rabbit","pets","1","1","","neutral","0"
"html-keyboard-response","211","897732","0.0-11.0-2.0-0.11","6407","2","10","Male","approach_avoid_spark_v1","""event"",""trial"",""time""
""fullscreenenter"",""1"",""8208""
","
","
","""event"",""trial"",""time""
""fullscreenenter"",""1"",""8208""
","
","","","","","","null","<div style=""font-size:60px;"">+</div>","null","","fixation","","","","","","","","","","",""
"aa-learning-trial","212","900744","0.0-11.0-2.0-1.11","6407","2","10","Male","approach_avoid_spark_v1","""event"",""trial"",""time""
""fullscreenenter"",""1"",""8208""
","
","
","""event"",""trial"",""time""
""fullscreenenter"",""1"",""8208""
","
","","","","","","1014.4000000953674","images/rodent1.png","","","learning","-2","0","0","0","rodent","pets","1","1","","bad","[-5]"
"html-keyboard-response","213","901254","0.0-11.0-2.0-0.12","6407","2","10","Male","approach_avoid_spark_v1","""event"",""trial"",""time""
""fullscreenenter"",""1"",""8208""
","
","
","""event"",""trial"",""time""
""fullscreenenter"",""1"",""8208""
","
","","","","","","null","<div style=""font-size:60px;"">+</div>","null","","fixation","","","","","","","","","","",""
"aa-learning-trial","214","904259","0.0-11.0-2.0-1.12","6407","2","10","Male","approach_avoid_spark_v1","""event"",""trial"",""time""
""fullscreenenter"",""1"",""8208""
","
","
","""event"",""trial"",""time""
""fullscreenenter"",""1"",""8208""
","
","","","","","","1398.5","images/rabbit6.png","","","learning","1","0","0","0","rabbit","pets","1","1","","neutral","0"
"html-keyboard-response","215","904775","0.0-11.0-2.0-0.13","6407","2","10","Male","approach_avoid_spark_v1","""event"",""trial"",""time""
""fullscreenenter"",""1"",""8208""
","
","
","""event"",""trial"",""time""
""fullscreenenter"",""1"",""8208""
","
","","","","","","null","<div style=""font-size:60px;"">+</div>","null","","fixation","","","","","","","","","","",""
"aa-learning-trial","216","907782","0.0-11.0-2.0-1.13","6407","2","10","Male","approach_avoid_spark_v1","""event"",""trial"",""time""
""fullscreenenter"",""1"",""8208""
","
","
","""event"",""trial"",""time""
""fullscreenenter"",""1"",""8208""
","
","","","","","","1136.6999998092651","images/rabbit4.png","","","learning","1","1","1","1","rabbit","pets","1","1","","neutral","0"
"html-keyboard-response","217","908295","0.0-11.0-2.0-0.14","6407","2","10","Male","approach_avoid_spark_v1","""event"",""trial"",""time""
""fullscreenenter"",""1"",""8208""
","
","
","""event"",""trial"",""time""
""fullscreenenter"",""1"",""8208""
","
","","","","","","null","<div style=""font-size:60px;"">+</div>","null","","fixation","","","","","","","","","","",""
"aa-learning-trial","218","911308","0.0-11.0-2.0-1.14","6407","2","10","Male","approach_avoid_spark_v1","""event"",""trial"",""time""
""fullscreenenter"",""1"",""8208""
","
","
","""event"",""trial"",""time""
""fullscreenenter"",""1"",""8208""
","
","","","","","","1111.3999996185303","images/cat2.png","","","learning","8","8","1","1","cat","pets","1","1","","good","[6]"
"html-keyboard-response","219","911812","0.0-11.0-2.0-0.15","6407","2","10","Male","approach_avoid_spark_v1","""event"",""trial"",""time""
""fullscreenenter"",""1"",""8208""
","
","
","""event"",""trial"",""time""
""fullscreenenter"",""1"",""8208""
","
","","","","","","null","<div style=""font-size:60px;"">+</div>","null","","fixation","","","","","","","","","","",""
"aa-learning-trial","220","914819","0.0-11.0-2.0-1.15","6407","2","10","Male","approach_avoid_spark_v1","""event"",""trial"",""time""
""fullscreenenter"",""1"",""8208""
","
","
","""event"",""trial"",""time""
""fullscreenenter"",""1"",""8208""
","
","","","","","","2114.7000002861023","images/cat8.png","","","learning","9","9","1","1","cat","pets","1","1","","good","[6]"
"html-keyboard-response","221","915336","0.0-11.0-2.0-0.16","6407","2","10","Male","approach_avoid_spark_v1","""event"",""trial"",""time""
""fullscreenenter"",""1"",""8208""
","
","
","""event"",""trial"",""time""
""fullscreenenter"",""1"",""8208""
","
","","","","","","null","<div style=""font-size:60px;"">+</div>","null","","fixation","","","","","","","","","","",""
"aa-learning-trial","222","918340","0.0-11.0-2.0-1.16","6407","2","10","Male","approach_avoid_spark_v1","""event"",""trial"",""time""
""fullscreenenter"",""1"",""8208""
","
","
","""event"",""trial"",""time""
""fullscreenenter"",""1"",""8208""
","
","","","","","","945.5999999046326","images/cat7.png","","","learning","5","5","1","1","cat","pets","1","1","","good","[6]"
"html-keyboard-response","223","918854","0.0-11.0-2.0-0.17","6407","2","10","Male","approach_avoid_spark_v1","""event"",""trial"",""time""
""fullscreenenter"",""1"",""8208""
","
","
","""event"",""trial"",""time""
""fullscreenenter"",""1"",""8208""
","
","","","","","","null","<div style=""font-size:60px;"">+</div>","null","","fixation","","","","","","","","","","",""
"aa-learning-trial","224","921865","0.0-11.0-2.0-1.17","6407","2","10","Male","approach_avoid_spark_v1","""event"",""trial"",""time""
""fullscreenenter"",""1"",""8208""
","
","
","""event"",""trial"",""time""
""fullscreenenter"",""1"",""8208""
","
","","","","","","1011.5","images/rabbit1.png","","","learning","1","0","0","0","rabbit","pets","1","1","","neutral","0"
"html-keyboard-response","225","922373","0.0-11.0-2.0-0.18","6407","2","10","Male","approach_avoid_spark_v1","""event"",""trial"",""time""
""fullscreenenter"",""1"",""8208""
","
","
","""event"",""trial"",""time""
""fullscreenenter"",""1"",""8208""
","
","","","","","","null","<div style=""font-size:60px;"">+</div>","null","","fixation","","","","","","","","","","",""
"aa-learning-trial","226","925379","0.0-11.0-2.0-1.18","6407","2","10","Male","approach_avoid_spark_v1","""event"",""trial"",""time""
""fullscreenenter"",""1"",""8208""
","
","
","""event"",""trial"",""time""
""fullscreenenter"",""1"",""8208""
","
","","","","","","1222.0999999046326","images/rodent5.png","","","learning","-4","0","0","0","rodent","pets","1","1","","bad","[-5]"
"html-keyboard-response","227","925890","0.0-11.0-2.0-0.19","6407","2","10","Male","approach_avoid_spark_v1","""event"",""trial"",""time""
""fullscreenenter"",""1"",""8208""
","
","
","""event"",""trial"",""time""
""fullscreenenter"",""1"",""8208""
","
","","","","","","null","<div style=""font-size:60px;"">+</div>","null","","fixation","","","","","","","","","","",""
"aa-learning-trial","228","928902","0.0-11.0-2.0-1.19","6407","2","10","Male","approach_avoid_spark_v1","""event"",""trial"",""time""
""fullscreenenter"",""1"",""8208""
","
","
","""event"",""trial"",""time""
""fullscreenenter"",""1"",""8208""
","
","","","","","","943.9000000953674","images/cat7.png","","","learning","5","5","1","1","cat","pets","1","1","","good","[6]"
"html-keyboard-response","229","929412","0.0-11.0-2.0-0.20","6407","2","10","Male","approach_avoid_spark_v1","""event"",""trial"",""time""
""fullscreenenter"",""1"",""8208""
","
","
","""event"",""trial"",""time""
""fullscreenenter"",""1"",""8208""
","
","","","","","","null","<div style=""font-size:60px;"">+</div>","null","","fixation","","","","","","","","","","",""
"aa-learning-trial","230","932418","0.0-11.0-2.0-1.20","6407","2","10","Male","approach_avoid_spark_v1","""event"",""trial"",""time""
""fullscreenenter"",""1"",""8208""
","
","
","""event"",""trial"",""time""
""fullscreenenter"",""1"",""8208""
","
","","","","","","1413.5999999046326","images/cat2.png","","","learning","4","4","1","1","cat","pets","1","1","","good","[6]"
"html-keyboard-response","231","932935","0.0-11.0-2.0-0.21","6407","2","10","Male","approach_avoid_spark_v1","""event"",""trial"",""time""
""fullscreenenter"",""1"",""8208""
","
","
","""event"",""trial"",""time""
""fullscreenenter"",""1"",""8208""
","
","","","","","","null","<div style=""font-size:60px;"">+</div>","null","","fixation","","","","","","","","","","",""
"aa-learning-trial","232","935943","0.0-11.0-2.0-1.21","6407","2","10","Male","approach_avoid_spark_v1","""event"",""trial"",""time""
""fullscreenenter"",""1"",""8208""
","
","
","""event"",""trial"",""time""
""fullscreenenter"",""1"",""8208""
","
","","","","","","1145.5999999046326","images/rabbit2.png","","","learning","1","0","0","0","rabbit","pets","1","1","","neutral","0"
"html-keyboard-response","233","936453","0.0-11.0-2.0-0.22","6407","2","10","Male","approach_avoid_spark_v1","""event"",""trial"",""time""
""fullscreenenter"",""1"",""8208""
","
","
","""event"",""trial"",""time""
""fullscreenenter"",""1"",""8208""
","
","","","","","","null","<div style=""font-size:60px;"">+</div>","null","","fixation","","","","","","","","","","",""
"aa-learning-trial","234","939464","0.0-11.0-2.0-1.22","6407","2","10","Male","approach_avoid_spark_v1","""event"",""trial"",""time""
""fullscreenenter"",""1"",""8208""
","
","
","""event"",""trial"",""time""
""fullscreenenter"",""1"",""8208""
","
","","","","","","1088.7999997138977","images/rodent3.png","","","learning","-6","-6","1","1","rodent","pets","1","1","","bad","[-5]"
"html-keyboard-response","235","939971","0.0-11.0-2.0-0.23","6407","2","10","Male","approach_avoid_spark_v1","""event"",""trial"",""time""
""fullscreenenter"",""1"",""8208""
","
","
","""event"",""trial"",""time""
""fullscreenenter"",""1"",""8208""
","
","","","","","","null","<div style=""font-size:60px;"">+</div>","null","","fixation","","","","","","","","","","",""
"aa-learning-trial","236","942979","0.0-11.0-2.0-1.23","6407","2","10","Male","approach_avoid_spark_v1","""event"",""trial"",""time""
""fullscreenenter"",""1"",""8208""
","
","
","""event"",""trial"",""time""
""fullscreenenter"",""1"",""8208""
","
","","","","","","953.9000000953674","images/cat8.png","","","learning","6","6","1","1","cat","pets","1","1","","good","[6]"
"html-keyboard-response","237","943489","0.0-11.0-2.0-0.24","6407","2","10","Male","approach_avoid_spark_v1","""event"",""trial"",""time""
