"trial_type","trial_index","time_elapsed","internal_node_id","subject_id","task_condition","age","gender","task_version","interactions","blur_events","focus_events","fullscreenenter_events","fullscreenexit_events","success","timeout","failed_images","failed_audio","failed_video","rt","stimulus","response","button_pressed","task_part","approach_reward","points","key_press","option_selected","stim_cat","task_block","block_condition","block_number","correct","cat_type","mean_cat_reward"
"pavlovia","0","32","0.0-0.0","3860","2","16","Female","approach_avoid_spark_v1","""event"",""trial"",""time""
""focus"",""0"",""2""
","
","""event"",""trial"",""time""
""focus"",""0"",""2""
","
","
","","","","","","","","","","","","","","","","","","","","",""
"fullscreen","1","7251","0.0-1.0","3860","2","16","Female","approach_avoid_spark_v1","""event"",""trial"",""time""
""focus"",""0"",""2""
""fullscreenenter"",""2"",""13812""
","
","""event"",""trial"",""time""
""focus"",""0"",""2""
","""event"",""trial"",""time""
""fullscreenenter"",""2"",""13812""
","
","true","","","","","","","","","","","","","","","","","","","",""
"preload","2","29246","0.0-2.0","3860","2","16","Female","approach_avoid_spark_v1","""event"",""trial"",""time""
""focus"",""0"",""2""
""fullscreenenter"",""2"",""13812""
","
","""event"",""trial"",""time""
""focus"",""0"",""2""
","""event"",""trial"",""time""
""fullscreenenter"",""2"",""13812""
","
","true","false","[]","[]","[]","","","","","","","","","","","","","","","",""
"audio-keyboard-response","3","33298","0.0-3.0","3860","2","16","Female","approach_avoid_spark_v1","""event"",""trial"",""time""
""focus"",""0"",""2""
""fullscreenenter"",""2"",""13812""
","
","""event"",""trial"",""time""
""focus"",""0"",""2""
","""event"",""trial"",""time""
""fullscreenenter"",""2"",""13812""
","
","","","","","","4021.3333333333326","audio/beep_loop.wav"," ","","","","","","","","","","","","",""
"audio-button-response","4","36678","0.0-4.0","3860","2","16","Female","approach_avoid_spark_v1","""event"",""trial"",""time""
""focus"",""0"",""2""
""fullscreenenter"",""2"",""13812""
","
","""event"",""trial"",""time""
""focus"",""0"",""2""
","""event"",""trial"",""time""
""fullscreenenter"",""2"",""13812""
","
","","","","","","3379","audio/shark.wav","4","","","","","","","","","","","","",""
"audio-button-response","5","39399","0.0-5.0","3860","2","16","Female","approach_avoid_spark_v1","""event"",""trial"",""time""
""focus"",""0"",""2""
""fullscreenenter"",""2"",""13812""
","
","""event"",""trial"",""time""
""focus"",""0"",""2""
","""event"",""trial"",""time""
""fullscreenenter"",""2"",""13812""
","
","","","","","","1720","audio/turtle.wav","1","","","","","","","","","","","","",""
"preload","6","45209","0.0-6.0","3860","2","16","Female","approach_avoid_spark_v1","""event"",""trial"",""time""
""focus"",""0"",""2""
""fullscreenenter"",""2"",""13812""
","
","""event"",""trial"",""time""
""focus"",""0"",""2""
","""event"",""trial"",""time""
""fullscreenenter"",""2"",""13812""
","
","true","false","[]","[]","[]","","","","","","","","","","","","","","","",""
"html-keyboard-response","7","51272","0.0-7.0","3860","2","16","Female","approach_avoid_spark_v1","""event"",""trial"",""time""
""focus"",""0"",""2""
""fullscreenenter"",""2"",""13812""
","
","""event"",""trial"",""time""
""focus"",""0"",""2""
","""event"",""trial"",""time""
""fullscreenenter"",""2"",""13812""
","
","","","","","","6063","Welcome to the experiment. Press any key to begin and to advance the instructions."," ","","","","","","","","","","","","",""
"learning-instructions","8","60476","0.0-8.0-0.0-0.0","3860","2","16","Female","approach_avoid_spark_v1","""event"",""trial"",""time""
""focus"",""0"",""2""
""fullscreenenter"",""2"",""13812""
","
","""event"",""trial"",""time""
""focus"",""0"",""2""
","""event"",""trial"",""time""
""fullscreenenter"",""2"",""13812""
","
","","","","","","2237","<p> Welcome! Today you are going to play 6 different rounds of a decision-making game. </p><p> Use the mouse to click next to continue. </p>","","0","instructions","","","","","","","","","","",""
"learning-instructions","9","64305","0.0-8.0-0.0-0.1","3860","2","16","Female","approach_avoid_spark_v1","""event"",""trial"",""time""
""focus"",""0"",""2""
""fullscreenenter"",""2"",""13812""
","
","""event"",""trial"",""time""
""focus"",""0"",""2""
","""event"",""trial"",""time""
""fullscreenenter"",""2"",""13812""
","
","","","","","","1076","<p> You will start with a practice round to learn the rules. </p>","","0","instructions","","","","","","","","","","",""
"learning-instructions","10","68873","0.0-8.0-0.0-0.2","3860","2","16","Female","approach_avoid_spark_v1","""event"",""trial"",""time""
""focus"",""0"",""2""
""fullscreenenter"",""2"",""13812""
","
","""event"",""trial"",""time""
""focus"",""0"",""2""
","""event"",""trial"",""time""
""fullscreenenter"",""2"",""13812""
","
","","","","","","1104","<p> Your goal in this round is to give out sports equipment to kids. </p></div>","","0","instructions","","","","","","","","","","",""
"learning-instructions","11","77529","0.0-8.0-0.0-0.3","3860","2","16","Female","approach_avoid_spark_v1","""event"",""trial"",""time""
""focus"",""0"",""2""
""fullscreenenter"",""2"",""13812""
","
","""event"",""trial"",""time""
""focus"",""0"",""2""
","""event"",""trial"",""time""
""fullscreenenter"",""2"",""13812""
","
","","","","","","1091","<p> The kids only like some of the equipment.  </p><p> On each turn, you will see a piece of sports equipment.   </p><p> You need to decide whether to give it to the kids or not.  </p>","","0","instructions","","","","","","","","","","",""
"learning-instructions","12","83164","0.0-8.0-0.0-0.4","3860","2","16","Female","approach_avoid_spark_v1","""event"",""trial"",""time""
""focus"",""0"",""2""
""fullscreenenter"",""2"",""13812""
","
","""event"",""trial"",""time""
""focus"",""0"",""2""
","""event"",""trial"",""time""
""fullscreenenter"",""2"",""13812""
","
","","","","","","852","<p> You can give them the equipment by pressing 1 and choose not to give it to them by pressing 0. </p><br><div class=""choice-instructions-grid""> <div class=""choice-option""><img src=""images/approach.png"" class=""choice-option-img"" stage=""instructions"" position=""0"" ><div class=""choice-option-text""> Press ""1."" </div></div><div class=""choice-option""><img src=""images/avoid.png"" class=""choice-option-img"" stage=""instructions"" position=""1"" ><div class=""choice-option-text""> Press ""0."" </div></div>","","0","instructions","","","","","","","","","","",""
"learning-instructions","13","91511","0.0-8.0-0.0-0.5","3860","2","16","Female","approach_avoid_spark_v1","""event"",""trial"",""time""
""focus"",""0"",""2""
""fullscreenenter"",""2"",""13812""
","
","""event"",""trial"",""time""
""focus"",""0"",""2""
","""event"",""trial"",""time""
""fullscreenenter"",""2"",""13812""
","
","","","","","","953","<p> If you give them a piece of equipment they like, they will be happy! </p><p> But if you give them a piece of equipment they do not like, they will be sad. </p>","","0","instructions","","","","","","","","","","",""
"learning-instructions","14","102989","0.0-8.0-0.0-0.6","3860","2","16","Female","approach_avoid_spark_v1","""event"",""trial"",""time""
""focus"",""0"",""2""
""fullscreenenter"",""2"",""13812""
","
","""event"",""trial"",""time""
""focus"",""0"",""2""
","""event"",""trial"",""time""
""fullscreenenter"",""2"",""13812""
","
","","","","","","939","<p> You will earn points based on how you make kids feel. </p><p> If you make them happy, you will WIN anywhere from 1 - 9 points, </p><p> but if you make them sad, you will LOSE anywhere from 1 - 9 points. </p>","","0","instructions","","","","","","","","","","",""
"learning-instructions","15","113502","0.0-8.0-0.0-0.7","3860","2","16","Female","approach_avoid_spark_v1","""event"",""trial"",""time""
""focus"",""0"",""2""
""fullscreenenter"",""2"",""13812""
","
","""event"",""trial"",""time""
""focus"",""0"",""2""
","""event"",""trial"",""time""
""fullscreenenter"",""2"",""13812""
","
","","","","","","944","<p> You will see how many points you won or lost in the center of the screen. </p><p> Here is what you would see if you won 6 points: </p><p style=""color:green;font-size:50px;font-weight:bolder"">6</p><p style=""color:green"">The text is GREEN because you WON points.</p>","","0","instructions","","","","","","","","","","",""
"learning-instructions","16","120343","0.0-8.0-0.0-0.8","3860","2","16","Female","approach_avoid_spark_v1","""event"",""trial"",""time""
""focus"",""0"",""2""
""fullscreenenter"",""2"",""13812""
","
","""event"",""trial"",""time""
""focus"",""0"",""2""
","""event"",""trial"",""time""
""fullscreenenter"",""2"",""13812""
","
","","","","","","1325","<p> And here is what you would see if you lost 4 points: </p><p style=""color:red;font-size:50px;font-weight:bolder"">-4</p><p style=""color:red"">The text is RED because you LOST points. </p>","","0","instructions","","","","","","","","","","",""
"learning-instructions","17","136196","0.0-8.0-0.0-0.9","3860","2","16","Female","approach_avoid_spark_v1","""event"",""trial"",""time""
""focus"",""0"",""2""
""fullscreenenter"",""2"",""13812""
","
","""event"",""trial"",""time""
""focus"",""0"",""2""
","""event"",""trial"",""time""
""fullscreenenter"",""2"",""13812""
","
","","","","","","1128","<p> Some of the equipment will make the kids VERY happy or sad. </p><p> These pieces of equipment will make you win or lose LOTS of points. </p><p> Other pieces of equipment will only make the kids a little happy or sad. </p><p> These pieces of equipment will make you win or lose small amounts of points. </p>","","0","instructions","","","","","","","","","","",""
"learning-instructions","18","147772","0.0-8.0-0.0-0.10","3860","2","16","Female","approach_avoid_spark_v1","""event"",""trial"",""time""
""focus"",""0"",""2""
""fullscreenenter"",""2"",""13812""
","
","""event"",""trial"",""time""
""focus"",""0"",""2""
","""event"",""trial"",""time""
""fullscreenenter"",""2"",""13812""
","
","","","","","","933","<p> If you choose not to give them the equipment, you will not win or lose any points. </p><p>  However, in the center of the screen, you will see the number of points you WOULD HAVE won or lost if you had given them the equipment. </p>","","0","instructions","","","","","","","","","","",""
"learning-instructions","19","176731","0.0-8.0-0.0-0.11","3860","2","16","Female","approach_avoid_spark_v1","""event"",""trial"",""time""
""focus"",""0"",""2""
""fullscreenenter"",""2"",""13812""
","
","""event"",""trial"",""time""
""focus"",""0"",""2""
","""event"",""trial"",""time""
""fullscreenenter"",""2"",""13812""
","
","","","","","","7414","<p> Here is what you might see if you did not give the equipment to the kids but it would have made them happy: </p><p style=""color:grey; font-size:50px; display: inline-block; border-spacing: 15px; border-width:3px; border-style:solid; border-color:red"">  &nbsp; 7 &nbsp; </p><p> Remember, in this case, you would not win or lose ANY points because you did not give them the equipment.  </p><p style=""color:grey"">The text is GREY because you earned ZERO points. </p><p style=""color:red"">However, choosing to give the kids the equipment would have made you win points. The box around the text is RED because you chose the worse option. </p>","","0","instructions","","","","","","","","","","",""
"learning-instructions","20","199955","0.0-8.0-0.0-0.12","3860","2","16","Female","approach_avoid_spark_v1","""event"",""trial"",""time""
""focus"",""0"",""2""
""fullscreenenter"",""2"",""13812""
","
","""event"",""trial"",""time""
""focus"",""0"",""2""
","""event"",""trial"",""time""
""fullscreenenter"",""2"",""13812""
","
","","","","","","2137","<p> Here is what you might see if you did not give the equipment to the kids but it would have made them sad: </p><p style=""color:grey;font-size:50px; display: inline-block; border-spacing: 15px; border-width:3px; border-style:solid; border-color:green"">  &nbsp; -8 &nbsp; </p><p> Remember, in this case, you would not win or lose ANY points because you did not give them the equipment.  </p><p style=""color:grey"">The text is GREY because you earned ZERO points. </p><p  style=""color:green""> Choosing to give the kids the equipment would have made you lose points. The box around the text is GREEN because you chose the better option.</p>","","0","instructions","","","","","","","","","","",""
"learning-instructions","21","215043","0.0-8.0-0.0-0.13","3860","2","16","Female","approach_avoid_spark_v1","""event"",""trial"",""time""
""focus"",""0"",""2""
""fullscreenenter"",""2"",""13812""
","
","""event"",""trial"",""time""
""focus"",""0"",""2""
","""event"",""trial"",""time""
""fullscreenenter"",""2"",""13812""
","
","","","","","","5825","<p> You will have 3 seconds to make each choice. Try to respond before time runs out! </p><p> You will lose 5 points each time you do not make a response. </p>","","0","instructions","","","","","","","","","","",""
"learning-instructions","22","221616","0.0-8.0-0.0-0.14","3860","2","16","Female","approach_avoid_spark_v1","""event"",""trial"",""time""
""focus"",""0"",""2""
""fullscreenenter"",""2"",""13812""
","
","""event"",""trial"",""time""
""focus"",""0"",""2""
","""event"",""trial"",""time""
""fullscreenenter"",""2"",""13812""
","
","","","","","","1079","<p> This is just a practice round, but in the real game, your bonus payment will depend on your total number of points.","","0","instructions","","","","","","","","","","",""
"learning-instructions","23","228252","0.0-8.0-0.0-0.15","3860","2","16","Female","approach_avoid_spark_v1","""event"",""trial"",""time""
""focus"",""0"",""2""
""fullscreenenter"",""2"",""13812""
","
","""event"",""trial"",""time""
""focus"",""0"",""2""
","""event"",""trial"",""time""
""fullscreenenter"",""2"",""13812""
","
","","","","","","853","<p> Remember, you can give them the equipment by pressing 1 and choose not to give it to them by pressing 0. </p><br><div class=""choice-instructions-grid""> <div class=""choice-option""><img src=""images/approach.png"" class=""choice-option-img"" stage=""instructions"" position=""0"" ><div class=""choice-option-text""> Press ""1."" </div></div><div class=""choice-option""><img src=""images/avoid.png"" class=""choice-option-img"" stage=""instructions"" position=""1"" ><div class=""choice-option-text""> Press ""0."" </div></div>","","0","instructions","","","","","","","","","","",""
"html-button-response","24","230781","0.0-8.0-1.0","3860","2","16","Female","approach_avoid_spark_v1","""event"",""trial"",""time""
""focus"",""0"",""2""
""fullscreenenter"",""2"",""13812""
","
","""event"",""trial"",""time""
""focus"",""0"",""2""
","""event"",""trial"",""time""
""fullscreenenter"",""2"",""13812""
","
","","","","","","2426","<p> Ready to practice? </p>","0","","","","","","","","","","","","",""
"html-keyboard-response","25","231401","0.0-8.0-2.0-0.0","3860","2","16","Female","approach_avoid_spark_v1","""event"",""trial"",""time""
""focus"",""0"",""2""
""fullscreenenter"",""2"",""13812""
","
","""event"",""trial"",""time""
""focus"",""0"",""2""
","""event"",""trial"",""time""
""fullscreenenter"",""2"",""13812""
","
","","","","","","null","<div style=""font-size:60px;"">+</div>","null","","fixation","","","","","","","","","","",""
"aa-learning-trial","26","234404","0.0-8.0-2.0-1.0","3860","2","16","Female","approach_avoid_spark_v1","""event"",""trial"",""time""
""focus"",""0"",""2""
""fullscreenenter"",""2"",""13812""
","
","""event"",""trial"",""time""
""focus"",""0"",""2""
","""event"",""trial"",""time""
""fullscreenenter"",""2"",""13812""
","
","","","","","","2927","images/ball2.png","","","learning","-7","-7","1","1","practice","practice","practice","-1","","",""
"html-keyboard-response","27","234914","0.0-8.0-2.0-0.1","3860","2","16","Female","approach_avoid_spark_v1","""event"",""trial"",""time""
""focus"",""0"",""2""
""fullscreenenter"",""2"",""13812""
","
","""event"",""trial"",""time""
""focus"",""0"",""2""
","""event"",""trial"",""time""
""fullscreenenter"",""2"",""13812""
","
","","","","","","null","<div style=""font-size:60px;"">+</div>","null","","fixation","","","","","","","","","","",""
"aa-learning-trial","28","237924","0.0-8.0-2.0-1.1","3860","2","16","Female","approach_avoid_spark_v1","""event"",""trial"",""time""
""focus"",""0"",""2""
""fullscreenenter"",""2"",""13812""
","
","""event"",""trial"",""time""
""focus"",""0"",""2""
","""event"",""trial"",""time""
""fullscreenenter"",""2"",""13812""
","
","","","","","","1312","images/racket2.png","","","learning","5","5","1","1","practice","practice","practice","-1","","",""
"html-keyboard-response","29","238424","0.0-8.0-2.0-0.2","3860","2","16","Female","approach_avoid_spark_v1","""event"",""trial"",""time""
""focus"",""0"",""2""
""fullscreenenter"",""2"",""13812""
","
","""event"",""trial"",""time""
""focus"",""0"",""2""
","""event"",""trial"",""time""
""fullscreenenter"",""2"",""13812""
","
","","","","","","null","<div style=""font-size:60px;"">+</div>","null","","fixation","","","","","","","","","","",""
"aa-learning-trial","30","241429","0.0-8.0-2.0-1.2","3860","2","16","Female","approach_avoid_spark_v1","""event"",""trial"",""time""
""focus"",""0"",""2""
""fullscreenenter"",""2"",""13812""
","
","""event"",""trial"",""time""
""focus"",""0"",""2""
","""event"",""trial"",""time""
""fullscreenenter"",""2"",""13812""
","
","","","","","","967","images/ball3.png","","","learning","-3","-3","1","1","practice","practice","practice","-1","","",""
"html-keyboard-response","31","241931","0.0-8.0-2.0-0.3","3860","2","16","Female","approach_avoid_spark_v1","""event"",""trial"",""time""
""focus"",""0"",""2""
""fullscreenenter"",""2"",""13812""
","
","""event"",""trial"",""time""
""focus"",""0"",""2""
","""event"",""trial"",""time""
""fullscreenenter"",""2"",""13812""
","
","","","","","","null","<div style=""font-size:60px;"">+</div>","null","","fixation","","","","","","","","","","",""
"aa-learning-trial","32","244933","0.0-8.0-2.0-1.3","3860","2","16","Female","approach_avoid_spark_v1","""event"",""trial"",""time""
""focus"",""0"",""2""
""fullscreenenter"",""2"",""13812""
","
","""event"",""trial"",""time""
""focus"",""0"",""2""
","""event"",""trial"",""time""
""fullscreenenter"",""2"",""13812""
","
","","","","","","1072","images/racket2.png","","","learning","-9","0","0","0","practice","practice","practice","-1","","",""
"html-keyboard-response","33","245449","0.0-8.0-2.0-0.4","3860","2","16","Female","approach_avoid_spark_v1","""event"",""trial"",""time""
""focus"",""0"",""2""
""fullscreenenter"",""2"",""13812""
","
","""event"",""trial"",""time""
""focus"",""0"",""2""
","""event"",""trial"",""time""
""fullscreenenter"",""2"",""13812""
","
","","","","","","null","<div style=""font-size:60px;"">+</div>","null","","fixation","","","","","","","","","","",""
"aa-learning-trial","34","248452","0.0-8.0-2.0-1.4","3860","2","16","Female","approach_avoid_spark_v1","""event"",""trial"",""time""
""focus"",""0"",""2""
""fullscreenenter"",""2"",""13812""
","
","""event"",""trial"",""time""
""focus"",""0"",""2""
","""event"",""trial"",""time""
""fullscreenenter"",""2"",""13812""
","
","","","","","","535","images/racket2.png","","","learning","-2","-2","1","1","practice","practice","practice","-1","","",""
"html-keyboard-response","35","248969","0.0-8.0-2.0-0.5","3860","2","16","Female","approach_avoid_spark_v1","""event"",""trial"",""time""
""focus"",""0"",""2""
""fullscreenenter"",""2"",""13812""
","
","""event"",""trial"",""time""
""focus"",""0"",""2""
","""event"",""trial"",""time""
""fullscreenenter"",""2"",""13812""
","
","","","","","","null","<div style=""font-size:60px;"">+</div>","null","","fixation","","","","","","","","","","",""
"aa-learning-trial","36","251982","0.0-8.0-2.0-1.5","3860","2","16","Female","approach_avoid_spark_v1","""event"",""trial"",""time""
""focus"",""0"",""2""
""fullscreenenter"",""2"",""13812""
","
","""event"",""trial"",""time""
""focus"",""0"",""2""
","""event"",""trial"",""time""
""fullscreenenter"",""2"",""13812""
","
","","","","","","1094","images/ball3.png","","","learning","-5","-5","1","1","practice","practice","practice","-1","","",""
"html-keyboard-response","37","252493","0.0-8.0-2.0-0.6","3860","2","16","Female","approach_avoid_spark_v1","""event"",""trial"",""time""
""focus"",""0"",""2""
""fullscreenenter"",""2"",""13812""
","
","""event"",""trial"",""time""
""focus"",""0"",""2""
","""event"",""trial"",""time""
""fullscreenenter"",""2"",""13812""
","
","","","","","","null","<div style=""font-size:60px;"">+</div>","null","","fixation","","","","","","","","","","",""
"aa-learning-trial","38","255501","0.0-8.0-2.0-1.6","3860","2","16","Female","approach_avoid_spark_v1","""event"",""trial"",""time""
""focus"",""0"",""2""
""fullscreenenter"",""2"",""13812""
","
","""event"",""trial"",""time""
""focus"",""0"",""2""
","""event"",""trial"",""time""
""fullscreenenter"",""2"",""13812""
","
","","","","","","1194","images/racket3.png","","","learning","-9","-9","1","1","practice","practice","practice","-1","","",""
"html-keyboard-response","39","256016","0.0-8.0-2.0-0.7","3860","2","16","Female","approach_avoid_spark_v1","""event"",""trial"",""time""
""focus"",""0"",""2""
""fullscreenenter"",""2"",""13812""
","
","""event"",""trial"",""time""
""focus"",""0"",""2""
","""event"",""trial"",""time""
""fullscreenenter"",""2"",""13812""
","
","","","","","","null","<div style=""font-size:60px;"">+</div>","null","","fixation","","","","","","","","","","",""
"aa-learning-trial","40","259018","0.0-8.0-2.0-1.7","3860","2","16","Female","approach_avoid_spark_v1","""event"",""trial"",""time""
""focus"",""0"",""2""
""fullscreenenter"",""2"",""13812""
","
","""event"",""trial"",""time""
""focus"",""0"",""2""
","""event"",""trial"",""time""
""fullscreenenter"",""2"",""13812""
","
","","","","","","1127","images/racket3.png","","","learning","8","0","0","0","practice","practice","practice","-1","","",""
"html-keyboard-response","41","259519","0.0-8.0-2.0-0.8","3860","2","16","Female","approach_avoid_spark_v1","""event"",""trial"",""time""
""focus"",""0"",""2""
""fullscreenenter"",""2"",""13812""
","
","""event"",""trial"",""time""
""focus"",""0"",""2""
","""event"",""trial"",""time""
""fullscreenenter"",""2"",""13812""
","
","","","","","","null","<div style=""font-size:60px;"">+</div>","null","","fixation","","","","","","","","","","",""
"aa-learning-trial","42","262527","0.0-8.0-2.0-1.8","3860","2","16","Female","approach_avoid_spark_v1","""event"",""trial"",""time""
""focus"",""0"",""2""
""fullscreenenter"",""2"",""13812""
","
","""event"",""trial"",""time""
""focus"",""0"",""2""
","""event"",""trial"",""time""
""fullscreenenter"",""2"",""13812""
","
","","","","","","1129","images/ball2.png","","","learning","-3","-3","1","1","practice","practice","practice","-1","","",""
"html-keyboard-response","43","263043","0.0-8.0-2.0-0.9","3860","2","16","Female","approach_avoid_spark_v1","""event"",""trial"",""time""
""focus"",""0"",""2""
""fullscreenenter"",""2"",""13812""
","
","""event"",""trial"",""time""
""focus"",""0"",""2""
","""event"",""trial"",""time""
""fullscreenenter"",""2"",""13812""
","
","","","","","","null","<div style=""font-size:60px;"">+</div>","null","","fixation","","","","","","","","","","",""
"aa-learning-trial","44","266045","0.0-8.0-2.0-1.9","3860","2","16","Female","approach_avoid_spark_v1","""event"",""trial"",""time""
""focus"",""0"",""2""
""fullscreenenter"",""2"",""13812""
","
","""event"",""trial"",""time""
""focus"",""0"",""2""
","""event"",""trial"",""time""
""fullscreenenter"",""2"",""13812""
","
","","","","","","1253","images/racket2.png","","","learning","8","8","1","1","practice","practice","practice","-1","","",""
"html-keyboard-response","45","266560","0.0-8.0-2.0-0.10","3860","2","16","Female","approach_avoid_spark_v1","""event"",""trial"",""time""
""focus"",""0"",""2""
""fullscreenenter"",""2"",""13812""
","
","""event"",""trial"",""time""
""focus"",""0"",""2""
","""event"",""trial"",""time""
""fullscreenenter"",""2"",""13812""
","
","","","","","","null","<div style=""font-size:60px;"">+</div>","null","","fixation","","","","","","","","","","",""
"aa-learning-trial","46","269567","0.0-8.0-2.0-1.10","3860","2","16","Female","approach_avoid_spark_v1","""event"",""trial"",""time""
""focus"",""0"",""2""
""fullscreenenter"",""2"",""13812""
","
","""event"",""trial"",""time""
""focus"",""0"",""2""
","""event"",""trial"",""time""
""fullscreenenter"",""2"",""13812""
","
","","","","","","1341","images/racket1.png","","","learning","-5","-5","1","1","practice","practice","practice","-1","","",""
"html-keyboard-response","47","270083","0.0-8.0-2.0-0.11","3860","2","16","Female","approach_avoid_spark_v1","""event"",""trial"",""time""
""focus"",""0"",""2""
""fullscreenenter"",""2"",""13812""
","
","""event"",""trial"",""time""
""focus"",""0"",""2""
","""event"",""trial"",""time""
""fullscreenenter"",""2"",""13812""
","
","","","","","","null","<div style=""font-size:60px;"">+</div>","null","","fixation","","","","","","","","","","",""
"aa-learning-trial","48","273098","0.0-8.0-2.0-1.11","3860","2","16","Female","approach_avoid_spark_v1","""event"",""trial"",""time""
""focus"",""0"",""2""
""fullscreenenter"",""2"",""13812""
","
","""event"",""trial"",""time""
""focus"",""0"",""2""
","""event"",""trial"",""time""
""fullscreenenter"",""2"",""13812""
","
","","","","","","1071","images/ball2.png","","","learning","-4","-4","1","1","practice","practice","practice","-1","","",""
"html-button-response","49","276111","0.0-8.0-3.0","3860","2","16","Female","approach_avoid_spark_v1","""event"",""trial"",""time""
""focus"",""0"",""2""
""fullscreenenter"",""2"",""13812""
","
","""event"",""trial"",""time""
""focus"",""0"",""2""
","""event"",""trial"",""time""
""fullscreenenter"",""2"",""13812""
","
","","","","","","3010","<p> You earned -25 points in the practice round! </p>","0","","break","","","","","","","","","","",""
"learning-instructions","50","284373","0.0-8.0-4.0-0.0","3860","2","16","Female","approach_avoid_spark_v1","""event"",""trial"",""time""
""focus"",""0"",""2""
""fullscreenenter"",""2"",""13812""
","
","""event"",""trial"",""time""
""focus"",""0"",""2""
","""event"",""trial"",""time""
""fullscreenenter"",""2"",""13812""
","
","","","","","","2294","<p> It's almost time to start the real game. </p><p> Before you start, we're going to ask you a few questions about how the game works. </p>","","0","instructions","","","","","","","","","","",""
"preload","51","286901","0.0-8.0-5.0","3860","2","16","Female","approach_avoid_spark_v1","""event"",""trial"",""time""
""focus"",""0"",""2""
""fullscreenenter"",""2"",""13812""
","
","""event"",""trial"",""time""
""focus"",""0"",""2""
","""event"",""trial"",""time""
""fullscreenenter"",""2"",""13812""
","
","true","false","[]","[]","[]","","","","","","","","","","","","","","","",""
"comp-q","52","293487","0.0-8.0-6.0-0.0","3860","2","16","Female","approach_avoid_spark_v1","""event"",""trial"",""time""
""focus"",""0"",""2""
""fullscreenenter"",""2"",""13812""
","
","""event"",""trial"",""time""
""focus"",""0"",""2""
","""event"",""trial"",""time""
""fullscreenenter"",""2"",""13812""
","
","","","","","","1581","<p> <b> True or False? </b> </p><p> If you see a number in GREY, that means you earned that many points. </p>","","1","comp_question","","","","","","","","","true","",""
"comp-q","53","303479","0.0-8.0-6.0-1.0","3860","2","16","Female","approach_avoid_spark_v1","""event"",""trial"",""time""
""focus"",""0"",""2""
""fullscreenenter"",""2"",""13812""
","
","""event"",""trial"",""time""
""focus"",""0"",""2""
","""event"",""trial"",""time""
""fullscreenenter"",""2"",""13812""
","
","","","","","","1611","<p><b> That's right! </b> If you see a grey number, it means you earned ZERO points. <br> The grey numbers show the points you WOULD HAVE earned if you had made the other choice. </p>","","0","comp_answer","","","","","","","","","","",""
"comp-q","54","308930","0.0-8.0-7.0-0.0","3860","2","16","Female","approach_avoid_spark_v1","""event"",""trial"",""time""
""focus"",""0"",""2""
""fullscreenenter"",""2"",""13812""
","
","""event"",""trial"",""time""
""focus"",""0"",""2""
","""event"",""trial"",""time""
""fullscreenenter"",""2"",""13812""
","
","","","","","","753","<p> <b> True or False? </b> </p><p> You will have as much time as you want to make each choice. </p>","","1","comp_question","","","","","","","","","true","",""
"comp-q","55","314606","0.0-8.0-7.0-1.0","3860","2","16","Female","approach_avoid_spark_v1","""event"",""trial"",""time""
""focus"",""0"",""2""
""fullscreenenter"",""2"",""13812""
","
","""event"",""trial"",""time""
""focus"",""0"",""2""
","""event"",""trial"",""time""
""fullscreenenter"",""2"",""13812""
","
","","","","","","1629","<p> <b> That's right! </b> You will only have 3 seconds to make each choice. </p>","","0","comp_answer","","","","","","","","","","",""
"comp-q","56","320412","0.0-8.0-8.0-0.0","3860","2","16","Female","approach_avoid_spark_v1","""event"",""trial"",""time""
""focus"",""0"",""2""
""fullscreenenter"",""2"",""13812""
","
","""event"",""trial"",""time""
""focus"",""0"",""2""
","""event"",""trial"",""time""
""fullscreenenter"",""2"",""13812""
","
","","","","","","1145","<p> <b> True or False? </b> </p><p> You should use the '1' and '0' keys to make your choices. </p>","","0","comp_question","","","","","","","","","true","",""
"comp-q","57","326944","0.0-8.0-8.0-1.0","3860","2","16","Female","approach_avoid_spark_v1","""event"",""trial"",""time""
""focus"",""0"",""2""
""fullscreenenter"",""2"",""13812""
","
","""event"",""trial"",""time""
""focus"",""0"",""2""
","""event"",""trial"",""time""
""fullscreenenter"",""2"",""13812""
","
","","","","","","1907","<p> <b> That's right! </b> You should use the '1' and '0' keys to make each choice. </p>","","0","comp_answer","","","","","","","","","","",""
"learning-instructions","58","334996","0.0-8.0-9.0-0.0","3860","2","16","Female","approach_avoid_spark_v1","""event"",""trial"",""time""
""focus"",""0"",""2""
""fullscreenenter"",""2"",""13812""
","
","""event"",""trial"",""time""
""focus"",""0"",""2""
","""event"",""trial"",""time""
""fullscreenenter"",""2"",""13812""
","
","","","","","","1758","<p> It's now time to start the real game. </p>Do your best, because the points you earn in the next rounds will influence your bonus payment. </p>","","0","instructions","","","","","","","","","","",""
"preload","59","335133","0.0-9.0-0.0","3860","2","16","Female","approach_avoid_spark_v1","""event"",""trial"",""time""
""focus"",""0"",""2""
""fullscreenenter"",""2"",""13812""
","
","""event"",""trial"",""time""
""focus"",""0"",""2""
","""event"",""trial"",""time""
""fullscreenenter"",""2"",""13812""
","
","true","false","[]","[]","[]","","","","","","","","","","","","","","","",""
"learning-instructions","60","341494","0.0-9.0-1.0-0.0","3860","2","16","Female","approach_avoid_spark_v1","""event"",""trial"",""time""
""focus"",""0"",""2""
""fullscreenenter"",""2"",""13812""
","
","""event"",""trial"",""time""
""focus"",""0"",""2""
","""event"",""trial"",""time""
""fullscreenenter"",""2"",""13812""
","
","","","","","","2595","<p> Your goal in this round is to take care of lots of animals. </p></div>","","0","instructions","","","","","","","","","","",""
"learning-instructions","61","352178","0.0-9.0-1.0-0.1","3860","2","16","Female","approach_avoid_spark_v1","""event"",""trial"",""time""
""focus"",""0"",""2""
""fullscreenenter"",""2"",""13812""
","
","""event"",""trial"",""time""
""focus"",""0"",""2""
","""event"",""trial"",""time""
""fullscreenenter"",""2"",""13812""
","
","","","","","","1241","<p> Some animals want to be pet, while other animals want to be left alone.  </p><p> On each turn, you will see an animal.   </p><p> You need to decide whether to pet it or not.  </p>","","0","instructions","","","","","","","","","","",""
"learning-instructions","62","358269","0.0-9.0-1.0-0.2","3860","2","16","Female","approach_avoid_spark_v1","""event"",""trial"",""time""
""focus"",""0"",""2""
""fullscreenenter"",""2"",""13812""
","
","""event"",""trial"",""time""
""focus"",""0"",""2""
","""event"",""trial"",""time""
""fullscreenenter"",""2"",""13812""
","
","","","","","","1011","<p> You can pet the animal by pressing 1 and leave the animal alone by pressing 0. </p><br><div class=""choice-instructions-grid""> <div class=""choice-option""><img src=""images/approach.png"" class=""choice-option-img"" stage=""instructions"" position=""0"" ><div class=""choice-option-text""> Press ""1."" </div></div><div class=""choice-option""><img src=""images/avoid.png"" class=""choice-option-img"" stage=""instructions"" position=""1"" ><div class=""choice-option-text""> Press ""0."" </div></div>","","0","instructions","","","","","","","","","","",""
"learning-instructions","63","368652","0.0-9.0-1.0-0.3","3860","2","16","Female","approach_avoid_spark_v1","""event"",""trial"",""time""
""focus"",""0"",""2""
""fullscreenenter"",""2"",""13812""
","
","""event"",""trial"",""time""
""focus"",""0"",""2""
","""event"",""trial"",""time""
""fullscreenenter"",""2"",""13812""
","
","","","","","","1722","<p> If you pet an animal that wants to be pet, you will make it feel happy! </p><p> But if you pet an animal that wants to be left alone, you will make it feel angry. </p>","","0","instructions","","","","","","","","","","",""
"learning-instructions","64","381981","0.0-9.0-1.0-0.4","3860","2","16","Female","approach_avoid_spark_v1","""event"",""trial"",""time""
""focus"",""0"",""2""
""fullscreenenter"",""2"",""13812""
","
","""event"",""trial"",""time""
""focus"",""0"",""2""
","""event"",""trial"",""time""
""fullscreenenter"",""2"",""13812""
","
","","","","","","1015","<p> You will earn points based on how you made the animal feel. </p><p> If you made it feel happy, you will WIN anywhere from 1 - 9 points, </p><p> but if you made it feel angry, you will LOSE anywhere from 1 - 9 points. </p>","","0","instructions","","","","","","","","","","",""
"learning-instructions","65","391265","0.0-9.0-1.0-0.5","3860","2","16","Female","approach_avoid_spark_v1","""event"",""trial"",""time""
""focus"",""0"",""2""
""fullscreenenter"",""2"",""13812""
","
","""event"",""trial"",""time""
""focus"",""0"",""2""
","""event"",""trial"",""time""
""fullscreenenter"",""2"",""13812""
","
","","","","","","1239","<p> You will see how many points you won or lost in the center of the screen. </p><p> Here is what you would see if you won 5 points: </p><p style=""color:green;font-size:50px;font-weight:bolder"">5</p>","","0","instructions","","","","","","","","","","",""
"learning-instructions","66","396457","0.0-9.0-1.0-0.6","3860","2","16","Female","approach_avoid_spark_v1","""event"",""trial"",""time""
""focus"",""0"",""2""
""fullscreenenter"",""2"",""13812""
","
","""event"",""trial"",""time""
""focus"",""0"",""2""
","""event"",""trial"",""time""
""fullscreenenter"",""2"",""13812""
","
","","","","","","1608","<p> And here is what you would see if you lost 3 points: </p><p style=""color:red;font-size:50px;font-weight:bolder"">-3</p>","","0","instructions","","","","","","","","","","",""
"learning-instructions","67","426643","0.0-9.0-1.0-0.7","3860","2","16","Female","approach_avoid_spark_v1","""event"",""trial"",""time""
""focus"",""0"",""2""
""fullscreenenter"",""2"",""13812""
","
","""event"",""trial"",""time""
""focus"",""0"",""2""
","""event"",""trial"",""time""
""fullscreenenter"",""2"",""13812""
","
","","","","","","12576","<p> Some animals will become very happy or very angry. </p><p> These animals will make you win or lose LOTS of points. </p><p> Other animals have less strong feelings. </p><p> These animals will make you win or lose small amounts of points. </p>","","0","instructions","","","","","","","","","","",""
"learning-instructions","68","441080","0.0-9.0-1.0-0.8","3860","2","16","Female","approach_avoid_spark_v1","""event"",""trial"",""time""
""focus"",""0"",""2""
""fullscreenenter"",""2"",""13812""
","
","""event"",""trial"",""time""
""focus"",""0"",""2""
","""event"",""trial"",""time""
""fullscreenenter"",""2"",""13812""
","
","","","","","","1864","<p> If you choose to leave the animal alone, you will not win or lose any points. </p><p>  However, in the center of the screen, you will see the number of points you WOULD HAVE won or lost if you had pet the animal. </p>","","0","instructions","","","","","","","","","","",""
"learning-instructions","69","455363","0.0-9.0-1.0-0.9","3860","2","16","Female","approach_avoid_spark_v1","""event"",""trial"",""time""
""focus"",""0"",""2""
""fullscreenenter"",""2"",""13812""
","
","""event"",""trial"",""time""
""focus"",""0"",""2""
","""event"",""trial"",""time""
""fullscreenenter"",""2"",""13812""
","
","","","","","","2187","<p> Here is what you might see if you did not pet the animal but the animal wanted to be pet: </p><p style=""color:grey; font-size:50px; display: inline-block; border-spacing: 15px; border-width:3px; border-style:solid; border-color:red"">  &nbsp; 6 &nbsp; </p><p> Remember, in this case, you would not win or lose ANY points because you did not pet the animal.  </p>","","0","instructions","","","","","","","","","","",""
"learning-instructions","70","464323","0.0-9.0-1.0-0.10","3860","2","16","Female","approach_avoid_spark_v1","""event"",""trial"",""time""
""focus"",""0"",""2""
""fullscreenenter"",""2"",""13812""
","
","""event"",""trial"",""time""
""focus"",""0"",""2""
","""event"",""trial"",""time""
""fullscreenenter"",""2"",""13812""
","
","","","","","","1355","<p> Try to make the best choice for each animal because </p><p> at the end of the game, you will earn bonus money based on how many points you earned. </p>","","0","instructions","","","","","","","","","","",""
"learning-instructions","71","473244","0.0-9.0-1.0-0.11","3860","2","16","Female","approach_avoid_spark_v1","""event"",""trial"",""time""
""focus"",""0"",""2""
""fullscreenenter"",""2"",""13812""
","
","""event"",""trial"",""time""
""focus"",""0"",""2""
","""event"",""trial"",""time""
""fullscreenenter"",""2"",""13812""
","
","","","","","","716","<p> You will have 3 seconds to make each choice. Try to respond before time runs out! </p><p> You will lose 5 points each time you do not make a response. </p>","","0","instructions","","","","","","","","","","",""
"html-keyboard-response","72","473871","0.0-9.0-2.0-0.0","3860","2","16","Female","approach_avoid_spark_v1","""event"",""trial"",""time""
""focus"",""0"",""2""
""fullscreenenter"",""2"",""13812""
","
","""event"",""trial"",""time""
""focus"",""0"",""2""
","""event"",""trial"",""time""
""fullscreenenter"",""2"",""13812""
","
","","","","","","null","<div style=""font-size:60px;"">+</div>","null","","fixation","","","","","","","","","","",""
"aa-learning-trial","73","476877","0.0-9.0-2.0-1.0","3860","2","16","Female","approach_avoid_spark_v1","""event"",""trial"",""time""
""focus"",""0"",""2""
""fullscreenenter"",""2"",""13812""
","
","""event"",""trial"",""time""
""focus"",""0"",""2""
","""event"",""trial"",""time""
""fullscreenenter"",""2"",""13812""
","
","","","","","","1805","images/dog2.png","","","learning","4","4","1","1","dog","pets","2","0","","bad","[-3]"
"html-keyboard-response","74","477379","0.0-9.0-2.0-0.1","3860","2","16","Female","approach_avoid_spark_v1","""event"",""trial"",""time""
""focus"",""0"",""2""
""fullscreenenter"",""2"",""13812""
","
","""event"",""trial"",""time""
""focus"",""0"",""2""
","""event"",""trial"",""time""
""fullscreenenter"",""2"",""13812""
","
","","","","","","null","<div style=""font-size:60px;"">+</div>","null","","fixation","","","","","","","","","","",""
"aa-learning-trial","75","480385","0.0-9.0-2.0-1.1","3860","2","16","Female","approach_avoid_spark_v1","""event"",""trial"",""time""
""focus"",""0"",""2""
""fullscreenenter"",""2"",""13812""
","
","""event"",""trial"",""time""
""focus"",""0"",""2""
","""event"",""trial"",""time""
""fullscreenenter"",""2"",""13812""
","
","","","","","","1204","images/dog8.png","","","learning","1","0","0","0","dog","pets","2","0","","bad","[-3]"
"html-keyboard-response","76","480898","0.0-9.0-2.0-0.2","3860","2","16","Female","approach_avoid_spark_v1","""event"",""trial"",""time""
""focus"",""0"",""2""
""fullscreenenter"",""2"",""13812""
","
","""event"",""trial"",""time""
""focus"",""0"",""2""
","""event"",""trial"",""time""
""fullscreenenter"",""2"",""13812""
","
","","","","","","null","<div style=""font-size:60px;"">+</div>","null","","fixation","","","","","","","","","","",""
"aa-learning-trial","77","483913","0.0-9.0-2.0-1.2","3860","2","16","Female","approach_avoid_spark_v1","""event"",""trial"",""time""
""focus"",""0"",""2""
""fullscreenenter"",""2"",""13812""
","
","""event"",""trial"",""time""
""focus"",""0"",""2""
","""event"",""trial"",""time""
""fullscreenenter"",""2"",""13812""
","
","","","","","","1170","images/dog3.png","","","learning","7","7","1","1","dog","pets","2","0","","bad","[-3]"
"html-keyboard-response","78","484427","0.0-9.0-2.0-0.3","3860","2","16","Female","approach_avoid_spark_v1","""event"",""trial"",""time""
""focus"",""0"",""2""
""fullscreenenter"",""2"",""13812""
","
","""event"",""trial"",""time""
""focus"",""0"",""2""
","""event"",""trial"",""time""
""fullscreenenter"",""2"",""13812""
","
","","","","","","null","<div style=""font-size:60px;"">+</div>","null","","fixation","","","","","","","","","","",""
"aa-learning-trial","79","487437","0.0-9.0-2.0-1.3","3860","2","16","Female","approach_avoid_spark_v1","""event"",""trial"",""time""
""focus"",""0"",""2""
""fullscreenenter"",""2"",""13812""
","
","""event"",""trial"",""time""
""focus"",""0"",""2""
","""event"",""trial"",""time""
""fullscreenenter"",""2"",""13812""
","
","","","","","","800","images/rabbit2.png","","","learning","-4","-4","1","1","rabbit","pets","2","0","","neutral","0"
"html-keyboard-response","80","487948","0.0-9.0-2.0-0.4","3860","2","16","Female","approach_avoid_spark_v1","""event"",""trial"",""time""
""focus"",""0"",""2""
""fullscreenenter"",""2"",""13812""
","
","""event"",""trial"",""time""
""focus"",""0"",""2""
","""event"",""trial"",""time""
""fullscreenenter"",""2"",""13812""
","
","","","","","","null","<div style=""font-size:60px;"">+</div>","null","","fixation","","","","","","","","","","",""
"aa-learning-trial","81","490961","0.0-9.0-2.0-1.4","3860","2","16","Female","approach_avoid_spark_v1","""event"",""trial"",""time""
""focus"",""0"",""2""
""fullscreenenter"",""2"",""13812""
","
","""event"",""trial"",""time""
""focus"",""0"",""2""
","""event"",""trial"",""time""
""fullscreenenter"",""2"",""13812""
","
","","","","","","974","images/dog3.png","","","learning","7","7","1","1","dog","pets","2","0","","bad","[-3]"
"html-keyboard-response","82","491478","0.0-9.0-2.0-0.5","3860","2","16","Female","approach_avoid_spark_v1","""event"",""trial"",""time""
""focus"",""0"",""2""
""fullscreenenter"",""2"",""13812""
","
","""event"",""trial"",""time""
""focus"",""0"",""2""
","""event"",""trial"",""time""
""fullscreenenter"",""2"",""13812""
","
","","","","","","null","<div style=""font-size:60px;"">+</div>","null","","fixation","","","","","","","","","","",""
"aa-learning-trial","83","494494","0.0-9.0-2.0-1.5","3860","2","16","Female","approach_avoid_spark_v1","""event"",""trial"",""time""
""focus"",""0"",""2""
""fullscreenenter"",""2"",""13812""
","
","""event"",""trial"",""time""
""focus"",""0"",""2""
","""event"",""trial"",""time""
""fullscreenenter"",""2"",""13812""
","
","","","","","","983","images/cat2.png","","","learning","-3","-3","1","1","cat","pets","2","0","","good","[5]"
"html-keyboard-response","84","495010","0.0-9.0-2.0-0.6","3860","2","16","Female","approach_avoid_spark_v1","""event"",""trial"",""time""
""focus"",""0"",""2""
""fullscreenenter"",""2"",""13812""
","
","""event"",""trial"",""time""
""focus"",""0"",""2""
","""event"",""trial"",""time""
""fullscreenenter"",""2"",""13812""
","
","","","","","","null","<div style=""font-size:60px;"">+</div>","null","","fixation","","","","","","","","","","",""
"aa-learning-trial","85","498019","0.0-9.0-2.0-1.6","3860","2","16","Female","approach_avoid_spark_v1","""event"",""trial"",""time""
""focus"",""0"",""2""
""fullscreenenter"",""2"",""13812""
","
","""event"",""trial"",""time""
""focus"",""0"",""2""
","""event"",""trial"",""time""
""fullscreenenter"",""2"",""13812""
","
","","","","","","1262","images/cat1.png","","","learning","-9","0","0","0","cat","pets","2","0","","good","[5]"
"html-keyboard-response","86","498534","0.0-9.0-2.0-0.7","3860","2","16","Female","approach_avoid_spark_v1","""event"",""trial"",""time""
""focus"",""0"",""2""
""fullscreenenter"",""2"",""13812""
","
","""event"",""trial"",""time""
""focus"",""0"",""2""
","""event"",""trial"",""time""
""fullscreenenter"",""2"",""13812""
","
","","","","","","null","<div style=""font-size:60px;"">+</div>","null","","fixation","","","","","","","","","","",""
"aa-learning-trial","87","501551","0.0-9.0-2.0-1.7","3860","2","16","Female","approach_avoid_spark_v1","""event"",""trial"",""time""
""focus"",""0"",""2""
""fullscreenenter"",""2"",""13812""
","
","""event"",""trial"",""time""
""focus"",""0"",""2""
","""event"",""trial"",""time""
""fullscreenenter"",""2"",""13812""
","
","","","","","","1248","images/cat5.png","","","learning","5","0","0","0","cat","pets","2","0","","good","[5]"
"html-keyboard-response","88","502063","0.0-9.0-2.0-0.8","3860","2","16","Female","approach_avoid_spark_v1","""event"",""trial"",""time""
""focus"",""0"",""2""
""fullscreenenter"",""2"",""13812""
","
","""event"",""trial"",""time""
""focus"",""0"",""2""
","""event"",""trial"",""time""
""fullscreenenter"",""2"",""13812""
","
","","","","","","null","<div style=""font-size:60px;"">+</div>","null","","fixation","","","","","","","","","","",""
"aa-learning-trial","89","505067","0.0-9.0-2.0-1.8","3860","2","16","Female","approach_avoid_spark_v1","""event"",""trial"",""time""
""focus"",""0"",""2""
""fullscreenenter"",""2"",""13812""
","
","""event"",""trial"",""time""
""focus"",""0"",""2""
","""event"",""trial"",""time""
""fullscreenenter"",""2"",""13812""
","
","","","","","","749","images/dog2.png","","","learning","4","4","1","1","dog","pets","2","0","","bad","[-3]"
"html-keyboard-response","90","505581","0.0-9.0-2.0-0.9","3860","2","16","Female","approach_avoid_spark_v1","""event"",""trial"",""time""
""focus"",""0"",""2""
""fullscreenenter"",""2"",""13812""
","
","""event"",""trial"",""time""
""focus"",""0"",""2""
","""event"",""trial"",""time""
""fullscreenenter"",""2"",""13812""
","
","","","","","","null","<div style=""font-size:60px;"">+</div>","null","","fixation","","","","","","","","","","",""
"aa-learning-trial","91","508587","0.0-9.0-2.0-1.9","3860","2","16","Female","approach_avoid_spark_v1","""event"",""trial"",""time""
""focus"",""0"",""2""
""fullscreenenter"",""2"",""13812""
","
","""event"",""trial"",""time""
""focus"",""0"",""2""
","""event"",""trial"",""time""
""fullscreenenter"",""2"",""13812""
","
","","","","","","1210","images/rabbit1.png","","","learning","9","0","0","0","rabbit","pets","2","0","","neutral","0"
"html-keyboard-response","92","509103","0.0-9.0-2.0-0.10","3860","2","16","Female","approach_avoid_spark_v1","""event"",""trial"",""time""
""focus"",""0"",""2""
""fullscreenenter"",""2"",""13812""
","
","""event"",""trial"",""time""
""focus"",""0"",""2""
","""event"",""trial"",""time""
""fullscreenenter"",""2"",""13812""
","
","","","","","","null","<div style=""font-size:60px;"">+</div>","null","","fixation","","","","","","","","","","",""
"aa-learning-trial","93","512110","0.0-9.0-2.0-1.10","3860","2","16","Female","approach_avoid_spark_v1","""event"",""trial"",""time""
""focus"",""0"",""2""
""fullscreenenter"",""2"",""13812""
","
","""event"",""trial"",""time""
""focus"",""0"",""2""
","""event"",""trial"",""time""
""fullscreenenter"",""2"",""13812""
","
","","","","","","1004","images/cat2.png","","","learning","-3","0","0","0","cat","pets","2","0","","good","[5]"
"html-keyboard-response","94","512626","0.0-9.0-2.0-0.11","3860","2","16","Female","approach_avoid_spark_v1","""event"",""trial"",""time""
""focus"",""0"",""2""
""fullscreenenter"",""2"",""13812""
","
","""event"",""trial"",""time""
""focus"",""0"",""2""
","""event"",""trial"",""time""
""fullscreenenter"",""2"",""13812""
","
","","","","","","null","<div style=""font-size:60px;"">+</div>","null","","fixation","","","","","","","","","","",""
"aa-learning-trial","95","515632","0.0-9.0-2.0-1.11","3860","2","16","Female","approach_avoid_spark_v1","""event"",""trial"",""time""
""focus"",""0"",""2""
""fullscreenenter"",""2"",""13812""
","
","""event"",""trial"",""time""
""focus"",""0"",""2""
","""event"",""trial"",""time""
""fullscreenenter"",""2"",""13812""
","
","","","","","","901","images/rabbit1.png","","","learning","9","0","0","0","rabbit","pets","2","0","","neutral","0"
"html-keyboard-response","96","516134","0.0-9.0-2.0-0.12","3860","2","16","Female","approach_avoid_spark_v1","""event"",""trial"",""time""
""focus"",""0"",""2""
""fullscreenenter"",""2"",""13812""
","
","""event"",""trial"",""time""
""focus"",""0"",""2""
","""event"",""trial"",""time""
""fullscreenenter"",""2"",""13812""
","
","","","","","","null","<div style=""font-size:60px;"">+</div>","null","","fixation","","","","","","","","","","",""
"aa-learning-trial","97","519150","0.0-9.0-2.0-1.12","3860","2","16","Female","approach_avoid_spark_v1","""event"",""trial"",""time""
""focus"",""0"",""2""
""fullscreenenter"",""2"",""13812""
","
","""event"",""trial"",""time""
""focus"",""0"",""2""
","""event"",""trial"",""time""
""fullscreenenter"",""2"",""13812""
","
","","","","","","979","images/rabbit4.png","","","learning","3","3","1","1","rabbit","pets","2","0","","neutral","0"
"html-keyboard-response","98","519651","0.0-9.0-2.0-0.13","3860","2","16","Female","approach_avoid_spark_v1","""event"",""trial"",""time""
""focus"",""0"",""2""
""fullscreenenter"",""2"",""13812""
","
","""event"",""trial"",""time""
""focus"",""0"",""2""
","""event"",""trial"",""time""
""fullscreenenter"",""2"",""13812""
","
","","","","","","null","<div style=""font-size:60px;"">+</div>","null","","fixation","","","","","","","","","","",""
"aa-learning-trial","99","522668","0.0-9.0-2.0-1.13","3860","2","16","Female","approach_avoid_spark_v1","""event"",""trial"",""time""
""focus"",""0"",""2""
""fullscreenenter"",""2"",""13812""
","
","""event"",""trial"",""time""
""focus"",""0"",""2""
","""event"",""trial"",""time""
""fullscreenenter"",""2"",""13812""
","
","","","","","","421","images/cat5.png","","","learning","5","5","1","1","cat","pets","2","0","","good","[5]"
"html-keyboard-response","100","523170","0.0-9.0-2.0-0.14","3860","2","16","Female","approach_avoid_spark_v1","""event"",""trial"",""time""
""focus"",""0"",""2""
""fullscreenenter"",""2"",""13812""
","
","""event"",""trial"",""time""
""focus"",""0"",""2""
","""event"",""trial"",""time""
""fullscreenenter"",""2"",""13812""
","
","","","","","","null","<div style=""font-size:60px;"">+</div>","null","","fixation","","","","","","","","","","",""
"aa-learning-trial","101","526185","0.0-9.0-2.0-1.14","3860","2","16","Female","approach_avoid_spark_v1","""event"",""trial"",""time""
""focus"",""0"",""2""
""fullscreenenter"",""2"",""13812""
","
","""event"",""trial"",""time""
""focus"",""0"",""2""
","""event"",""trial"",""time""
""fullscreenenter"",""2"",""13812""
","
","","","","","","826","images/rabbit4.png","","","learning","3","3","1","1","rabbit","pets","2","0","","neutral","0"
"html-keyboard-response","102","526699","0.0-9.0-2.0-0.15","3860","2","16","Female","approach_avoid_spark_v1","""event"",""trial"",""time""
""focus"",""0"",""2""
""fullscreenenter"",""2"",""13812""
","
","""event"",""trial"",""time""
""focus"",""0"",""2""
","""event"",""trial"",""time""
""fullscreenenter"",""2"",""13812""
","
","","","","","","null","<div style=""font-size:60px;"">+</div>","null","","fixation","","","","","","","","","","",""
"aa-learning-trial","103","529705","0.0-9.0-2.0-1.15","3860","2","16","Female","approach_avoid_spark_v1","""event"",""trial"",""time""
""focus"",""0"",""2""
""fullscreenenter"",""2"",""13812""
","
","""event"",""trial"",""time""
""focus"",""0"",""2""
","""event"",""trial"",""time""
""fullscreenenter"",""2"",""13812""
","
","","","","","","722","images/rabbit4.png","","","learning","3","0","0","0","rabbit","pets","2","0","","neutral","0"
"html-keyboard-response","104","530208","0.0-9.0-2.0-0.16","3860","2","16","Female","approach_avoid_spark_v1","""event"",""trial"",""time""
""focus"",""0"",""2""
""fullscreenenter"",""2"",""13812""
","
","""event"",""trial"",""time""
""focus"",""0"",""2""
","""event"",""trial"",""time""
""fullscreenenter"",""2"",""13812""
","
","","","","","","null","<div style=""font-size:60px;"">+</div>","null","","fixation","","","","","","","","","","",""
"aa-learning-trial","105","533215","0.0-9.0-2.0-1.16","3860","2","16","Female","approach_avoid_spark_v1","""event"",""trial"",""time""
""focus"",""0"",""2""
""fullscreenenter"",""2"",""13812""
","
","""event"",""trial"",""time""
""focus"",""0"",""2""
","""event"",""trial"",""time""
""fullscreenenter"",""2"",""13812""
","
","","","","","","104","images/cat5.png","","","learning","5","5","1","1","cat","pets","2","0","","good","[5]"
"html-keyboard-response","106","533727","0.0-9.0-2.0-0.17","3860","2","16","Female","approach_avoid_spark_v1","""event"",""trial"",""time""
""focus"",""0"",""2""
""fullscreenenter"",""2"",""13812""
","
","""event"",""trial"",""time""
""focus"",""0"",""2""
","""event"",""trial"",""time""
""fullscreenenter"",""2"",""13812""
","
","","","","","","null","<div style=""font-size:60px;"">+</div>","null","","fixation","","","","","","","","","","",""
"aa-learning-trial","107","536733","0.0-9.0-2.0-1.17","3860","2","16","Female","approach_avoid_spark_v1","""event"",""trial"",""time""
""focus"",""0"",""2""
""fullscreenenter"",""2"",""13812""
","
","""event"",""trial"",""time""
""focus"",""0"",""2""
","""event"",""trial"",""time""
""fullscreenenter"",""2"",""13812""
","
","","","","","","770","images/cat5.png","","","learning","5","5","1","1","cat","pets","2","0","","good","[5]"
"html-keyboard-response","108","537246","0.0-9.0-2.0-0.18","3860","2","16","Female","approach_avoid_spark_v1","""event"",""trial"",""time""
""focus"",""0"",""2""
""fullscreenenter"",""2"",""13812""
","
","""event"",""trial"",""time""
""focus"",""0"",""2""
","""event"",""trial"",""time""
""fullscreenenter"",""2"",""13812""
","
","","","","","","null","<div style=""font-size:60px;"">+</div>","null","","fixation","","","","","","","","","","",""
"aa-learning-trial","109","540263","0.0-9.0-2.0-1.18","3860","2","16","Female","approach_avoid_spark_v1","""event"",""trial"",""time""
""focus"",""0"",""2""
""fullscreenenter"",""2"",""13812""
","
","""event"",""trial"",""time""
""focus"",""0"",""2""
","""event"",""trial"",""time""
""fullscreenenter"",""2"",""13812""
","
","","","","","","1206","images/dog5.png","","","learning","-5","-5","1","1","dog","pets","2","0","","bad","[-3]"
"html-keyboard-response","110","540779","0.0-9.0-2.0-0.19","3860","2","16","Female","approach_avoid_spark_v1","""event"",""trial"",""time""
""focus"",""0"",""2""
""fullscreenenter"",""2"",""13812""
","
","""event"",""trial"",""time""
""focus"",""0"",""2""
","""event"",""trial"",""time""
""fullscreenenter"",""2"",""13812""
","
","","","","","","null","<div style=""font-size:60px;"">+</div>","null","","fixation","","","","","","","","","","",""
"aa-learning-trial","111","543798","0.0-9.0-2.0-1.19","3860","2","16","Female","approach_avoid_spark_v1","""event"",""trial"",""time""
""focus"",""0"",""2""
""fullscreenenter"",""2"",""13812""
","
","""event"",""trial"",""time""
""focus"",""0"",""2""
","""event"",""trial"",""time""
""fullscreenenter"",""2"",""13812""
","
","","","","","","1048","images/rabbit2.png","","","learning","-4","-4","1","1","rabbit","pets","2","0","","neutral","0"
"html-keyboard-response","112","544313","0.0-9.0-2.0-0.20","3860","2","16","Female","approach_avoid_spark_v1","""event"",""trial"",""time""
""focus"",""0"",""2""
""fullscreenenter"",""2"",""13812""
","
","""event"",""trial"",""time""
""focus"",""0"",""2""
","""event"",""trial"",""time""
""fullscreenenter"",""2"",""13812""
","
","","","","","","null","<div style=""font-size:60px;"">+</div>","null","","fixation","","","","","","","","","","",""
"aa-learning-trial","113","547323","0.0-9.0-2.0-1.20","3860","2","16","Female","approach_avoid_spark_v1","""event"",""trial"",""time""
""focus"",""0"",""2""
""fullscreenenter"",""2"",""13812""
","
","""event"",""trial"",""time""
""focus"",""0"",""2""
","""event"",""trial"",""time""
""fullscreenenter"",""2"",""13812""
","
","","","","","","976","images/rabbit4.png","","","learning","3","3","1","1","rabbit","pets","2","0","","neutral","0"
"html-keyboard-response","114","547840","0.0-9.0-2.0-0.21","3860","2","16","Female","approach_avoid_spark_v1","""event"",""trial"",""time""
""focus"",""0"",""2""
""fullscreenenter"",""2"",""13812""
","
","""event"",""trial"",""time""
""focus"",""0"",""2""
","""event"",""trial"",""time""
""fullscreenenter"",""2"",""13812""
","
","","","","","","null","<div style=""font-size:60px;"">+</div>","null","","fixation","","","","","","","","","","",""
"aa-learning-trial","115","550854","0.0-9.0-2.0-1.21","3860","2","16","Female","approach_avoid_spark_v1","""event"",""trial"",""time""
""focus"",""0"",""2""
""fullscreenenter"",""2"",""13812""
","
","""event"",""trial"",""time""
""focus"",""0"",""2""
","""event"",""trial"",""time""
""fullscreenenter"",""2"",""13812""
","
","","","","","","984","images/dog3.png","","","learning","7","7","1","1","dog","pets","2","0","","bad","[-3]"
"html-keyboard-response","116","551367","0.0-9.0-2.0-0.22","3860","2","16","Female","approach_avoid_spark_v1","""event"",""trial"",""time""
""focus"",""0"",""2""
""fullscreenenter"",""2"",""13812""
","
","""event"",""trial"",""time""
""focus"",""0"",""2""
","""event"",""trial"",""time""
""fullscreenenter"",""2"",""13812""
","
","","","","","","null","<div style=""font-size:60px;"">+</div>","null","","fixation","","","","","","","","","","",""
"aa-learning-trial","117","554370","0.0-9.0-2.0-1.22","3860","2","16","Female","approach_avoid_spark_v1","""event"",""trial"",""time""
""focus"",""0"",""2""
""fullscreenenter"",""2"",""13812""
","
","""event"",""trial"",""time""
""focus"",""0"",""2""
","""event"",""trial"",""time""
""fullscreenenter"",""2"",""13812""
","
","","","","","","882","images/cat1.png","","","learning","-9","0","0","0","cat","pets","2","0","","good","[5]"
"html-keyboard-response","118","554874","0.0-9.0-2.0-0.23","3860","2","16","Female","approach_avoid_spark_v1","""event"",""trial"",""time""
""focus"",""0"",""2""
""fullscreenenter"",""2"",""13812""
","
","""event"",""trial"",""time""
""focus"",""0"",""2""
","""event"",""trial"",""time""
""fullscreenenter"",""2"",""13812""
","
","","","","","","null","<div style=""font-size:60px;"">+</div>","null","","fixation","","","","","","","","","","",""
"aa-learning-trial","119","557893","0.0-9.0-2.0-1.23","3860","2","16","Female","approach_avoid_spark_v1","""event"",""trial"",""time""
""focus"",""0"",""2""
""fullscreenenter"",""2"",""13812""
","
","""event"",""trial"",""time""
""focus"",""0"",""2""
","""event"",""trial"",""time""
""fullscreenenter"",""2"",""13812""
","
","","","","","","1192","images/cat2.png","","","learning","-3","0","0","0","cat","pets","2","0","","good","[5]"
"html-keyboard-response","120","558396","0.0-9.0-2.0-0.24","3860","2","16","Female","approach_avoid_spark_v1","""event"",""trial"",""time""
""focus"",""0"",""2""
""fullscreenenter"",""2"",""13812""
","
","""event"",""trial"",""time""
""focus"",""0"",""2""
","""event"",""trial"",""time""
""fullscreenenter"",""2"",""13812""
","
","","","","","","null","<div style=""font-size:60px;"">+</div>","null","","fixation","","","","","","","","","","",""
"aa-learning-trial","121","561405","0.0-9.0-2.0-1.24","3860","2","16","Female","approach_avoid_spark_v1","""event"",""trial"",""time""
""focus"",""0"",""2""
""fullscreenenter"",""2"",""13812""
","
","""event"",""trial"",""time""
""focus"",""0"",""2""
","""event"",""trial"",""time""
""fullscreenenter"",""2"",""13812""
","
","","","","","","653","images/dog2.png","","","learning","4","4","1","1","dog","pets","2","0","","bad","[-3]"
"html-keyboard-response","122","561920","0.0-9.0-2.0-0.25","3860","2","16","Female","approach_avoid_spark_v1","""event"",""trial"",""time""
""focus"",""0"",""2""
""fullscreenenter"",""2"",""13812""
","
","""event"",""trial"",""time""
""focus"",""0"",""2""
","""event"",""trial"",""time""
""fullscreenenter"",""2"",""13812""
","
","","","","","","null","<div style=""font-size:60px;"">+</div>","null","","fixation","","","","","","","","","","",""
"aa-learning-trial","123","564924","0.0-9.0-2.0-1.25","3860","2","16","Female","approach_avoid_spark_v1","""event"",""trial"",""time""
""focus"",""0"",""2""
""fullscreenenter"",""2"",""13812""
","
","""event"",""trial"",""time""
""focus"",""0"",""2""
","""event"",""trial"",""time""
""fullscreenenter"",""2"",""13812""
","
","","","","","","786","images/cat1.png","","","learning","-9","-9","1","1","cat","pets","2","0","","good","[5]"
"html-keyboard-response","124","565439","0.0-9.0-2.0-0.26","3860","2","16","Female","approach_avoid_spark_v1","""event"",""trial"",""time""
""focus"",""0"",""2""
""fullscreenenter"",""2"",""13812""
","
","""event"",""trial"",""time""
""focus"",""0"",""2""
","""event"",""trial"",""time""
""fullscreenenter"",""2"",""13812""
","
","","","","","","null","<div style=""font-size:60px;"">+</div>","null","","fixation","","","","","","","","","","",""
"aa-learning-trial","125","568445","0.0-9.0-2.0-1.26","3860","2","16","Female","approach_avoid_spark_v1","""event"",""trial"",""time""
""focus"",""0"",""2""
""fullscreenenter"",""2"",""13812""
","
","""event"",""trial"",""time""
""focus"",""0"",""2""
","""event"",""trial"",""time""
""fullscreenenter"",""2"",""13812""
","
","","","","","","654","images/cat2.png","","","learning","-3","-3","1","1","cat","pets","2","0","","good","[5]"
"html-keyboard-response","126","568963","0.0-9.0-2.0-0.27","3860","2","16","Female","approach_avoid_spark_v1","""event"",""trial"",""time""
""focus"",""0"",""2""
""fullscreenenter"",""2"",""13812""
","
","""event"",""trial"",""time""
""focus"",""0"",""2""
","""event"",""trial"",""time""
""fullscreenenter"",""2"",""13812""
","
","","","","","","null","<div style=""font-size:60px;"">+</div>","null","","fixation","","","","","","","","","","",""
"aa-learning-trial","127","571981","0.0-9.0-2.0-1.27","3860","2","16","Female","approach_avoid_spark_v1","""event"",""trial"",""time""
""focus"",""0"",""2""
""fullscreenenter"",""2"",""13812""
","
","""event"",""trial"",""time""
""focus"",""0"",""2""
","""event"",""trial"",""time""
""fullscreenenter"",""2"",""13812""
","
","","","","","","379","images/cat7.png","","","learning","-2","-2","1","1","cat","pets","2","0","","good","[5]"
"html-keyboard-response","128","572494","0.0-9.0-2.0-0.28","3860","2","16","Female","approach_avoid_spark_v1","""event"",""trial"",""time""
""focus"",""0"",""2""
""fullscreenenter"",""2"",""13812""
","
","""event"",""trial"",""time""
""focus"",""0"",""2""
","""event"",""trial"",""time""
""fullscreenenter"",""2"",""13812""
","
","","","","","","null","<div style=""font-size:60px;"">+</div>","null","","fixation","","","","","","","","","","",""
"aa-learning-trial","129","575503","0.0-9.0-2.0-1.28","3860","2","16","Female","approach_avoid_spark_v1","""event"",""trial"",""time""
""focus"",""0"",""2""
""fullscreenenter"",""2"",""13812""
","
","""event"",""trial"",""time""
""focus"",""0"",""2""
","""event"",""trial"",""time""
""fullscreenenter"",""2"",""13812""
","
","","","","","","1004","images/rabbit5.png","","","learning","2","2","1","1","rabbit","pets","2","0","","neutral","0"
"html-keyboard-response","130","576019","0.0-9.0-2.0-0.29","3860","2","16","Female","approach_avoid_spark_v1","""event"",""trial"",""time""
""focus"",""0"",""2""
""fullscreenenter"",""2"",""13812""
","
","""event"",""trial"",""time""
""focus"",""0"",""2""
","""event"",""trial"",""time""
""fullscreenenter"",""2"",""13812""
","
","","","","","","null","<div style=""font-size:60px;"">+</div>","null","","fixation","","","","","","","","","","",""
"aa-learning-trial","131","579026","0.0-9.0-2.0-1.29","3860","2","16","Female","approach_avoid_spark_v1","""event"",""trial"",""time""
""focus"",""0"",""2""
""fullscreenenter"",""2"",""13812""
","
","""event"",""trial"",""time""
""focus"",""0"",""2""
","""event"",""trial"",""time""
""fullscreenenter"",""2"",""13812""
","
","","","","","","684","images/dog3.png","","","learning","7","7","1","1","dog","pets","2","0","","bad","[-3]"
"html-keyboard-response","132","579542","0.0-9.0-2.0-0.30","3860","2","16","Female","approach_avoid_spark_v1","""event"",""trial"",""time""
""focus"",""0"",""2""
""fullscreenenter"",""2"",""13812""
","
","""event"",""trial"",""time""
""focus"",""0"",""2""
","""event"",""trial"",""time""
""fullscreenenter"",""2"",""13812""
","
","","","","","","null","<div style=""font-size:60px;"">+</div>","null","","fixation","","","","","","","","","","",""
"aa-learning-trial","133","582556","0.0-9.0-2.0-1.30","3860","2","16","Female","approach_avoid_spark_v1","""event"",""trial"",""time""
""focus"",""0"",""2""
""fullscreenenter"",""2"",""13812""
","
","""event"",""trial"",""time""
""focus"",""0"",""2""
","""event"",""trial"",""time""
""fullscreenenter"",""2"",""13812""
","
","","","","","","712","images/dog2.png","","","learning","4","4","1","1","dog","pets","2","0","","bad","[-3]"
"html-keyboard-response","134","583071","0.0-9.0-2.0-0.31","3860","2","16","Female","approach_avoid_spark_v1","""event"",""trial"",""time""
""focus"",""0"",""2""
""fullscreenenter"",""2"",""13812""
","
","""event"",""trial"",""time""
""focus"",""0"",""2""
","""event"",""trial"",""time""
""fullscreenenter"",""2"",""13812""
","
","","","","","","null","<div style=""font-size:60px;"">+</div>","null","","fixation","","","","","","","","","","",""
"aa-learning-trial","135","586088","0.0-9.0-2.0-1.31","3860","2","16","Female","approach_avoid_spark_v1","""event"",""trial"",""time""
""focus"",""0"",""2""
""fullscreenenter"",""2"",""13812""
","
","""event"",""trial"",""time""
""focus"",""0"",""2""
","""event"",""trial"",""time""
""fullscreenenter"",""2"",""13812""
","
","","","","","","629","images/dog3.png","","","learning","7","7","1","1","dog","pets","2","0","","bad","[-3]"
"html-keyboard-response","136","586605","0.0-9.0-2.0-0.32","3860","2","16","Female","approach_avoid_spark_v1","""event"",""trial"",""time""
""focus"",""0"",""2""
""fullscreenenter"",""2"",""13812""
","
","""event"",""trial"",""time""
""focus"",""0"",""2""
","""event"",""trial"",""time""
""fullscreenenter"",""2"",""13812""
","
","","","","","","null","<div style=""font-size:60px;"">+</div>","null","","fixation","","","","","","","","","","",""
"aa-learning-trial","137","589613","0.0-9.0-2.0-1.32","3860","2","16","Female","approach_avoid_spark_v1","""event"",""trial"",""time""
""focus"",""0"",""2""
""fullscreenenter"",""2"",""13812""
","
","""event"",""trial"",""time""
""focus"",""0"",""2""
","""event"",""trial"",""time""
""fullscreenenter"",""2"",""13812""
","
","","","","","","876","images/cat6.png","","","learning","8","8","1","1","cat","pets","2","0","","good","[5]"
"html-keyboard-response","138","590125","0.0-9.0-2.0-0.33","3860","2","16","Female","approach_avoid_spark_v1","""event"",""trial"",""time""
""focus"",""0"",""2""
""fullscreenenter"",""2"",""13812""
","
","""event"",""trial"",""time""
""focus"",""0"",""2""
","""event"",""trial"",""time""
""fullscreenenter"",""2"",""13812""
","
","","","","","","null","<div style=""font-size:60px;"">+</div>","null","","fixation","","","","","","","","","","",""
"aa-learning-trial","139","593140","0.0-9.0-2.0-1.33","3860","2","16","Female","approach_avoid_spark_v1","""event"",""trial"",""time""
""focus"",""0"",""2""
""fullscreenenter"",""2"",""13812""
","
","""event"",""trial"",""time""
""focus"",""0"",""2""
","""event"",""trial"",""time""
""fullscreenenter"",""2"",""13812""
","
","","","","","","982","images/cat5.png","","","learning","5","5","1","1","cat","pets","2","0","","good","[5]"
"html-keyboard-response","140","593644","0.0-9.0-2.0-0.34","3860","2","16","Female","approach_avoid_spark_v1","""event"",""trial"",""time""
""focus"",""0"",""2""
""fullscreenenter"",""2"",""13812""
","
","""event"",""trial"",""time""
""focus"",""0"",""2""
","""event"",""trial"",""time""
""fullscreenenter"",""2"",""13812""
","
","","","","","","null","<div style=""font-size:60px;"">+</div>","null","","fixation","","","","","","","","","","",""
"aa-learning-trial","141","596663","0.0-9.0-2.0-1.34","3860","2","16","Female","approach_avoid_spark_v1","""event"",""trial"",""time""
""focus"",""0"",""2""
""fullscreenenter"",""2"",""13812""
","
","""event"",""trial"",""time""
""focus"",""0"",""2""
","""event"",""trial"",""time""
""fullscreenenter"",""2"",""13812""
","
","","","","","","872","images/cat2.png","","","learning","-3","-3","1","1","cat","pets","2","0","","good","[5]"
"html-keyboard-response","142","597165","0.0-9.0-2.0-0.35","3860","2","16","Female","approach_avoid_spark_v1","""event"",""trial"",""time""
""focus"",""0"",""2""
""fullscreenenter"",""2"",""13812""
","
","""event"",""trial"",""time""
""focus"",""0"",""2""
","""event"",""trial"",""time""
""fullscreenenter"",""2"",""13812""
","
","","","","","","null","<div style=""font-size:60px;"">+</div>","null","","fixation","","","","","","","","","","",""
"aa-learning-trial","143","600181","0.0-9.0-2.0-1.35","3860","2","16","Female","approach_avoid_spark_v1","""event"",""trial"",""time""
""focus"",""0"",""2""
""fullscreenenter"",""2"",""13812""
","
","""event"",""trial"",""time""
""focus"",""0"",""2""
","""event"",""trial"",""time""
""fullscreenenter"",""2"",""13812""
","
","","","","","","1012","images/dog8.png","","","learning","1","1","1","1","dog","pets","2","0","","bad","[-3]"
"html-keyboard-response","144","600681","0.0-9.0-2.0-0.36","3860","2","16","Female","approach_avoid_spark_v1","""event"",""trial"",""time""
""focus"",""0"",""2""
""fullscreenenter"",""2"",""13812""
","
","""event"",""trial"",""time""
""focus"",""0"",""2""
","""event"",""trial"",""time""
""fullscreenenter"",""2"",""13812""
","
","","","","","","null","<div style=""font-size:60px;"">+</div>","null","","fixation","","","","","","","","","","",""
"aa-learning-trial","145","603697","0.0-9.0-2.0-1.36","3860","2","16","Female","approach_avoid_spark_v1","""event"",""trial"",""time""
""focus"",""0"",""2""
""fullscreenenter"",""2"",""13812""
","
","""event"",""trial"",""time""
""focus"",""0"",""2""
","""event"",""trial"",""time""
""fullscreenenter"",""2"",""13812""
","
","","","","","","850","images/rabbit2.png","","","learning","-4","-4","1","1","rabbit","pets","2","0","","neutral","0"
"html-keyboard-response","146","604200","0.0-9.0-2.0-0.37","3860","2","16","Female","approach_avoid_spark_v1","""event"",""trial"",""time""
""focus"",""0"",""2""
""fullscreenenter"",""2"",""13812""
","
","""event"",""trial"",""time""
""focus"",""0"",""2""
","""event"",""trial"",""time""
""fullscreenenter"",""2"",""13812""
","
","","","","","","null","<div style=""font-size:60px;"">+</div>","null","","fixation","","","","","","","","","","",""
"aa-learning-trial","147","607213","0.0-9.0-2.0-1.37","3860","2","16","Female","approach_avoid_spark_v1","""event"",""trial"",""time""
""focus"",""0"",""2""
""fullscreenenter"",""2"",""13812""
","
","""event"",""trial"",""time""
""focus"",""0"",""2""
","""event"",""trial"",""time""
""fullscreenenter"",""2"",""13812""
","
","","","","","","784","images/dog3.png","","","learning","7","7","1","1","dog","pets","2","0","","bad","[-3]"
"html-keyboard-response","148","607718","0.0-9.0-2.0-0.38","3860","2","16","Female","approach_avoid_spark_v1","""event"",""trial"",""time""
""focus"",""0"",""2""
""fullscreenenter"",""2"",""13812""
","
","""event"",""trial"",""time""
""focus"",""0"",""2""
","""event"",""trial"",""time""
""fullscreenenter"",""2"",""13812""
","
","","","","","","null","<div style=""font-size:60px;"">+</div>","null","","fixation","","","","","","","","","","",""
"aa-learning-trial","149","610732","0.0-9.0-2.0-1.38","3860","2","16","Female","approach_avoid_spark_v1","""event"",""trial"",""time""
""focus"",""0"",""2""
""fullscreenenter"",""2"",""13812""
","
","""event"",""trial"",""time""
""focus"",""0"",""2""
","""event"",""trial"",""time""
""fullscreenenter"",""2"",""13812""
","
","","","","","","1002","images/rabbit1.png","","","learning","9","9","1","1","rabbit","pets","2","0","","neutral","0"
"html-keyboard-response","150","611246","0.0-9.0-2.0-0.39","3860","2","16","Female","approach_avoid_spark_v1","""event"",""trial"",""time""
""focus"",""0"",""2""
""fullscreenenter"",""2"",""13812""
","
","""event"",""trial"",""time""
""focus"",""0"",""2""
","""event"",""trial"",""time""
""fullscreenenter"",""2"",""13812""
","
","","","","","","null","<div style=""font-size:60px;"">+</div>","null","","fixation","","","","","","","","","","",""
"aa-learning-trial","151","614259","0.0-9.0-2.0-1.39","3860","2","16","Female","approach_avoid_spark_v1","""event"",""trial"",""time""
""focus"",""0"",""2""
""fullscreenenter"",""2"",""13812""
","
","""event"",""trial"",""time""
""focus"",""0"",""2""
","""event"",""trial"",""time""
""fullscreenenter"",""2"",""13812""
","
","","","","","","934","images/dog7.png","","","learning","-6","-6","1","1","dog","pets","2","0","","bad","[-3]"
"html-keyboard-response","152","614762","0.0-9.0-2.0-0.40","3860","2","16","Female","approach_avoid_spark_v1","""event"",""trial"",""time""
""focus"",""0"",""2""
""fullscreenenter"",""2"",""13812""
","
","""event"",""trial"",""time""
""focus"",""0"",""2""
","""event"",""trial"",""time""
""fullscreenenter"",""2"",""13812""
","
","","","","","","null","<div style=""font-size:60px;"">+</div>","null","","fixation","","","","","","","","","","",""
"aa-learning-trial","153","617775","0.0-9.0-2.0-1.40","3860","2","16","Female","approach_avoid_spark_v1","""event"",""trial"",""time""
""focus"",""0"",""2""
""fullscreenenter"",""2"",""13812""
","
","""event"",""trial"",""time""
""focus"",""0"",""2""
","""event"",""trial"",""time""
""fullscreenenter"",""2"",""13812""
","
","","","","","","860","images/rabbit4.png","","","learning","3","3","1","1","rabbit","pets","2","0","","neutral","0"
"html-keyboard-response","154","618278","0.0-9.0-2.0-0.41","3860","2","16","Female","approach_avoid_spark_v1","""event"",""trial"",""time""
""focus"",""0"",""2""
""fullscreenenter"",""2"",""13812""
","
","""event"",""trial"",""time""
""focus"",""0"",""2""
","""event"",""trial"",""time""
""fullscreenenter"",""2"",""13812""
","
","","","","","","null","<div style=""font-size:60px;"">+</div>","null","","fixation","","","","","","","","","","",""
"aa-learning-trial","155","621281","0.0-9.0-2.0-1.41","3860","2","16","Female","approach_avoid_spark_v1","""event"",""trial"",""time""
""focus"",""0"",""2""
""fullscreenenter"",""2"",""13812""
","
","""event"",""trial"",""time""
""focus"",""0"",""2""
","""event"",""trial"",""time""
""fullscreenenter"",""2"",""13812""
","
","","","","","","748","images/rabbit4.png","","","learning","3","3","1","1","rabbit","pets","2","0","","neutral","0"
"html-keyboard-response","156","621797","0.0-9.0-2.0-0.42","3860","2","16","Female","approach_avoid_spark_v1","""event"",""trial"",""time""
""focus"",""0"",""2""
""fullscreenenter"",""2"",""13812""
","
","""event"",""trial"",""time""
""focus"",""0"",""2""
","""event"",""trial"",""time""
""fullscreenenter"",""2"",""13812""
","
","","","","","","null","<div style=""font-size:60px;"">+</div>","null","","fixation","","","","","","","","","","",""
"aa-learning-trial","157","624809","0.0-9.0-2.0-1.42","3860","2","16","Female","approach_avoid_spark_v1","""event"",""trial"",""time""
""focus"",""0"",""2""
""fullscreenenter"",""2"",""13812""
","
","""event"",""trial"",""time""
""focus"",""0"",""2""
","""event"",""trial"",""time""
""fullscreenenter"",""2"",""13812""
","
","","","","","","1122","images/cat5.png","","","learning","5","5","1","1","cat","pets","2","0","","good","[5]"
"html-keyboard-response","158","625312","0.0-9.0-2.0-0.43","3860","2","16","Female","approach_avoid_spark_v1","""event"",""trial"",""time""
""focus"",""0"",""2""
""fullscreenenter"",""2"",""13812""
","
","""event"",""trial"",""time""
""focus"",""0"",""2""
","""event"",""trial"",""time""
""fullscreenenter"",""2"",""13812""
","
","","","","","","null","<div style=""font-size:60px;"">+</div>","null","","fixation","","","","","","","","","","",""
"aa-learning-trial","159","628319","0.0-9.0-2.0-1.43","3860","2","16","Female","approach_avoid_spark_v1","""event"",""trial"",""time""
""focus"",""0"",""2""
""fullscreenenter"",""2"",""13812""
","
","""event"",""trial"",""time""
""focus"",""0"",""2""
","""event"",""trial"",""time""
""fullscreenenter"",""2"",""13812""
","
","","","","","","1225","images/dog2.png","","","learning","4","4","1","1","dog","pets","2","0","","bad","[-3]"
"html-keyboard-response","160","628822","0.0-9.0-2.0-0.44","3860","2","16","Female","approach_avoid_spark_v1","""event"",""trial"",""time""
""focus"",""0"",""2""
""fullscreenenter"",""2"",""13812""
","
","""event"",""trial"",""time""
""focus"",""0"",""2""
","""event"",""trial"",""time""
""fullscreenenter"",""2"",""13812""
","
","","","","","","null","<div style=""font-size:60px;"">+</div>","null","","fixation","","","","","","","","","","",""
"aa-learning-trial","161","631838","0.0-9.0-2.0-1.44","3860","2","16","Female","approach_avoid_spark_v1","""event"",""trial"",""time""
""focus"",""0"",""2""
""fullscreenenter"",""2"",""13812""
","
","""event"",""trial"",""time""
""focus"",""0"",""2""
","""event"",""trial"",""time""
""fullscreenenter"",""2"",""13812""
","
","","","","","","918","images/dog8.png","","","learning","1","0","0","0","dog","pets","2","0","","bad","[-3]"
"html-keyboard-response","162","632354","0.0-9.0-2.0-0.45","3860","2","16","Female","approach_avoid_spark_v1","""event"",""trial"",""time""
""focus"",""0"",""2""
""fullscreenenter"",""2"",""13812""
","
","""event"",""trial"",""time""
""focus"",""0"",""2""
","""event"",""trial"",""time""
""fullscreenenter"",""2"",""13812""
","
","","","","","","null","<div style=""font-size:60px;"">+</div>","null","","fixation","","","","","","","","","","",""
"aa-learning-trial","163","635368","0.0-9.0-2.0-1.45","3860","2","16","Female","approach_avoid_spark_v1","""event"",""trial"",""time""
""focus"",""0"",""2""
""fullscreenenter"",""2"",""13812""
","
","""event"",""trial"",""time""
""focus"",""0"",""2""
","""event"",""trial"",""time""
""fullscreenenter"",""2"",""13812""
","
","","","","","","1440","images/cat2.png","","","learning","-3","0","0","0","cat","pets","2","0","","good","[5]"
"html-keyboard-response","164","635884","0.0-9.0-2.0-0.46","3860","2","16","Female","approach_avoid_spark_v1","""event"",""trial"",""time""
""focus"",""0"",""2""
""fullscreenenter"",""2"",""13812""
","
","""event"",""trial"",""time""
""focus"",""0"",""2""
","""event"",""trial"",""time""
""fullscreenenter"",""2"",""13812""
","
","","","","","","null","<div style=""font-size:60px;"">+</div>","null","","fixation","","","","","","","","","","",""
"aa-learning-trial","165","638896","0.0-9.0-2.0-1.46","3860","2","16","Female","approach_avoid_spark_v1","""event"",""trial"",""time""
""focus"",""0"",""2""
""fullscreenenter"",""2"",""13812""
","
","""event"",""trial"",""time""
""focus"",""0"",""2""
","""event"",""trial"",""time""
""fullscreenenter"",""2"",""13812""
","
","","","","","","1377","images/rabbit1.png","","","learning","9","0","0","0","rabbit","pets","2","0","","neutral","0"
"html-keyboard-response","166","639399","0.0-9.0-2.0-0.47","3860","2","16","Female","approach_avoid_spark_v1","""event"",""trial"",""time""
""focus"",""0"",""2""
""fullscreenenter"",""2"",""13812""
","
","""event"",""trial"",""time""
""focus"",""0"",""2""
","""event"",""trial"",""time""
""fullscreenenter"",""2"",""13812""
","
","","","","","","null","<div style=""font-size:60px;"">+</div>","null","","fixation","","","","","","","","","","",""
"aa-learning-trial","167","642412","0.0-9.0-2.0-1.47","3860","2","16","Female","approach_avoid_spark_v1","""event"",""trial"",""time""
""focus"",""0"",""2""
""fullscreenenter"",""2"",""13812""
","
","""event"",""trial"",""time""
""focus"",""0"",""2""
","""event"",""trial"",""time""
""fullscreenenter"",""2"",""13812""
","
","","","","","","497","images/rabbit1.png","","","learning","9","9","1","1","rabbit","pets","2","0","","neutral","0"
"html-keyboard-response","168","642927","0.0-9.0-2.0-0.48","3860","2","16","Female","approach_avoid_spark_v1","""event"",""trial"",""time""
""focus"",""0"",""2""
""fullscreenenter"",""2"",""13812""
","
","""event"",""trial"",""time""
""focus"",""0"",""2""
","""event"",""trial"",""time""
""fullscreenenter"",""2"",""13812""
","
","","","","","","null","<div style=""font-size:60px;"">+</div>","null","","fixation","","","","","","","","","","",""
"aa-learning-trial","169","645941","0.0-9.0-2.0-1.48","3860","2","16","Female","approach_avoid_spark_v1","""event"",""trial"",""time""
""focus"",""0"",""2""
""fullscreenenter"",""2"",""13812""
","
","""event"",""trial"",""time""
""focus"",""0"",""2""
","""event"",""trial"",""time""
""fullscreenenter"",""2"",""13812""
","
","","","","","","1707","images/dog2.png","","","learning","4","4","1","1","dog","pets","2","0","","bad","[-3]"
"html-keyboard-response","170","646448","0.0-9.0-2.0-0.49","3860","2","16","Female","approach_avoid_spark_v1","""event"",""trial"",""time""
""focus"",""0"",""2""
""fullscreenenter"",""2"",""13812""
","
","""event"",""trial"",""time""
""focus"",""0"",""2""
","""event"",""trial"",""time""
""fullscreenenter"",""2"",""13812""
","
","","","","","","null","<div style=""font-size:60px;"">+</div>","null","","fixation","","","","","","","","","","",""
"aa-learning-trial","171","649455","0.0-9.0-2.0-1.49","3860","2","16","Female","approach_avoid_spark_v1","""event"",""trial"",""time""
""focus"",""0"",""2""
""fullscreenenter"",""2"",""13812""
","
","""event"",""trial"",""time""
""focus"",""0"",""2""
","""event"",""trial"",""time""
""fullscreenenter"",""2"",""13812""
","
","","","","","","1469","images/rabbit6.png","","","learning","-8","0","0","0","rabbit","pets","2","0","","neutral","0"
"html-keyboard-response","172","649958","0.0-9.0-2.0-0.50","3860","2","16","Female","approach_avoid_spark_v1","""event"",""trial"",""time""
""focus"",""0"",""2""
""fullscreenenter"",""2"",""13812""
","
","""event"",""trial"",""time""
""focus"",""0"",""2""
","""event"",""trial"",""time""
""fullscreenenter"",""2"",""13812""
","
","","","","","","null","<div style=""font-size:60px;"">+</div>","null","","fixation","","","","","","","","","","",""
"aa-learning-trial","173","652966","0.0-9.0-2.0-1.50","3860","2","16","Female","approach_avoid_spark_v1","""event"",""trial"",""time""
""focus"",""0"",""2""
""fullscreenenter"",""2"",""13812""
","
","""event"",""trial"",""time""
""focus"",""0"",""2""
","""event"",""trial"",""time""
""fullscreenenter"",""2"",""13812""
","
","","","","","","2084","images/rabbit1.png","","","learning","9","9","1","1","rabbit","pets","2","0","","neutral","0"
"html-button-response","174","657552","0.0-9.0-3.0","3860","2","16","Female","approach_avoid_spark_v1","""event"",""trial"",""time""
""focus"",""0"",""2""
""fullscreenenter"",""2"",""13812""
","
","""event"",""trial"",""time""
""focus"",""0"",""2""
","""event"",""trial"",""time""
""fullscreenenter"",""2"",""13812""
","
","","","","","","4584","<p> You have completed the round! <p> In this round, you earned 101 points! </p>","0","","break","","","","","","","","","","",""
"html-button-response","175","664379","0.0-10.0","3860","2","16","Female","approach_avoid_spark_v1","""event"",""trial"",""time""
""focus"",""0"",""2""
""fullscreenenter"",""2"",""13812""
","
","""event"",""trial"",""time""
""focus"",""0"",""2""
","""event"",""trial"",""time""
""fullscreenenter"",""2"",""13812""
","
","","","","","","6826","<p> Now it's time to play another round. </p>","0","","transition_screen","","","","","","","","","","",""
"preload","176","664514","0.0-11.0-0.0","3860","2","16","Female","approach_avoid_spark_v1","""event"",""trial"",""time""
""focus"",""0"",""2""
""fullscreenenter"",""2"",""13812""
","
","""event"",""trial"",""time""
""focus"",""0"",""2""
","""event"",""trial"",""time""
""fullscreenenter"",""2"",""13812""
","
","true","false","[]","[]","[]","","","","","","","","","","","","","","","",""
"learning-instructions","177","674728","0.0-11.0-1.0-0.0","3860","2","16","Female","approach_avoid_spark_v1","""event"",""trial"",""time""
""focus"",""0"",""2""
""fullscreenenter"",""2"",""13812""
","
","""event"",""trial"",""time""
""focus"",""0"",""2""
","""event"",""trial"",""time""
""fullscreenenter"",""2"",""13812""
","
","","","","","","4141","<p> Your goal in this round is to decorate your friend's new house with furniture. </p></div>","","0","instructions","","","","","","","","","","",""
"learning-instructions","178","685608","0.0-11.0-1.0-0.1","3860","2","16","Female","approach_avoid_spark_v1","""event"",""trial"",""time""
""focus"",""0"",""2""
""fullscreenenter"",""2"",""13812""
","
","""event"",""trial"",""time""
""focus"",""0"",""2""
","""event"",""trial"",""time""
""fullscreenenter"",""2"",""13812""
","
","","","","","","1160","<p> Your friend likes some pieces of furniture but not others.  </p><p> On each turn, you will see a piece of furniture.   </p><p> You need to decide whether to put it in your friend's house or not.  </p>","","0","instructions","","","","","","","","","","",""
"learning-instructions","179","692264","0.0-11.0-1.0-0.2","3860","2","16","Female","approach_avoid_spark_v1","""event"",""trial"",""time""
""focus"",""0"",""2""
""fullscreenenter"",""2"",""13812""
","
","""event"",""trial"",""time""
""focus"",""0"",""2""
","""event"",""trial"",""time""
""fullscreenenter"",""2"",""13812""
","
","","","","","","1037","<p> You can put the furniture in her house by pressing 1 and deliver it elsewhere by pressing 0. </p><br><div class=""choice-instructions-grid""> <div class=""choice-option""><img src=""images/approach.png"" class=""choice-option-img"" stage=""instructions"" position=""0"" ><div class=""choice-option-text""> Press ""1."" </div></div><div class=""choice-option""><img src=""images/avoid.png"" class=""choice-option-img"" stage=""instructions"" position=""1"" ><div class=""choice-option-text""> Press ""0."" </div></div>","","0","instructions","","","","","","","","","","",""
"learning-instructions","180","701911","0.0-11.0-1.0-0.3","3860","2","16","Female","approach_avoid_spark_v1","""event"",""trial"",""time""
""focus"",""0"",""2""
""fullscreenenter"",""2"",""13812""
","
","""event"",""trial"",""time""
""focus"",""0"",""2""
","""event"",""trial"",""time""
""fullscreenenter"",""2"",""13812""
","
","","","","","","834","<p> If you decorate your friend's house with furniture she likes, she will be happy! </p><p> But if you give her furniture that she does not like, she will be annoyed. </p>","","0","instructions","","","","","","","","","","",""
"learning-instructions","181","714828","0.0-11.0-1.0-0.4","3860","2","16","Female","approach_avoid_spark_v1","""event"",""trial"",""time""
""focus"",""0"",""2""
""fullscreenenter"",""2"",""13812""
","
","""event"",""trial"",""time""
""focus"",""0"",""2""
","""event"",""trial"",""time""
""fullscreenenter"",""2"",""13812""
","
","","","","","","780","<p> You will earn points based on how you made your friend feel. </p><p> If you made her happy, you will WIN anywhere from 1 - 9 points, </p><p> but if you made her annoyed you will LOSE anywhere from 1 - 9 points. </p>","","0","instructions","","","","","","","","","","",""
"learning-instructions","182","722307","0.0-11.0-1.0-0.5","3860","2","16","Female","approach_avoid_spark_v1","""event"",""trial"",""time""
""focus"",""0"",""2""
""fullscreenenter"",""2"",""13812""
","
","""event"",""trial"",""time""
""focus"",""0"",""2""
","""event"",""trial"",""time""
""fullscreenenter"",""2"",""13812""
","
","","","","","","819","<p> You will see how many points you won or lost in the center of the screen. </p><p> Here is what you would see if you won 5 points: </p><p style=""color:green;font-size:50px;font-weight:bolder"">5</p>","","0","instructions","","","","","","","","","","",""
"learning-instructions","183","726084","0.0-11.0-1.0-0.6","3860","2","16","Female","approach_avoid_spark_v1","""event"",""trial"",""time""
""focus"",""0"",""2""
""fullscreenenter"",""2"",""13812""
","
","""event"",""trial"",""time""
""focus"",""0"",""2""
","""event"",""trial"",""time""
""fullscreenenter"",""2"",""13812""
","
","","","","","","917","<p> And here is what you would see if you lost 3 points: </p><p style=""color:red;font-size:50px;font-weight:bolder"">-3</p>","","0","instructions","","","","","","","","","","",""
"learning-instructions","184","744582","0.0-11.0-1.0-0.7","3860","2","16","Female","approach_avoid_spark_v1","""event"",""trial"",""time""
""focus"",""0"",""2""
""fullscreenenter"",""2"",""13812""
","
","""event"",""trial"",""time""
""focus"",""0"",""2""
","""event"",""trial"",""time""
""fullscreenenter"",""2"",""13812""
","
","","","","","","1224","<p> Some pieces of furniture will make her feel very happy or very annoyed. </p><p> These pieces of furniture will make you win or lose LOTS of points. </p><p> Other pieces of furniture will only make her feel a little happy or a little annoyed. </p><p> These pieces of furniture will make you win or lose small amounts of points. </p>","","0","instructions","","","","","","","","","","",""
"learning-instructions","185","757961","0.0-11.0-1.0-0.8","3860","2","16","Female","approach_avoid_spark_v1","""event"",""trial"",""time""
""focus"",""0"",""2""
""fullscreenenter"",""2"",""13812""
","
","""event"",""trial"",""time""
""focus"",""0"",""2""
","""event"",""trial"",""time""
""fullscreenenter"",""2"",""13812""
","
","","","","","","682","<p> If you choose to deliver a piece of furniture elsewhere, you will not win or lose any points. </p><p>  However, in the center of the screen, you will see the number of points you WOULD HAVE won or lost if you had given the furniture to your friend. </p>","","0","instructions","","","","","","","","","","",""
"learning-instructions","186","770776","0.0-11.0-1.0-0.9","3860","2","16","Female","approach_avoid_spark_v1","""event"",""trial"",""time""
""focus"",""0"",""2""
""fullscreenenter"",""2"",""13812""
","
","""event"",""trial"",""time""
""focus"",""0"",""2""
","""event"",""trial"",""time""
""fullscreenenter"",""2"",""13812""
","
","","","","","","1467","<p> Here is what you might see if you did not give a piece of furniture to your friend that would have made her happy: </p><p style=""color:grey; font-size:50px; display: inline-block; border-spacing: 15px; border-width:3px; border-style:solid; border-color:red"">  &nbsp; 6 &nbsp; </p><p> Remember, in this case, you would not win or lose ANY points because you did not give her the furniture.  </p>","","0","instructions","","","","","","","","","","",""
"learning-instructions","187","780046","0.0-11.0-1.0-0.10","3860","2","16","Female","approach_avoid_spark_v1","""event"",""trial"",""time""
""focus"",""0"",""2""
""fullscreenenter"",""2"",""13812""
","
","""event"",""trial"",""time""
""focus"",""0"",""2""
","""event"",""trial"",""time""
""fullscreenenter"",""2"",""13812""
","
","","","","","","1268","<p> Try to make the best choice for each piece of furniture because </p><p> at the end of the game, you will earn bonus money based on how many points you earned. </p>","","0","instructions","","","","","","","","","","",""
"learning-instructions","188","788976","0.0-11.0-1.0-0.11","3860","2","16","Female","approach_avoid_spark_v1","""event"",""trial"",""time""
""focus"",""0"",""2""
""fullscreenenter"",""2"",""13812""
","
","""event"",""trial"",""time""
""focus"",""0"",""2""
","""event"",""trial"",""time""
""fullscreenenter"",""2"",""13812""
","
","","","","","","728","<p> You will have 3 seconds to make each choice. Try to respond before time runs out! </p><p> You will lose 5 points each time you do not make a response. </p>","","0","instructions","","","","","","","","","","",""
"html-keyboard-response","189","789600","0.0-11.0-2.0-0.0","3860","2","16","Female","approach_avoid_spark_v1","""event"",""trial"",""time""
""focus"",""0"",""2""
""fullscreenenter"",""2"",""13812""
","
","""event"",""trial"",""time""
""focus"",""0"",""2""
","""event"",""trial"",""time""
""fullscreenenter"",""2"",""13812""
","
","","","","","","null","<div style=""font-size:60px;"">+</div>","null","","fixation","","","","","","","","","","",""
"aa-learning-trial","190","792612","0.0-11.0-2.0-1.0","3860","2","16","Female","approach_avoid_spark_v1","""event"",""trial"",""time""
""focus"",""0"",""2""
""fullscreenenter"",""2"",""13812""
","
","""event"",""trial"",""time""
""focus"",""0"",""2""
","""event"",""trial"",""time""
""fullscreenenter"",""2"",""13812""
","
","","","","","","1507","images/bed8.png","","","learning","7","7","1","1","bed","furniture","1","1","","good","[6]"
"html-keyboard-response","191","793126","0.0-11.0-2.0-0.1","3860","2","16","Female","approach_avoid_spark_v1","""event"",""trial"",""time""
""focus"",""0"",""2""
""fullscreenenter"",""2"",""13812""
","
","""event"",""trial"",""time""
""focus"",""0"",""2""
","""event"",""trial"",""time""
""fullscreenenter"",""2"",""13812""
","
","","","","","","null","<div style=""font-size:60px;"">+</div>","null","","fixation","","","","","","","","","","",""
"aa-learning-trial","192","796137","0.0-11.0-2.0-1.1","3860","2","16","Female","approach_avoid_spark_v1","""event"",""trial"",""time""
""focus"",""0"",""2""
""fullscreenenter"",""2"",""13812""
","
","""event"",""trial"",""time""
""focus"",""0"",""2""
","""event"",""trial"",""time""
""fullscreenenter"",""2"",""13812""
","
","","","","","","1189","images/chair1.png","","","learning","-7","-7","1","1","chair","furniture","1","1","","bad","[-6]"
"html-keyboard-response","193","796654","0.0-11.0-2.0-0.2","3860","2","16","Female","approach_avoid_spark_v1","""event"",""trial"",""time""
""focus"",""0"",""2""
""fullscreenenter"",""2"",""13812""
","
","""event"",""trial"",""time""
""focus"",""0"",""2""
","""event"",""trial"",""time""
""fullscreenenter"",""2"",""13812""
","
","","","","","","null","<div style=""font-size:60px;"">+</div>","null","","fixation","","","","","","","","","","",""
"aa-learning-trial","194","799670","0.0-11.0-2.0-1.2","3860","2","16","Female","approach_avoid_spark_v1","""event"",""trial"",""time""
""focus"",""0"",""2""
""fullscreenenter"",""2"",""13812""
","
","""event"",""trial"",""time""
""focus"",""0"",""2""
","""event"",""trial"",""time""
""fullscreenenter"",""2"",""13812""
","
","","","","","","1067","images/chair3.png","","","learning","-3","-3","1","1","chair","furniture","1","1","","bad","[-6]"
"html-keyboard-response","195","800183","0.0-11.0-2.0-0.3","3860","2","16","Female","approach_avoid_spark_v1","""event"",""trial"",""time""
""focus"",""0"",""2""
""fullscreenenter"",""2"",""13812""
","
","""event"",""trial"",""time""
""focus"",""0"",""2""
","""event"",""trial"",""time""
""fullscreenenter"",""2"",""13812""
","
","","","","","","null","<div style=""font-size:60px;"">+</div>","null","","fixation","","","","","","","","","","",""
"aa-learning-trial","196","803196","0.0-11.0-2.0-1.3","3860","2","16","Female","approach_avoid_spark_v1","""event"",""trial"",""time""
""focus"",""0"",""2""
""fullscreenenter"",""2"",""13812""
","
","""event"",""trial"",""time""
""focus"",""0"",""2""
","""event"",""trial"",""time""
""fullscreenenter"",""2"",""13812""
","
","","","","","","952","images/bed3.png","","","learning","5","5","1","1","bed","furniture","1","1","","good","[6]"
"html-keyboard-response","197","803699","0.0-11.0-2.0-0.4","3860","2","16","Female","approach_avoid_spark_v1","""event"",""trial"",""time""
""focus"",""0"",""2""
""fullscreenenter"",""2"",""13812""
","
","""event"",""trial"",""time""
""focus"",""0"",""2""
","""event"",""trial"",""time""
""fullscreenenter"",""2"",""13812""
","
","","","","","","null","<div style=""font-size:60px;"">+</div>","null","","fixation","","","","","","","","","","",""
"aa-learning-trial","198","806715","0.0-11.0-2.0-1.4","3860","2","16","Female","approach_avoid_spark_v1","""event"",""trial"",""time""
""focus"",""0"",""2""
""fullscreenenter"",""2"",""13812""
","
","""event"",""trial"",""time""
""focus"",""0"",""2""
","""event"",""trial"",""time""
""fullscreenenter"",""2"",""13812""
","
","","","","","","945","images/sofa3.png","","","learning","1","1","1","1","sofa","furniture","1","1","","neutral","0"
"html-keyboard-response","199","807219","0.0-11.0-2.0-0.5","3860","2","16","Female","approach_avoid_spark_v1","""event"",""trial"",""time""
""focus"",""0"",""2""
""fullscreenenter"",""2"",""13812""
","
","""event"",""trial"",""time""
""focus"",""0"",""2""
","""event"",""trial"",""time""
""fullscreenenter"",""2"",""13812""
","
","","","","","","null","<div style=""font-size:60px;"">+</div>","null","","fixation","","","","","","","","","","",""
"aa-learning-trial","200","810233","0.0-11.0-2.0-1.5","3860","2","16","Female","approach_avoid_spark_v1","""event"",""trial"",""time""
""focus"",""0"",""2""
""fullscreenenter"",""2"",""13812""
","
","""event"",""trial"",""time""
""focus"",""0"",""2""
","""event"",""trial"",""time""
""fullscreenenter"",""2"",""13812""
","
