"trial_type","trial_index","time_elapsed","internal_node_id","subject_id","task_condition","age","gender","task_version","interactions","blur_events","focus_events","fullscreenenter_events","fullscreenexit_events","success","timeout","failed_images","failed_audio","failed_video","rt","stimulus","response","button_pressed","task_part","approach_reward","points","key_press","option_selected","stim_cat","task_block","block_condition","block_number","correct","cat_type","mean_cat_reward"
"pavlovia","0","3","0.0-0.0","4516","1","22","Female","approach_avoid_spark_v1","""event"",""trial"",""time""
""fullscreenenter"",""1"",""1962""
","
","
","""event"",""trial"",""time""
""fullscreenenter"",""1"",""1962""
","
","","","","","","","","","","","","","","","","","","","","",""
"fullscreen","1","2892","0.0-1.0","4516","1","22","Female","approach_avoid_spark_v1","""event"",""trial"",""time""
""fullscreenenter"",""1"",""1962""
","
","
","""event"",""trial"",""time""
""fullscreenenter"",""1"",""1962""
","
","true","","","","","","","","","","","","","","","","","","","",""
"preload","2","5233","0.0-2.0","4516","1","22","Female","approach_avoid_spark_v1","""event"",""trial"",""time""
""fullscreenenter"",""1"",""1962""
","
","
","""event"",""trial"",""time""
""fullscreenenter"",""1"",""1962""
","
","true","false","[]","[]","[]","","","","","","","","","","","","","","","",""
"audio-keyboard-response","3","9530","0.0-3.0","4516","1","22","Female","approach_avoid_spark_v1","""event"",""trial"",""time""
""fullscreenenter"",""1"",""1962""
","
","
","""event"",""trial"",""time""
""fullscreenenter"",""1"",""1962""
","
","","","","","","0","audio/beep_loop.wav"," ","","","","","","","","","","","","",""
"audio-button-response","4","11465","0.0-4.0","4516","1","22","Female","approach_avoid_spark_v1","""event"",""trial"",""time""
""fullscreenenter"",""1"",""1962""
","
","
","""event"",""trial"",""time""
""fullscreenenter"",""1"",""1962""
","
","","","","","","1816","audio/shark.wav","4","","","","","","","","","","","","",""
"audio-button-response","5","14049","0.0-5.0","4516","1","22","Female","approach_avoid_spark_v1","""event"",""trial"",""time""
""fullscreenenter"",""1"",""1962""
","
","
","""event"",""trial"",""time""
""fullscreenenter"",""1"",""1962""
","
","","","","","","1581","audio/turtle.wav","1","","","","","","","","","","","","",""
"preload","6","16321","0.0-6.0","4516","1","22","Female","approach_avoid_spark_v1","""event"",""trial"",""time""
""fullscreenenter"",""1"",""1962""
","
","
","""event"",""trial"",""time""
""fullscreenenter"",""1"",""1962""
","
","true","false","[]","[]","[]","","","","","","","","","","","","","","","",""
"html-keyboard-response","7","17192","0.0-7.0","4516","1","22","Female","approach_avoid_spark_v1","""event"",""trial"",""time""
""fullscreenenter"",""1"",""1962""
","
","
","""event"",""trial"",""time""
""fullscreenenter"",""1"",""1962""
","
","","","","","","870","Welcome to the experiment. Press any key to begin and to advance the instructions."," ","","","","","","","","","","","","",""
"learning-instructions","8","25350","0.0-8.0-0.0-0.0","4516","1","22","Female","approach_avoid_spark_v1","""event"",""trial"",""time""
""fullscreenenter"",""1"",""1962""
","
","
","""event"",""trial"",""time""
""fullscreenenter"",""1"",""1962""
","
","","","","","","1198","<p> Welcome! Today you are going to play 6 different rounds of a decision-making game. </p><p> Use the mouse to click next to continue. </p>","","0","instructions","","","","","","","","","","",""
"learning-instructions","9","29080","0.0-8.0-0.0-0.1","4516","1","22","Female","approach_avoid_spark_v1","""event"",""trial"",""time""
""fullscreenenter"",""1"",""1962""
","
","
","""event"",""trial"",""time""
""fullscreenenter"",""1"",""1962""
","
","","","","","","1005.0000000000036","<p> You will start with a practice round to learn the rules. </p>","","0","instructions","","","","","","","","","","",""
"learning-instructions","10","33082","0.0-8.0-0.0-0.2","4516","1","22","Female","approach_avoid_spark_v1","""event"",""trial"",""time""
""fullscreenenter"",""1"",""1962""
","
","
","""event"",""trial"",""time""
""fullscreenenter"",""1"",""1962""
","
","","","","","","555","<p> Your goal in this round is to give out sports equipment to kids. </p></div>","","0","instructions","","","","","","","","","","",""
"learning-instructions","11","45263","0.0-8.0-0.0-0.3","4516","1","22","Female","approach_avoid_spark_v1","""event"",""trial"",""time""
""fullscreenenter"",""1"",""1962""
","
","
","""event"",""trial"",""time""
""fullscreenenter"",""1"",""1962""
","
","","","","","","4635","<p> The kids only like some of the equipment.  </p><p> On each turn, you will see a piece of sports equipment.   </p><p> You need to decide whether to give it to the kids or not.  </p>","","0","instructions","","","","","","","","","","",""
"learning-instructions","12","51832","0.0-8.0-0.0-0.4","4516","1","22","Female","approach_avoid_spark_v1","""event"",""trial"",""time""
""fullscreenenter"",""1"",""1962""
","
","
","""event"",""trial"",""time""
""fullscreenenter"",""1"",""1962""
","
","","","","","","1819","<p> You can give them the equipment by pressing 1 and choose not to give it to them by pressing 0. </p><br><div class=""choice-instructions-grid""> <div class=""choice-option""><img src=""images/approach.png"" class=""choice-option-img"" stage=""instructions"" position=""0"" ><div class=""choice-option-text""> Press ""1."" </div></div><div class=""choice-option""><img src=""images/avoid.png"" class=""choice-option-img"" stage=""instructions"" position=""1"" ><div class=""choice-option-text""> Press ""0."" </div></div>","","0","instructions","","","","","","","","","","",""
"learning-instructions","13","60648","0.0-8.0-0.0-0.5","4516","1","22","Female","approach_avoid_spark_v1","""event"",""trial"",""time""
""fullscreenenter"",""1"",""1962""
","
","
","""event"",""trial"",""time""
""fullscreenenter"",""1"",""1962""
","
","","","","","","1432","<p> If you give them a piece of equipment they like, they will be happy! </p><p> But if you give them a piece of equipment they do not like, they will be sad. </p>","","0","instructions","","","","","","","","","","",""
"learning-instructions","14","73882","0.0-8.0-0.0-0.6","4516","1","22","Female","approach_avoid_spark_v1","""event"",""trial"",""time""
""fullscreenenter"",""1"",""1962""
","
","
","""event"",""trial"",""time""
""fullscreenenter"",""1"",""1962""
","
","","","","","","2728","<p> You will earn points based on how you make kids feel. </p><p> If you make them happy, you will WIN anywhere from 1 - 9 points, </p><p> but if you make them sad, you will LOSE anywhere from 1 - 9 points. </p>","","0","instructions","","","","","","","","","","",""
"learning-instructions","15","86063","0.0-8.0-0.0-0.7","4516","1","22","Female","approach_avoid_spark_v1","""event"",""trial"",""time""
""fullscreenenter"",""1"",""1962""
","
","
","""event"",""trial"",""time""
""fullscreenenter"",""1"",""1962""
","
","","","","","","2625","<p> You will see how many points you won or lost in the center of the screen. </p><p> Here is what you would see if you won 6 points: </p><p style=""color:green;font-size:50px;font-weight:bolder"">6</p><p style=""color:green"">The text is GREEN because you WON points.</p>","","0","instructions","","","","","","","","","","",""
"learning-instructions","16","95980","0.0-8.0-0.0-0.8","4516","1","22","Female","approach_avoid_spark_v1","""event"",""trial"",""time""
""fullscreenenter"",""1"",""1962""
","
","
","""event"",""trial"",""time""
""fullscreenenter"",""1"",""1962""
","
","","","","","","4413.000000000015","<p> And here is what you would see if you lost 4 points: </p><p style=""color:red;font-size:50px;font-weight:bolder"">-4</p><p style=""color:red"">The text is RED because you LOST points. </p>","","0","instructions","","","","","","","","","","",""
"learning-instructions","17","114663","0.0-8.0-0.0-0.9","4516","1","22","Female","approach_avoid_spark_v1","""event"",""trial"",""time""
""fullscreenenter"",""1"",""1962""
","
","
","""event"",""trial"",""time""
""fullscreenenter"",""1"",""1962""
","
","","","","","","3974","<p> Some of the equipment will make the kids VERY happy or sad. </p><p> These pieces of equipment will make you win or lose LOTS of points. </p><p> Other pieces of equipment will only make the kids a little happy or sad. </p><p> These pieces of equipment will make you win or lose small amounts of points. </p>","","0","instructions","","","","","","","","","","",""
"learning-instructions","18","127066","0.0-8.0-0.0-0.10","4516","1","22","Female","approach_avoid_spark_v1","""event"",""trial"",""time""
""fullscreenenter"",""1"",""1962""
","
","
","""event"",""trial"",""time""
""fullscreenenter"",""1"",""1962""
","
","","","","","","1781.0000000000146","<p> If you choose not to give them the equipment, you will not win or lose any points. </p><p>  However, in the center of the screen, you will see the number of points you WOULD HAVE won or lost if you had given them the equipment. </p>","","0","instructions","","","","","","","","","","",""
"learning-instructions","19","151780","0.0-8.0-0.0-0.11","4516","1","22","Female","approach_avoid_spark_v1","""event"",""trial"",""time""
""fullscreenenter"",""1"",""1962""
","
","
","""event"",""trial"",""time""
""fullscreenenter"",""1"",""1962""
","
","","","","","","3187","<p> Here is what you might see if you did not give the equipment to the kids but it would have made them happy: </p><p style=""color:grey; font-size:50px; display: inline-block; border-spacing: 15px; border-width:3px; border-style:solid; border-color:red"">  &nbsp; 7 &nbsp; </p><p> Remember, in this case, you would not win or lose ANY points because you did not give them the equipment.  </p><p style=""color:grey"">The text is GREY because you earned ZERO points. </p><p style=""color:red"">However, choosing to give the kids the equipment would have made you win points. The box around the text is RED because you chose the worse option. </p>","","0","instructions","","","","","","","","","","",""
"learning-instructions","20","173896","0.0-8.0-0.0-0.12","4516","1","22","Female","approach_avoid_spark_v1","""event"",""trial"",""time""
""fullscreenenter"",""1"",""1962""
","
","
","""event"",""trial"",""time""
""fullscreenenter"",""1"",""1962""
","
","","","","","","1044","<p> Here is what you might see if you did not give the equipment to the kids but it would have made them sad: </p><p style=""color:grey;font-size:50px; display: inline-block; border-spacing: 15px; border-width:3px; border-style:solid; border-color:green"">  &nbsp; -8 &nbsp; </p><p> Remember, in this case, you would not win or lose ANY points because you did not give them the equipment.  </p><p style=""color:grey"">The text is GREY because you earned ZERO points. </p><p  style=""color:green""> Choosing to give the kids the equipment would have made you lose points. The box around the text is GREEN because you chose the better option.</p>","","0","instructions","","","","","","","","","","",""
"learning-instructions","21","186930","0.0-8.0-0.0-0.13","4516","1","22","Female","approach_avoid_spark_v1","""event"",""trial"",""time""
""fullscreenenter"",""1"",""1962""
","
","
","""event"",""trial"",""time""
""fullscreenenter"",""1"",""1962""
","
","","","","","","4145","<p> You will have 3 seconds to make each choice. Try to respond before time runs out! </p><p> You will lose 5 points each time you do not make a response. </p>","","0","instructions","","","","","","","","","","",""
"learning-instructions","22","193165","0.0-8.0-0.0-0.14","4516","1","22","Female","approach_avoid_spark_v1","""event"",""trial"",""time""
""fullscreenenter"",""1"",""1962""
","
","
","""event"",""trial"",""time""
""fullscreenenter"",""1"",""1962""
","
","","","","","","826","<p> This is just a practice round, but in the real game, your bonus payment will depend on your total number of points.","","0","instructions","","","","","","","","","","",""
"learning-instructions","23","200747","0.0-8.0-0.0-0.15","4516","1","22","Female","approach_avoid_spark_v1","""event"",""trial"",""time""
""fullscreenenter"",""1"",""1962""
","
","
","""event"",""trial"",""time""
""fullscreenenter"",""1"",""1962""
","
","","","","","","1824","<p> Remember, you can give them the equipment by pressing 1 and choose not to give it to them by pressing 0. </p><br><div class=""choice-instructions-grid""> <div class=""choice-option""><img src=""images/approach.png"" class=""choice-option-img"" stage=""instructions"" position=""0"" ><div class=""choice-option-text""> Press ""1."" </div></div><div class=""choice-option""><img src=""images/avoid.png"" class=""choice-option-img"" stage=""instructions"" position=""1"" ><div class=""choice-option-text""> Press ""0."" </div></div>","","0","instructions","","","","","","","","","","",""
"html-button-response","24","201764","0.0-8.0-1.0","4516","1","22","Female","approach_avoid_spark_v1","""event"",""trial"",""time""
""fullscreenenter"",""1"",""1962""
","
","
","""event"",""trial"",""time""
""fullscreenenter"",""1"",""1962""
","
","","","","","","911.9999999999709","<p> Ready to practice? </p>","0","","","","","","","","","","","","",""
"html-keyboard-response","25","202368","0.0-8.0-2.0-0.0","4516","1","22","Female","approach_avoid_spark_v1","""event"",""trial"",""time""
""fullscreenenter"",""1"",""1962""
","
","
","""event"",""trial"",""time""
""fullscreenenter"",""1"",""1962""
","
","","","","","","null","<div style=""font-size:60px;"">+</div>","null","","fixation","","","","","","","","","","",""
"aa-learning-trial","26","205373","0.0-8.0-2.0-1.0","4516","1","22","Female","approach_avoid_spark_v1","""event"",""trial"",""time""
""fullscreenenter"",""1"",""1962""
","
","
","""event"",""trial"",""time""
""fullscreenenter"",""1"",""1962""
","
","","","","","","1446","images/ball2.png","","","learning","6","6","1","1","practice","practice","practice","-1","","",""
"html-keyboard-response","27","205875","0.0-8.0-2.0-0.1","4516","1","22","Female","approach_avoid_spark_v1","""event"",""trial"",""time""
""fullscreenenter"",""1"",""1962""
","
","
","""event"",""trial"",""time""
""fullscreenenter"",""1"",""1962""
","
","","","","","","null","<div style=""font-size:60px;"">+</div>","null","","fixation","","","","","","","","","","",""
"aa-learning-trial","28","208879","0.0-8.0-2.0-1.1","4516","1","22","Female","approach_avoid_spark_v1","""event"",""trial"",""time""
""fullscreenenter"",""1"",""1962""
","
","
","""event"",""trial"",""time""
""fullscreenenter"",""1"",""1962""
","
","","","","","","616","images/ball1.png","","","learning","1","0","0","0","practice","practice","practice","-1","","",""
"html-keyboard-response","29","209382","0.0-8.0-2.0-0.2","4516","1","22","Female","approach_avoid_spark_v1","""event"",""trial"",""time""
""fullscreenenter"",""1"",""1962""
","
","
","""event"",""trial"",""time""
""fullscreenenter"",""1"",""1962""
","
","","","","","","null","<div style=""font-size:60px;"">+</div>","null","","fixation","","","","","","","","","","",""
"aa-learning-trial","30","212387","0.0-8.0-2.0-1.2","4516","1","22","Female","approach_avoid_spark_v1","""event"",""trial"",""time""
""fullscreenenter"",""1"",""1962""
","
","
","""event"",""trial"",""time""
""fullscreenenter"",""1"",""1962""
","
","","","","","","182","images/ball4.png","","","learning","-4","-4","1","1","practice","practice","practice","-1","","",""
"html-keyboard-response","31","212889","0.0-8.0-2.0-0.3","4516","1","22","Female","approach_avoid_spark_v1","""event"",""trial"",""time""
""fullscreenenter"",""1"",""1962""
","
","
","""event"",""trial"",""time""
""fullscreenenter"",""1"",""1962""
","
","","","","","","null","<div style=""font-size:60px;"">+</div>","null","","fixation","","","","","","","","","","",""
"aa-learning-trial","32","215893","0.0-8.0-2.0-1.3","4516","1","22","Female","approach_avoid_spark_v1","""event"",""trial"",""time""
""fullscreenenter"",""1"",""1962""
","
","
","""event"",""trial"",""time""
""fullscreenenter"",""1"",""1962""
","
","","","","","","706","images/ball1.png","","","learning","-9","-9","1","1","practice","practice","practice","-1","","",""
"html-keyboard-response","33","216396","0.0-8.0-2.0-0.4","4516","1","22","Female","approach_avoid_spark_v1","""event"",""trial"",""time""
""fullscreenenter"",""1"",""1962""
","
","
","""event"",""trial"",""time""
""fullscreenenter"",""1"",""1962""
","
","","","","","","null","<div style=""font-size:60px;"">+</div>","null","","fixation","","","","","","","","","","",""
"aa-learning-trial","34","219400","0.0-8.0-2.0-1.4","4516","1","22","Female","approach_avoid_spark_v1","""event"",""trial"",""time""
""fullscreenenter"",""1"",""1962""
","
","
","""event"",""trial"",""time""
""fullscreenenter"",""1"",""1962""
","
","","","","","","484.9999999999709","images/racket4.png","","","learning","4","0","0","0","practice","practice","practice","-1","","",""
"html-keyboard-response","35","219902","0.0-8.0-2.0-0.5","4516","1","22","Female","approach_avoid_spark_v1","""event"",""trial"",""time""
""fullscreenenter"",""1"",""1962""
","
","
","""event"",""trial"",""time""
""fullscreenenter"",""1"",""1962""
","
","","","","","","null","<div style=""font-size:60px;"">+</div>","null","","fixation","","","","","","","","","","",""
"aa-learning-trial","36","222906","0.0-8.0-2.0-1.5","4516","1","22","Female","approach_avoid_spark_v1","""event"",""trial"",""time""
""fullscreenenter"",""1"",""1962""
","
","
","""event"",""trial"",""time""
""fullscreenenter"",""1"",""1962""
","
","","","","","","463","images/racket3.png","","","learning","-1","-1","1","1","practice","practice","practice","-1","","",""
"html-keyboard-response","37","223407","0.0-8.0-2.0-0.6","4516","1","22","Female","approach_avoid_spark_v1","""event"",""trial"",""time""
""fullscreenenter"",""1"",""1962""
","
","
","""event"",""trial"",""time""
""fullscreenenter"",""1"",""1962""
","
","","","","","","null","<div style=""font-size:60px;"">+</div>","null","","fixation","","","","","","","","","","",""
"aa-learning-trial","38","226410","0.0-8.0-2.0-1.6","4516","1","22","Female","approach_avoid_spark_v1","""event"",""trial"",""time""
""fullscreenenter"",""1"",""1962""
","
","
","""event"",""trial"",""time""
""fullscreenenter"",""1"",""1962""
","
","","","","","","1189","images/racket1.png","","","learning","-3","0","0","0","practice","practice","practice","-1","","",""
"html-keyboard-response","39","226912","0.0-8.0-2.0-0.7","4516","1","22","Female","approach_avoid_spark_v1","""event"",""trial"",""time""
""fullscreenenter"",""1"",""1962""
","
","
","""event"",""trial"",""time""
""fullscreenenter"",""1"",""1962""
","
","","","","","","null","<div style=""font-size:60px;"">+</div>","null","","fixation","","","","","","","","","","",""
"aa-learning-trial","40","229914","0.0-8.0-2.0-1.7","4516","1","22","Female","approach_avoid_spark_v1","""event"",""trial"",""time""
""fullscreenenter"",""1"",""1962""
","
","
","""event"",""trial"",""time""
""fullscreenenter"",""1"",""1962""
","
","","","","","","2361","images/racket2.png","","","learning","-3","0","0","0","practice","practice","practice","-1","","",""
"html-keyboard-response","41","230417","0.0-8.0-2.0-0.8","4516","1","22","Female","approach_avoid_spark_v1","""event"",""trial"",""time""
""fullscreenenter"",""1"",""1962""
","
","
","""event"",""trial"",""time""
""fullscreenenter"",""1"",""1962""
","
","","","","","","null","<div style=""font-size:60px;"">+</div>","null","","fixation","","","","","","","","","","",""
"aa-learning-trial","42","233420","0.0-8.0-2.0-1.8","4516","1","22","Female","approach_avoid_spark_v1","""event"",""trial"",""time""
""fullscreenenter"",""1"",""1962""
","
","
","""event"",""trial"",""time""
""fullscreenenter"",""1"",""1962""
","
","","","","","","751","images/racket4.png","","","learning","2","0","0","0","practice","practice","practice","-1","","",""
"html-keyboard-response","43","233922","0.0-8.0-2.0-0.9","4516","1","22","Female","approach_avoid_spark_v1","""event"",""trial"",""time""
""fullscreenenter"",""1"",""1962""
","
","
","""event"",""trial"",""time""
""fullscreenenter"",""1"",""1962""
","
","","","","","","null","<div style=""font-size:60px;"">+</div>","null","","fixation","","","","","","","","","","",""
"aa-learning-trial","44","236925","0.0-8.0-2.0-1.9","4516","1","22","Female","approach_avoid_spark_v1","""event"",""trial"",""time""
""fullscreenenter"",""1"",""1962""
","
","
","""event"",""trial"",""time""
""fullscreenenter"",""1"",""1962""
","
","","","","","","882","images/racket4.png","","","learning","-2","0","0","0","practice","practice","practice","-1","","",""
"html-keyboard-response","45","237428","0.0-8.0-2.0-0.10","4516","1","22","Female","approach_avoid_spark_v1","""event"",""trial"",""time""
""fullscreenenter"",""1"",""1962""
","
","
","""event"",""trial"",""time""
""fullscreenenter"",""1"",""1962""
","
","","","","","","null","<div style=""font-size:60px;"">+</div>","null","","fixation","","","","","","","","","","",""
"aa-learning-trial","46","240432","0.0-8.0-2.0-1.10","4516","1","22","Female","approach_avoid_spark_v1","""event"",""trial"",""time""
""fullscreenenter"",""1"",""1962""
","
","
","""event"",""trial"",""time""
""fullscreenenter"",""1"",""1962""
","
","","","","","","931","images/ball1.png","","","learning","-6","-6","1","1","practice","practice","practice","-1","","",""
"html-keyboard-response","47","240934","0.0-8.0-2.0-0.11","4516","1","22","Female","approach_avoid_spark_v1","""event"",""trial"",""time""
""fullscreenenter"",""1"",""1962""
","
","
","""event"",""trial"",""time""
""fullscreenenter"",""1"",""1962""
","
","","","","","","null","<div style=""font-size:60px;"">+</div>","null","","fixation","","","","","","","","","","",""
"aa-learning-trial","48","243938","0.0-8.0-2.0-1.11","4516","1","22","Female","approach_avoid_spark_v1","""event"",""trial"",""time""
""fullscreenenter"",""1"",""1962""
","
","
","""event"",""trial"",""time""
""fullscreenenter"",""1"",""1962""
","
","","","","","","902","images/racket4.png","","","learning","-3","0","0","0","practice","practice","practice","-1","","",""
"html-button-response","49","245382","0.0-8.0-3.0","4516","1","22","Female","approach_avoid_spark_v1","""event"",""trial"",""time""
""fullscreenenter"",""1"",""1962""
","
","
","""event"",""trial"",""time""
""fullscreenenter"",""1"",""1962""
","
","","","","","","1441","<p> You earned -14 points in the practice round! </p>","0","","break","","","","","","","","","","",""
"learning-instructions","50","251916","0.0-8.0-4.0-0.0","4516","1","22","Female","approach_avoid_spark_v1","""event"",""trial"",""time""
""fullscreenenter"",""1"",""1962""
","
","
","""event"",""trial"",""time""
""fullscreenenter"",""1"",""1962""
","
","","","","","","578.0000000000291","<p> It's almost time to start the real game. </p><p> Before you start, we're going to ask you a few questions about how the game works. </p>","","0","instructions","","","","","","","","","","",""
"preload","51","252959","0.0-8.0-5.0","4516","1","22","Female","approach_avoid_spark_v1","""event"",""trial"",""time""
""fullscreenenter"",""1"",""1962""
","
","
","""event"",""trial"",""time""
""fullscreenenter"",""1"",""1962""
","
","true","false","[]","[]","[]","","","","","","","","","","","","","","","",""
"comp-q","52","258814","0.0-8.0-6.0-0.0","4516","1","22","Female","approach_avoid_spark_v1","""event"",""trial"",""time""
""fullscreenenter"",""1"",""1962""
","
","
","""event"",""trial"",""time""
""fullscreenenter"",""1"",""1962""
","
","","","","","","858","<p> <b> True or False? </b> </p><p> If you see a number in GREY, that means you earned that many points. </p>","","1","comp_question","","","","","","","","","true","",""
"comp-q","53","269196","0.0-8.0-6.0-1.0","4516","1","22","Female","approach_avoid_spark_v1","""event"",""trial"",""time""
""fullscreenenter"",""1"",""1962""
","
","
","""event"",""trial"",""time""
""fullscreenenter"",""1"",""1962""
","
","","","","","","2021.9999999999418","<p><b> That's right! </b> If you see a grey number, it means you earned ZERO points. <br> The grey numbers show the points you WOULD HAVE earned if you had made the other choice. </p>","","0","comp_answer","","","","","","","","","","",""
"comp-q","54","274429","0.0-8.0-7.0-0.0","4516","1","22","Female","approach_avoid_spark_v1","""event"",""trial"",""time""
""fullscreenenter"",""1"",""1962""
","
","
","""event"",""trial"",""time""
""fullscreenenter"",""1"",""1962""
","
","","","","","","544","<p> <b> True or False? </b> </p><p> You will have as much time as you want to make each choice. </p>","","1","comp_question","","","","","","","","","true","",""
"comp-q","55","280032","0.0-8.0-7.0-1.0","4516","1","22","Female","approach_avoid_spark_v1","""event"",""trial"",""time""
""fullscreenenter"",""1"",""1962""
","
","
","""event"",""trial"",""time""
""fullscreenenter"",""1"",""1962""
","
","","","","","","1566","<p> <b> That's right! </b> You will only have 3 seconds to make each choice. </p>","","0","comp_answer","","","","","","","","","","",""
"comp-q","56","285397","0.0-8.0-8.0-0.0","4516","1","22","Female","approach_avoid_spark_v1","""event"",""trial"",""time""
""fullscreenenter"",""1"",""1962""
","
","
","""event"",""trial"",""time""
""fullscreenenter"",""1"",""1962""
","
","","","","","","709","<p> <b> True or False? </b> </p><p> You should use the '1' and '0' keys to make your choices. </p>","","0","comp_question","","","","","","","","","true","",""
"comp-q","57","293316","0.0-8.0-8.0-1.0","4516","1","22","Female","approach_avoid_spark_v1","""event"",""trial"",""time""
""fullscreenenter"",""1"",""1962""
","
","
","""event"",""trial"",""time""
""fullscreenenter"",""1"",""1962""
","
","","","","","","3311","<p> <b> That's right! </b> You should use the '1' and '0' keys to make each choice. </p>","","0","comp_answer","","","","","","","","","","",""
"learning-instructions","58","311596","0.0-8.0-9.0-0.0","4516","1","22","Female","approach_avoid_spark_v1","""event"",""trial"",""time""
""fullscreenenter"",""1"",""1962""
","
","
","""event"",""trial"",""time""
""fullscreenenter"",""1"",""1962""
","
","","","","","","12007","<p> It's now time to start the real game. </p>Do your best, because the points you earn in the next rounds will influence your bonus payment. </p>","","0","instructions","","","","","","","","","","",""
"preload","59","311710","0.0-9.0-0.0","4516","1","22","Female","approach_avoid_spark_v1","""event"",""trial"",""time""
""fullscreenenter"",""1"",""1962""
","
","
","""event"",""trial"",""time""
""fullscreenenter"",""1"",""1962""
","
","true","false","[]","[]","[]","","","","","","","","","","","","","","","",""
"learning-instructions","60","317363","0.0-9.0-1.0-0.0","4516","1","22","Female","approach_avoid_spark_v1","""event"",""trial"",""time""
""fullscreenenter"",""1"",""1962""
","
","
","""event"",""trial"",""time""
""fullscreenenter"",""1"",""1962""
","
","","","","","","2000","<p> Your goal in this round is to take care of lots of animals. </p></div>","","0","instructions","","","","","","","","","","",""
"learning-instructions","61","332265","0.0-9.0-1.0-0.1","4516","1","22","Female","approach_avoid_spark_v1","""event"",""trial"",""time""
""fullscreenenter"",""1"",""1962""
","
","
","""event"",""trial"",""time""
""fullscreenenter"",""1"",""1962""
","
","","","","","","5706","<p> Some animals want to be pet, while other animals want to be left alone.  </p><p> On each turn, you will see an animal.   </p><p> You need to decide whether to pet it or not.  </p>","","0","instructions","","","","","","","","","","",""
"learning-instructions","62","339729","0.0-9.0-1.0-0.2","4516","1","22","Female","approach_avoid_spark_v1","""event"",""trial"",""time""
""fullscreenenter"",""1"",""1962""
","
","
","""event"",""trial"",""time""
""fullscreenenter"",""1"",""1962""
","
","","","","","","2533","<p> You can pet the animal by pressing 1 and leave the animal alone by pressing 0. </p><br><div class=""choice-instructions-grid""> <div class=""choice-option""><img src=""images/approach.png"" class=""choice-option-img"" stage=""instructions"" position=""0"" ><div class=""choice-option-text""> Press ""1."" </div></div><div class=""choice-option""><img src=""images/avoid.png"" class=""choice-option-img"" stage=""instructions"" position=""1"" ><div class=""choice-option-text""> Press ""0."" </div></div>","","0","instructions","","","","","","","","","","",""
"learning-instructions","63","353329","0.0-9.0-1.0-0.3","4516","1","22","Female","approach_avoid_spark_v1","""event"",""trial"",""time""
""fullscreenenter"",""1"",""1962""
","
","
","""event"",""trial"",""time""
""fullscreenenter"",""1"",""1962""
","
","","","","","","5140","<p> If you pet an animal that wants to be pet, you will make it feel happy! </p><p> But if you pet an animal that wants to be left alone, you will make it feel angry. </p>","","0","instructions","","","","","","","","","","",""
"learning-instructions","64","372563","0.0-9.0-1.0-0.4","4516","1","22","Female","approach_avoid_spark_v1","""event"",""trial"",""time""
""fullscreenenter"",""1"",""1962""
","
","
","""event"",""trial"",""time""
""fullscreenenter"",""1"",""1962""
","
","","","","","","7292","<p> You will earn points based on how you made the animal feel. </p><p> If you made it feel happy, you will WIN anywhere from 1 - 9 points, </p><p> but if you made it feel angry, you will LOSE anywhere from 1 - 9 points. </p>","","0","instructions","","","","","","","","","","",""
"learning-instructions","65","382546","0.0-9.0-1.0-0.5","4516","1","22","Female","approach_avoid_spark_v1","""event"",""trial"",""time""
""fullscreenenter"",""1"",""1962""
","
","
","""event"",""trial"",""time""
""fullscreenenter"",""1"",""1962""
","
","","","","","","2650","<p> You will see how many points you won or lost in the center of the screen. </p><p> Here is what you would see if you won 5 points: </p><p style=""color:green;font-size:50px;font-weight:bolder"">5</p>","","0","instructions","","","","","","","","","","",""
"learning-instructions","66","389029","0.0-9.0-1.0-0.6","4516","1","22","Female","approach_avoid_spark_v1","""event"",""trial"",""time""
""fullscreenenter"",""1"",""1962""
","
","
","""event"",""trial"",""time""
""fullscreenenter"",""1"",""1962""
","
","","","","","","464","<p> And here is what you would see if you lost 3 points: </p><p style=""color:red;font-size:50px;font-weight:bolder"">-3</p>","","0","instructions","","","","","","","","","","",""
"learning-instructions","67","404933","0.0-9.0-1.0-0.7","4516","1","22","Female","approach_avoid_spark_v1","""event"",""trial"",""time""
""fullscreenenter"",""1"",""1962""
","
","
","""event"",""trial"",""time""
""fullscreenenter"",""1"",""1962""
","
","","","","","","1309","<p> Some animals will become very happy or very angry. </p><p> These animals will make you win or lose LOTS of points. </p><p> Other animals have less strong feelings. </p><p> These animals will make you win or lose small amounts of points. </p>","","0","instructions","","","","","","","","","","",""
"learning-instructions","68","424131","0.0-9.0-1.0-0.8","4516","1","22","Female","approach_avoid_spark_v1","""event"",""trial"",""time""
""fullscreenenter"",""1"",""1962""
","
","
","""event"",""trial"",""time""
""fullscreenenter"",""1"",""1962""
","
","","","","","","8339","<p> If you choose to leave the animal alone, you will not win or lose any points. </p><p>  However, in the center of the screen, you will see the number of points you WOULD HAVE won or lost if you had pet the animal. </p>","","0","instructions","","","","","","","","","","",""
"learning-instructions","69","437812","0.0-9.0-1.0-0.9","4516","1","22","Female","approach_avoid_spark_v1","""event"",""trial"",""time""
""fullscreenenter"",""1"",""1962""
","
","
","""event"",""trial"",""time""
""fullscreenenter"",""1"",""1962""
","
","","","","","","2270","<p> Here is what you might see if you did not pet the animal but the animal wanted to be pet: </p><p style=""color:grey; font-size:50px; display: inline-block; border-spacing: 15px; border-width:3px; border-style:solid; border-color:red"">  &nbsp; 6 &nbsp; </p><p> Remember, in this case, you would not win or lose ANY points because you did not pet the animal.  </p>","","0","instructions","","","","","","","","","","",""
"learning-instructions","70","445782","0.0-9.0-1.0-0.10","4516","1","22","Female","approach_avoid_spark_v1","""event"",""trial"",""time""
""fullscreenenter"",""1"",""1962""
","
","
","""event"",""trial"",""time""
""fullscreenenter"",""1"",""1962""
","
","","","","","","1048","<p> Try to make the best choice for each animal because </p><p> at the end of the game, you will earn bonus money based on how many points you earned. </p>","","0","instructions","","","","","","","","","","",""
"learning-instructions","71","456379","0.0-9.0-1.0-0.11","4516","1","22","Female","approach_avoid_spark_v1","""event"",""trial"",""time""
""fullscreenenter"",""1"",""1962""
","
","
","""event"",""trial"",""time""
""fullscreenenter"",""1"",""1962""
","
","","","","","","2412","<p> You will have 3 seconds to make each choice. Try to respond before time runs out! </p><p> You will lose 5 points each time you do not make a response. </p>","","0","instructions","","","","","","","","","","",""
"html-keyboard-response","72","456983","0.0-9.0-2.0-0.0","4516","1","22","Female","approach_avoid_spark_v1","""event"",""trial"",""time""
""fullscreenenter"",""1"",""1962""
","
","
","""event"",""trial"",""time""
""fullscreenenter"",""1"",""1962""
","
","","","","","","null","<div style=""font-size:60px;"">+</div>","null","","fixation","","","","","","","","","","",""
"aa-learning-trial","73","459987","0.0-9.0-2.0-1.0","4516","1","22","Female","approach_avoid_spark_v1","""event"",""trial"",""time""
""fullscreenenter"",""1"",""1962""
","
","
","""event"",""trial"",""time""
""fullscreenenter"",""1"",""1962""
","
","","","","","","1440","images/dog3.png","","","learning","3","3","1","1","dog","pets","1","0","","good","[4]"
"html-keyboard-response","74","460490","0.0-9.0-2.0-0.1","4516","1","22","Female","approach_avoid_spark_v1","""event"",""trial"",""time""
""fullscreenenter"",""1"",""1962""
","
","
","""event"",""trial"",""time""
""fullscreenenter"",""1"",""1962""
","
","","","","","","null","<div style=""font-size:60px;"">+</div>","null","","fixation","","","","","","","","","","",""
"aa-learning-trial","75","463494","0.0-9.0-2.0-1.1","4516","1","22","Female","approach_avoid_spark_v1","""event"",""trial"",""time""
""fullscreenenter"",""1"",""1962""
","
","
","""event"",""trial"",""time""
""fullscreenenter"",""1"",""1962""
","
","","","","","","919.9999999999418","images/rabbit8.png","","","learning","[-1]","0","0","0","rabbit","pets","1","0","","neutral","0"
"html-keyboard-response","76","463997","0.0-9.0-2.0-0.2","4516","1","22","Female","approach_avoid_spark_v1","""event"",""trial"",""time""
""fullscreenenter"",""1"",""1962""
","
","
","""event"",""trial"",""time""
""fullscreenenter"",""1"",""1962""
","
","","","","","","null","<div style=""font-size:60px;"">+</div>","null","","fixation","","","","","","","","","","",""
"aa-learning-trial","77","467001","0.0-9.0-2.0-1.2","4516","1","22","Female","approach_avoid_spark_v1","""event"",""trial"",""time""
""fullscreenenter"",""1"",""1962""
","
","
","""event"",""trial"",""time""
""fullscreenenter"",""1"",""1962""
","
","","","","","","865","images/cat7.png","","","learning","-3","-3","1","1","cat","pets","1","0","","bad","[-5]"
"html-keyboard-response","78","467503","0.0-9.0-2.0-0.3","4516","1","22","Female","approach_avoid_spark_v1","""event"",""trial"",""time""
""fullscreenenter"",""1"",""1962""
","
","
","""event"",""trial"",""time""
""fullscreenenter"",""1"",""1962""
","
","","","","","","null","<div style=""font-size:60px;"">+</div>","null","","fixation","","","","","","","","","","",""
"aa-learning-trial","79","470507","0.0-9.0-2.0-1.3","4516","1","22","Female","approach_avoid_spark_v1","""event"",""trial"",""time""
""fullscreenenter"",""1"",""1962""
","
","
","""event"",""trial"",""time""
""fullscreenenter"",""1"",""1962""
","
","","","","","","864","images/dog4.png","","","learning","4","4","1","1","dog","pets","1","0","","good","[4]"
"html-keyboard-response","80","471009","0.0-9.0-2.0-0.4","4516","1","22","Female","approach_avoid_spark_v1","""event"",""trial"",""time""
""fullscreenenter"",""1"",""1962""
","
","
","""event"",""trial"",""time""
""fullscreenenter"",""1"",""1962""
","
","","","","","","null","<div style=""font-size:60px;"">+</div>","null","","fixation","","","","","","","","","","",""
"aa-learning-trial","81","474012","0.0-9.0-2.0-1.4","4516","1","22","Female","approach_avoid_spark_v1","""event"",""trial"",""time""
""fullscreenenter"",""1"",""1962""
","
","
","""event"",""trial"",""time""
""fullscreenenter"",""1"",""1962""
","
","","","","","","879","images/cat7.png","","","learning","-7","0","0","0","cat","pets","1","0","","bad","[-5]"
"html-keyboard-response","82","474515","0.0-9.0-2.0-0.5","4516","1","22","Female","approach_avoid_spark_v1","""event"",""trial"",""time""
""fullscreenenter"",""1"",""1962""
","
","
","""event"",""trial"",""time""
""fullscreenenter"",""1"",""1962""
","
","","","","","","null","<div style=""font-size:60px;"">+</div>","null","","fixation","","","","","","","","","","",""
"aa-learning-trial","83","477517","0.0-9.0-2.0-1.5","4516","1","22","Female","approach_avoid_spark_v1","""event"",""trial"",""time""
""fullscreenenter"",""1"",""1962""
","
","
","""event"",""trial"",""time""
""fullscreenenter"",""1"",""1962""
","
","","","","","","1266.0000000000582","images/rabbit6.png","","","learning","2","2","1","1","rabbit","pets","1","0","","neutral","0"
"html-keyboard-response","84","478019","0.0-9.0-2.0-0.6","4516","1","22","Female","approach_avoid_spark_v1","""event"",""trial"",""time""
""fullscreenenter"",""1"",""1962""
","
","
","""event"",""trial"",""time""
""fullscreenenter"",""1"",""1962""
","
","","","","","","null","<div style=""font-size:60px;"">+</div>","null","","fixation","","","","","","","","","","",""
"aa-learning-trial","85","481023","0.0-9.0-2.0-1.6","4516","1","22","Female","approach_avoid_spark_v1","""event"",""trial"",""time""
""fullscreenenter"",""1"",""1962""
","
","
","""event"",""trial"",""time""
""fullscreenenter"",""1"",""1962""
","
","","","","","","1368.9999999999418","images/cat3.png","","","learning","-6","0","0","0","cat","pets","1","0","","bad","[-5]"
"html-keyboard-response","86","481525","0.0-9.0-2.0-0.7","4516","1","22","Female","approach_avoid_spark_v1","""event"",""trial"",""time""
""fullscreenenter"",""1"",""1962""
","
","
","""event"",""trial"",""time""
""fullscreenenter"",""1"",""1962""
","
","","","","","","null","<div style=""font-size:60px;"">+</div>","null","","fixation","","","","","","","","","","",""
"aa-learning-trial","87","484529","0.0-9.0-2.0-1.7","4516","1","22","Female","approach_avoid_spark_v1","""event"",""trial"",""time""
""fullscreenenter"",""1"",""1962""
","
","
","""event"",""trial"",""time""
""fullscreenenter"",""1"",""1962""
","
","","","","","","1052","images/cat6.png","","","learning","-3","0","0","0","cat","pets","1","0","","bad","[-5]"
"html-keyboard-response","88","485031","0.0-9.0-2.0-0.8","4516","1","22","Female","approach_avoid_spark_v1","""event"",""trial"",""time""
""fullscreenenter"",""1"",""1962""
","
","
","""event"",""trial"",""time""
""fullscreenenter"",""1"",""1962""
","
","","","","","","null","<div style=""font-size:60px;"">+</div>","null","","fixation","","","","","","","","","","",""
"aa-learning-trial","89","488035","0.0-9.0-2.0-1.8","4516","1","22","Female","approach_avoid_spark_v1","""event"",""trial"",""time""
""fullscreenenter"",""1"",""1962""
","
","
","""event"",""trial"",""time""
""fullscreenenter"",""1"",""1962""
","
","","","","","","1008.9999999999418","images/dog4.png","","","learning","4","4","1","1","dog","pets","1","0","","good","[4]"
"html-keyboard-response","90","488537","0.0-9.0-2.0-0.9","4516","1","22","Female","approach_avoid_spark_v1","""event"",""trial"",""time""
""fullscreenenter"",""1"",""1962""
","
","
","""event"",""trial"",""time""
""fullscreenenter"",""1"",""1962""
","
","","","","","","null","<div style=""font-size:60px;"">+</div>","null","","fixation","","","","","","","","","","",""
"aa-learning-trial","91","491542","0.0-9.0-2.0-1.9","4516","1","22","Female","approach_avoid_spark_v1","""event"",""trial"",""time""
""fullscreenenter"",""1"",""1962""
","
","
","""event"",""trial"",""time""
""fullscreenenter"",""1"",""1962""
","
","","","","","","1248.9999999999418","images/dog7.png","","","learning","5","5","1","1","dog","pets","1","0","","good","[4]"
"html-keyboard-response","92","492044","0.0-9.0-2.0-0.10","4516","1","22","Female","approach_avoid_spark_v1","""event"",""trial"",""time""
""fullscreenenter"",""1"",""1962""
","
","
","""event"",""trial"",""time""
""fullscreenenter"",""1"",""1962""
","
","","","","","","null","<div style=""font-size:60px;"">+</div>","null","","fixation","","","","","","","","","","",""
"aa-learning-trial","93","495047","0.0-9.0-2.0-1.10","4516","1","22","Female","approach_avoid_spark_v1","""event"",""trial"",""time""
""fullscreenenter"",""1"",""1962""
","
","
","""event"",""trial"",""time""
""fullscreenenter"",""1"",""1962""
","
","","","","","","1266","images/rabbit5.png","","","learning","1","0","0","0","rabbit","pets","1","0","","neutral","0"
"html-keyboard-response","94","495549","0.0-9.0-2.0-0.11","4516","1","22","Female","approach_avoid_spark_v1","""event"",""trial"",""time""
""fullscreenenter"",""1"",""1962""
","
","
","""event"",""trial"",""time""
""fullscreenenter"",""1"",""1962""
","
","","","","","","null","<div style=""font-size:60px;"">+</div>","null","","fixation","","","","","","","","","","",""
"aa-learning-trial","95","498553","0.0-9.0-2.0-1.11","4516","1","22","Female","approach_avoid_spark_v1","""event"",""trial"",""time""
""fullscreenenter"",""1"",""1962""
","
","
","""event"",""trial"",""time""
""fullscreenenter"",""1"",""1962""
","
","","","","","","864.9999999999418","images/cat6.png","","","learning","-6","-6","1","1","cat","pets","1","0","","bad","[-5]"
"html-keyboard-response","96","499055","0.0-9.0-2.0-0.12","4516","1","22","Female","approach_avoid_spark_v1","""event"",""trial"",""time""
""fullscreenenter"",""1"",""1962""
","
","
","""event"",""trial"",""time""
""fullscreenenter"",""1"",""1962""
","
","","","","","","null","<div style=""font-size:60px;"">+</div>","null","","fixation","","","","","","","","","","",""
"aa-learning-trial","97","502059","0.0-9.0-2.0-1.12","4516","1","22","Female","approach_avoid_spark_v1","""event"",""trial"",""time""
""fullscreenenter"",""1"",""1962""
","
","
","""event"",""trial"",""time""
""fullscreenenter"",""1"",""1962""
","
","","","","","","829.9999999999418","images/dog7.png","","","learning","4","4","1","1","dog","pets","1","0","","good","[4]"
"html-keyboard-response","98","502561","0.0-9.0-2.0-0.13","4516","1","22","Female","approach_avoid_spark_v1","""event"",""trial"",""time""
""fullscreenenter"",""1"",""1962""
","
","
","""event"",""trial"",""time""
""fullscreenenter"",""1"",""1962""
","
","","","","","","null","<div style=""font-size:60px;"">+</div>","null","","fixation","","","","","","","","","","",""
"aa-learning-trial","99","505565","0.0-9.0-2.0-1.13","4516","1","22","Female","approach_avoid_spark_v1","""event"",""trial"",""time""
""fullscreenenter"",""1"",""1962""
","
","
","""event"",""trial"",""time""
""fullscreenenter"",""1"",""1962""
","
","","","","","","1534.9999999999418","images/rabbit6.png","","","learning","1","1","1","1","rabbit","pets","1","0","","neutral","0"
"html-keyboard-response","100","506067","0.0-9.0-2.0-0.14","4516","1","22","Female","approach_avoid_spark_v1","""event"",""trial"",""time""
""fullscreenenter"",""1"",""1962""
","
","
","""event"",""trial"",""time""
""fullscreenenter"",""1"",""1962""
","
","","","","","","null","<div style=""font-size:60px;"">+</div>","null","","fixation","","","","","","","","","","",""
"aa-learning-trial","101","509070","0.0-9.0-2.0-1.14","4516","1","22","Female","approach_avoid_spark_v1","""event"",""trial"",""time""
""fullscreenenter"",""1"",""1962""
","
","
","""event"",""trial"",""time""
""fullscreenenter"",""1"",""1962""
","
","","","","","","717.9999999999418","images/rabbit8.png","","","learning","1","1","1","1","rabbit","pets","1","0","","neutral","0"
"html-keyboard-response","102","509571","0.0-9.0-2.0-0.15","4516","1","22","Female","approach_avoid_spark_v1","""event"",""trial"",""time""
""fullscreenenter"",""1"",""1962""
","
","
","""event"",""trial"",""time""
""fullscreenenter"",""1"",""1962""
","
","","","","","","null","<div style=""font-size:60px;"">+</div>","null","","fixation","","","","","","","","","","",""
"aa-learning-trial","103","512575","0.0-9.0-2.0-1.15","4516","1","22","Female","approach_avoid_spark_v1","""event"",""trial"",""time""
""fullscreenenter"",""1"",""1962""
","
","
","""event"",""trial"",""time""
""fullscreenenter"",""1"",""1962""
","
","","","","","","566","images/rabbit6.png","","","learning","-2","-2","1","1","rabbit","pets","1","0","","neutral","0"
"html-keyboard-response","104","513077","0.0-9.0-2.0-0.16","4516","1","22","Female","approach_avoid_spark_v1","""event"",""trial"",""time""
""fullscreenenter"",""1"",""1962""
","
","
","""event"",""trial"",""time""
""fullscreenenter"",""1"",""1962""
","
","","","","","","null","<div style=""font-size:60px;"">+</div>","null","","fixation","","","","","","","","","","",""
"aa-learning-trial","105","516081","0.0-9.0-2.0-1.16","4516","1","22","Female","approach_avoid_spark_v1","""event"",""trial"",""time""
""fullscreenenter"",""1"",""1962""
","
","
","""event"",""trial"",""time""
""fullscreenenter"",""1"",""1962""
","
","","","","","","685.9999999999418","images/dog6.png","","","learning","3","3","1","1","dog","pets","1","0","","good","[4]"
"html-keyboard-response","106","516583","0.0-9.0-2.0-0.17","4516","1","22","Female","approach_avoid_spark_v1","""event"",""trial"",""time""
""fullscreenenter"",""1"",""1962""
","
","
","""event"",""trial"",""time""
""fullscreenenter"",""1"",""1962""
","
","","","","","","null","<div style=""font-size:60px;"">+</div>","null","","fixation","","","","","","","","","","",""
"aa-learning-trial","107","519587","0.0-9.0-2.0-1.17","4516","1","22","Female","approach_avoid_spark_v1","""event"",""trial"",""time""
""fullscreenenter"",""1"",""1962""
","
","
","""event"",""trial"",""time""
""fullscreenenter"",""1"",""1962""
","
","","","","","","816.0000000000582","images/cat5.png","","","learning","-5","0","0","0","cat","pets","1","0","","bad","[-5]"
"html-keyboard-response","108","520089","0.0-9.0-2.0-0.18","4516","1","22","Female","approach_avoid_spark_v1","""event"",""trial"",""time""
""fullscreenenter"",""1"",""1962""
","
","
","""event"",""trial"",""time""
""fullscreenenter"",""1"",""1962""
","
","","","","","","null","<div style=""font-size:60px;"">+</div>","null","","fixation","","","","","","","","","","",""
"aa-learning-trial","109","523093","0.0-9.0-2.0-1.18","4516","1","22","Female","approach_avoid_spark_v1","""event"",""trial"",""time""
""fullscreenenter"",""1"",""1962""
","
","
","""event"",""trial"",""time""
""fullscreenenter"",""1"",""1962""
","
","","","","","","1162","images/dog3.png","","","learning","5","5","1","1","dog","pets","1","0","","good","[4]"
"html-keyboard-response","110","523595","0.0-9.0-2.0-0.19","4516","1","22","Female","approach_avoid_spark_v1","""event"",""trial"",""time""
""fullscreenenter"",""1"",""1962""
","
","
","""event"",""trial"",""time""
""fullscreenenter"",""1"",""1962""
","
","","","","","","null","<div style=""font-size:60px;"">+</div>","null","","fixation","","","","","","","","","","",""
"aa-learning-trial","111","526599","0.0-9.0-2.0-1.19","4516","1","22","Female","approach_avoid_spark_v1","""event"",""trial"",""time""
""fullscreenenter"",""1"",""1962""
","
","
","""event"",""trial"",""time""
""fullscreenenter"",""1"",""1962""
","
","","","","","","851","images/cat7.png","","","learning","-6","0","0","0","cat","pets","1","0","","bad","[-5]"
"html-keyboard-response","112","527102","0.0-9.0-2.0-0.20","4516","1","22","Female","approach_avoid_spark_v1","""event"",""trial"",""time""
""fullscreenenter"",""1"",""1962""
","
","
","""event"",""trial"",""time""
""fullscreenenter"",""1"",""1962""
","
","","","","","","null","<div style=""font-size:60px;"">+</div>","null","","fixation","","","","","","","","","","",""
"aa-learning-trial","113","530105","0.0-9.0-2.0-1.20","4516","1","22","Female","approach_avoid_spark_v1","""event"",""trial"",""time""
""fullscreenenter"",""1"",""1962""
","
","
","""event"",""trial"",""time""
""fullscreenenter"",""1"",""1962""
","
","","","","","","621","images/cat7.png","","","learning","-5","0","0","0","cat","pets","1","0","","bad","[-5]"
"html-keyboard-response","114","530608","0.0-9.0-2.0-0.21","4516","1","22","Female","approach_avoid_spark_v1","""event"",""trial"",""time""
""fullscreenenter"",""1"",""1962""
","
","
","""event"",""trial"",""time""
""fullscreenenter"",""1"",""1962""
","
","","","","","","null","<div style=""font-size:60px;"">+</div>","null","","fixation","","","","","","","","","","",""
"aa-learning-trial","115","533611","0.0-9.0-2.0-1.21","4516","1","22","Female","approach_avoid_spark_v1","""event"",""trial"",""time""
""fullscreenenter"",""1"",""1962""
","
","
","""event"",""trial"",""time""
""fullscreenenter"",""1"",""1962""
","
","","","","","","653","images/dog3.png","","","learning","2","2","1","1","dog","pets","1","0","","good","[4]"
"html-keyboard-response","116","534114","0.0-9.0-2.0-0.22","4516","1","22","Female","approach_avoid_spark_v1","""event"",""trial"",""time""
""fullscreenenter"",""1"",""1962""
","
","
","""event"",""trial"",""time""
""fullscreenenter"",""1"",""1962""
","
","","","","","","null","<div style=""font-size:60px;"">+</div>","null","","fixation","","","","","","","","","","",""
"aa-learning-trial","117","537118","0.0-9.0-2.0-1.22","4516","1","22","Female","approach_avoid_spark_v1","""event"",""trial"",""time""
""fullscreenenter"",""1"",""1962""
","
","
","""event"",""trial"",""time""
""fullscreenenter"",""1"",""1962""
","
","","","","","","1186","images/rabbit5.png","","","learning","[1]","0","0","0","rabbit","pets","1","0","","neutral","0"
"html-keyboard-response","118","537620","0.0-9.0-2.0-0.23","4516","1","22","Female","approach_avoid_spark_v1","""event"",""trial"",""time""
""fullscreenenter"",""1"",""1962""
","
","
","""event"",""trial"",""time""
""fullscreenenter"",""1"",""1962""
","
","","","","","","null","<div style=""font-size:60px;"">+</div>","null","","fixation","","","","","","","","","","",""
"aa-learning-trial","119","540624","0.0-9.0-2.0-1.23","4516","1","22","Female","approach_avoid_spark_v1","""event"",""trial"",""time""
""fullscreenenter"",""1"",""1962""
","
","
","""event"",""trial"",""time""
""fullscreenenter"",""1"",""1962""
","
","","","","","","830","images/dog7.png","","","learning","5","5","1","1","dog","pets","1","0","","good","[4]"
"html-keyboard-response","120","541127","0.0-9.0-2.0-0.24","4516","1","22","Female","approach_avoid_spark_v1","""event"",""trial"",""time""
""fullscreenenter"",""1"",""1962""
","
","
","""event"",""trial"",""time""
""fullscreenenter"",""1"",""1962""
","
","","","","","","null","<div style=""font-size:60px;"">+</div>","null","","fixation","","","","","","","","","","",""
"aa-learning-trial","121","544131","0.0-9.0-2.0-1.24","4516","1","22","Female","approach_avoid_spark_v1","""event"",""trial"",""time""
""fullscreenenter"",""1"",""1962""
","
","
","""event"",""trial"",""time""
""fullscreenenter"",""1"",""1962""
","
","","","","","","616","images/dog4.png","","","learning","2","2","1","1","dog","pets","1","0","","good","[4]"
"html-keyboard-response","122","544633","0.0-9.0-2.0-0.25","4516","1","22","Female","approach_avoid_spark_v1","""event"",""trial"",""time""
""fullscreenenter"",""1"",""1962""
","
","
","""event"",""trial"",""time""
""fullscreenenter"",""1"",""1962""
","
","","","","","","null","<div style=""font-size:60px;"">+</div>","null","","fixation","","","","","","","","","","",""
"aa-learning-trial","123","547637","0.0-9.0-2.0-1.25","4516","1","22","Female","approach_avoid_spark_v1","""event"",""trial"",""time""
""fullscreenenter"",""1"",""1962""
","
","
","""event"",""trial"",""time""
""fullscreenenter"",""1"",""1962""
","
","","","","","","1345","images/rabbit5.png","","","learning","-1","-1","1","1","rabbit","pets","1","0","","neutral","0"
"html-keyboard-response","124","548139","0.0-9.0-2.0-0.26","4516","1","22","Female","approach_avoid_spark_v1","""event"",""trial"",""time""
""fullscreenenter"",""1"",""1962""
","
","
","""event"",""trial"",""time""
""fullscreenenter"",""1"",""1962""
","
","","","","","","null","<div style=""font-size:60px;"">+</div>","null","","fixation","","","","","","","","","","",""
"aa-learning-trial","125","551142","0.0-9.0-2.0-1.26","4516","1","22","Female","approach_avoid_spark_v1","""event"",""trial"",""time""
""fullscreenenter"",""1"",""1962""
","
","
","""event"",""trial"",""time""
""fullscreenenter"",""1"",""1962""
","
","","","","","","971","images/cat6.png","","","learning","-5","0","0","0","cat","pets","1","0","","bad","[-5]"
"html-keyboard-response","126","551644","0.0-9.0-2.0-0.27","4516","1","22","Female","approach_avoid_spark_v1","""event"",""trial"",""time""
""fullscreenenter"",""1"",""1962""
","
","
","""event"",""trial"",""time""
""fullscreenenter"",""1"",""1962""
","
","","","","","","null","<div style=""font-size:60px;"">+</div>","null","","fixation","","","","","","","","","","",""
"aa-learning-trial","127","554648","0.0-9.0-2.0-1.27","4516","1","22","Female","approach_avoid_spark_v1","""event"",""trial"",""time""
""fullscreenenter"",""1"",""1962""
","
","
","""event"",""trial"",""time""
""fullscreenenter"",""1"",""1962""
","
","","","","","","703","images/cat2.png","","","learning","-6","0","0","0","cat","pets","1","0","","bad","[-5]"
"html-keyboard-response","128","555150","0.0-9.0-2.0-0.28","4516","1","22","Female","approach_avoid_spark_v1","""event"",""trial"",""time""
""fullscreenenter"",""1"",""1962""
","
","
","""event"",""trial"",""time""
""fullscreenenter"",""1"",""1962""
","
","","","","","","null","<div style=""font-size:60px;"">+</div>","null","","fixation","","","","","","","","","","",""
"aa-learning-trial","129","558153","0.0-9.0-2.0-1.28","4516","1","22","Female","approach_avoid_spark_v1","""event"",""trial"",""time""
""fullscreenenter"",""1"",""1962""
","
","
","""event"",""trial"",""time""
""fullscreenenter"",""1"",""1962""
","
","","","","","","1023","images/rabbit6.png","","","learning","-3","-3","1","1","rabbit","pets","1","0","","neutral","0"
"html-keyboard-response","130","558655","0.0-9.0-2.0-0.29","4516","1","22","Female","approach_avoid_spark_v1","""event"",""trial"",""time""
""fullscreenenter"",""1"",""1962""
","
","
","""event"",""trial"",""time""
""fullscreenenter"",""1"",""1962""
","
","","","","","","null","<div style=""font-size:60px;"">+</div>","null","","fixation","","","","","","","","","","",""
"aa-learning-trial","131","561660","0.0-9.0-2.0-1.29","4516","1","22","Female","approach_avoid_spark_v1","""event"",""trial"",""time""
""fullscreenenter"",""1"",""1962""
","
","
","""event"",""trial"",""time""
""fullscreenenter"",""1"",""1962""
","
","","","","","","835","images/rabbit8.png","","","learning","1","1","1","1","rabbit","pets","1","0","","neutral","0"
"html-keyboard-response","132","562164","0.0-9.0-2.0-0.30","4516","1","22","Female","approach_avoid_spark_v1","""event"",""trial"",""time""
""fullscreenenter"",""1"",""1962""
","
","
","""event"",""trial"",""time""
""fullscreenenter"",""1"",""1962""
","
","","","","","","null","<div style=""font-size:60px;"">+</div>","null","","fixation","","","","","","","","","","",""
"aa-learning-trial","133","565169","0.0-9.0-2.0-1.30","4516","1","22","Female","approach_avoid_spark_v1","""event"",""trial"",""time""
""fullscreenenter"",""1"",""1962""
","
","
","""event"",""trial"",""time""
""fullscreenenter"",""1"",""1962""
","
","","","","","","612","images/dog4.png","","","learning","4","4","1","1","dog","pets","1","0","","good","[4]"
"html-keyboard-response","134","565671","0.0-9.0-2.0-0.31","4516","1","22","Female","approach_avoid_spark_v1","""event"",""trial"",""time""
""fullscreenenter"",""1"",""1962""
","
","
","""event"",""trial"",""time""
""fullscreenenter"",""1"",""1962""
","
","","","","","","null","<div style=""font-size:60px;"">+</div>","null","","fixation","","","","","","","","","","",""
"aa-learning-trial","135","568675","0.0-9.0-2.0-1.31","4516","1","22","Female","approach_avoid_spark_v1","""event"",""trial"",""time""
""fullscreenenter"",""1"",""1962""
","
","
","""event"",""trial"",""time""
""fullscreenenter"",""1"",""1962""
","
","","","","","","1583","images/rabbit6.png","","","learning","-3","0","0","0","rabbit","pets","1","0","","neutral","0"
"html-keyboard-response","136","569178","0.0-9.0-2.0-0.32","4516","1","22","Female","approach_avoid_spark_v1","""event"",""trial"",""time""
""fullscreenenter"",""1"",""1962""
","
","
","""event"",""trial"",""time""
""fullscreenenter"",""1"",""1962""
","
","","","","","","null","<div style=""font-size:60px;"">+</div>","null","","fixation","","","","","","","","","","",""
"aa-learning-trial","137","572182","0.0-9.0-2.0-1.32","4516","1","22","Female","approach_avoid_spark_v1","""event"",""trial"",""time""
""fullscreenenter"",""1"",""1962""
","
","
","""event"",""trial"",""time""
""fullscreenenter"",""1"",""1962""
","
","","","","","","841","images/rabbit1.png","","","learning","1","0","0","0","rabbit","pets","1","0","","neutral","0"
"html-keyboard-response","138","572684","0.0-9.0-2.0-0.33","4516","1","22","Female","approach_avoid_spark_v1","""event"",""trial"",""time""
""fullscreenenter"",""1"",""1962""
","
","
","""event"",""trial"",""time""
""fullscreenenter"",""1"",""1962""
","
","","","","","","null","<div style=""font-size:60px;"">+</div>","null","","fixation","","","","","","","","","","",""
"aa-learning-trial","139","575688","0.0-9.0-2.0-1.33","4516","1","22","Female","approach_avoid_spark_v1","""event"",""trial"",""time""
""fullscreenenter"",""1"",""1962""
","
","
","""event"",""trial"",""time""
""fullscreenenter"",""1"",""1962""
","
","","","","","","940","images/cat6.png","","","learning","-6","0","0","0","cat","pets","1","0","","bad","[-5]"
"html-keyboard-response","140","576190","0.0-9.0-2.0-0.34","4516","1","22","Female","approach_avoid_spark_v1","""event"",""trial"",""time""
""fullscreenenter"",""1"",""1962""
","
","
","""event"",""trial"",""time""
""fullscreenenter"",""1"",""1962""
","
","","","","","","null","<div style=""font-size:60px;"">+</div>","null","","fixation","","","","","","","","","","",""
"aa-learning-trial","141","579192","0.0-9.0-2.0-1.34","4516","1","22","Female","approach_avoid_spark_v1","""event"",""trial"",""time""
""fullscreenenter"",""1"",""1962""
","
","
","""event"",""trial"",""time""
""fullscreenenter"",""1"",""1962""
","
","","","","","","590","images/dog7.png","","","learning","4","4","1","1","dog","pets","1","0","","good","[4]"
"html-keyboard-response","142","579694","0.0-9.0-2.0-0.35","4516","1","22","Female","approach_avoid_spark_v1","""event"",""trial"",""time""
""fullscreenenter"",""1"",""1962""
","
","
","""event"",""trial"",""time""
""fullscreenenter"",""1"",""1962""
","
","","","","","","null","<div style=""font-size:60px;"">+</div>","null","","fixation","","","","","","","","","","",""
"aa-learning-trial","143","582698","0.0-9.0-2.0-1.35","4516","1","22","Female","approach_avoid_spark_v1","""event"",""trial"",""time""
""fullscreenenter"",""1"",""1962""
","
","
","""event"",""trial"",""time""
""fullscreenenter"",""1"",""1962""
","
","","","","","","1289","images/rabbit8.png","","","learning","-2","0","0","0","rabbit","pets","1","0","","neutral","0"
"html-keyboard-response","144","583200","0.0-9.0-2.0-0.36","4516","1","22","Female","approach_avoid_spark_v1","""event"",""trial"",""time""
""fullscreenenter"",""1"",""1962""
","
","
","""event"",""trial"",""time""
""fullscreenenter"",""1"",""1962""
","
","","","","","","null","<div style=""font-size:60px;"">+</div>","null","","fixation","","","","","","","","","","",""
"aa-learning-trial","145","586202","0.0-9.0-2.0-1.36","4516","1","22","Female","approach_avoid_spark_v1","""event"",""trial"",""time""
""fullscreenenter"",""1"",""1962""
","
","
","""event"",""trial"",""time""
""fullscreenenter"",""1"",""1962""
","
","","","","","","858","images/rabbit4.png","","","learning","-3","0","0","0","rabbit","pets","1","0","","neutral","0"
"html-keyboard-response","146","586704","0.0-9.0-2.0-0.37","4516","1","22","Female","approach_avoid_spark_v1","""event"",""trial"",""time""
""fullscreenenter"",""1"",""1962""
","
","
","""event"",""trial"",""time""
""fullscreenenter"",""1"",""1962""
","
","","","","","","null","<div style=""font-size:60px;"">+</div>","null","","fixation","","","","","","","","","","",""
"aa-learning-trial","147","589707","0.0-9.0-2.0-1.37","4516","1","22","Female","approach_avoid_spark_v1","""event"",""trial"",""time""
""fullscreenenter"",""1"",""1962""
","
","
","""event"",""trial"",""time""
""fullscreenenter"",""1"",""1962""
","
","","","","","","667","images/dog8.png","","","learning","4","4","1","1","dog","pets","1","0","","good","[4]"
"html-keyboard-response","148","590209","0.0-9.0-2.0-0.38","4516","1","22","Female","approach_avoid_spark_v1","""event"",""trial"",""time""
""fullscreenenter"",""1"",""1962""
","
","
","""event"",""trial"",""time""
""fullscreenenter"",""1"",""1962""
","
","","","","","","null","<div style=""font-size:60px;"">+</div>","null","","fixation","","","","","","","","","","",""
"aa-learning-trial","149","593212","0.0-9.0-2.0-1.38","4516","1","22","Female","approach_avoid_spark_v1","""event"",""trial"",""time""
""fullscreenenter"",""1"",""1962""
","
","
","""event"",""trial"",""time""
""fullscreenenter"",""1"",""1962""
","
","","","","","","546","images/dog7.png","","","learning","5","5","1","1","dog","pets","1","0","","good","[4]"
"html-keyboard-response","150","593714","0.0-9.0-2.0-0.39","4516","1","22","Female","approach_avoid_spark_v1","""event"",""trial"",""time""
""fullscreenenter"",""1"",""1962""
","
","
","""event"",""trial"",""time""
""fullscreenenter"",""1"",""1962""
","
","","","","","","null","<div style=""font-size:60px;"">+</div>","null","","fixation","","","","","","","","","","",""
"aa-learning-trial","151","596718","0.0-9.0-2.0-1.39","4516","1","22","Female","approach_avoid_spark_v1","""event"",""trial"",""time""
""fullscreenenter"",""1"",""1962""
","
","
","""event"",""trial"",""time""
""fullscreenenter"",""1"",""1962""
","
","","","","","","506.9999999998836","images/dog7.png","","","learning","5","5","1","1","dog","pets","1","0","","good","[4]"
"html-keyboard-response","152","597220","0.0-9.0-2.0-0.40","4516","1","22","Female","approach_avoid_spark_v1","""event"",""trial"",""time""
""fullscreenenter"",""1"",""1962""
","
","
","""event"",""trial"",""time""
""fullscreenenter"",""1"",""1962""
","
","","","","","","null","<div style=""font-size:60px;"">+</div>","null","","fixation","","","","","","","","","","",""
"aa-learning-trial","153","600224","0.0-9.0-2.0-1.40","4516","1","22","Female","approach_avoid_spark_v1","""event"",""trial"",""time""
""fullscreenenter"",""1"",""1962""
","
","
","""event"",""trial"",""time""
""fullscreenenter"",""1"",""1962""
","
","","","","","","694.9999999998836","images/cat7.png","","","learning","-7","0","0","0","cat","pets","1","0","","bad","[-5]"
"html-keyboard-response","154","600726","0.0-9.0-2.0-0.41","4516","1","22","Female","approach_avoid_spark_v1","""event"",""trial"",""time""
""fullscreenenter"",""1"",""1962""
","
","
","""event"",""trial"",""time""
""fullscreenenter"",""1"",""1962""
","
","","","","","","null","<div style=""font-size:60px;"">+</div>","null","","fixation","","","","","","","","","","",""
"aa-learning-trial","155","603730","0.0-9.0-2.0-1.41","4516","1","22","Female","approach_avoid_spark_v1","""event"",""trial"",""time""
""fullscreenenter"",""1"",""1962""
","
","
","""event"",""trial"",""time""
""fullscreenenter"",""1"",""1962""
","
","","","","","","743.0000000001164","images/rabbit8.png","","","learning","2","0","0","0","rabbit","pets","1","0","","neutral","0"
"html-keyboard-response","156","604232","0.0-9.0-2.0-0.42","4516","1","22","Female","approach_avoid_spark_v1","""event"",""trial"",""time""
""fullscreenenter"",""1"",""1962""
","
","
","""event"",""trial"",""time""
""fullscreenenter"",""1"",""1962""
","
","","","","","","null","<div style=""font-size:60px;"">+</div>","null","","fixation","","","","","","","","","","",""
"aa-learning-trial","157","607236","0.0-9.0-2.0-1.42","4516","1","22","Female","approach_avoid_spark_v1","""event"",""trial"",""time""
""fullscreenenter"",""1"",""1962""
","
","
","""event"",""trial"",""time""
""fullscreenenter"",""1"",""1962""
","
","","","","","","720","images/cat3.png","","","learning","-2","0","0","0","cat","pets","1","0","","bad","[-5]"
"html-keyboard-response","158","607738","0.0-9.0-2.0-0.43","4516","1","22","Female","approach_avoid_spark_v1","""event"",""trial"",""time""
""fullscreenenter"",""1"",""1962""
","
","
","""event"",""trial"",""time""
""fullscreenenter"",""1"",""1962""
","
","","","","","","null","<div style=""font-size:60px;"">+</div>","null","","fixation","","","","","","","","","","",""
"aa-learning-trial","159","610742","0.0-9.0-2.0-1.43","4516","1","22","Female","approach_avoid_spark_v1","""event"",""trial"",""time""
""fullscreenenter"",""1"",""1962""
","
","
","""event"",""trial"",""time""
""fullscreenenter"",""1"",""1962""
","
","","","","","","534.9999999998836","images/cat3.png","","","learning","-4","0","0","0","cat","pets","1","0","","bad","[-5]"
"html-keyboard-response","160","611244","0.0-9.0-2.0-0.44","4516","1","22","Female","approach_avoid_spark_v1","""event"",""trial"",""time""
""fullscreenenter"",""1"",""1962""
","
","
","""event"",""trial"",""time""
""fullscreenenter"",""1"",""1962""
","
","","","","","","null","<div style=""font-size:60px;"">+</div>","null","","fixation","","","","","","","","","","",""
"aa-learning-trial","161","614248","0.0-9.0-2.0-1.44","4516","1","22","Female","approach_avoid_spark_v1","""event"",""trial"",""time""
""fullscreenenter"",""1"",""1962""
","
","
","""event"",""trial"",""time""
""fullscreenenter"",""1"",""1962""
","
","","","","","","443","images/dog4.png","","","learning","2","2","1","1","dog","pets","1","0","","good","[4]"
"html-keyboard-response","162","614750","0.0-9.0-2.0-0.45","4516","1","22","Female","approach_avoid_spark_v1","""event"",""trial"",""time""
""fullscreenenter"",""1"",""1962""
","
","
","""event"",""trial"",""time""
""fullscreenenter"",""1"",""1962""
","
","","","","","","null","<div style=""font-size:60px;"">+</div>","null","","fixation","","","","","","","","","","",""
"aa-learning-trial","163","617754","0.0-9.0-2.0-1.45","4516","1","22","Female","approach_avoid_spark_v1","""event"",""trial"",""time""
""fullscreenenter"",""1"",""1962""
","
","
","""event"",""trial"",""time""
""fullscreenenter"",""1"",""1962""
","
","","","","","","731","images/cat7.png","","","learning","-4","0","0","0","cat","pets","1","0","","bad","[-5]"
"html-keyboard-response","164","618257","0.0-9.0-2.0-0.46","4516","1","22","Female","approach_avoid_spark_v1","""event"",""trial"",""time""
""fullscreenenter"",""1"",""1962""
","
","
","""event"",""trial"",""time""
""fullscreenenter"",""1"",""1962""
","
","","","","","","null","<div style=""font-size:60px;"">+</div>","null","","fixation","","","","","","","","","","",""
"aa-learning-trial","165","621261","0.0-9.0-2.0-1.46","4516","1","22","Female","approach_avoid_spark_v1","""event"",""trial"",""time""
""fullscreenenter"",""1"",""1962""
","
","
","""event"",""trial"",""time""
""fullscreenenter"",""1"",""1962""
","
","","","","","","828","images/rabbit8.png","","","learning","[-1]","-1","1","1","rabbit","pets","1","0","","neutral","0"
"html-keyboard-response","166","621763","0.0-9.0-2.0-0.47","4516","1","22","Female","approach_avoid_spark_v1","""event"",""trial"",""time""
""fullscreenenter"",""1"",""1962""
","
","
","""event"",""trial"",""time""
""fullscreenenter"",""1"",""1962""
","
","","","","","","null","<div style=""font-size:60px;"">+</div>","null","","fixation","","","","","","","","","","",""
"aa-learning-trial","167","624767","0.0-9.0-2.0-1.47","4516","1","22","Female","approach_avoid_spark_v1","""event"",""trial"",""time""
""fullscreenenter"",""1"",""1962""
","
","
","""event"",""trial"",""time""
""fullscreenenter"",""1"",""1962""
","
","","","","","","727","images/rabbit6.png","","","learning","2","2","1","1","rabbit","pets","1","0","","neutral","0"
"html-keyboard-response","168","625269","0.0-9.0-2.0-0.48","4516","1","22","Female","approach_avoid_spark_v1","""event"",""trial"",""time""
""fullscreenenter"",""1"",""1962""
","
","
","""event"",""trial"",""time""
""fullscreenenter"",""1"",""1962""
","
","","","","","","null","<div style=""font-size:60px;"">+</div>","null","","fixation","","","","","","","","","","",""
"aa-learning-trial","169","628272","0.0-9.0-2.0-1.48","4516","1","22","Female","approach_avoid_spark_v1","""event"",""trial"",""time""
""fullscreenenter"",""1"",""1962""
","
","
","""event"",""trial"",""time""
""fullscreenenter"",""1"",""1962""
","
","","","","","","528","images/dog4.png","","","learning","1","1","1","1","dog","pets","1","0","","good","[4]"
"html-keyboard-response","170","628775","0.0-9.0-2.0-0.49","4516","1","22","Female","approach_avoid_spark_v1","""event"",""trial"",""time""
""fullscreenenter"",""1"",""1962""
","
","
","""event"",""trial"",""time""
""fullscreenenter"",""1"",""1962""
","
","","","","","","null","<div style=""font-size:60px;"">+</div>","null","","fixation","","","","","","","","","","",""
"aa-learning-trial","171","631779","0.0-9.0-2.0-1.49","4516","1","22","Female","approach_avoid_spark_v1","""event"",""trial"",""time""
""fullscreenenter"",""1"",""1962""
","
","
","""event"",""trial"",""time""
""fullscreenenter"",""1"",""1962""
","
","","","","","","582","images/cat6.png","","","learning","-5","0","0","0","cat","pets","1","0","","bad","[-5]"
"html-keyboard-response","172","632281","0.0-9.0-2.0-0.50","4516","1","22","Female","approach_avoid_spark_v1","""event"",""trial"",""time""
""fullscreenenter"",""1"",""1962""
","
","
","""event"",""trial"",""time""
""fullscreenenter"",""1"",""1962""
","
","","","","","","null","<div style=""font-size:60px;"">+</div>","null","","fixation","","","","","","","","","","",""
"aa-learning-trial","173","635284","0.0-9.0-2.0-1.50","4516","1","22","Female","approach_avoid_spark_v1","""event"",""trial"",""time""
""fullscreenenter"",""1"",""1962""
","
","
","""event"",""trial"",""time""
""fullscreenenter"",""1"",""1962""
","
","","","","","","490","images/cat6.png","","","learning","-5","0","0","0","cat","pets","1","0","","bad","[-5]"
"html-button-response","174","637496","0.0-9.0-3.0","4516","1","22","Female","approach_avoid_spark_v1","""event"",""trial"",""time""
""fullscreenenter"",""1"",""1962""
","
","
","""event"",""trial"",""time""
""fullscreenenter"",""1"",""1962""
","
","","","","","","2210","<p> You have completed the round! <p> In this round, you earned 53 points! </p>","0","","break","","","","","","","","","","",""
"html-button-response","175","638262","0.0-10.0","4516","1","22","Female","approach_avoid_spark_v1","""event"",""trial"",""time""
""fullscreenenter"",""1"",""1962""
","
","
","""event"",""trial"",""time""
""fullscreenenter"",""1"",""1962""
","
","","","","","","765","<p> Now it's time to play another round. </p>","0","","transition_screen","","","","","","","","","","",""
"preload","176","638374","0.0-11.0-0.0","4516","1","22","Female","approach_avoid_spark_v1","""event"",""trial"",""time""
""fullscreenenter"",""1"",""1962""
","
","
","""event"",""trial"",""time""
""fullscreenenter"",""1"",""1962""
","
","true","false","[]","[]","[]","","","","","","","","","","","","","","","",""
"learning-instructions","177","646267","0.0-11.0-1.0-0.0","4516","1","22","Female","approach_avoid_spark_v1","""event"",""trial"",""time""
""fullscreenenter"",""1"",""1962""
","
","
","""event"",""trial"",""time""
""fullscreenenter"",""1"",""1962""
","
","","","","","","3051","<p> Your goal in this round is to decorate your friend's new house with furniture. </p></div>","","0","instructions","","","","","","","","","","",""
"learning-instructions","178","657446","0.0-11.0-1.0-0.1","4516","1","22","Female","approach_avoid_spark_v1","""event"",""trial"",""time""
""fullscreenenter"",""1"",""1962""
","
","
","""event"",""trial"",""time""
""fullscreenenter"",""1"",""1962""
","
","","","","","","1665","<p> Your friend likes some pieces of furniture but not others.  </p><p> On each turn, you will see a piece of furniture.   </p><p> You need to decide whether to put it in your friend's house or not.  </p>","","0","instructions","","","","","","","","","","",""
"learning-instructions","179","664628","0.0-11.0-1.0-0.2","4516","1","22","Female","approach_avoid_spark_v1","""event"",""trial"",""time""
""fullscreenenter"",""1"",""1962""
","
","
","""event"",""trial"",""time""
""fullscreenenter"",""1"",""1962""
","
","","","","","","1592","<p> You can put the furniture in her house by pressing 1 and deliver it elsewhere by pressing 0. </p><br><div class=""choice-instructions-grid""> <div class=""choice-option""><img src=""images/approach.png"" class=""choice-option-img"" stage=""instructions"" position=""0"" ><div class=""choice-option-text""> Press ""1."" </div></div><div class=""choice-option""><img src=""images/avoid.png"" class=""choice-option-img"" stage=""instructions"" position=""1"" ><div class=""choice-option-text""> Press ""0."" </div></div>","","0","instructions","","","","","","","","","","",""
"learning-instructions","180","673913","0.0-11.0-1.0-0.3","4516","1","22","Female","approach_avoid_spark_v1","""event"",""trial"",""time""
""fullscreenenter"",""1"",""1962""
","
","
","""event"",""trial"",""time""
""fullscreenenter"",""1"",""1962""
","
","","","","","","408","<p> If you decorate your friend's house with furniture she likes, she will be happy! </p><p> But if you give her furniture that she does not like, she will be annoyed. </p>","","0","instructions","","","","","","","","","","",""
"learning-instructions","181","689146","0.0-11.0-1.0-0.4","4516","1","22","Female","approach_avoid_spark_v1","""event"",""trial"",""time""
""fullscreenenter"",""1"",""1962""
","
","
","""event"",""trial"",""time""
""fullscreenenter"",""1"",""1962""
","
","","","","","","2921","<p> You will earn points based on how you made your friend feel. </p><p> If you made her happy, you will WIN anywhere from 1 - 9 points, </p><p> but if you made her annoyed you will LOSE anywhere from 1 - 9 points. </p>","","0","instructions","","","","","","","","","","",""
"learning-instructions","182","697279","0.0-11.0-1.0-0.5","4516","1","22","Female","approach_avoid_spark_v1","""event"",""trial"",""time""
""fullscreenenter"",""1"",""1962""
","
","
","""event"",""trial"",""time""
""fullscreenenter"",""1"",""1962""
","
","","","","","","1480","<p> You will see how many points you won or lost in the center of the screen. </p><p> Here is what you would see if you won 5 points: </p><p style=""color:green;font-size:50px;font-weight:bolder"">5</p>","","0","instructions","","","","","","","","","","",""
"learning-instructions","183","700731","0.0-11.0-1.0-0.6","4516","1","22","Female","approach_avoid_spark_v1","""event"",""trial"",""time""
""fullscreenenter"",""1"",""1962""
","
","
","""event"",""trial"",""time""
""fullscreenenter"",""1"",""1962""
","
","","","","","","619","<p> And here is what you would see if you lost 3 points: </p><p style=""color:red;font-size:50px;font-weight:bolder"">-3</p>","","0","instructions","","","","","","","","","","",""
"learning-instructions","184","719847","0.0-11.0-1.0-0.7","4516","1","22","Female","approach_avoid_spark_v1","""event"",""trial"",""time""
""fullscreenenter"",""1"",""1962""
","
","
","""event"",""trial"",""time""
""fullscreenenter"",""1"",""1962""
","
","","","","","","1302","<p> Some pieces of furniture will make her feel very happy or very annoyed. </p><p> These pieces of furniture will make you win or lose LOTS of points. </p><p> Other pieces of furniture will only make her feel a little happy or a little annoyed. </p><p> These pieces of furniture will make you win or lose small amounts of points. </p>","","0","instructions","","","","","","","","","","",""
"learning-instructions","185","734129","0.0-11.0-1.0-0.8","4516","1","22","Female","approach_avoid_spark_v1","""event"",""trial"",""time""
""fullscreenenter"",""1"",""1962""
","
","
","""event"",""trial"",""time""
""fullscreenenter"",""1"",""1962""
","
","","","","","","1206","<p> If you choose to deliver a piece of furniture elsewhere, you will not win or lose any points. </p><p>  However, in the center of the screen, you will see the number of points you WOULD HAVE won or lost if you had given the furniture to your friend. </p>","","0","instructions","","","","","","","","","","",""
"learning-instructions","186","747779","0.0-11.0-1.0-0.9","4516","1","22","Female","approach_avoid_spark_v1","""event"",""trial"",""time""
""fullscreenenter"",""1"",""1962""
","
","
","""event"",""trial"",""time""
""fullscreenenter"",""1"",""1962""
","
","","","","","","1979","<p> Here is what you might see if you did not give a piece of furniture to your friend that would have made her happy: </p><p style=""color:grey; font-size:50px; display: inline-block; border-spacing: 15px; border-width:3px; border-style:solid; border-color:red"">  &nbsp; 6 &nbsp; </p><p> Remember, in this case, you would not win or lose ANY points because you did not give her the furniture.  </p>","","0","instructions","","","","","","","","","","",""
"learning-instructions","187","758478","0.0-11.0-1.0-0.10","4516","1","22","Female","approach_avoid_spark_v1","""event"",""trial"",""time""
""fullscreenenter"",""1"",""1962""
","
","
","""event"",""trial"",""time""
""fullscreenenter"",""1"",""1962""
","
","","","","","","3129","<p> Try to make the best choice for each piece of furniture because </p><p> at the end of the game, you will earn bonus money based on how many points you earned. </p>","","0","instructions","","","","","","","","","","",""
"learning-instructions","188","767312","0.0-11.0-1.0-0.11","4516","1","22","Female","approach_avoid_spark_v1","""event"",""trial"",""time""
""fullscreenenter"",""1"",""1962""
","
","
","""event"",""trial"",""time""
""fullscreenenter"",""1"",""1962""
","
","","","","","","645","<p> You will have 3 seconds to make each choice. Try to respond before time runs out! </p><p> You will lose 5 points each time you do not make a response. </p>","","0","instructions","","","","","","","","","","",""
"html-keyboard-response","189","767916","0.0-11.0-2.0-0.0","4516","1","22","Female","approach_avoid_spark_v1","""event"",""trial"",""time""
""fullscreenenter"",""1"",""1962""
","
","
","""event"",""trial"",""time""
""fullscreenenter"",""1"",""1962""
","
","","","","","","null","<div style=""font-size:60px;"">+</div>","null","","fixation","","","","","","","","","","",""
"aa-learning-trial","190","770921","0.0-11.0-2.0-1.0","4516","1","22","Female","approach_avoid_spark_v1","""event"",""trial"",""time""
""fullscreenenter"",""1"",""1962""
","
","
","""event"",""trial"",""time""
""fullscreenenter"",""1"",""1962""
","
","","","","","","1047","images/sofa3.png","","","learning","1","1","1","1","sofa","furniture","2","1","","neutral","0"
"html-keyboard-response","191","771423","0.0-11.0-2.0-0.1","4516","1","22","Female","approach_avoid_spark_v1","""event"",""trial"",""time""
""fullscreenenter"",""1"",""1962""
","
","
","""event"",""trial"",""time""
""fullscreenenter"",""1"",""1962""
","
","","","","","","null","<div style=""font-size:60px;"">+</div>","null","","fixation","","","","","","","","","","",""
"aa-learning-trial","192","774428","0.0-11.0-2.0-1.1","4516","1","22","Female","approach_avoid_spark_v1","""event"",""trial"",""time""
""fullscreenenter"",""1"",""1962""
","
","
","""event"",""trial"",""time""
""fullscreenenter"",""1"",""1962""
","
","","","","","","486","images/chair1.png","","","learning","4","0","0","0","chair","furniture","2","1","","good","[3]"
"html-keyboard-response","193","774930","0.0-11.0-2.0-0.2","4516","1","22","Female","approach_avoid_spark_v1","""event"",""trial"",""time""
""fullscreenenter"",""1"",""1962""
","
","
","""event"",""trial"",""time""
""fullscreenenter"",""1"",""1962""
","
","","","","","","null","<div style=""font-size:60px;"">+</div>","null","","fixation","","","","","","","","","","",""
"aa-learning-trial","194","777933","0.0-11.0-2.0-1.2","4516","1","22","Female","approach_avoid_spark_v1","""event"",""trial"",""time""
""fullscreenenter"",""1"",""1962""
","
","
","""event"",""trial"",""time""
""fullscreenenter"",""1"",""1962""
","
","","","","","","862","images/chair3.png","","","learning","2","2","1","1","chair","furniture","2","1","","good","[3]"
"html-keyboard-response","195","778434","0.0-11.0-2.0-0.3","4516","1","22","Female","approach_avoid_spark_v1","""event"",""trial"",""time""
""fullscreenenter"",""1"",""1962""
","
","
","""event"",""trial"",""time""
""fullscreenenter"",""1"",""1962""
","
","","","","","","null","<div style=""font-size:60px;"">+</div>","null","","fixation","","","","","","","","","","",""
"aa-learning-trial","196","781439","0.0-11.0-2.0-1.3","4516","1","22","Female","approach_avoid_spark_v1","""event"",""trial"",""time""
""fullscreenenter"",""1"",""1962""
","
","
","""event"",""trial"",""time""
""fullscreenenter"",""1"",""1962""
","
","","","","","","506","images/chair3.png","","","learning","2","2","1","1","chair","furniture","2","1","","good","[3]"
"html-keyboard-response","197","781941","0.0-11.0-2.0-0.4","4516","1","22","Female","approach_avoid_spark_v1","""event"",""trial"",""time""
""fullscreenenter"",""1"",""1962""
","
","
","""event"",""trial"",""time""
""fullscreenenter"",""1"",""1962""
","
","","","","","","null","<div style=""font-size:60px;"">+</div>","null","","fixation","","","","","","","","","","",""
"aa-learning-trial","198","784945","0.0-11.0-2.0-1.4","4516","1","22","Female","approach_avoid_spark_v1","""event"",""trial"",""time""
""fullscreenenter"",""1"",""1962""
","
","
","""event"",""trial"",""time""
""fullscreenenter"",""1"",""1962""
","
","","","","","","914.9999999998836","images/bed2.png","","","learning","-8","0","0","0","bed","furniture","2","1","","bad","[-5]"
"html-keyboard-response","199","785448","0.0-11.0-2.0-0.5","4516","1","22","Female","approach_avoid_spark_v1","""event"",""trial"",""time""
""fullscreenenter"",""1"",""1962""
","
","
","""event"",""trial"",""time""
""fullscreenenter"",""1"",""1962""
","
","","","","","","null","<div style=""font-size:60px;"">+</div>","null","","fixation","","","","","","","","","","",""
"aa-learning-trial","200","788451","0.0-11.0-2.0-1.5","4516","1","22","Female","approach_avoid_spark_v1","""event"",""trial"",""time""
""fullscreenenter"",""1"",""1962""
","
","
","""event"",""trial"",""time""
""fullscreenenter"",""1"",""1962""
","
","","","","","","881","images/sofa8.png","","","learning","-4","0","0","0","sofa","furniture","2","1","","neutral","0"
"html-keyboard-response","201","788953","0.0-11.0-2.0-0.6","4516","1","22","Female","approach_avoid_spark_v1","""event"",""trial"",""time""
""fullscreenenter"",""1"",""1962""
","
","
","""event"",""trial"",""time""
""fullscreenenter"",""1"",""1962""
","
","","","","","","null","<div style=""font-size:60px;"">+</div>","null","","fixation","","","","","","","","","","",""
"aa-learning-trial","202","791957","0.0-11.0-2.0-1.6","4516","1","22","Female","approach_avoid_spark_v1","""event"",""trial"",""time""
""fullscreenenter"",""1"",""1962""
","
","
","""event"",""trial"",""time""
""fullscreenenter"",""1"",""1962""
","
","","","","","","551","images/sofa6.png","","","learning","8","8","1","1","sofa","furniture","2","1","","neutral","0"
"html-keyboard-response","203","792459","0.0-11.0-2.0-0.7","4516","1","22","Female","approach_avoid_spark_v1","""event"",""trial"",""time""
""fullscreenenter"",""1"",""1962""
","
","
","""event"",""trial"",""time""
""fullscreenenter"",""1"",""1962""
","
","","","","","","null","<div style=""font-size:60px;"">+</div>","null","","fixation","","","","","","","","","","",""
"aa-learning-trial","204","795463","0.0-11.0-2.0-1.7","4516","1","22","Female","approach_avoid_spark_v1","""event"",""trial"",""time""
""fullscreenenter"",""1"",""1962""
","
","
","""event"",""trial"",""time""
""fullscreenenter"",""1"",""1962""
","
","","","","","","769","images/bed7.png","","","learning","-5","0","0","0","bed","furniture","2","1","","bad","[-5]"
"html-keyboard-response","205","795965","0.0-11.0-2.0-0.8","4516","1","22","Female","approach_avoid_spark_v1","""event"",""trial"",""time""
""fullscreenenter"",""1"",""1962""
","
","
","""event"",""trial"",""time""
""fullscreenenter"",""1"",""1962""
","
","","","","","","null","<div style=""font-size:60px;"">+</div>","null","","fixation","","","","","","","","","","",""
"aa-learning-trial","206","798969","0.0-11.0-2.0-1.8","4516","1","22","Female","approach_avoid_spark_v1","""event"",""trial"",""time""
""fullscreenenter"",""1"",""1962""
","
","
","""event"",""trial"",""time""
""fullscreenenter"",""1"",""1962""
","
","","","","","","655.9999999998836","images/bed7.png","","","learning","-5","0","0","0","bed","furniture","2","1","","bad","[-5]"
"html-keyboard-response","207","799471","0.0-11.0-2.0-0.9","4516","1","22","Female","approach_avoid_spark_v1","""event"",""trial"",""time""
""fullscreenenter"",""1"",""1962""
","
","
","""event"",""trial"",""time""
""fullscreenenter"",""1"",""1962""
","
","","","","","","null","<div style=""font-size:60px;"">+</div>","null","","fixation","","","","","","","","","","",""
"aa-learning-trial","208","802475","0.0-11.0-2.0-1.9","4516","1","22","Female","approach_avoid_spark_v1","""event"",""trial"",""time""
""fullscreenenter"",""1"",""1962""
","
","
","""event"",""trial"",""time""
""fullscreenenter"",""1"",""1962""
","
","","","","","","851","images/chair1.png","","","learning","4","4","1","1","chair","furniture","2","1","","good","[3]"
"html-keyboard-response","209","802978","0.0-11.0-2.0-0.10","4516","1","22","Female","approach_avoid_spark_v1","""event"",""trial"",""time""
""fullscreenenter"",""1"",""1962""
","
","
","""event"",""trial"",""time""
""fullscreenenter"",""1"",""1962""
","
","","","","","","null","<div style=""font-size:60px;"">+</div>","null","","fixation","","","","","","","","","","",""
"aa-learning-trial","210","805982","0.0-11.0-2.0-1.10","4516","1","22","Female","approach_avoid_spark_v1","""event"",""trial"",""time""
""fullscreenenter"",""1"",""1962""
","
","
","""event"",""trial"",""time""
""fullscreenenter"",""1"",""1962""
","
","","","","","","832","images/bed2.png","","","learning","-8","0","0","0","bed","furniture","2","1","","bad","[-5]"
"html-keyboard-response","211","806485","0.0-11.0-2.0-0.11","4516","1","22","Female","approach_avoid_spark_v1","""event"",""trial"",""time""
""fullscreenenter"",""1"",""1962""
","
","
","""event"",""trial"",""time""
""fullscreenenter"",""1"",""1962""
","
","","","","","","null","<div style=""font-size:60px;"">+</div>","null","","fixation","","","","","","","","","","",""
"aa-learning-trial","212","809489","0.0-11.0-2.0-1.11","4516","1","22","Female","approach_avoid_spark_v1","""event"",""trial"",""time""
""fullscreenenter"",""1"",""1962""
","
","
","""event"",""trial"",""time""
""fullscreenenter"",""1"",""1962""
","
","","","","","","1114","images/chair6.png","","","learning","-6","0","0","0","chair","furniture","2","1","","good","[3]"
"html-keyboard-response","213","809991","0.0-11.0-2.0-0.12","4516","1","22","Female","approach_avoid_spark_v1","""event"",""trial"",""time""
""fullscreenenter"",""1"",""1962""
","
","
","""event"",""trial"",""time""
""fullscreenenter"",""1"",""1962""
","
","","","","","","null","<div style=""font-size:60px;"">+</div>","null","","fixation","","","","","","","","","","",""
"aa-learning-trial","214","812994","0.0-11.0-2.0-1.12","4516","1","22","Female","approach_avoid_spark_v1","""event"",""trial"",""time""
""fullscreenenter"",""1"",""1962""
","
","
","""event"",""trial"",""time""
""fullscreenenter"",""1"",""1962""
","
","","","","","","911.0000000001164","images/sofa8.png","","","learning","-4","-4","1","1","sofa","furniture","2","1","","neutral","0"
"html-keyboard-response","215","813497","0.0-11.0-2.0-0.13","4516","1","22","Female","approach_avoid_spark_v1","""event"",""trial"",""time""
""fullscreenenter"",""1"",""1962""
","
","
","""event"",""trial"",""time""
""fullscreenenter"",""1"",""1962""
","
","","","","","","null","<div style=""font-size:60px;"">+</div>","null","","fixation","","","","","","","","","","",""
"aa-learning-trial","216","816500","0.0-11.0-2.0-1.13","4516","1","22","Female","approach_avoid_spark_v1","""event"",""trial"",""time""
""fullscreenenter"",""1"",""1962""
","
","
","""event"",""trial"",""time""
""fullscreenenter"",""1"",""1962""
","
","","","","","","790.0000000001164","images/sofa6.png","","","learning","8","8","1","1","sofa","furniture","2","1","","neutral","0"
"html-keyboard-response","217","817002","0.0-11.0-2.0-0.14","4516","1","22","Female","approach_avoid_spark_v1","""event"",""trial"",""time""
""fullscreenenter"",""1"",""1962""
","
","
","""event"",""trial"",""time""
""fullscreenenter"",""1"",""1962""
","
","","","","","","null","<div style=""font-size:60px;"">+</div>","null","","fixation","","","","","","","","","","",""
"aa-learning-trial","218","820005","0.0-11.0-2.0-1.14","4516","1","22","Female","approach_avoid_spark_v1","""event"",""trial"",""time""
""fullscreenenter"",""1"",""1962""
","
","
","""event"",""trial"",""time""
""fullscreenenter"",""1"",""1962""
","
","","","","","","763","images/bed8.png","","","learning","-1","0","0","0","bed","furniture","2","1","","bad","[-5]"
"html-keyboard-response","219","820508","0.0-11.0-2.0-0.15","4516","1","22","Female","approach_avoid_spark_v1","""event"",""trial"",""time""
""fullscreenenter"",""1"",""1962""
","
","
","""event"",""trial"",""time""
""fullscreenenter"",""1"",""1962""
","
","","","","","","null","<div style=""font-size:60px;"">+</div>","null","","fixation","","","","","","","","","","",""
"aa-learning-trial","220","823512","0.0-11.0-2.0-1.15","4516","1","22","Female","approach_avoid_spark_v1","""event"",""trial"",""time""
""fullscreenenter"",""1"",""1962""
","
","
","""event"",""trial"",""time""
""fullscreenenter"",""1"",""1962""
","
","","","","","","649","images/sofa6.png","","","learning","8","-5","2","","sofa","furniture","2","1","","neutral","0"
"html-keyboard-response","221","824014","0.0-11.0-2.0-0.16","4516","1","22","Female","approach_avoid_spark_v1","""event"",""trial"",""time""
""fullscreenenter"",""1"",""1962""
","
","
","""event"",""trial"",""time""
""fullscreenenter"",""1"",""1962""
","
","","","","","","null","<div style=""font-size:60px;"">+</div>","null","","fixation","","","","","","","","","","",""
"aa-learning-trial","222","827017","0.0-11.0-2.0-1.16","4516","1","22","Female","approach_avoid_spark_v1","""event"",""trial"",""time""
""fullscreenenter"",""1"",""1962""
","
","
","""event"",""trial"",""time""
""fullscreenenter"",""1"",""1962""
","
","","","","","","922.0000000001164","images/sofa8.png","","","learning","-4","-4","1","1","sofa","furniture","2","1","","neutral","0"
"html-keyboard-response","223","827520","0.0-11.0-2.0-0.17","4516","1","22","Female","approach_avoid_spark_v1","""event"",""trial"",""time""
""fullscreenenter"",""1"",""1962""
","
","
","""event"",""trial"",""time""
""fullscreenenter"",""1"",""1962""
","
","","","","","","null","<div style=""font-size:60px;"">+</div>","null","","fixation","","","","","","","","","","",""
"aa-learning-trial","224","830524","0.0-11.0-2.0-1.17","4516","1","22","Female","approach_avoid_spark_v1","""event"",""trial"",""time""
""fullscreenenter"",""1"",""1962""
","
","
","""event"",""trial"",""time""
""fullscreenenter"",""1"",""1962""
","
","","","","","","761.0000000001164","images/bed7.png","","","learning","-5","0","0","0","bed","furniture","2","1","","bad","[-5]"
"html-keyboard-response","225","831026","0.0-11.0-2.0-0.18","4516","1","22","Female","approach_avoid_spark_v1","""event"",""trial"",""time""
""fullscreenenter"",""1"",""1962""
","
","
","""event"",""trial"",""time""
""fullscreenenter"",""1"",""1962""
","
","","","","","","null","<div style=""font-size:60px;"">+</div>","null","","fixation","","","","","","","","","","",""
"aa-learning-trial","226","834028","0.0-11.0-2.0-1.18","4516","1","22","Female","approach_avoid_spark_v1","""event"",""trial"",""time""
""fullscreenenter"",""1"",""1962""
","
","
","""event"",""trial"",""time""
""fullscreenenter"",""1"",""1962""
","
","","","","","","1197","images/sofa8.png","","","learning","-4","0","0","0","sofa","furniture","2","1","","neutral","0"
"html-keyboard-response","227","834531","0.0-11.0-2.0-0.19","4516","1","22","Female","approach_avoid_spark_v1","""event"",""trial"",""time""
""fullscreenenter"",""1"",""1962""
","
","
","""event"",""trial"",""time""
""fullscreenenter"",""1"",""1962""
","
","","","","","","null","<div style=""font-size:60px;"">+</div>","null","","fixation","","","","","","","","","","",""
"aa-learning-trial","228","837535","0.0-11.0-2.0-1.19","4516","1","22","Female","approach_avoid_spark_v1","""event"",""trial"",""time""
""fullscreenenter"",""1"",""1962""
","
","
","""event"",""trial"",""time""
""fullscreenenter"",""1"",""1962""
","
","","","","","","903","images/chair3.png","","","learning","2","0","0","0","chair","furniture","2","1","","good","[3]"
"html-keyboard-response","229","838038","0.0-11.0-2.0-0.20","4516","1","22","Female","approach_avoid_spark_v1","""event"",""trial"",""time""
""fullscreenenter"",""1"",""1962""
","
","
","""event"",""trial"",""time""
""fullscreenenter"",""1"",""1962""
","
","","","","","","null","<div style=""font-size:60px;"">+</div>","null","","fixation","","","","","","","","","","",""
"aa-learning-trial","230","841041","0.0-11.0-2.0-1.20","4516","1","22","Female","approach_avoid_spark_v1","""event"",""trial"",""time""
""fullscreenenter"",""1"",""1962""
","
","
","""event"",""trial"",""time""
""fullscreenenter"",""1"",""1962""
","
","","","","","","745","images/bed8.png","","","learning","-1","0","0","0","bed","furniture","2","1","","bad","[-5]"
"html-keyboard-response","231","841543","0.0-11.0-2.0-0.21","4516","1","22","Female","approach_avoid_spark_v1","""event"",""trial"",""time""
""fullscreenenter"",""1"",""1962""
","
","
","""event"",""trial"",""time""
""fullscreenenter"",""1"",""1962""
","
","","","","","","null","<div style=""font-size:60px;"">+</div>","null","","fixation","","","","","","","","","","",""
"aa-learning-trial","232","844546","0.0-11.0-2.0-1.21","4516","1","22","Female","approach_avoid_spark_v1","""event"",""trial"",""time""
""fullscreenenter"",""1"",""1962""
","
","
","""event"",""trial"",""time""
""fullscreenenter"",""1"",""1962""
","
","","","","","","1224","images/bed2.png","","","learning","-8","0","0","0","bed","furniture","2","1","","bad","[-5]"
"html-keyboard-response","233","845048","0.0-11.0-2.0-0.22","4516","1","22","Female","approach_avoid_spark_v1","""event"",""trial"",""time""
""fullscreenenter"",""1"",""1962""
","
","
","""event"",""trial"",""time""
""fullscreenenter"",""1"",""1962""
","
","","","","","","null","<div style=""font-size:60px;"">+</div>","null","","fixation","","","","","","","","","","",""
"aa-learning-trial","234","848052","0.0-11.0-2.0-1.22","4516","1","22","Female","approach_avoid_spark_v1","""event"",""trial"",""time""
""fullscreenenter"",""1"",""1962""
","
","
","""event"",""trial"",""time""
""fullscreenenter"",""1"",""1962""
","
","","","","","","624","images/bed3.png","","","learning","3","0","0","0","bed","furniture","2","1","","bad","[-5]"
"html-keyboard-response","235","848554","0.0-11.0-2.0-0.23","4516","1","22","Female","approach_avoid_spark_v1","""event"",""trial"",""time""
""fullscreenenter"",""1"",""1962""
","
","
","""event"",""trial"",""time""
""fullscreenenter"",""1"",""1962""
","
","","","","","","null","<div style=""font-size:60px;"">+</div>","null","","fixation","","","","","","","","","","",""
"aa-learning-trial","236","851557","0.0-11.0-2.0-1.23","4516","1","22","Female","approach_avoid_spark_v1","""event"",""trial"",""time""
""fullscreenenter"",""1"",""1962""
","
","
","""event"",""trial"",""time""
""fullscreenenter"",""1"",""1962""
","
","","","","","","924.0000000001164","images/sofa1.png","","","learning","5","5","1","1","sofa","furniture","2","1","","neutral","0"
"html-keyboard-response","237","852059","0.0-11.0-2.0-0.24","4516","1","22","Female","approach_avoid_spark_v1","""event"",""trial"",""time""
""fullscreenenter"",""1"",""1962""
","
","
","""event"",""trial"",""time""
""fullscreenenter"",""1"",""1962""
","
","","","","","","null","<div style=""font-size:60px;"">+</div>","null","","fixation","","","","","","","","","","",""
"aa-learning-trial","238","855063","0.0-11.0-2.0-1.24","4516","1","22","Female","approach_avoid_spark_v1","""event"",""trial"",""time""
""fullscreenenter"",""1"",""1962""
","
","
","""event"",""trial"",""time""
""fullscreenenter"",""1"",""1962""
","
","","","","","","863.9999999998836","images/sofa6.png","","","learning","8","0","0","0","sofa","furniture","2","1","","neutral","0"
"html-keyboard-response","239","855566","0.0-11.0-2.0-0.25","4516","1","22","Female","approach_avoid_spark_v1","""event"",""trial"",""time""
""fullscreenenter"",""1"",""1962""
","
","
","""event"",""trial"",""time""
""fullscreenenter"",""1"",""1962""
","
