"trial_type","trial_index","time_elapsed","internal_node_id","subject_id","task_condition","age","gender","task_version","interactions","blur_events","focus_events","fullscreenenter_events","fullscreenexit_events","success","timeout","failed_images","failed_audio","failed_video","rt","stimulus","response","button_pressed","task_part","approach_reward","points","key_press","option_selected","stim_cat","task_block","block_condition","block_number","correct","cat_type","mean_cat_reward"
"pavlovia","0","3","0.0-0.0","3853","1","16","Male","approach_avoid_spark_v1","""event"",""trial"",""time""
""fullscreenenter"",""1"",""1686""
","
","
","""event"",""trial"",""time""
""fullscreenenter"",""1"",""1686""
","
","","","","","","","","","","","","","","","","","","","","",""
"fullscreen","1","2686","0.0-1.0","3853","1","16","Male","approach_avoid_spark_v1","""event"",""trial"",""time""
""fullscreenenter"",""1"",""1686""
","
","
","""event"",""trial"",""time""
""fullscreenenter"",""1"",""1686""
","
","true","","","","","","","","","","","","","","","","","","","",""
"preload","2","6629","0.0-2.0","3853","1","16","Male","approach_avoid_spark_v1","""event"",""trial"",""time""
""fullscreenenter"",""1"",""1686""
","
","
","""event"",""trial"",""time""
""fullscreenenter"",""1"",""1686""
","
","true","false","[]","[]","[]","","","","","","","","","","","","","","","",""
"audio-keyboard-response","3","10635","0.0-3.0","3853","1","16","Male","approach_avoid_spark_v1","""event"",""trial"",""time""
""fullscreenenter"",""1"",""1686""
","
","
","""event"",""trial"",""time""
""fullscreenenter"",""1"",""1686""
","
","","","","","","4010.6666666666665","audio/beep_loop.wav"," ","","","","","","","","","","","","",""
"audio-button-response","4","13563","0.0-4.0","3853","1","16","Male","approach_avoid_spark_v1","""event"",""trial"",""time""
""fullscreenenter"",""1"",""1686""
","
","
","""event"",""trial"",""time""
""fullscreenenter"",""1"",""1686""
","
","","","","","","2920","audio/shark.wav","4","","","","","","","","","","","","",""
"audio-button-response","5","16042","0.0-5.0","3853","1","16","Male","approach_avoid_spark_v1","""event"",""trial"",""time""
""fullscreenenter"",""1"",""1686""
","
","
","""event"",""trial"",""time""
""fullscreenenter"",""1"",""1686""
","
","","","","","","1469","audio/turtle.wav","1","","","","","","","","","","","","",""
"preload","6","18564","0.0-6.0","3853","1","16","Male","approach_avoid_spark_v1","""event"",""trial"",""time""
""fullscreenenter"",""1"",""1686""
","
","
","""event"",""trial"",""time""
""fullscreenenter"",""1"",""1686""
","
","true","false","[]","[]","[]","","","","","","","","","","","","","","","",""
"html-keyboard-response","7","20319","0.0-7.0","3853","1","16","Male","approach_avoid_spark_v1","""event"",""trial"",""time""
""fullscreenenter"",""1"",""1686""
","
","
","""event"",""trial"",""time""
""fullscreenenter"",""1"",""1686""
","
","","","","","","1752.7000000476837","Welcome to the experiment. Press any key to begin and to advance the instructions.",";","","","","","","","","","","","","",""
"learning-instructions","8","28203","0.0-8.0-0.0-0.0","3853","1","16","Male","approach_avoid_spark_v1","""event"",""trial"",""time""
""fullscreenenter"",""1"",""1686""
","
","
","""event"",""trial"",""time""
""fullscreenenter"",""1"",""1686""
","
","","","","","","920.8000001907349","<p> Welcome! Today you are going to play 6 different rounds of a decision-making game. </p><p> Use the mouse to click next to continue. </p>","","0","instructions","","","","","","","","","","",""
"learning-instructions","9","31879","0.0-8.0-0.0-0.1","3853","1","16","Male","approach_avoid_spark_v1","""event"",""trial"",""time""
""fullscreenenter"",""1"",""1686""
","
","
","""event"",""trial"",""time""
""fullscreenenter"",""1"",""1686""
","
","","","","","","947.4000000953674","<p> You will start with a practice round to learn the rules. </p>","","0","instructions","","","","","","","","","","",""
"learning-instructions","10","35915","0.0-8.0-0.0-0.2","3853","1","16","Male","approach_avoid_spark_v1","""event"",""trial"",""time""
""fullscreenenter"",""1"",""1686""
","
","
","""event"",""trial"",""time""
""fullscreenenter"",""1"",""1686""
","
","","","","","","593.0999999046326","<p> Your goal in this round is to give out sports equipment to kids. </p></div>","","0","instructions","","","","","","","","","","",""
"learning-instructions","11","44097","0.0-8.0-0.0-0.3","3853","1","16","Male","approach_avoid_spark_v1","""event"",""trial"",""time""
""fullscreenenter"",""1"",""1686""
","
","
","""event"",""trial"",""time""
""fullscreenenter"",""1"",""1686""
","
","","","","","","634.4000000953674","<p> The kids only like some of the equipment.  </p><p> On each turn, you will see a piece of sports equipment.   </p><p> You need to decide whether to give it to the kids or not.  </p>","","0","instructions","","","","","","","","","","",""
"learning-instructions","12","49819","0.0-8.0-0.0-0.4","3853","1","16","Male","approach_avoid_spark_v1","""event"",""trial"",""time""
""fullscreenenter"",""1"",""1686""
","
","
","""event"",""trial"",""time""
""fullscreenenter"",""1"",""1686""
","
","","","","","","975.9000000953674","<p> You can give them the equipment by pressing 1 and choose not to give it to them by pressing 0. </p><br><div class=""choice-instructions-grid""> <div class=""choice-option""><img src=""images/approach.png"" class=""choice-option-img"" stage=""instructions"" position=""0"" ><div class=""choice-option-text""> Press ""1."" </div></div><div class=""choice-option""><img src=""images/avoid.png"" class=""choice-option-img"" stage=""instructions"" position=""1"" ><div class=""choice-option-text""> Press ""0."" </div></div>","","0","instructions","","","","","","","","","","",""
"learning-instructions","13","58072","0.0-8.0-0.0-0.5","3853","1","16","Male","approach_avoid_spark_v1","""event"",""trial"",""time""
""fullscreenenter"",""1"",""1686""
","
","
","""event"",""trial"",""time""
""fullscreenenter"",""1"",""1686""
","
","","","","","","880.7000000476837","<p> If you give them a piece of equipment they like, they will be happy! </p><p> But if you give them a piece of equipment they do not like, they will be sad. </p>","","0","instructions","","","","","","","","","","",""
"learning-instructions","14","69395","0.0-8.0-0.0-0.6","3853","1","16","Male","approach_avoid_spark_v1","""event"",""trial"",""time""
""fullscreenenter"",""1"",""1686""
","
","
","""event"",""trial"",""time""
""fullscreenenter"",""1"",""1686""
","
","","","","","","812.2999999523163","<p> You will earn points based on how you make kids feel. </p><p> If you make them happy, you will WIN anywhere from 1 - 9 points, </p><p> but if you make them sad, you will LOSE anywhere from 1 - 9 points. </p>","","0","instructions","","","","","","","","","","",""
"learning-instructions","15","79641","0.0-8.0-0.0-0.7","3853","1","16","Male","approach_avoid_spark_v1","""event"",""trial"",""time""
""fullscreenenter"",""1"",""1686""
","
","
","""event"",""trial"",""time""
""fullscreenenter"",""1"",""1686""
","
","","","","","","686.5999999046326","<p> You will see how many points you won or lost in the center of the screen. </p><p> Here is what you would see if you won 6 points: </p><p style=""color:green;font-size:50px;font-weight:bolder"">6</p><p style=""color:green"">The text is GREEN because you WON points.</p>","","0","instructions","","","","","","","","","","",""
"learning-instructions","16","85669","0.0-8.0-0.0-0.8","3853","1","16","Male","approach_avoid_spark_v1","""event"",""trial"",""time""
""fullscreenenter"",""1"",""1686""
","
","
","""event"",""trial"",""time""
""fullscreenenter"",""1"",""1686""
","
","","","","","","523.9000000953674","<p> And here is what you would see if you lost 4 points: </p><p style=""color:red;font-size:50px;font-weight:bolder"">-4</p><p style=""color:red"">The text is RED because you LOST points. </p>","","0","instructions","","","","","","","","","","",""
"learning-instructions","17","101076","0.0-8.0-0.0-0.9","3853","1","16","Male","approach_avoid_spark_v1","""event"",""trial"",""time""
""fullscreenenter"",""1"",""1686""
","
","
","""event"",""trial"",""time""
""fullscreenenter"",""1"",""1686""
","
","","","","","","702","<p> Some of the equipment will make the kids VERY happy or sad. </p><p> These pieces of equipment will make you win or lose LOTS of points. </p><p> Other pieces of equipment will only make the kids a little happy or sad. </p><p> These pieces of equipment will make you win or lose small amounts of points. </p>","","0","instructions","","","","","","","","","","",""
"learning-instructions","18","112950","0.0-8.0-0.0-0.10","3853","1","16","Male","approach_avoid_spark_v1","""event"",""trial"",""time""
""fullscreenenter"",""1"",""1686""
","
","
","""event"",""trial"",""time""
""fullscreenenter"",""1"",""1686""
","
","","","","","","1256.4000000953674","<p> If you choose not to give them the equipment, you will not win or lose any points. </p><p>  However, in the center of the screen, you will see the number of points you WOULD HAVE won or lost if you had given them the equipment. </p>","","0","instructions","","","","","","","","","","",""
"learning-instructions","19","135294","0.0-8.0-0.0-0.11","3853","1","16","Male","approach_avoid_spark_v1","""event"",""trial"",""time""
""fullscreenenter"",""1"",""1686""
","
","
","""event"",""trial"",""time""
""fullscreenenter"",""1"",""1686""
","
","","","","","","820.7999999523163","<p> Here is what you might see if you did not give the equipment to the kids but it would have made them happy: </p><p style=""color:grey; font-size:50px; display: inline-block; border-spacing: 15px; border-width:3px; border-style:solid; border-color:red"">  &nbsp; 7 &nbsp; </p><p> Remember, in this case, you would not win or lose ANY points because you did not give them the equipment.  </p><p style=""color:grey"">The text is GREY because you earned ZERO points. </p><p style=""color:red"">However, choosing to give the kids the equipment would have made you win points. The box around the text is RED because you chose the worse option. </p>","","0","instructions","","","","","","","","","","",""
"learning-instructions","20","156990","0.0-8.0-0.0-0.12","3853","1","16","Male","approach_avoid_spark_v1","""event"",""trial"",""time""
""fullscreenenter"",""1"",""1686""
","
","
","""event"",""trial"",""time""
""fullscreenenter"",""1"",""1686""
","
","","","","","","626.4000000953674","<p> Here is what you might see if you did not give the equipment to the kids but it would have made them sad: </p><p style=""color:grey;font-size:50px; display: inline-block; border-spacing: 15px; border-width:3px; border-style:solid; border-color:green"">  &nbsp; -8 &nbsp; </p><p> Remember, in this case, you would not win or lose ANY points because you did not give them the equipment.  </p><p style=""color:grey"">The text is GREY because you earned ZERO points. </p><p  style=""color:green""> Choosing to give the kids the equipment would have made you lose points. The box around the text is GREEN because you chose the better option.</p>","","0","instructions","","","","","","","","","","",""
"learning-instructions","21","166716","0.0-8.0-0.0-0.13","3853","1","16","Male","approach_avoid_spark_v1","""event"",""trial"",""time""
""fullscreenenter"",""1"",""1686""
","
","
","""event"",""trial"",""time""
""fullscreenenter"",""1"",""1686""
","
","","","","","","722.2000000476837","<p> You will have 3 seconds to make each choice. Try to respond before time runs out! </p><p> You will lose 5 points each time you do not make a response. </p>","","0","instructions","","","","","","","","","","",""
"learning-instructions","22","172626","0.0-8.0-0.0-0.14","3853","1","16","Male","approach_avoid_spark_v1","""event"",""trial"",""time""
""fullscreenenter"",""1"",""1686""
","
","
","""event"",""trial"",""time""
""fullscreenenter"",""1"",""1686""
","
","","","","","","502.7000000476837","<p> This is just a practice round, but in the real game, your bonus payment will depend on your total number of points.","","0","instructions","","","","","","","","","","",""
"learning-instructions","23","178818","0.0-8.0-0.0-0.15","3853","1","16","Male","approach_avoid_spark_v1","""event"",""trial"",""time""
""fullscreenenter"",""1"",""1686""
","
","
","""event"",""trial"",""time""
""fullscreenenter"",""1"",""1686""
","
","","","","","","433.59999990463257","<p> Remember, you can give them the equipment by pressing 1 and choose not to give it to them by pressing 0. </p><br><div class=""choice-instructions-grid""> <div class=""choice-option""><img src=""images/approach.png"" class=""choice-option-img"" stage=""instructions"" position=""0"" ><div class=""choice-option-text""> Press ""1."" </div></div><div class=""choice-option""><img src=""images/avoid.png"" class=""choice-option-img"" stage=""instructions"" position=""1"" ><div class=""choice-option-text""> Press ""0."" </div></div>","","0","instructions","","","","","","","","","","",""
"html-button-response","24","179864","0.0-8.0-1.0","3853","1","16","Male","approach_avoid_spark_v1","""event"",""trial"",""time""
""fullscreenenter"",""1"",""1686""
","
","
","""event"",""trial"",""time""
""fullscreenenter"",""1"",""1686""
","
","","","","","","943","<p> Ready to practice? </p>","0","","","","","","","","","","","","",""
"html-keyboard-response","25","180471","0.0-8.0-2.0-0.0","3853","1","16","Male","approach_avoid_spark_v1","""event"",""trial"",""time""
""fullscreenenter"",""1"",""1686""
","
","
","""event"",""trial"",""time""
""fullscreenenter"",""1"",""1686""
","
","","","","","","null","<div style=""font-size:60px;"">+</div>","null","","fixation","","","","","","","","","","",""
"aa-learning-trial","26","183488","0.0-8.0-2.0-1.0","3853","1","16","Male","approach_avoid_spark_v1","""event"",""trial"",""time""
""fullscreenenter"",""1"",""1686""
","
","
","""event"",""trial"",""time""
""fullscreenenter"",""1"",""1686""
","
","","","","","","1059.0999999046326","images/racket4.png","","","learning","-2","-2","1","1","practice","practice","practice","-1","","",""
"html-keyboard-response","27","184002","0.0-8.0-2.0-0.1","3853","1","16","Male","approach_avoid_spark_v1","""event"",""trial"",""time""
""fullscreenenter"",""1"",""1686""
","
","
","""event"",""trial"",""time""
""fullscreenenter"",""1"",""1686""
","
","","","","","","null","<div style=""font-size:60px;"">+</div>","null","","fixation","","","","","","","","","","",""
"aa-learning-trial","28","187023","0.0-8.0-2.0-1.1","3853","1","16","Male","approach_avoid_spark_v1","""event"",""trial"",""time""
""fullscreenenter"",""1"",""1686""
","
","
","""event"",""trial"",""time""
""fullscreenenter"",""1"",""1686""
","
","","","","","","1082.6000001430511","images/racket4.png","","","learning","-7","0","0","0","practice","practice","practice","-1","","",""
"html-keyboard-response","29","187537","0.0-8.0-2.0-0.2","3853","1","16","Male","approach_avoid_spark_v1","""event"",""trial"",""time""
""fullscreenenter"",""1"",""1686""
","
","
","""event"",""trial"",""time""
""fullscreenenter"",""1"",""1686""
","
","","","","","","null","<div style=""font-size:60px;"">+</div>","null","","fixation","","","","","","","","","","",""
"aa-learning-trial","30","190542","0.0-8.0-2.0-1.2","3853","1","16","Male","approach_avoid_spark_v1","""event"",""trial"",""time""
""fullscreenenter"",""1"",""1686""
","
","
","""event"",""trial"",""time""
""fullscreenenter"",""1"",""1686""
","
","","","","","","1225.2999999523163","images/racket1.png","","","learning","1","1","1","1","practice","practice","practice","-1","","",""
"html-keyboard-response","31","191048","0.0-8.0-2.0-0.3","3853","1","16","Male","approach_avoid_spark_v1","""event"",""trial"",""time""
""fullscreenenter"",""1"",""1686""
","
","
","""event"",""trial"",""time""
""fullscreenenter"",""1"",""1686""
","
","","","","","","null","<div style=""font-size:60px;"">+</div>","null","","fixation","","","","","","","","","","",""
"aa-learning-trial","32","194067","0.0-8.0-2.0-1.3","3853","1","16","Male","approach_avoid_spark_v1","""event"",""trial"",""time""
""fullscreenenter"",""1"",""1686""
","
","
","""event"",""trial"",""time""
""fullscreenenter"",""1"",""1686""
","
","","","","","","940","images/ball3.png","","","learning","-4","-4","1","1","practice","practice","practice","-1","","",""
"html-keyboard-response","33","194581","0.0-8.0-2.0-0.4","3853","1","16","Male","approach_avoid_spark_v1","""event"",""trial"",""time""
""fullscreenenter"",""1"",""1686""
","
","
","""event"",""trial"",""time""
""fullscreenenter"",""1"",""1686""
","
","","","","","","null","<div style=""font-size:60px;"">+</div>","null","","fixation","","","","","","","","","","",""
"aa-learning-trial","34","197597","0.0-8.0-2.0-1.4","3853","1","16","Male","approach_avoid_spark_v1","""event"",""trial"",""time""
""fullscreenenter"",""1"",""1686""
","
","
","""event"",""trial"",""time""
""fullscreenenter"",""1"",""1686""
","
","","","","","","727.5","images/ball4.png","","","learning","6","6","1","1","practice","practice","practice","-1","","",""
"html-keyboard-response","35","198112","0.0-8.0-2.0-0.5","3853","1","16","Male","approach_avoid_spark_v1","""event"",""trial"",""time""
""fullscreenenter"",""1"",""1686""
","
","
","""event"",""trial"",""time""
""fullscreenenter"",""1"",""1686""
","
","","","","","","null","<div style=""font-size:60px;"">+</div>","null","","fixation","","","","","","","","","","",""
"aa-learning-trial","36","201116","0.0-8.0-2.0-1.5","3853","1","16","Male","approach_avoid_spark_v1","""event"",""trial"",""time""
""fullscreenenter"",""1"",""1686""
","
","
","""event"",""trial"",""time""
""fullscreenenter"",""1"",""1686""
","
","","","","","","1107.2000000476837","images/racket3.png","","","learning","6","6","1","1","practice","practice","practice","-1","","",""
"html-keyboard-response","37","201622","0.0-8.0-2.0-0.6","3853","1","16","Male","approach_avoid_spark_v1","""event"",""trial"",""time""
""fullscreenenter"",""1"",""1686""
","
","
","""event"",""trial"",""time""
""fullscreenenter"",""1"",""1686""
","
","","","","","","null","<div style=""font-size:60px;"">+</div>","null","","fixation","","","","","","","","","","",""
"aa-learning-trial","38","204632","0.0-8.0-2.0-1.6","3853","1","16","Male","approach_avoid_spark_v1","""event"",""trial"",""time""
""fullscreenenter"",""1"",""1686""
","
","
","""event"",""trial"",""time""
""fullscreenenter"",""1"",""1686""
","
","","","","","","740.7000000476837","images/racket2.png","","","learning","2","2","1","1","practice","practice","practice","-1","","",""
"html-keyboard-response","39","205147","0.0-8.0-2.0-0.7","3853","1","16","Male","approach_avoid_spark_v1","""event"",""trial"",""time""
""fullscreenenter"",""1"",""1686""
","
","
","""event"",""trial"",""time""
""fullscreenenter"",""1"",""1686""
","
","","","","","","null","<div style=""font-size:60px;"">+</div>","null","","fixation","","","","","","","","","","",""
"aa-learning-trial","40","208152","0.0-8.0-2.0-1.7","3853","1","16","Male","approach_avoid_spark_v1","""event"",""trial"",""time""
""fullscreenenter"",""1"",""1686""
","
","
","""event"",""trial"",""time""
""fullscreenenter"",""1"",""1686""
","
","","","","","","833.5999999046326","images/racket3.png","","","learning","-7","-7","1","1","practice","practice","practice","-1","","",""
"html-keyboard-response","41","208654","0.0-8.0-2.0-0.8","3853","1","16","Male","approach_avoid_spark_v1","""event"",""trial"",""time""
""fullscreenenter"",""1"",""1686""
","
","
","""event"",""trial"",""time""
""fullscreenenter"",""1"",""1686""
","
","","","","","","null","<div style=""font-size:60px;"">+</div>","null","","fixation","","","","","","","","","","",""
"aa-learning-trial","42","211656","0.0-8.0-2.0-1.8","3853","1","16","Male","approach_avoid_spark_v1","""event"",""trial"",""time""
""fullscreenenter"",""1"",""1686""
","
","
","""event"",""trial"",""time""
""fullscreenenter"",""1"",""1686""
","
","","","","","","998.7000000476837","images/racket1.png","","","learning","-2","0","0","0","practice","practice","practice","-1","","",""
"html-keyboard-response","43","212158","0.0-8.0-2.0-0.9","3853","1","16","Male","approach_avoid_spark_v1","""event"",""trial"",""time""
""fullscreenenter"",""1"",""1686""
","
","
","""event"",""trial"",""time""
""fullscreenenter"",""1"",""1686""
","
","","","","","","null","<div style=""font-size:60px;"">+</div>","null","","fixation","","","","","","","","","","",""
"aa-learning-trial","44","215161","0.0-8.0-2.0-1.9","3853","1","16","Male","approach_avoid_spark_v1","""event"",""trial"",""time""
""fullscreenenter"",""1"",""1686""
","
","
","""event"",""trial"",""time""
""fullscreenenter"",""1"",""1686""
","
","","","","","","1079.2999999523163","images/racket2.png","","","learning","6","0","0","0","practice","practice","practice","-1","","",""
"html-keyboard-response","45","215662","0.0-8.0-2.0-0.10","3853","1","16","Male","approach_avoid_spark_v1","""event"",""trial"",""time""
""fullscreenenter"",""1"",""1686""
","
","
","""event"",""trial"",""time""
""fullscreenenter"",""1"",""1686""
","
","","","","","","null","<div style=""font-size:60px;"">+</div>","null","","fixation","","","","","","","","","","",""
"aa-learning-trial","46","218664","0.0-8.0-2.0-1.10","3853","1","16","Male","approach_avoid_spark_v1","""event"",""trial"",""time""
""fullscreenenter"",""1"",""1686""
","
","
","""event"",""trial"",""time""
""fullscreenenter"",""1"",""1686""
","
","","","","","","1614.5","images/racket1.png","","","learning","-7","-7","1","1","practice","practice","practice","-1","","",""
"html-keyboard-response","47","219166","0.0-8.0-2.0-0.11","3853","1","16","Male","approach_avoid_spark_v1","""event"",""trial"",""time""
""fullscreenenter"",""1"",""1686""
","
","
","""event"",""trial"",""time""
""fullscreenenter"",""1"",""1686""
","
","","","","","","null","<div style=""font-size:60px;"">+</div>","null","","fixation","","","","","","","","","","",""
"aa-learning-trial","48","222169","0.0-8.0-2.0-1.11","3853","1","16","Male","approach_avoid_spark_v1","""event"",""trial"",""time""
""fullscreenenter"",""1"",""1686""
","
","
","""event"",""trial"",""time""
""fullscreenenter"",""1"",""1686""
","
","","","","","","885.1000001430511","images/racket2.png","","","learning","-3","0","0","0","practice","practice","practice","-1","","",""
"html-button-response","49","224392","0.0-8.0-3.0","3853","1","16","Male","approach_avoid_spark_v1","""event"",""trial"",""time""
""fullscreenenter"",""1"",""1686""
","
","
","""event"",""trial"",""time""
""fullscreenenter"",""1"",""1686""
","
","","","","","","2218.100000143051","<p> You earned -5 points in the practice round! </p>","0","","break","","","","","","","","","","",""
"learning-instructions","50","231599","0.0-8.0-4.0-0.0","3853","1","16","Male","approach_avoid_spark_v1","""event"",""trial"",""time""
""fullscreenenter"",""1"",""1686""
","
","
","""event"",""trial"",""time""
""fullscreenenter"",""1"",""1686""
","
","","","","","","1120.1999998092651","<p> It's almost time to start the real game. </p><p> Before you start, we're going to ask you a few questions about how the game works. </p>","","0","instructions","","","","","","","","","","",""
"preload","51","232629","0.0-8.0-5.0","3853","1","16","Male","approach_avoid_spark_v1","""event"",""trial"",""time""
""fullscreenenter"",""1"",""1686""
","
","
","""event"",""trial"",""time""
""fullscreenenter"",""1"",""1686""
","
","true","false","[]","[]","[]","","","","","","","","","","","","","","","",""
"comp-q","52","238124","0.0-8.0-6.0-0.0","3853","1","16","Male","approach_avoid_spark_v1","""event"",""trial"",""time""
""fullscreenenter"",""1"",""1686""
","
","
","""event"",""trial"",""time""
""fullscreenenter"",""1"",""1686""
","
","","","","","","495.40000009536743","<p> <b> True or False? </b> </p><p> If you see a number in GREY, that means you earned that many points. </p>","","1","comp_question","","","","","","","","","true","",""
"comp-q","53","247685","0.0-8.0-6.0-1.0","3853","1","16","Male","approach_avoid_spark_v1","""event"",""trial"",""time""
""fullscreenenter"",""1"",""1686""
","
","
","""event"",""trial"",""time""
""fullscreenenter"",""1"",""1686""
","
","","","","","","1196.9000000953674","<p><b> That's right! </b> If you see a grey number, it means you earned ZERO points. <br> The grey numbers show the points you WOULD HAVE earned if you had made the other choice. </p>","","0","comp_answer","","","","","","","","","","",""
"comp-q","54","253248","0.0-8.0-7.0-0.0","3853","1","16","Male","approach_avoid_spark_v1","""event"",""trial"",""time""
""fullscreenenter"",""1"",""1686""
","
","
","""event"",""trial"",""time""
""fullscreenenter"",""1"",""1686""
","
","","","","","","868.5","<p> <b> True or False? </b> </p><p> You will have as much time as you want to make each choice. </p>","","1","comp_question","","","","","","","","","true","",""
"comp-q","55","258214","0.0-8.0-7.0-1.0","3853","1","16","Male","approach_avoid_spark_v1","""event"",""trial"",""time""
""fullscreenenter"",""1"",""1686""
","
","
","""event"",""trial"",""time""
""fullscreenenter"",""1"",""1686""
","
","","","","","","926.0999999046326","<p> <b> That's right! </b> You will only have 3 seconds to make each choice. </p>","","0","comp_answer","","","","","","","","","","",""
"comp-q","56","263392","0.0-8.0-8.0-0.0","3853","1","16","Male","approach_avoid_spark_v1","""event"",""trial"",""time""
""fullscreenenter"",""1"",""1686""
","
","
","""event"",""trial"",""time""
""fullscreenenter"",""1"",""1686""
","
","","","","","","532.2000000476837","<p> <b> True or False? </b> </p><p> You should use the '1' and '0' keys to make your choices. </p>","","0","comp_question","","","","","","","","","true","",""
"comp-q","57","268583","0.0-8.0-8.0-1.0","3853","1","16","Male","approach_avoid_spark_v1","""event"",""trial"",""time""
""fullscreenenter"",""1"",""1686""
","
","
","""event"",""trial"",""time""
""fullscreenenter"",""1"",""1686""
","
","","","","","","585","<p> <b> That's right! </b> You should use the '1' and '0' keys to make each choice. </p>","","0","comp_answer","","","","","","","","","","",""
"learning-instructions","58","276027","0.0-8.0-9.0-0.0","3853","1","16","Male","approach_avoid_spark_v1","""event"",""trial"",""time""
""fullscreenenter"",""1"",""1686""
","
","
","""event"",""trial"",""time""
""fullscreenenter"",""1"",""1686""
","
","","","","","","1177.9000000953674","<p> It's now time to start the real game. </p>Do your best, because the points you earn in the next rounds will influence your bonus payment. </p>","","0","instructions","","","","","","","","","","",""
"preload","59","276152","0.0-9.0-0.0","3853","1","16","Male","approach_avoid_spark_v1","""event"",""trial"",""time""
""fullscreenenter"",""1"",""1686""
","
","
","""event"",""trial"",""time""
""fullscreenenter"",""1"",""1686""
","
","true","false","[]","[]","[]","","","","","","","","","","","","","","","",""
"learning-instructions","60","282337","0.0-9.0-1.0-0.0","3853","1","16","Male","approach_avoid_spark_v1","""event"",""trial"",""time""
""fullscreenenter"",""1"",""1686""
","
","
","""event"",""trial"",""time""
""fullscreenenter"",""1"",""1686""
","
","","","","","","1278.6999998092651","<p> Your goal in this round is to take your friend for rides in different vehicles. </p></div>","","0","instructions","","","","","","","","","","",""
"learning-instructions","61","292867","0.0-9.0-1.0-0.1","3853","1","16","Male","approach_avoid_spark_v1","""event"",""trial"",""time""
""fullscreenenter"",""1"",""1686""
","
","
","""event"",""trial"",""time""
""fullscreenenter"",""1"",""1686""
","
","","","","","","779.2999999523163","<p> Your friend enjoys riding in some vehicles but not in others.  </p><p> On each turn, you will see a vehicle.   </p><p> You need to decide whether to take your friend for a ride or not.  </p>","","0","instructions","","","","","","","","","","",""
"learning-instructions","62","300113","0.0-9.0-1.0-0.2","3853","1","16","Male","approach_avoid_spark_v1","""event"",""trial"",""time""
""fullscreenenter"",""1"",""1686""
","
","
","""event"",""trial"",""time""
""fullscreenenter"",""1"",""1686""
","
","","","","","","895.7000000476837","<p> You can take your friend for a ride in the vehicle by pressing 1 and skip the ride by pressing 0. </p><br><div class=""choice-instructions-grid""> <div class=""choice-option""><img src=""images/approach.png"" class=""choice-option-img"" stage=""instructions"" position=""0"" ><div class=""choice-option-text""> Press ""1."" </div></div><div class=""choice-option""><img src=""images/avoid.png"" class=""choice-option-img"" stage=""instructions"" position=""1"" ><div class=""choice-option-text""> Press ""0."" </div></div>","","0","instructions","","","","","","","","","","",""
"learning-instructions","63","309485","0.0-9.0-1.0-0.3","3853","1","16","Male","approach_avoid_spark_v1","""event"",""trial"",""time""
""fullscreenenter"",""1"",""1686""
","
","
","""event"",""trial"",""time""
""fullscreenenter"",""1"",""1686""
","
","","","","","","737","<p> If you take them for a ride in a vehicle they like, they will be thrilled! </p><p> But if you take them for a ride in a vehicle they do not like, they will be upset. </p>","","0","instructions","","","","","","","","","","",""
"learning-instructions","64","321605","0.0-9.0-1.0-0.4","3853","1","16","Male","approach_avoid_spark_v1","""event"",""trial"",""time""
""fullscreenenter"",""1"",""1686""
","
","
","""event"",""trial"",""time""
""fullscreenenter"",""1"",""1686""
","
","","","","","","586.6000001430511","<p> You will earn points based on how you made your friend feel. </p><p> If you made him thrilled, you will WIN anywhere from 1 - 9 points, </p><p> but if you made him upset, you will LOSE anywhere from 1 - 9 points. </p>","","0","instructions","","","","","","","","","","",""
"learning-instructions","65","329607","0.0-9.0-1.0-0.5","3853","1","16","Male","approach_avoid_spark_v1","""event"",""trial"",""time""
""fullscreenenter"",""1"",""1686""
","
","
","""event"",""trial"",""time""
""fullscreenenter"",""1"",""1686""
","
","","","","","","759.3000001907349","<p> You will see how many points you won or lost in the center of the screen. </p><p> Here is what you would see if you won 5 points: </p><p style=""color:green;font-size:50px;font-weight:bolder"">5</p>","","0","instructions","","","","","","","","","","",""
"learning-instructions","66","333793","0.0-9.0-1.0-0.6","3853","1","16","Male","approach_avoid_spark_v1","""event"",""trial"",""time""
""fullscreenenter"",""1"",""1686""
","
","
","""event"",""trial"",""time""
""fullscreenenter"",""1"",""1686""
","
","","","","","","946","<p> And here is what you would see if you lost 3 points: </p><p style=""color:red;font-size:50px;font-weight:bolder"">-3</p>","","0","instructions","","","","","","","","","","",""
"learning-instructions","67","349637","0.0-9.0-1.0-0.7","3853","1","16","Male","approach_avoid_spark_v1","""event"",""trial"",""time""
""fullscreenenter"",""1"",""1686""
","
","
","""event"",""trial"",""time""
""fullscreenenter"",""1"",""1686""
","
","","","","","","818.3999998569489","<p> Some vehicles will make your friend REALLY thrilled or upset. </p><p> These vehicles will make you win or lose LOTS of points. </p><p> Other vehicles will only make him feel a little thrilled or upset. </p><p> These vehicles will make you win or lose small amounts of points. </p>","","0","instructions","","","","","","","","","","",""
"learning-instructions","68","362201","0.0-9.0-1.0-0.8","3853","1","16","Male","approach_avoid_spark_v1","""event"",""trial"",""time""
""fullscreenenter"",""1"",""1686""
","
","
","""event"",""trial"",""time""
""fullscreenenter"",""1"",""1686""
","
","","","","","","922.7000000476837","<p> If you choose to skip the ride, you will not win or lose any points. </p><p>  However, in the center of the screen, you will see the number of points you WOULD HAVE won or lost if you had taken your friend for a ride. </p>","","0","instructions","","","","","","","","","","",""
"learning-instructions","69","373533","0.0-9.0-1.0-0.9","3853","1","16","Male","approach_avoid_spark_v1","""event"",""trial"",""time""
""fullscreenenter"",""1"",""1686""
","
","
","""event"",""trial"",""time""
""fullscreenenter"",""1"",""1686""
","
","","","","","","734.3999998569489","<p> Here is what you might see if you did not take your friend for a ride but he would have enjoyed it: </p><p style=""color:grey; font-size:50px; display: inline-block; border-spacing: 15px; border-width:3px; border-style:solid; border-color:red"">  &nbsp; 6 &nbsp; </p><p> Remember, in this case, you would not win or lose ANY points because you skipped the ride.  </p>","","0","instructions","","","","","","","","","","",""
"learning-instructions","70","381843","0.0-9.0-1.0-0.10","3853","1","16","Male","approach_avoid_spark_v1","""event"",""trial"",""time""
""fullscreenenter"",""1"",""1686""
","
","
","""event"",""trial"",""time""
""fullscreenenter"",""1"",""1686""
","
","","","","","","904.5","<p> Try to make the best choice for each vehicle because </p><p> at the end of the game, you will earn bonus money based on how many points you earned. </p>","","0","instructions","","","","","","","","","","",""
"learning-instructions","71","390647","0.0-9.0-1.0-0.11","3853","1","16","Male","approach_avoid_spark_v1","""event"",""trial"",""time""
""fullscreenenter"",""1"",""1686""
","
","
","""event"",""trial"",""time""
""fullscreenenter"",""1"",""1686""
","
","","","","","","599.0999999046326","<p> You will have 3 seconds to make each choice. Try to respond before time runs out! </p><p> You will lose 5 points each time you do not make a response. </p>","","0","instructions","","","","","","","","","","",""
"html-keyboard-response","72","391262","0.0-9.0-2.0-0.0","3853","1","16","Male","approach_avoid_spark_v1","""event"",""trial"",""time""
""fullscreenenter"",""1"",""1686""
","
","
","""event"",""trial"",""time""
""fullscreenenter"",""1"",""1686""
","
","","","","","","null","<div style=""font-size:60px;"">+</div>","null","","fixation","","","","","","","","","","",""
"aa-learning-trial","73","394271","0.0-9.0-2.0-1.0","3853","1","16","Male","approach_avoid_spark_v1","""event"",""trial"",""time""
""fullscreenenter"",""1"",""1686""
","
","
","""event"",""trial"",""time""
""fullscreenenter"",""1"",""1686""
","
","","","","","","1021.7000000476837","images/train7.png","","","learning","2","2","1","1","train","vehicles","1","0","","good","[4]"
"html-keyboard-response","74","394787","0.0-9.0-2.0-0.1","3853","1","16","Male","approach_avoid_spark_v1","""event"",""trial"",""time""
""fullscreenenter"",""1"",""1686""
","
","
","""event"",""trial"",""time""
""fullscreenenter"",""1"",""1686""
","
","","","","","","null","<div style=""font-size:60px;"">+</div>","null","","fixation","","","","","","","","","","",""
"aa-learning-trial","75","397797","0.0-9.0-2.0-1.1","3853","1","16","Male","approach_avoid_spark_v1","""event"",""trial"",""time""
""fullscreenenter"",""1"",""1686""
","
","
","""event"",""trial"",""time""
""fullscreenenter"",""1"",""1686""
","
","","","","","","713.8999998569489","images/boat3.png","","","learning","-2","-2","1","1","boat","vehicles","1","0","","bad","[-5]"
"html-keyboard-response","76","398312","0.0-9.0-2.0-0.2","3853","1","16","Male","approach_avoid_spark_v1","""event"",""trial"",""time""
""fullscreenenter"",""1"",""1686""
","
","
","""event"",""trial"",""time""
""fullscreenenter"",""1"",""1686""
","
","","","","","","null","<div style=""font-size:60px;"">+</div>","null","","fixation","","","","","","","","","","",""
"aa-learning-trial","77","401323","0.0-9.0-2.0-1.2","3853","1","16","Male","approach_avoid_spark_v1","""event"",""trial"",""time""
""fullscreenenter"",""1"",""1686""
","
","
","""event"",""trial"",""time""
""fullscreenenter"",""1"",""1686""
","
","","","","","","1269.2999999523163","images/truck3.png","","","learning","-1","-5","2","","truck","vehicles","1","0","","neutral","0"
"html-keyboard-response","78","401837","0.0-9.0-2.0-0.3","3853","1","16","Male","approach_avoid_spark_v1","""event"",""trial"",""time""
""fullscreenenter"",""1"",""1686""
","
","
","""event"",""trial"",""time""
""fullscreenenter"",""1"",""1686""
","
","","","","","","null","<div style=""font-size:60px;"">+</div>","null","","fixation","","","","","","","","","","",""
"aa-learning-trial","79","404843","0.0-9.0-2.0-1.3","3853","1","16","Male","approach_avoid_spark_v1","""event"",""trial"",""time""
""fullscreenenter"",""1"",""1686""
","
","
","""event"",""trial"",""time""
""fullscreenenter"",""1"",""1686""
","
","","","","","","925.7000000476837","images/train2.png","","","learning","5","5","1","1","train","vehicles","1","0","","good","[4]"
"html-keyboard-response","80","405357","0.0-9.0-2.0-0.4","3853","1","16","Male","approach_avoid_spark_v1","""event"",""trial"",""time""
""fullscreenenter"",""1"",""1686""
","
","
","""event"",""trial"",""time""
""fullscreenenter"",""1"",""1686""
","
","","","","","","null","<div style=""font-size:60px;"">+</div>","null","","fixation","","","","","","","","","","",""
"aa-learning-trial","81","408362","0.0-9.0-2.0-1.4","3853","1","16","Male","approach_avoid_spark_v1","""event"",""trial"",""time""
""fullscreenenter"",""1"",""1686""
","
","
","""event"",""trial"",""time""
""fullscreenenter"",""1"",""1686""
","
","","","","","","1221.9000000953674","images/boat3.png","","","learning","-5","0","0","0","boat","vehicles","1","0","","bad","[-5]"
"html-keyboard-response","82","408871","0.0-9.0-2.0-0.5","3853","1","16","Male","approach_avoid_spark_v1","""event"",""trial"",""time""
""fullscreenenter"",""1"",""1686""
","
","
","""event"",""trial"",""time""
""fullscreenenter"",""1"",""1686""
","
","","","","","","null","<div style=""font-size:60px;"">+</div>","null","","fixation","","","","","","","","","","",""
"aa-learning-trial","83","411879","0.0-9.0-2.0-1.5","3853","1","16","Male","approach_avoid_spark_v1","""event"",""trial"",""time""
""fullscreenenter"",""1"",""1686""
","
","
","""event"",""trial"",""time""
""fullscreenenter"",""1"",""1686""
","
","","","","","","1051.2000000476837","images/truck7.png","","","learning","2","2","1","1","truck","vehicles","1","0","","neutral","0"
"html-keyboard-response","84","412391","0.0-9.0-2.0-0.6","3853","1","16","Male","approach_avoid_spark_v1","""event"",""trial"",""time""
""fullscreenenter"",""1"",""1686""
","
","
","""event"",""trial"",""time""
""fullscreenenter"",""1"",""1686""
","
","","","","","","null","<div style=""font-size:60px;"">+</div>","null","","fixation","","","","","","","","","","",""
"aa-learning-trial","85","415396","0.0-9.0-2.0-1.6","3853","1","16","Male","approach_avoid_spark_v1","""event"",""trial"",""time""
""fullscreenenter"",""1"",""1686""
","
","
","""event"",""trial"",""time""
""fullscreenenter"",""1"",""1686""
","
","","","","","","531.7999999523163","images/train7.png","","","learning","2","2","1","1","train","vehicles","1","0","","good","[4]"
"html-keyboard-response","86","415910","0.0-9.0-2.0-0.7","3853","1","16","Male","approach_avoid_spark_v1","""event"",""trial"",""time""
""fullscreenenter"",""1"",""1686""
","
","
","""event"",""trial"",""time""
""fullscreenenter"",""1"",""1686""
","
","","","","","","null","<div style=""font-size:60px;"">+</div>","null","","fixation","","","","","","","","","","",""
"aa-learning-trial","87","418926","0.0-9.0-2.0-1.7","3853","1","16","Male","approach_avoid_spark_v1","""event"",""trial"",""time""
""fullscreenenter"",""1"",""1686""
","
","
","""event"",""trial"",""time""
""fullscreenenter"",""1"",""1686""
","
","","","","","","645.1000001430511","images/train8.png","","","learning","5","5","1","1","train","vehicles","1","0","","good","[4]"
"html-keyboard-response","88","419436","0.0-9.0-2.0-0.8","3853","1","16","Male","approach_avoid_spark_v1","""event"",""trial"",""time""
""fullscreenenter"",""1"",""1686""
","
","
","""event"",""trial"",""time""
""fullscreenenter"",""1"",""1686""
","
","","","","","","null","<div style=""font-size:60px;"">+</div>","null","","fixation","","","","","","","","","","",""
"aa-learning-trial","89","422438","0.0-9.0-2.0-1.8","3853","1","16","Male","approach_avoid_spark_v1","""event"",""trial"",""time""
""fullscreenenter"",""1"",""1686""
","
","
","""event"",""trial"",""time""
""fullscreenenter"",""1"",""1686""
","
","","","","","","455.80000019073486","images/train8.png","","","learning","5","5","1","1","train","vehicles","1","0","","good","[4]"
"html-keyboard-response","90","422940","0.0-9.0-2.0-0.9","3853","1","16","Male","approach_avoid_spark_v1","""event"",""trial"",""time""
""fullscreenenter"",""1"",""1686""
","
","
","""event"",""trial"",""time""
""fullscreenenter"",""1"",""1686""
","
","","","","","","null","<div style=""font-size:60px;"">+</div>","null","","fixation","","","","","","","","","","",""
"aa-learning-trial","91","425947","0.0-9.0-2.0-1.9","3853","1","16","Male","approach_avoid_spark_v1","""event"",""trial"",""time""
""fullscreenenter"",""1"",""1686""
","
","
","""event"",""trial"",""time""
""fullscreenenter"",""1"",""1686""
","
","","","","","","898.0999999046326","images/boat1.png","","","learning","-3","0","0","0","boat","vehicles","1","0","","bad","[-5]"
"html-keyboard-response","92","426462","0.0-9.0-2.0-0.10","3853","1","16","Male","approach_avoid_spark_v1","""event"",""trial"",""time""
""fullscreenenter"",""1"",""1686""
","
","
","""event"",""trial"",""time""
""fullscreenenter"",""1"",""1686""
","
","","","","","","null","<div style=""font-size:60px;"">+</div>","null","","fixation","","","","","","","","","","",""
"aa-learning-trial","93","429466","0.0-9.0-2.0-1.10","3853","1","16","Male","approach_avoid_spark_v1","""event"",""trial"",""time""
""fullscreenenter"",""1"",""1686""
","
","
","""event"",""trial"",""time""
""fullscreenenter"",""1"",""1686""
","
","","","","","","859.7999999523163","images/boat6.png","","","learning","-3","0","0","0","boat","vehicles","1","0","","bad","[-5]"
"html-keyboard-response","94","429968","0.0-9.0-2.0-0.11","3853","1","16","Male","approach_avoid_spark_v1","""event"",""trial"",""time""
""fullscreenenter"",""1"",""1686""
","
","
","""event"",""trial"",""time""
""fullscreenenter"",""1"",""1686""
","
","","","","","","null","<div style=""font-size:60px;"">+</div>","null","","fixation","","","","","","","","","","",""
"aa-learning-trial","95","432973","0.0-9.0-2.0-1.11","3853","1","16","Male","approach_avoid_spark_v1","""event"",""trial"",""time""
""fullscreenenter"",""1"",""1686""
","
","
","""event"",""trial"",""time""
""fullscreenenter"",""1"",""1686""
","
","","","","","","937.2000000476837","images/truck8.png","","","learning","2","2","1","1","truck","vehicles","1","0","","neutral","0"
"html-keyboard-response","96","433474","0.0-9.0-2.0-0.12","3853","1","16","Male","approach_avoid_spark_v1","""event"",""trial"",""time""
""fullscreenenter"",""1"",""1686""
","
","
","""event"",""trial"",""time""
""fullscreenenter"",""1"",""1686""
","
","","","","","","null","<div style=""font-size:60px;"">+</div>","null","","fixation","","","","","","","","","","",""
"aa-learning-trial","97","436478","0.0-9.0-2.0-1.12","3853","1","16","Male","approach_avoid_spark_v1","""event"",""trial"",""time""
""fullscreenenter"",""1"",""1686""
","
","
","""event"",""trial"",""time""
""fullscreenenter"",""1"",""1686""
","
","","","","","","770.4000000953674","images/boat6.png","","","learning","-6","0","0","0","boat","vehicles","1","0","","bad","[-5]"
"html-keyboard-response","98","436980","0.0-9.0-2.0-0.13","3853","1","16","Male","approach_avoid_spark_v1","""event"",""trial"",""time""
""fullscreenenter"",""1"",""1686""
","
","
","""event"",""trial"",""time""
""fullscreenenter"",""1"",""1686""
","
","","","","","","null","<div style=""font-size:60px;"">+</div>","null","","fixation","","","","","","","","","","",""
"aa-learning-trial","99","439982","0.0-9.0-2.0-1.13","3853","1","16","Male","approach_avoid_spark_v1","""event"",""trial"",""time""
""fullscreenenter"",""1"",""1686""
","
","
","""event"",""trial"",""time""
""fullscreenenter"",""1"",""1686""
","
","","","","","","720.2000000476837","images/truck3.png","","","learning","[1]","1","1","1","truck","vehicles","1","0","","neutral","0"
"html-keyboard-response","100","440484","0.0-9.0-2.0-0.14","3853","1","16","Male","approach_avoid_spark_v1","""event"",""trial"",""time""
""fullscreenenter"",""1"",""1686""
","
","
","""event"",""trial"",""time""
""fullscreenenter"",""1"",""1686""
","
","","","","","","null","<div style=""font-size:60px;"">+</div>","null","","fixation","","","","","","","","","","",""
"aa-learning-trial","101","443490","0.0-9.0-2.0-1.14","3853","1","16","Male","approach_avoid_spark_v1","""event"",""trial"",""time""
""fullscreenenter"",""1"",""1686""
","
","
","""event"",""trial"",""time""
""fullscreenenter"",""1"",""1686""
","
","","","","","","533.7999999523163","images/truck8.png","","","learning","1","1","1","1","truck","vehicles","1","0","","neutral","0"
"html-keyboard-response","102","443991","0.0-9.0-2.0-0.15","3853","1","16","Male","approach_avoid_spark_v1","""event"",""trial"",""time""
""fullscreenenter"",""1"",""1686""
","
","
","""event"",""trial"",""time""
""fullscreenenter"",""1"",""1686""
","
","","","","","","null","<div style=""font-size:60px;"">+</div>","null","","fixation","","","","","","","","","","",""
"aa-learning-trial","103","446995","0.0-9.0-2.0-1.15","3853","1","16","Male","approach_avoid_spark_v1","""event"",""trial"",""time""
""fullscreenenter"",""1"",""1686""
","
","
","""event"",""trial"",""time""
""fullscreenenter"",""1"",""1686""
","
","","","","","","683.7000000476837","images/truck4.png","","","learning","-1","-1","1","1","truck","vehicles","1","0","","neutral","0"
"html-keyboard-response","104","447497","0.0-9.0-2.0-0.16","3853","1","16","Male","approach_avoid_spark_v1","""event"",""trial"",""time""
""fullscreenenter"",""1"",""1686""
","
","
","""event"",""trial"",""time""
""fullscreenenter"",""1"",""1686""
","
","","","","","","null","<div style=""font-size:60px;"">+</div>","null","","fixation","","","","","","","","","","",""
"aa-learning-trial","105","450500","0.0-9.0-2.0-1.16","3853","1","16","Male","approach_avoid_spark_v1","""event"",""trial"",""time""
""fullscreenenter"",""1"",""1686""
","
","
","""event"",""trial"",""time""
""fullscreenenter"",""1"",""1686""
","
","","","","","","784.7999999523163","images/train7.png","","","learning","3","3","1","1","train","vehicles","1","0","","good","[4]"
"html-keyboard-response","106","451003","0.0-9.0-2.0-0.17","3853","1","16","Male","approach_avoid_spark_v1","""event"",""trial"",""time""
""fullscreenenter"",""1"",""1686""
","
","
","""event"",""trial"",""time""
""fullscreenenter"",""1"",""1686""
","
","","","","","","null","<div style=""font-size:60px;"">+</div>","null","","fixation","","","","","","","","","","",""
"aa-learning-trial","107","454008","0.0-9.0-2.0-1.17","3853","1","16","Male","approach_avoid_spark_v1","""event"",""trial"",""time""
""fullscreenenter"",""1"",""1686""
","
","
","""event"",""trial"",""time""
""fullscreenenter"",""1"",""1686""
","
","","","","","","829.5","images/boat3.png","","","learning","-5","0","0","0","boat","vehicles","1","0","","bad","[-5]"
"html-keyboard-response","108","454510","0.0-9.0-2.0-0.18","3853","1","16","Male","approach_avoid_spark_v1","""event"",""trial"",""time""
""fullscreenenter"",""1"",""1686""
","
","
","""event"",""trial"",""time""
""fullscreenenter"",""1"",""1686""
","
","","","","","","null","<div style=""font-size:60px;"">+</div>","null","","fixation","","","","","","","","","","",""
"aa-learning-trial","109","457515","0.0-9.0-2.0-1.18","3853","1","16","Male","approach_avoid_spark_v1","""event"",""trial"",""time""
""fullscreenenter"",""1"",""1686""
","
","
","""event"",""trial"",""time""
""fullscreenenter"",""1"",""1686""
","
","","","","","","756.5","images/truck7.png","","","learning","-2","-2","1","1","truck","vehicles","1","0","","neutral","0"
"html-keyboard-response","110","458016","0.0-9.0-2.0-0.19","3853","1","16","Male","approach_avoid_spark_v1","""event"",""trial"",""time""
""fullscreenenter"",""1"",""1686""
","
","
","""event"",""trial"",""time""
""fullscreenenter"",""1"",""1686""
","
","","","","","","null","<div style=""font-size:60px;"">+</div>","null","","fixation","","","","","","","","","","",""
"aa-learning-trial","111","461020","0.0-9.0-2.0-1.19","3853","1","16","Male","approach_avoid_spark_v1","""event"",""trial"",""time""
""fullscreenenter"",""1"",""1686""
","
","
","""event"",""trial"",""time""
""fullscreenenter"",""1"",""1686""
","
","","","","","","732","images/boat6.png","","","learning","-6","0","0","0","boat","vehicles","1","0","","bad","[-5]"
"html-keyboard-response","112","461522","0.0-9.0-2.0-0.20","3853","1","16","Male","approach_avoid_spark_v1","""event"",""trial"",""time""
""fullscreenenter"",""1"",""1686""
","
","
","""event"",""trial"",""time""
""fullscreenenter"",""1"",""1686""
","
","","","","","","null","<div style=""font-size:60px;"">+</div>","null","","fixation","","","","","","","","","","",""
"aa-learning-trial","113","464526","0.0-9.0-2.0-1.20","3853","1","16","Male","approach_avoid_spark_v1","""event"",""trial"",""time""
""fullscreenenter"",""1"",""1686""
","
","
","""event"",""trial"",""time""
""fullscreenenter"",""1"",""1686""
","
","","","","","","768.2999999523163","images/truck3.png","","","learning","[1]","1","1","1","truck","vehicles","1","0","","neutral","0"
"html-keyboard-response","114","465027","0.0-9.0-2.0-0.21","3853","1","16","Male","approach_avoid_spark_v1","""event"",""trial"",""time""
""fullscreenenter"",""1"",""1686""
","
","
","""event"",""trial"",""time""
""fullscreenenter"",""1"",""1686""
","
","","","","","","null","<div style=""font-size:60px;"">+</div>","null","","fixation","","","","","","","","","","",""
"aa-learning-trial","115","468030","0.0-9.0-2.0-1.21","3853","1","16","Male","approach_avoid_spark_v1","""event"",""trial"",""time""
""fullscreenenter"",""1"",""1686""
","
","
","""event"",""trial"",""time""
""fullscreenenter"",""1"",""1686""
","
","","","","","","626.5","images/train2.png","","","learning","4","4","1","1","train","vehicles","1","0","","good","[4]"
"html-keyboard-response","116","468532","0.0-9.0-2.0-0.22","3853","1","16","Male","approach_avoid_spark_v1","""event"",""trial"",""time""
""fullscreenenter"",""1"",""1686""
","
","
","""event"",""trial"",""time""
""fullscreenenter"",""1"",""1686""
","
","","","","","","null","<div style=""font-size:60px;"">+</div>","null","","fixation","","","","","","","","","","",""
"aa-learning-trial","117","471537","0.0-9.0-2.0-1.22","3853","1","16","Male","approach_avoid_spark_v1","""event"",""trial"",""time""
""fullscreenenter"",""1"",""1686""
","
","
","""event"",""trial"",""time""
""fullscreenenter"",""1"",""1686""
","
","","","","","","773.2999999523163","images/truck8.png","","","learning","[1]","1","1","1","truck","vehicles","1","0","","neutral","0"
"html-keyboard-response","118","472046","0.0-9.0-2.0-0.23","3853","1","16","Male","approach_avoid_spark_v1","""event"",""trial"",""time""
""fullscreenenter"",""1"",""1686""
","
","
","""event"",""trial"",""time""
""fullscreenenter"",""1"",""1686""
","
","","","","","","null","<div style=""font-size:60px;"">+</div>","null","","fixation","","","","","","","","","","",""
"aa-learning-trial","119","475051","0.0-9.0-2.0-1.23","3853","1","16","Male","approach_avoid_spark_v1","""event"",""trial"",""time""
""fullscreenenter"",""1"",""1686""
","
","
","""event"",""trial"",""time""
""fullscreenenter"",""1"",""1686""
","
","","","","","","411.2999999523163","images/truck8.png","","","learning","-1","-1","1","1","truck","vehicles","1","0","","neutral","0"
"html-keyboard-response","120","475552","0.0-9.0-2.0-0.24","3853","1","16","Male","approach_avoid_spark_v1","""event"",""trial"",""time""
""fullscreenenter"",""1"",""1686""
","
","
","""event"",""trial"",""time""
""fullscreenenter"",""1"",""1686""
","
","","","","","","null","<div style=""font-size:60px;"">+</div>","null","","fixation","","","","","","","","","","",""
"aa-learning-trial","121","478554","0.0-9.0-2.0-1.24","3853","1","16","Male","approach_avoid_spark_v1","""event"",""trial"",""time""
""fullscreenenter"",""1"",""1686""
","
","
","""event"",""trial"",""time""
""fullscreenenter"",""1"",""1686""
","
","","","","","","683.7999999523163","images/boat5.png","","","learning","-4","0","0","0","boat","vehicles","1","0","","bad","[-5]"
"html-keyboard-response","122","479056","0.0-9.0-2.0-0.25","3853","1","16","Male","approach_avoid_spark_v1","""event"",""trial"",""time""
""fullscreenenter"",""1"",""1686""
","
","
","""event"",""trial"",""time""
""fullscreenenter"",""1"",""1686""
","
","","","","","","null","<div style=""font-size:60px;"">+</div>","null","","fixation","","","","","","","","","","",""
"aa-learning-trial","123","482058","0.0-9.0-2.0-1.25","3853","1","16","Male","approach_avoid_spark_v1","""event"",""trial"",""time""
""fullscreenenter"",""1"",""1686""
","
","
","""event"",""trial"",""time""
""fullscreenenter"",""1"",""1686""
","
","","","","","","580","images/train8.png","","","learning","3","3","1","1","train","vehicles","1","0","","good","[4]"
"html-keyboard-response","124","482559","0.0-9.0-2.0-0.26","3853","1","16","Male","approach_avoid_spark_v1","""event"",""trial"",""time""
""fullscreenenter"",""1"",""1686""
","
","
","""event"",""trial"",""time""
""fullscreenenter"",""1"",""1686""
","
","","","","","","null","<div style=""font-size:60px;"">+</div>","null","","fixation","","","","","","","","","","",""
"aa-learning-trial","125","485572","0.0-9.0-2.0-1.26","3853","1","16","Male","approach_avoid_spark_v1","""event"",""trial"",""time""
""fullscreenenter"",""1"",""1686""
","
","
","""event"",""trial"",""time""
""fullscreenenter"",""1"",""1686""
","
","","","","","","540.3999998569489","images/train7.png","","","learning","3","3","1","1","train","vehicles","1","0","","good","[4]"
"html-keyboard-response","126","486073","0.0-9.0-2.0-0.27","3853","1","16","Male","approach_avoid_spark_v1","""event"",""trial"",""time""
""fullscreenenter"",""1"",""1686""
","
","
","""event"",""trial"",""time""
""fullscreenenter"",""1"",""1686""
","
","","","","","","null","<div style=""font-size:60px;"">+</div>","null","","fixation","","","","","","","","","","",""
"aa-learning-trial","127","489076","0.0-9.0-2.0-1.27","3853","1","16","Male","approach_avoid_spark_v1","""event"",""trial"",""time""
""fullscreenenter"",""1"",""1686""
","
","
","""event"",""trial"",""time""
""fullscreenenter"",""1"",""1686""
","
","","","","","","676.5","images/boat1.png","","","learning","-3","0","0","0","boat","vehicles","1","0","","bad","[-5]"
"html-keyboard-response","128","489594","0.0-9.0-2.0-0.28","3853","1","16","Male","approach_avoid_spark_v1","""event"",""trial"",""time""
""fullscreenenter"",""1"",""1686""
","
","
","""event"",""trial"",""time""
""fullscreenenter"",""1"",""1686""
","
","","","","","","null","<div style=""font-size:60px;"">+</div>","null","","fixation","","","","","","","","","","",""
"aa-learning-trial","129","492598","0.0-9.0-2.0-1.28","3853","1","16","Male","approach_avoid_spark_v1","""event"",""trial"",""time""
""fullscreenenter"",""1"",""1686""
","
","
","""event"",""trial"",""time""
""fullscreenenter"",""1"",""1686""
","
","","","","","","560.4000000953674","images/train8.png","","","learning","3","3","1","1","train","vehicles","1","0","","good","[4]"
"html-keyboard-response","130","493100","0.0-9.0-2.0-0.29","3853","1","16","Male","approach_avoid_spark_v1","""event"",""trial"",""time""
""fullscreenenter"",""1"",""1686""
","
","
","""event"",""trial"",""time""
""fullscreenenter"",""1"",""1686""
","
","","","","","","null","<div style=""font-size:60px;"">+</div>","null","","fixation","","","","","","","","","","",""
"aa-learning-trial","131","496105","0.0-9.0-2.0-1.29","3853","1","16","Male","approach_avoid_spark_v1","""event"",""trial"",""time""
""fullscreenenter"",""1"",""1686""
","
","
","""event"",""trial"",""time""
""fullscreenenter"",""1"",""1686""
","
","","","","","","693.0999999046326","images/boat8.png","","","learning","-6","0","0","0","boat","vehicles","1","0","","bad","[-5]"
"html-keyboard-response","132","496607","0.0-9.0-2.0-0.30","3853","1","16","Male","approach_avoid_spark_v1","""event"",""trial"",""time""
""fullscreenenter"",""1"",""1686""
","
","
","""event"",""trial"",""time""
""fullscreenenter"",""1"",""1686""
","
","","","","","","null","<div style=""font-size:60px;"">+</div>","null","","fixation","","","","","","","","","","",""
"aa-learning-trial","133","499610","0.0-9.0-2.0-1.30","3853","1","16","Male","approach_avoid_spark_v1","""event"",""trial"",""time""
""fullscreenenter"",""1"",""1686""
","
","
","""event"",""trial"",""time""
""fullscreenenter"",""1"",""1686""
","
","","","","","","471","images/truck8.png","","","learning","1","1","1","1","truck","vehicles","1","0","","neutral","0"
"html-keyboard-response","134","500112","0.0-9.0-2.0-0.31","3853","1","16","Male","approach_avoid_spark_v1","""event"",""trial"",""time""
""fullscreenenter"",""1"",""1686""
","
","
","""event"",""trial"",""time""
""fullscreenenter"",""1"",""1686""
","
","","","","","","null","<div style=""font-size:60px;"">+</div>","null","","fixation","","","","","","","","","","",""
"aa-learning-trial","135","503116","0.0-9.0-2.0-1.31","3853","1","16","Male","approach_avoid_spark_v1","""event"",""trial"",""time""
""fullscreenenter"",""1"",""1686""
","
","
","""event"",""trial"",""time""
""fullscreenenter"",""1"",""1686""
","
","","","","","","722.0999999046326","images/truck7.png","","","learning","1","1","1","1","truck","vehicles","1","0","","neutral","0"
"html-keyboard-response","136","503618","0.0-9.0-2.0-0.32","3853","1","16","Male","approach_avoid_spark_v1","""event"",""trial"",""time""
""fullscreenenter"",""1"",""1686""
","
","
","""event"",""trial"",""time""
""fullscreenenter"",""1"",""1686""
","
","","","","","","null","<div style=""font-size:60px;"">+</div>","null","","fixation","","","","","","","","","","",""
"aa-learning-trial","137","506620","0.0-9.0-2.0-1.32","3853","1","16","Male","approach_avoid_spark_v1","""event"",""trial"",""time""
""fullscreenenter"",""1"",""1686""
","
","
","""event"",""trial"",""time""
""fullscreenenter"",""1"",""1686""
","
","","","","","","818.6000001430511","images/train3.png","","","learning","3","3","1","1","train","vehicles","1","0","","good","[4]"
"html-keyboard-response","138","507121","0.0-9.0-2.0-0.33","3853","1","16","Male","approach_avoid_spark_v1","""event"",""trial"",""time""
""fullscreenenter"",""1"",""1686""
","
","
","""event"",""trial"",""time""
""fullscreenenter"",""1"",""1686""
","
","","","","","","null","<div style=""font-size:60px;"">+</div>","null","","fixation","","","","","","","","","","",""
"aa-learning-trial","139","510127","0.0-9.0-2.0-1.33","3853","1","16","Male","approach_avoid_spark_v1","""event"",""trial"",""time""
""fullscreenenter"",""1"",""1686""
","
","
","""event"",""trial"",""time""
""fullscreenenter"",""1"",""1686""
","
","","","","","","687.5","images/boat3.png","","","learning","-4","0","0","0","boat","vehicles","1","0","","bad","[-5]"
"html-keyboard-response","140","510628","0.0-9.0-2.0-0.34","3853","1","16","Male","approach_avoid_spark_v1","""event"",""trial"",""time""
""fullscreenenter"",""1"",""1686""
","
","
","""event"",""trial"",""time""
""fullscreenenter"",""1"",""1686""
","
","","","","","","null","<div style=""font-size:60px;"">+</div>","null","","fixation","","","","","","","","","","",""
"aa-learning-trial","141","513632","0.0-9.0-2.0-1.34","3853","1","16","Male","approach_avoid_spark_v1","""event"",""trial"",""time""
""fullscreenenter"",""1"",""1686""
","
","
","""event"",""trial"",""time""
""fullscreenenter"",""1"",""1686""
","
","","","","","","661.2999999523163","images/boat6.png","","","learning","-5","0","0","0","boat","vehicles","1","0","","bad","[-5]"
"html-keyboard-response","142","514135","0.0-9.0-2.0-0.35","3853","1","16","Male","approach_avoid_spark_v1","""event"",""trial"",""time""
""fullscreenenter"",""1"",""1686""
","
","
","""event"",""trial"",""time""
""fullscreenenter"",""1"",""1686""
","
","","","","","","null","<div style=""font-size:60px;"">+</div>","null","","fixation","","","","","","","","","","",""
"aa-learning-trial","143","517151","0.0-9.0-2.0-1.35","3853","1","16","Male","approach_avoid_spark_v1","""event"",""trial"",""time""
""fullscreenenter"",""1"",""1686""
","
","
","""event"",""trial"",""time""
""fullscreenenter"",""1"",""1686""
","
","","","","","","587.8000001907349","images/truck2.png","","","learning","1","1","1","1","truck","vehicles","1","0","","neutral","0"
"html-keyboard-response","144","517653","0.0-9.0-2.0-0.36","3853","1","16","Male","approach_avoid_spark_v1","""event"",""trial"",""time""
""fullscreenenter"",""1"",""1686""
","
","
","""event"",""trial"",""time""
""fullscreenenter"",""1"",""1686""
","
","","","","","","null","<div style=""font-size:60px;"">+</div>","null","","fixation","","","","","","","","","","",""
"aa-learning-trial","145","520657","0.0-9.0-2.0-1.36","3853","1","16","Male","approach_avoid_spark_v1","""event"",""trial"",""time""
""fullscreenenter"",""1"",""1686""
","
","
","""event"",""trial"",""time""
""fullscreenenter"",""1"",""1686""
","
","","","","","","702.5","images/boat3.png","","","learning","-5","0","0","0","boat","vehicles","1","0","","bad","[-5]"
"html-keyboard-response","146","521160","0.0-9.0-2.0-0.37","3853","1","16","Male","approach_avoid_spark_v1","""event"",""trial"",""time""
""fullscreenenter"",""1"",""1686""
","
","
","""event"",""trial"",""time""
""fullscreenenter"",""1"",""1686""
","
","","","","","","null","<div style=""font-size:60px;"">+</div>","null","","fixation","","","","","","","","","","",""
"aa-learning-trial","147","524162","0.0-9.0-2.0-1.37","3853","1","16","Male","approach_avoid_spark_v1","""event"",""trial"",""time""
""fullscreenenter"",""1"",""1686""
","
","
","""event"",""trial"",""time""
""fullscreenenter"",""1"",""1686""
","
","","","","","","564.1000001430511","images/truck3.png","","","learning","2","2","1","1","truck","vehicles","1","0","","neutral","0"
"html-keyboard-response","148","524665","0.0-9.0-2.0-0.38","3853","1","16","Male","approach_avoid_spark_v1","""event"",""trial"",""time""
""fullscreenenter"",""1"",""1686""
","
","
","""event"",""trial"",""time""
""fullscreenenter"",""1"",""1686""
","
","","","","","","null","<div style=""font-size:60px;"">+</div>","null","","fixation","","","","","","","","","","",""
"aa-learning-trial","149","527670","0.0-9.0-2.0-1.38","3853","1","16","Male","approach_avoid_spark_v1","""event"",""trial"",""time""
""fullscreenenter"",""1"",""1686""
","
","
","""event"",""trial"",""time""
""fullscreenenter"",""1"",""1686""
","
","","","","","","504","images/train8.png","","","learning","5","5","1","1","train","vehicles","1","0","","good","[4]"
"html-keyboard-response","150","528172","0.0-9.0-2.0-0.39","3853","1","16","Male","approach_avoid_spark_v1","""event"",""trial"",""time""
""fullscreenenter"",""1"",""1686""
","
","
","""event"",""trial"",""time""
""fullscreenenter"",""1"",""1686""
","
","","","","","","null","<div style=""font-size:60px;"">+</div>","null","","fixation","","","","","","","","","","",""
"aa-learning-trial","151","531177","0.0-9.0-2.0-1.39","3853","1","16","Male","approach_avoid_spark_v1","""event"",""trial"",""time""
""fullscreenenter"",""1"",""1686""
","
","
","""event"",""trial"",""time""
""fullscreenenter"",""1"",""1686""
","
","","","","","","628.6999998092651","images/boat6.png","","","learning","-5","0","0","0","boat","vehicles","1","0","","bad","[-5]"
"html-keyboard-response","152","531679","0.0-9.0-2.0-0.40","3853","1","16","Male","approach_avoid_spark_v1","""event"",""trial"",""time""
""fullscreenenter"",""1"",""1686""
","
","
","""event"",""trial"",""time""
""fullscreenenter"",""1"",""1686""
","
","","","","","","null","<div style=""font-size:60px;"">+</div>","null","","fixation","","","","","","","","","","",""
"aa-learning-trial","153","534683","0.0-9.0-2.0-1.40","3853","1","16","Male","approach_avoid_spark_v1","""event"",""trial"",""time""
""fullscreenenter"",""1"",""1686""
","
","
","""event"",""trial"",""time""
""fullscreenenter"",""1"",""1686""
","
","","","","","","586.7999999523163","images/train7.png","","","learning","4","4","1","1","train","vehicles","1","0","","good","[4]"
"html-keyboard-response","154","535185","0.0-9.0-2.0-0.41","3853","1","16","Male","approach_avoid_spark_v1","""event"",""trial"",""time""
""fullscreenenter"",""1"",""1686""
","
","
","""event"",""trial"",""time""
""fullscreenenter"",""1"",""1686""
","
","","","","","","null","<div style=""font-size:60px;"">+</div>","null","","fixation","","","","","","","","","","",""
"aa-learning-trial","155","538190","0.0-9.0-2.0-1.41","3853","1","16","Male","approach_avoid_spark_v1","""event"",""trial"",""time""
""fullscreenenter"",""1"",""1686""
","
","
","""event"",""trial"",""time""
""fullscreenenter"",""1"",""1686""
","
","","","","","","663.9000000953674","images/boat3.png","","","learning","-7","0","0","0","boat","vehicles","1","0","","bad","[-5]"
"html-keyboard-response","156","538693","0.0-9.0-2.0-0.42","3853","1","16","Male","approach_avoid_spark_v1","""event"",""trial"",""time""
""fullscreenenter"",""1"",""1686""
","
","
","""event"",""trial"",""time""
""fullscreenenter"",""1"",""1686""
","
","","","","","","null","<div style=""font-size:60px;"">+</div>","null","","fixation","","","","","","","","","","",""
"aa-learning-trial","157","541697","0.0-9.0-2.0-1.42","3853","1","16","Male","approach_avoid_spark_v1","""event"",""trial"",""time""
""fullscreenenter"",""1"",""1686""
","
","
","""event"",""trial"",""time""
""fullscreenenter"",""1"",""1686""
","
","","","","","","612.2999999523163","images/train2.png","","","learning","4","4","1","1","train","vehicles","1","0","","good","[4]"
"html-keyboard-response","158","542198","0.0-9.0-2.0-0.43","3853","1","16","Male","approach_avoid_spark_v1","""event"",""trial"",""time""
""fullscreenenter"",""1"",""1686""
","
","
","""event"",""trial"",""time""
""fullscreenenter"",""1"",""1686""
","
","","","","","","null","<div style=""font-size:60px;"">+</div>","null","","fixation","","","","","","","","","","",""
"aa-learning-trial","159","545202","0.0-9.0-2.0-1.43","3853","1","16","Male","approach_avoid_spark_v1","""event"",""trial"",""time""
""fullscreenenter"",""1"",""1686""
","
","
","""event"",""trial"",""time""
""fullscreenenter"",""1"",""1686""
","
","","","","","","532","images/truck3.png","","","learning","-2","-2","1","1","truck","vehicles","1","0","","neutral","0"
"html-keyboard-response","160","545702","0.0-9.0-2.0-0.44","3853","1","16","Male","approach_avoid_spark_v1","""event"",""trial"",""time""
""fullscreenenter"",""1"",""1686""
","
","
","""event"",""trial"",""time""
""fullscreenenter"",""1"",""1686""
","
","","","","","","null","<div style=""font-size:60px;"">+</div>","null","","fixation","","","","","","","","","","",""
"aa-learning-trial","161","548705","0.0-9.0-2.0-1.44","3853","1","16","Male","approach_avoid_spark_v1","""event"",""trial"",""time""
""fullscreenenter"",""1"",""1686""
","
","
","""event"",""trial"",""time""
""fullscreenenter"",""1"",""1686""
","
","","","","","","749.5999999046326","images/train1.png","","","learning","7","7","1","1","train","vehicles","1","0","","good","[4]"
"html-keyboard-response","162","549206","0.0-9.0-2.0-0.45","3853","1","16","Male","approach_avoid_spark_v1","""event"",""trial"",""time""
""fullscreenenter"",""1"",""1686""
","
","
","""event"",""trial"",""time""
""fullscreenenter"",""1"",""1686""
","
","","","","","","null","<div style=""font-size:60px;"">+</div>","null","","fixation","","","","","","","","","","",""
"aa-learning-trial","163","552211","0.0-9.0-2.0-1.45","3853","1","16","Male","approach_avoid_spark_v1","""event"",""trial"",""time""
""fullscreenenter"",""1"",""1686""
","
","
","""event"",""trial"",""time""
""fullscreenenter"",""1"",""1686""
","
","","","","","","554.7999999523163","images/truck8.png","","","learning","1","1","1","1","truck","vehicles","1","0","","neutral","0"
"html-keyboard-response","164","552714","0.0-9.0-2.0-0.46","3853","1","16","Male","approach_avoid_spark_v1","""event"",""trial"",""time""
""fullscreenenter"",""1"",""1686""
","
","
","""event"",""trial"",""time""
""fullscreenenter"",""1"",""1686""
","
","","","","","","null","<div style=""font-size:60px;"">+</div>","null","","fixation","","","","","","","","","","",""
"aa-learning-trial","165","555716","0.0-9.0-2.0-1.46","3853","1","16","Male","approach_avoid_spark_v1","""event"",""trial"",""time""
""fullscreenenter"",""1"",""1686""
","
","
","""event"",""trial"",""time""
""fullscreenenter"",""1"",""1686""
","
","","","","","","513.4000000953674","images/train8.png","","","learning","7","7","1","1","train","vehicles","1","0","","good","[4]"
"html-keyboard-response","166","556217","0.0-9.0-2.0-0.47","3853","1","16","Male","approach_avoid_spark_v1","""event"",""trial"",""time""
""fullscreenenter"",""1"",""1686""
","
","
","""event"",""trial"",""time""
""fullscreenenter"",""1"",""1686""
","
","","","","","","null","<div style=""font-size:60px;"">+</div>","null","","fixation","","","","","","","","","","",""
"aa-learning-trial","167","559220","0.0-9.0-2.0-1.47","3853","1","16","Male","approach_avoid_spark_v1","""event"",""trial"",""time""
""fullscreenenter"",""1"",""1686""
","
","
","""event"",""trial"",""time""
""fullscreenenter"",""1"",""1686""
","
","","","","","","601.1999998092651","images/truck3.png","","","learning","[1]","1","1","1","truck","vehicles","1","0","","neutral","0"
"html-keyboard-response","168","559723","0.0-9.0-2.0-0.48","3853","1","16","Male","approach_avoid_spark_v1","""event"",""trial"",""time""
""fullscreenenter"",""1"",""1686""
","
","
","""event"",""trial"",""time""
""fullscreenenter"",""1"",""1686""
","
","","","","","","null","<div style=""font-size:60px;"">+</div>","null","","fixation","","","","","","","","","","",""
"aa-learning-trial","169","562726","0.0-9.0-2.0-1.48","3853","1","16","Male","approach_avoid_spark_v1","""event"",""trial"",""time""
""fullscreenenter"",""1"",""1686""
","
","
","""event"",""trial"",""time""
""fullscreenenter"",""1"",""1686""
","
","","","","","","774.6000001430511","images/boat6.png","","","learning","-6","0","0","0","boat","vehicles","1","0","","bad","[-5]"
"html-keyboard-response","170","563229","0.0-9.0-2.0-0.49","3853","1","16","Male","approach_avoid_spark_v1","""event"",""trial"",""time""
""fullscreenenter"",""1"",""1686""
","
","
","""event"",""trial"",""time""
""fullscreenenter"",""1"",""1686""
","
","","","","","","null","<div style=""font-size:60px;"">+</div>","null","","fixation","","","","","","","","","","",""
"aa-learning-trial","171","566235","0.0-9.0-2.0-1.49","3853","1","16","Male","approach_avoid_spark_v1","""event"",""trial"",""time""
""fullscreenenter"",""1"",""1686""
","
","
","""event"",""trial"",""time""
""fullscreenenter"",""1"",""1686""
","
","","","","","","515.9000000953674","images/boat1.png","","","learning","-7","0","0","0","boat","vehicles","1","0","","bad","[-5]"
"html-keyboard-response","172","566736","0.0-9.0-2.0-0.50","3853","1","16","Male","approach_avoid_spark_v1","""event"",""trial"",""time""
""fullscreenenter"",""1"",""1686""
","
","
","""event"",""trial"",""time""
""fullscreenenter"",""1"",""1686""
","
","","","","","","null","<div style=""font-size:60px;"">+</div>","null","","fixation","","","","","","","","","","",""
"aa-learning-trial","173","569741","0.0-9.0-2.0-1.50","3853","1","16","Male","approach_avoid_spark_v1","""event"",""trial"",""time""
""fullscreenenter"",""1"",""1686""
","
","
","""event"",""trial"",""time""
""fullscreenenter"",""1"",""1686""
","
","","","","","","609.1999998092651","images/train7.png","","","learning","3","3","1","1","train","vehicles","1","0","","good","[4]"
"html-button-response","174","572416","0.0-9.0-3.0","3853","1","16","Male","approach_avoid_spark_v1","""event"",""trial"",""time""
""fullscreenenter"",""1"",""1686""
","
","
","""event"",""trial"",""time""
""fullscreenenter"",""1"",""1686""
","
","","","","","","2674.5","<p> You have completed the round! <p> In this round, you earned 70 points! </p>","0","","break","","","","","","","","","","",""
"html-button-response","175","573282","0.0-10.0","3853","1","16","Male","approach_avoid_spark_v1","""event"",""trial"",""time""
""fullscreenenter"",""1"",""1686""
","
","
","""event"",""trial"",""time""
""fullscreenenter"",""1"",""1686""
","
","","","","","","865.0999999046326","<p> Now it's time to play another round. </p>","0","","transition_screen","","","","","","","","","","",""
"preload","176","573393","0.0-11.0-0.0","3853","1","16","Male","approach_avoid_spark_v1","""event"",""trial"",""time""
""fullscreenenter"",""1"",""1686""
","
","
","""event"",""trial"",""time""
""fullscreenenter"",""1"",""1686""
","
","true","false","[]","[]","[]","","","","","","","","","","","","","","","",""
"learning-instructions","177","578978","0.0-11.0-1.0-0.0","3853","1","16","Male","approach_avoid_spark_v1","""event"",""trial"",""time""
""fullscreenenter"",""1"",""1686""
","
","
","""event"",""trial"",""time""
""fullscreenenter"",""1"",""1686""
","
","","","","","","1725.7999999523163","<p> Your goal in this round is to take care of lots of animals. </p></div>","","0","instructions","","","","","","","","","","",""
"learning-instructions","178","588908","0.0-11.0-1.0-0.1","3853","1","16","Male","approach_avoid_spark_v1","""event"",""trial"",""time""
""fullscreenenter"",""1"",""1686""
","
","
","""event"",""trial"",""time""
""fullscreenenter"",""1"",""1686""
","
","","","","","","805.5","<p> Some animals want to be pet, while other animals want to be left alone.  </p><p> On each turn, you will see an animal.   </p><p> You need to decide whether to pet it or not.  </p>","","0","instructions","","","","","","","","","","",""
"learning-instructions","179","594393","0.0-11.0-1.0-0.2","3853","1","16","Male","approach_avoid_spark_v1","""event"",""trial"",""time""
""fullscreenenter"",""1"",""1686""
","
","
","""event"",""trial"",""time""
""fullscreenenter"",""1"",""1686""
","
","","","","","","639.3999998569489","<p> You can pet the animal by pressing 1 and leave the animal alone by pressing 0. </p><br><div class=""choice-instructions-grid""> <div class=""choice-option""><img src=""images/approach.png"" class=""choice-option-img"" stage=""instructions"" position=""0"" ><div class=""choice-option-text""> Press ""1."" </div></div><div class=""choice-option""><img src=""images/avoid.png"" class=""choice-option-img"" stage=""instructions"" position=""1"" ><div class=""choice-option-text""> Press ""0."" </div></div>","","0","instructions","","","","","","","","","","",""
"learning-instructions","180","603309","0.0-11.0-1.0-0.3","3853","1","16","Male","approach_avoid_spark_v1","""event"",""trial"",""time""
""fullscreenenter"",""1"",""1686""
","
","
","""event"",""trial"",""time""
""fullscreenenter"",""1"",""1686""
","
","","","","","","526","<p> If you pet an animal that wants to be pet, you will make it feel happy! </p><p> But if you pet an animal that wants to be left alone, you will make it feel angry. </p>","","0","instructions","","","","","","","","","","",""
"learning-instructions","181","616347","0.0-11.0-1.0-0.4","3853","1","16","Male","approach_avoid_spark_v1","""event"",""trial"",""time""
""fullscreenenter"",""1"",""1686""
","
","
","""event"",""trial"",""time""
""fullscreenenter"",""1"",""1686""
","
","","","","","","1153.8999998569489","<p> You will earn points based on how you made the animal feel. </p><p> If you made it feel happy, you will WIN anywhere from 1 - 9 points, </p><p> but if you made it feel angry, you will LOSE anywhere from 1 - 9 points. </p>","","0","instructions","","","","","","","","","","",""
"learning-instructions","182","624341","0.0-11.0-1.0-0.5","3853","1","16","Male","approach_avoid_spark_v1","""event"",""trial"",""time""
""fullscreenenter"",""1"",""1686""
","
","
","""event"",""trial"",""time""
""fullscreenenter"",""1"",""1686""
","
","","","","","","1338.2999999523163","<p> You will see how many points you won or lost in the center of the screen. </p><p> Here is what you would see if you won 5 points: </p><p style=""color:green;font-size:50px;font-weight:bolder"">5</p>","","0","instructions","","","","","","","","","","",""
"learning-instructions","183","627937","0.0-11.0-1.0-0.6","3853","1","16","Male","approach_avoid_spark_v1","""event"",""trial"",""time""
""fullscreenenter"",""1"",""1686""
","
","
","""event"",""trial"",""time""
""fullscreenenter"",""1"",""1686""
","
","","","","","","763.2000000476837","<p> And here is what you would see if you lost 3 points: </p><p style=""color:red;font-size:50px;font-weight:bolder"">-3</p>","","0","instructions","","","","","","","","","","",""
"learning-instructions","184","642101","0.0-11.0-1.0-0.7","3853","1","16","Male","approach_avoid_spark_v1","""event"",""trial"",""time""
""fullscreenenter"",""1"",""1686""
","
","
","""event"",""trial"",""time""
""fullscreenenter"",""1"",""1686""
","
","","","","","","888","<p> Some animals will become very happy or very angry. </p><p> These animals will make you win or lose LOTS of points. </p><p> Other animals have less strong feelings. </p><p> These animals will make you win or lose small amounts of points. </p>","","0","instructions","","","","","","","","","","",""
"learning-instructions","185","653446","0.0-11.0-1.0-0.8","3853","1","16","Male","approach_avoid_spark_v1","""event"",""trial"",""time""
""fullscreenenter"",""1"",""1686""
","
","
","""event"",""trial"",""time""
""fullscreenenter"",""1"",""1686""
","
","","","","","","563.9000000953674","<p> If you choose to leave the animal alone, you will not win or lose any points. </p><p>  However, in the center of the screen, you will see the number of points you WOULD HAVE won or lost if you had pet the animal. </p>","","0","instructions","","","","","","","","","","",""
"learning-instructions","186","665424","0.0-11.0-1.0-0.9","3853","1","16","Male","approach_avoid_spark_v1","""event"",""trial"",""time""
""fullscreenenter"",""1"",""1686""
","
","
","""event"",""trial"",""time""
""fullscreenenter"",""1"",""1686""
","
","","","","","","801.8999998569489","<p> Here is what you might see if you did not pet the animal but the animal wanted to be pet: </p><p style=""color:grey; font-size:50px; display: inline-block; border-spacing: 15px; border-width:3px; border-style:solid; border-color:red"">  &nbsp; 6 &nbsp; </p><p> Remember, in this case, you would not win or lose ANY points because you did not pet the animal.  </p>","","0","instructions","","","","","","","","","","",""
"learning-instructions","187","672796","0.0-11.0-1.0-0.10","3853","1","16","Male","approach_avoid_spark_v1","""event"",""trial"",""time""
""fullscreenenter"",""1"",""1686""
","
","
","""event"",""trial"",""time""
""fullscreenenter"",""1"",""1686""
","
","","","","","","613.9000000953674","<p> Try to make the best choice for each animal because </p><p> at the end of the game, you will earn bonus money based on how many points you earned. </p>","","0","instructions","","","","","","","","","","",""
"learning-instructions","188","681452","0.0-11.0-1.0-0.11","3853","1","16","Male","approach_avoid_spark_v1","""event"",""trial"",""time""
""fullscreenenter"",""1"",""1686""
","
","
","""event"",""trial"",""time""
""fullscreenenter"",""1"",""1686""
","
","","","","","","469.2999999523163","<p> You will have 3 seconds to make each choice. Try to respond before time runs out! </p><p> You will lose 5 points each time you do not make a response. </p>","","0","instructions","","","","","","","","","","",""
"html-keyboard-response","189","682057","0.0-11.0-2.0-0.0","3853","1","16","Male","approach_avoid_spark_v1","""event"",""trial"",""time""
""fullscreenenter"",""1"",""1686""
","
","
","""event"",""trial"",""time""
""fullscreenenter"",""1"",""1686""
","
","","","","","","null","<div style=""font-size:60px;"">+</div>","null","","fixation","","","","","","","","","","",""
"aa-learning-trial","190","685071","0.0-11.0-2.0-1.0","3853","1","16","Male","approach_avoid_spark_v1","""event"",""trial"",""time""
""fullscreenenter"",""1"",""1686""
","
","
","""event"",""trial"",""time""
""fullscreenenter"",""1"",""1686""
","
","","","","","","1197.7999999523163","images/rodent1.png","","","learning","-8","-8","1","1","rodent","pets","2","1","","neutral","0"
"html-keyboard-response","191","685573","0.0-11.0-2.0-0.1","3853","1","16","Male","approach_avoid_spark_v1","""event"",""trial"",""time""
""fullscreenenter"",""1"",""1686""
","
","
","""event"",""trial"",""time""
""fullscreenenter"",""1"",""1686""
","
","","","","","","null","<div style=""font-size:60px;"">+</div>","null","","fixation","","","","","","","","","","",""
"aa-learning-trial","192","688576","0.0-11.0-2.0-1.1","3853","1","16","Male","approach_avoid_spark_v1","""event"",""trial"",""time""
""fullscreenenter"",""1"",""1686""
","
","
","""event"",""trial"",""time""
""fullscreenenter"",""1"",""1686""
","
","","","","","","1254.5","images/rabbit8.png","","","learning","-9","0","0","0","rabbit","pets","2","1","","bad","[-4]"
"html-keyboard-response","193","689081","0.0-11.0-2.0-0.2","3853","1","16","Male","approach_avoid_spark_v1","""event"",""trial"",""time""
""fullscreenenter"",""1"",""1686""
","
","
","""event"",""trial"",""time""
""fullscreenenter"",""1"",""1686""
","
","","","","","","null","<div style=""font-size:60px;"">+</div>","null","","fixation","","","","","","","","","","",""
"aa-learning-trial","194","692086","0.0-11.0-2.0-1.2","3853","1","16","Male","approach_avoid_spark_v1","""event"",""trial"",""time""
""fullscreenenter"",""1"",""1686""
","
","
","""event"",""trial"",""time""
""fullscreenenter"",""1"",""1686""
","
","","","","","","839","images/cat5.png","","","learning","8","8","1","1","cat","pets","2","1","","good","[6]"
"html-keyboard-response","195","692591","0.0-11.0-2.0-0.3","3853","1","16","Male","approach_avoid_spark_v1","""event"",""trial"",""time""
""fullscreenenter"",""1"",""1686""
","
","
","""event"",""trial"",""time""
""fullscreenenter"",""1"",""1686""
","
","","","","","","null","<div style=""font-size:60px;"">+</div>","null","","fixation","","","","","","","","","","",""
"aa-learning-trial","196","695601","0.0-11.0-2.0-1.3","3853","1","16","Male","approach_avoid_spark_v1","""event"",""trial"",""time""
""fullscreenenter"",""1"",""1686""
","
","
","""event"",""trial"",""time""
""fullscreenenter"",""1"",""1686""
","
","","","","","","562.6000001430511","images/cat2.png","","","learning","-3","-3","1","1","cat","pets","2","1","","good","[6]"
"html-keyboard-response","197","696106","0.0-11.0-2.0-0.4","3853","1","16","Male","approach_avoid_spark_v1","""event"",""trial"",""time""
""fullscreenenter"",""1"",""1686""
","
","
","""event"",""trial"",""time""
""fullscreenenter"",""1"",""1686""
","
","","","","","","null","<div style=""font-size:60px;"">+</div>","null","","fixation","","","","","","","","","","",""
"aa-learning-trial","198","699111","0.0-11.0-2.0-1.4","3853","1","16","Male","approach_avoid_spark_v1","""event"",""trial"",""time""
""fullscreenenter"",""1"",""1686""
","
","
","""event"",""trial"",""time""
""fullscreenenter"",""1"",""1686""
","
","","","","","","1016.2000000476837","images/rabbit4.png","","","learning","5","0","0","0","rabbit","pets","2","1","","bad","[-4]"
"html-keyboard-response","199","699616","0.0-11.0-2.0-0.5","3853","1","16","Male","approach_avoid_spark_v1","""event"",""trial"",""time""
""fullscreenenter"",""1"",""1686""
","
","
","""event"",""trial"",""time""
""fullscreenenter"",""1"",""1686""
","
","","","","","","null","<div style=""font-size:60px;"">+</div>","null","","fixation","","","","","","","","","","",""
"aa-learning-trial","200","702621","0.0-11.0-2.0-1.5","3853","1","16","Male","approach_avoid_spark_v1","""event"",""trial"",""time""
""fullscreenenter"",""1"",""1686""
","
","
","""event"",""trial"",""time""
""fullscreenenter"",""1"",""1686""
","
","","","","","","867.5","images/rabbit4.png","","","learning","5","5","1","1","rabbit","pets","2","1","","bad","[-4]"
"html-keyboard-response","201","703126","0.0-11.0-2.0-0.6","3853","1","16","Male","approach_avoid_spark_v1","""event"",""trial"",""time""
""fullscreenenter"",""1"",""1686""
","
","
","""event"",""trial"",""time""
""fullscreenenter"",""1"",""1686""
","
","","","","","","null","<div style=""font-size:60px;"">+</div>","null","","fixation","","","","","","","","","","",""
"aa-learning-trial","202","706145","0.0-11.0-2.0-1.6","3853","1","16","Male","approach_avoid_spark_v1","""event"",""trial"",""time""
""fullscreenenter"",""1"",""1686""
","
","
","""event"",""trial"",""time""
""fullscreenenter"",""1"",""1686""
","
","","","","","","1074.2000000476837","images/rodent6.png","","","learning","-4","0","0","0","rodent","pets","2","1","","neutral","0"
"html-keyboard-response","203","706651","0.0-11.0-2.0-0.7","3853","1","16","Male","approach_avoid_spark_v1","""event"",""trial"",""time""
""fullscreenenter"",""1"",""1686""
","
","
","""event"",""trial"",""time""
""fullscreenenter"",""1"",""1686""
","
","","","","","","null","<div style=""font-size:60px;"">+</div>","null","","fixation","","","","","","","","","","",""
"aa-learning-trial","204","709666","0.0-11.0-2.0-1.7","3853","1","16","Male","approach_avoid_spark_v1","""event"",""trial"",""time""
""fullscreenenter"",""1"",""1686""
","
","
","""event"",""trial"",""time""
""fullscreenenter"",""1"",""1686""
","
","","","","","","677.5999999046326","images/rodent5.png","","","learning","4","0","0","0","rodent","pets","2","1","","neutral","0"
"html-keyboard-response","205","710183","0.0-11.0-2.0-0.8","3853","1","16","Male","approach_avoid_spark_v1","""event"",""trial"",""time""
""fullscreenenter"",""1"",""1686""
","
","
","""event"",""trial"",""time""
""fullscreenenter"",""1"",""1686""
","
","","","","","","null","<div style=""font-size:60px;"">+</div>","null","","fixation","","","","","","","","","","",""
"aa-learning-trial","206","713185","0.0-11.0-2.0-1.8","3853","1","16","Male","approach_avoid_spark_v1","""event"",""trial"",""time""
""fullscreenenter"",""1"",""1686""
","
","
","""event"",""trial"",""time""
""fullscreenenter"",""1"",""1686""
","
","","","","","","980.3999998569489","images/rabbit8.png","","","learning","-9","0","0","0","rabbit","pets","2","1","","bad","[-4]"
"html-keyboard-response","207","713688","0.0-11.0-2.0-0.9","3853","1","16","Male","approach_avoid_spark_v1","""event"",""trial"",""time""
""fullscreenenter"",""1"",""1686""
","
","
","""event"",""trial"",""time""
""fullscreenenter"",""1"",""1686""
","
","","","","","","null","<div style=""font-size:60px;"">+</div>","null","","fixation","","","","","","","","","","",""
"aa-learning-trial","208","716693","0.0-11.0-2.0-1.9","3853","1","16","Male","approach_avoid_spark_v1","""event"",""trial"",""time""
""fullscreenenter"",""1"",""1686""
","
","
","""event"",""trial"",""time""
""fullscreenenter"",""1"",""1686""
","
","","","","","","786.1000001430511","images/rabbit6.png","","","learning","7","7","1","1","rabbit","pets","2","1","","bad","[-4]"
"html-keyboard-response","209","717195","0.0-11.0-2.0-0.10","3853","1","16","Male","approach_avoid_spark_v1","""event"",""trial"",""time""
""fullscreenenter"",""1"",""1686""
","
","
","""event"",""trial"",""time""
""fullscreenenter"",""1"",""1686""
","
","","","","","","null","<div style=""font-size:60px;"">+</div>","null","","fixation","","","","","","","","","","",""
"aa-learning-trial","210","720200","0.0-11.0-2.0-1.10","3853","1","16","Male","approach_avoid_spark_v1","""event"",""trial"",""time""
""fullscreenenter"",""1"",""1686""
","
","
","""event"",""trial"",""time""
""fullscreenenter"",""1"",""1686""
","
","","","","","","1004.8999998569489","images/rodent1.png","","","learning","-8","0","0","0","rodent","pets","2","1","","neutral","0"
"html-keyboard-response","211","720703","0.0-11.0-2.0-0.11","3853","1","16","Male","approach_avoid_spark_v1","""event"",""trial"",""time""
""fullscreenenter"",""1"",""1686""
","
","
","""event"",""trial"",""time""
""fullscreenenter"",""1"",""1686""
","
","","","","","","null","<div style=""font-size:60px;"">+</div>","null","","fixation","","","","","","","","","","",""
"aa-learning-trial","212","723708","0.0-11.0-2.0-1.11","3853","1","16","Male","approach_avoid_spark_v1","""event"",""trial"",""time""
""fullscreenenter"",""1"",""1686""
","
","
","""event"",""trial"",""time""
""fullscreenenter"",""1"",""1686""
","
","","","","","","591.7000000476837","images/cat5.png","","","learning","8","8","1","1","cat","pets","2","1","","good","[6]"
"html-keyboard-response","213","724211","0.0-11.0-2.0-0.12","3853","1","16","Male","approach_avoid_spark_v1","""event"",""trial"",""time""
""fullscreenenter"",""1"",""1686""
","
","
","""event"",""trial"",""time""
""fullscreenenter"",""1"",""1686""
","
","","","","","","null","<div style=""font-size:60px;"">+</div>","null","","fixation","","","","","","","","","","",""
"aa-learning-trial","214","727230","0.0-11.0-2.0-1.12","3853","1","16","Male","approach_avoid_spark_v1","""event"",""trial"",""time""
""fullscreenenter"",""1"",""1686""
","
","
","""event"",""trial"",""time""
""fullscreenenter"",""1"",""1686""
","
","","","","","","622.5999999046326","images/cat2.png","","","learning","-3","0","0","0","cat","pets","2","1","","good","[6]"
"html-keyboard-response","215","727746","0.0-11.0-2.0-0.13","3853","1","16","Male","approach_avoid_spark_v1","""event"",""trial"",""time""
""fullscreenenter"",""1"",""1686""
","
","
","""event"",""trial"",""time""
""fullscreenenter"",""1"",""1686""
","
","","","","","","null","<div style=""font-size:60px;"">+</div>","null","","fixation","","","","","","","","","","",""
"aa-learning-trial","216","730759","0.0-11.0-2.0-1.13","3853","1","16","Male","approach_avoid_spark_v1","""event"",""trial"",""time""
""fullscreenenter"",""1"",""1686""
","
","
","""event"",""trial"",""time""
""fullscreenenter"",""1"",""1686""
","
","","","","","","1033","images/rodent6.png","","","learning","-4","0","0","0","rodent","pets","2","1","","neutral","0"
"html-keyboard-response","217","731261","0.0-11.0-2.0-0.14","3853","1","16","Male","approach_avoid_spark_v1","""event"",""trial"",""time""
""fullscreenenter"",""1"",""1686""
","
","
","""event"",""trial"",""time""
""fullscreenenter"",""1"",""1686""
","
","","","","","","null","<div style=""font-size:60px;"">+</div>","null","","fixation","","","","","","","","","","",""
"aa-learning-trial","218","734265","0.0-11.0-2.0-1.14","3853","1","16","Male","approach_avoid_spark_v1","""event"",""trial"",""time""
""fullscreenenter"",""1"",""1686""
","
","
","""event"",""trial"",""time""
""fullscreenenter"",""1"",""1686""
","
","","","","","","764.3000001907349","images/cat6.png","","","learning","-6","-6","1","1","cat","pets","2","1","","good","[6]"
"html-keyboard-response","219","734766","0.0-11.0-2.0-0.15","3853","1","16","Male","approach_avoid_spark_v1","""event"",""trial"",""time""
""fullscreenenter"",""1"",""1686""
","
","
","""event"",""trial"",""time""
""fullscreenenter"",""1"",""1686""
","
","","","","","","null","<div style=""font-size:60px;"">+</div>","null","","fixation","","","","","","","","","","",""
"aa-learning-trial","220","737772","0.0-11.0-2.0-1.15","3853","1","16","Male","approach_avoid_spark_v1","""event"",""trial"",""time""
""fullscreenenter"",""1"",""1686""
","
","
","""event"",""trial"",""time""
""fullscreenenter"",""1"",""1686""
","
","","","","","","665.5999999046326","images/cat1.png","","","learning","3","3","1","1","cat","pets","2","1","","good","[6]"
"html-keyboard-response","221","738273","0.0-11.0-2.0-0.16","3853","1","16","Male","approach_avoid_spark_v1","""event"",""trial"",""time""
""fullscreenenter"",""1"",""1686""
","
","
","""event"",""trial"",""time""
""fullscreenenter"",""1"",""1686""
","
","","","","","","null","<div style=""font-size:60px;"">+</div>","null","","fixation","","","","","","","","","","",""
"aa-learning-trial","222","741277","0.0-11.0-2.0-1.16","3853","1","16","Male","approach_avoid_spark_v1","""event"",""trial"",""time""
""fullscreenenter"",""1"",""1686""
","
","
","""event"",""trial"",""time""
""fullscreenenter"",""1"",""1686""
","
","","","","","","886.3999998569489","images/rabbit8.png","","","learning","-9","0","0","0","rabbit","pets","2","1","","bad","[-4]"
"html-keyboard-response","223","741779","0.0-11.0-2.0-0.17","3853","1","16","Male","approach_avoid_spark_v1","""event"",""trial"",""time""
""fullscreenenter"",""1"",""1686""
","
","
","""event"",""trial"",""time""
""fullscreenenter"",""1"",""1686""
","
","","","","","","null","<div style=""font-size:60px;"">+</div>","null","","fixation","","","","","","","","","","",""
"aa-learning-trial","224","744782","0.0-11.0-2.0-1.17","3853","1","16","Male","approach_avoid_spark_v1","""event"",""trial"",""time""
""fullscreenenter"",""1"",""1686""
","
","
","""event"",""trial"",""time""
""fullscreenenter"",""1"",""1686""
","
","","","","","","742.2999999523163","images/rodent6.png","","","learning","-4","0","0","0","rodent","pets","2","1","","neutral","0"
"html-keyboard-response","225","745284","0.0-11.0-2.0-0.18","3853","1","16","Male","approach_avoid_spark_v1","""event"",""trial"",""time""
""fullscreenenter"",""1"",""1686""
","
","
","""event"",""trial"",""time""
""fullscreenenter"",""1"",""1686""
","
","","","","","","null","<div style=""font-size:60px;"">+</div>","null","","fixation","","","","","","","","","","",""
"aa-learning-trial","226","748289","0.0-11.0-2.0-1.18","3853","1","16","Male","approach_avoid_spark_v1","""event"",""trial"",""time""
""fullscreenenter"",""1"",""1686""
","
","
","""event"",""trial"",""time""
""fullscreenenter"",""1"",""1686""
","
","","","","","","581.2000000476837","images/cat5.png","","","learning","8","8","1","1","cat","pets","2","1","","good","[6]"
"html-keyboard-response","227","748791","0.0-11.0-2.0-0.19","3853","1","16","Male","approach_avoid_spark_v1","""event"",""trial"",""time""
""fullscreenenter"",""1"",""1686""
","
","
","""event"",""trial"",""time""
""fullscreenenter"",""1"",""1686""
","
","","","","","","null","<div style=""font-size:60px;"">+</div>","null","","fixation","","","","","","","","","","",""
"aa-learning-trial","228","751795","0.0-11.0-2.0-1.19","3853","1","16","Male","approach_avoid_spark_v1","""event"",""trial"",""time""
""fullscreenenter"",""1"",""1686""
","
","
","""event"",""trial"",""time""
""fullscreenenter"",""1"",""1686""
","
","","","","","","937.0999999046326","images/rodent1.png","","","learning","-8","0","0","0","rodent","pets","2","1","","neutral","0"
"html-keyboard-response","229","752298","0.0-11.0-2.0-0.20","3853","1","16","Male","approach_avoid_spark_v1","""event"",""trial"",""time""
""fullscreenenter"",""1"",""1686""
","
","
","""event"",""trial"",""time""
""fullscreenenter"",""1"",""1686""
","
","","","","","","null","<div style=""font-size:60px;"">+</div>","null","","fixation","","","","","","","","","","",""
"aa-learning-trial","230","755300","0.0-11.0-2.0-1.20","3853","1","16","Male","approach_avoid_spark_v1","""event"",""trial"",""time""
""fullscreenenter"",""1"",""1686""
","
","
","""event"",""trial"",""time""
""fullscreenenter"",""1"",""1686""
","
","","","","","","569","images/cat5.png","","","learning","8","8","1","1","cat","pets","2","1","","good","[6]"
"html-keyboard-response","231","755802","0.0-11.0-2.0-0.21","3853","1","16","Male","approach_avoid_spark_v1","""event"",""trial"",""time""
""fullscreenenter"",""1"",""1686""
","
","
","""event"",""trial"",""time""
""fullscreenenter"",""1"",""1686""
","
","","","","","","null","<div style=""font-size:60px;"">+</div>","null","","fixation","","","","","","","","","","",""
"aa-learning-trial","232","758803","0.0-11.0-2.0-1.21","3853","1","16","Male","approach_avoid_spark_v1","""event"",""trial"",""time""
""fullscreenenter"",""1"",""1686""
","
","
","""event"",""trial"",""time""
""fullscreenenter"",""1"",""1686""
","
","","","","","","802.7999999523163","images/rabbit8.png","","","learning","-9","0","0","0","rabbit","pets","2","1","","bad","[-4]"
"html-keyboard-response","233","759304","0.0-11.0-2.0-0.22","3853","1","16","Male","approach_avoid_spark_v1","""event"",""trial"",""time""
""fullscreenenter"",""1"",""1686""
","
","
","""event"",""trial"",""time""
""fullscreenenter"",""1"",""1686""
","
","","","","","","null","<div style=""font-size:60px;"">+</div>","null","","fixation","","","","","","","","","","",""
"aa-learning-trial","234","762307","0.0-11.0-2.0-1.22","3853","1","16","Male","approach_avoid_spark_v1","""event"",""trial"",""time""
""fullscreenenter"",""1"",""1686""
","
","
","""event"",""trial"",""time""
""fullscreenenter"",""1"",""1686""
","
","","","","","","697.4000000953674","images/rodent1.png","","","learning","-8","0","0","0","rodent","pets","2","1","","neutral","0"
"html-keyboard-response","235","762809","0.0-11.0-2.0-0.23","3853","1","16","Male","approach_avoid_spark_v1","""event"",""trial"",""time""
""fullscreenenter"",""1"",""1686""
","
","
","""event"",""trial"",""time""
""fullscreenenter"",""1"",""1686""
","
","","","","","","null","<div style=""font-size:60px;"">+</div>","null","","fixation","","","","","","","","","","",""
"aa-learning-trial","236","765815","0.0-11.0-2.0-1.23","3853","1","16","Male","approach_avoid_spark_v1","""event"",""trial"",""time""
""fullscreenenter"",""1"",""1686""
","
","
","""event"",""trial"",""time""
""fullscreenenter"",""1"",""1686""
","
","","","","","","1182.5999999046326","images/rabbit6.png","","","learning","7","7","1","1","rabbit","pets","2","1","","bad","[-4]"
"html-keyboard-response","237","766317","0.0-11.0-2.0-0.24","3853","1","16","Male","approach_avoid_spark_v1","""event"",""trial"",""time""
""fullscreenenter"",""1"",""1686""
","
","
","""event"",""trial"",""time""
""fullscreenenter"",""1"",""1686""
","
","","","","","","null","<div style=""font-size:60px;"">+</div>","null","","fixation","","","","","","","","","","",""
