"trial_type","trial_index","time_elapsed","internal_node_id","subject_id","task_condition","age","gender","task_version","interactions","blur_events","focus_events","fullscreenenter_events","fullscreenexit_events","success","timeout","failed_images","failed_audio","failed_video","rt","stimulus","response","button_pressed","task_part","approach_reward","points","key_press","option_selected","stim_cat","task_block","block_condition","block_number","correct","cat_type","mean_cat_reward"
"pavlovia","0","4","0.0-0.0","4518","2","23","Female","approach_avoid_spark_v1","""event"",""trial"",""time""
""fullscreenenter"",""1"",""3309""
","
","
","""event"",""trial"",""time""
""fullscreenenter"",""1"",""3309""
","
","","","","","","","","","","","","","","","","","","","","",""
"fullscreen","1","4302","0.0-1.0","4518","2","23","Female","approach_avoid_spark_v1","""event"",""trial"",""time""
""fullscreenenter"",""1"",""3309""
","
","
","""event"",""trial"",""time""
""fullscreenenter"",""1"",""3309""
","
","true","","","","","","","","","","","","","","","","","","","",""
"preload","2","8961","0.0-2.0","4518","2","23","Female","approach_avoid_spark_v1","""event"",""trial"",""time""
""fullscreenenter"",""1"",""3309""
","
","
","""event"",""trial"",""time""
""fullscreenenter"",""1"",""3309""
","
","true","false","[]","[]","[]","","","","","","","","","","","","","","","",""
"audio-keyboard-response","3","13306","0.0-3.0","4518","2","23","Female","approach_avoid_spark_v1","""event"",""trial"",""time""
""fullscreenenter"",""1"",""3309""
","
","
","""event"",""trial"",""time""
""fullscreenenter"",""1"",""3309""
","
","","","","","","4338.666666666666","audio/beep_loop.wav"," ","","","","","","","","","","","","",""
"audio-button-response","4","18755","0.0-4.0","4518","2","23","Female","approach_avoid_spark_v1","""event"",""trial"",""time""
""fullscreenenter"",""1"",""3309""
""fullscreenexit"",""5"",""19809""
","
","
","""event"",""trial"",""time""
""fullscreenenter"",""1"",""3309""
","""event"",""trial"",""time""
""fullscreenexit"",""5"",""19809""
","","","","","","5451","audio/shark.wav","4","","","","","","","","","","","","",""
"audio-button-response","5","21238","0.0-5.0","4518","2","23","Female","approach_avoid_spark_v1","""event"",""trial"",""time""
""fullscreenenter"",""1"",""3309""
""fullscreenexit"",""5"",""19809""
","
","
","""event"",""trial"",""time""
""fullscreenenter"",""1"",""3309""
","""event"",""trial"",""time""
""fullscreenexit"",""5"",""19809""
","","","","","","1469","audio/turtle.wav","1","","","","","","","","","","","","",""
"preload","6","24552","0.0-6.0","4518","2","23","Female","approach_avoid_spark_v1","""event"",""trial"",""time""
""fullscreenenter"",""1"",""3309""
""fullscreenexit"",""5"",""19809""
","
","
","""event"",""trial"",""time""
""fullscreenenter"",""1"",""3309""
","""event"",""trial"",""time""
""fullscreenexit"",""5"",""19809""
","true","false","[]","[]","[]","","","","","","","","","","","","","","","",""
"html-keyboard-response","7","27228","0.0-7.0","4518","2","23","Female","approach_avoid_spark_v1","""event"",""trial"",""time""
""fullscreenenter"",""1"",""3309""
""fullscreenexit"",""5"",""19809""
","
","
","""event"",""trial"",""time""
""fullscreenenter"",""1"",""3309""
","""event"",""trial"",""time""
""fullscreenexit"",""5"",""19809""
","","","","","","2674.3999999910593","Welcome to the experiment. Press any key to begin and to advance the instructions."," ","","","","","","","","","","","","",""
"learning-instructions","8","34994","0.0-8.0-0.0-0.0","4518","2","23","Female","approach_avoid_spark_v1","""event"",""trial"",""time""
""fullscreenenter"",""1"",""3309""
""fullscreenexit"",""5"",""19809""
","
","
","""event"",""trial"",""time""
""fullscreenenter"",""1"",""3309""
","""event"",""trial"",""time""
""fullscreenexit"",""5"",""19809""
","","","","","","811.6000000089407","<p> Welcome! Today you are going to play 6 different rounds of a decision-making game. </p><p> Use the mouse to click next to continue. </p>","","0","instructions","","","","","","","","","","",""
"learning-instructions","9","38480","0.0-8.0-0.0-0.1","4518","2","23","Female","approach_avoid_spark_v1","""event"",""trial"",""time""
""fullscreenenter"",""1"",""3309""
""fullscreenexit"",""5"",""19809""
","
","
","""event"",""trial"",""time""
""fullscreenenter"",""1"",""3309""
","""event"",""trial"",""time""
""fullscreenexit"",""5"",""19809""
","","","","","","758.7999999970198","<p> You will start with a practice round to learn the rules. </p>","","0","instructions","","","","","","","","","","",""
"learning-instructions","10","42545","0.0-8.0-0.0-0.2","4518","2","23","Female","approach_avoid_spark_v1","""event"",""trial"",""time""
""fullscreenenter"",""1"",""3309""
""fullscreenexit"",""5"",""19809""
","
","
","""event"",""trial"",""time""
""fullscreenenter"",""1"",""3309""
","""event"",""trial"",""time""
""fullscreenexit"",""5"",""19809""
","","","","","","613.5","<p> Your goal in this round is to give out sports equipment to kids. </p></div>","","0","instructions","","","","","","","","","","",""
"learning-instructions","11","50803","0.0-8.0-0.0-0.3","4518","2","23","Female","approach_avoid_spark_v1","""event"",""trial"",""time""
""fullscreenenter"",""1"",""3309""
""fullscreenexit"",""5"",""19809""
","
","
","""event"",""trial"",""time""
""fullscreenenter"",""1"",""3309""
","""event"",""trial"",""time""
""fullscreenexit"",""5"",""19809""
","","","","","","691.5999999940395","<p> The kids only like some of the equipment.  </p><p> On each turn, you will see a piece of sports equipment.   </p><p> You need to decide whether to give it to the kids or not.  </p>","","0","instructions","","","","","","","","","","",""
"learning-instructions","12","56624","0.0-8.0-0.0-0.4","4518","2","23","Female","approach_avoid_spark_v1","""event"",""trial"",""time""
""fullscreenenter"",""1"",""3309""
""fullscreenexit"",""5"",""19809""
","
","
","""event"",""trial"",""time""
""fullscreenenter"",""1"",""3309""
","""event"",""trial"",""time""
""fullscreenexit"",""5"",""19809""
","","","","","","1062.5","<p> You can give them the equipment by pressing 1 and choose not to give it to them by pressing 0. </p><br><div class=""choice-instructions-grid""> <div class=""choice-option""><img src=""images/approach.png"" class=""choice-option-img"" stage=""instructions"" position=""0"" ><div class=""choice-option-text""> Press ""1."" </div></div><div class=""choice-option""><img src=""images/avoid.png"" class=""choice-option-img"" stage=""instructions"" position=""1"" ><div class=""choice-option-text""> Press ""0."" </div></div>","","0","instructions","","","","","","","","","","",""
"learning-instructions","13","66298","0.0-8.0-0.0-0.5","4518","2","23","Female","approach_avoid_spark_v1","""event"",""trial"",""time""
""fullscreenenter"",""1"",""3309""
""fullscreenexit"",""5"",""19809""
","
","
","""event"",""trial"",""time""
""fullscreenenter"",""1"",""3309""
","""event"",""trial"",""time""
""fullscreenexit"",""5"",""19809""
","","","","","","2296.7999999970198","<p> If you give them a piece of equipment they like, they will be happy! </p><p> But if you give them a piece of equipment they do not like, they will be sad. </p>","","0","instructions","","","","","","","","","","",""
"learning-instructions","14","77759","0.0-8.0-0.0-0.6","4518","2","23","Female","approach_avoid_spark_v1","""event"",""trial"",""time""
""fullscreenenter"",""1"",""3309""
""fullscreenexit"",""5"",""19809""
","
","
","""event"",""trial"",""time""
""fullscreenenter"",""1"",""3309""
","""event"",""trial"",""time""
""fullscreenexit"",""5"",""19809""
","","","","","","946.7999999970198","<p> You will earn points based on how you make kids feel. </p><p> If you make them happy, you will WIN anywhere from 1 - 9 points, </p><p> but if you make them sad, you will LOSE anywhere from 1 - 9 points. </p>","","0","instructions","","","","","","","","","","",""
"learning-instructions","15","87899","0.0-8.0-0.0-0.7","4518","2","23","Female","approach_avoid_spark_v1","""event"",""trial"",""time""
""fullscreenenter"",""1"",""3309""
""fullscreenexit"",""5"",""19809""
","
","
","""event"",""trial"",""time""
""fullscreenenter"",""1"",""3309""
","""event"",""trial"",""time""
""fullscreenexit"",""5"",""19809""
","","","","","","587.2000000029802","<p> You will see how many points you won or lost in the center of the screen. </p><p> Here is what you would see if you won 6 points: </p><p style=""color:green;font-size:50px;font-weight:bolder"">6</p><p style=""color:green"">The text is GREEN because you WON points.</p>","","0","instructions","","","","","","","","","","",""
"learning-instructions","16","94004","0.0-8.0-0.0-0.8","4518","2","23","Female","approach_avoid_spark_v1","""event"",""trial"",""time""
""fullscreenenter"",""1"",""3309""
""fullscreenexit"",""5"",""19809""
","
","
","""event"",""trial"",""time""
""fullscreenenter"",""1"",""3309""
","""event"",""trial"",""time""
""fullscreenexit"",""5"",""19809""
","","","","","","592.1999999880791","<p> And here is what you would see if you lost 4 points: </p><p style=""color:red;font-size:50px;font-weight:bolder"">-4</p><p style=""color:red"">The text is RED because you LOST points. </p>","","0","instructions","","","","","","","","","","",""
"learning-instructions","17","109192","0.0-8.0-0.0-0.9","4518","2","23","Female","approach_avoid_spark_v1","""event"",""trial"",""time""
""fullscreenenter"",""1"",""3309""
""fullscreenexit"",""5"",""19809""
""blur"",""18"",""116844""
""focus"",""18"",""116965""
","""event"",""trial"",""time""
""blur"",""18"",""116844""
","""event"",""trial"",""time""
""focus"",""18"",""116965""
","""event"",""trial"",""time""
""fullscreenenter"",""1"",""3309""
","""event"",""trial"",""time""
""fullscreenexit"",""5"",""19809""
","","","","","","480.20000000298023","<p> Some of the equipment will make the kids VERY happy or sad. </p><p> These pieces of equipment will make you win or lose LOTS of points. </p><p> Other pieces of equipment will only make the kids a little happy or sad. </p><p> These pieces of equipment will make you win or lose small amounts of points. </p>","","0","instructions","","","","","","","","","","",""
"learning-instructions","18","121312","0.0-8.0-0.0-0.10","4518","2","23","Female","approach_avoid_spark_v1","""event"",""trial"",""time""
""fullscreenenter"",""1"",""3309""
""fullscreenexit"",""5"",""19809""
""blur"",""18"",""116844""
""focus"",""18"",""116965""
""blur"",""19"",""127931""
""focus"",""19"",""132553""
""blur"",""19"",""134357""
""focus"",""19"",""143608""
","""event"",""trial"",""time""
""blur"",""18"",""116844""
""blur"",""19"",""127931""
""blur"",""19"",""134357""
","""event"",""trial"",""time""
""focus"",""18"",""116965""
""focus"",""19"",""132553""
""focus"",""19"",""143608""
","""event"",""trial"",""time""
""fullscreenenter"",""1"",""3309""
","""event"",""trial"",""time""
""fullscreenexit"",""5"",""19809""
","","","","","","1500.0999999940395","<p> If you choose not to give them the equipment, you will not win or lose any points. </p><p>  However, in the center of the screen, you will see the number of points you WOULD HAVE won or lost if you had given them the equipment. </p>","","0","instructions","","","","","","","","","","",""
"learning-instructions","19","159502","0.0-8.0-0.0-0.11","4518","2","23","Female","approach_avoid_spark_v1","""event"",""trial"",""time""
""fullscreenenter"",""1"",""3309""
""fullscreenexit"",""5"",""19809""
""blur"",""18"",""116844""
""focus"",""18"",""116965""
""blur"",""19"",""127931""
""focus"",""19"",""132553""
""blur"",""19"",""134357""
""focus"",""19"",""143608""
""blur"",""20"",""173676""
""focus"",""20"",""185320""
","""event"",""trial"",""time""
""blur"",""18"",""116844""
""blur"",""19"",""127931""
""blur"",""19"",""134357""
""blur"",""20"",""173676""
","""event"",""trial"",""time""
""focus"",""18"",""116965""
""focus"",""19"",""132553""
""focus"",""19"",""143608""
""focus"",""20"",""185320""
","""event"",""trial"",""time""
""fullscreenenter"",""1"",""3309""
","""event"",""trial"",""time""
""fullscreenexit"",""5"",""19809""
","","","","","","16660.5","<p> Here is what you might see if you did not give the equipment to the kids but it would have made them happy: </p><p style=""color:grey; font-size:50px; display: inline-block; border-spacing: 15px; border-width:3px; border-style:solid; border-color:red"">  &nbsp; 7 &nbsp; </p><p> Remember, in this case, you would not win or lose ANY points because you did not give them the equipment.  </p><p style=""color:grey"">The text is GREY because you earned ZERO points. </p><p style=""color:red"">However, choosing to give the kids the equipment would have made you win points. The box around the text is RED because you chose the worse option. </p>","","0","instructions","","","","","","","","","","",""
"learning-instructions","20","186127","0.0-8.0-0.0-0.12","4518","2","23","Female","approach_avoid_spark_v1","""event"",""trial"",""time""
""fullscreenenter"",""1"",""3309""
""fullscreenexit"",""5"",""19809""
""blur"",""18"",""116844""
""focus"",""18"",""116965""
""blur"",""19"",""127931""
""focus"",""19"",""132553""
""blur"",""19"",""134357""
""focus"",""19"",""143608""
""blur"",""20"",""173676""
""focus"",""20"",""185320""
""blur"",""21"",""188617""
""focus"",""21"",""194066""
","""event"",""trial"",""time""
""blur"",""18"",""116844""
""blur"",""19"",""127931""
""blur"",""19"",""134357""
""blur"",""20"",""173676""
""blur"",""21"",""188617""
","""event"",""trial"",""time""
""focus"",""18"",""116965""
""focus"",""19"",""132553""
""focus"",""19"",""143608""
""focus"",""20"",""185320""
""focus"",""21"",""194066""
","""event"",""trial"",""time""
""fullscreenenter"",""1"",""3309""
","""event"",""trial"",""time""
""fullscreenexit"",""5"",""19809""
","","","","","","5546.20000000298","<p> Here is what you might see if you did not give the equipment to the kids but it would have made them sad: </p><p style=""color:grey;font-size:50px; display: inline-block; border-spacing: 15px; border-width:3px; border-style:solid; border-color:green"">  &nbsp; -8 &nbsp; </p><p> Remember, in this case, you would not win or lose ANY points because you did not give them the equipment.  </p><p style=""color:grey"">The text is GREY because you earned ZERO points. </p><p  style=""color:green""> Choosing to give the kids the equipment would have made you lose points. The box around the text is GREEN because you chose the better option.</p>","","0","instructions","","","","","","","","","","",""
"learning-instructions","21","196238","0.0-8.0-0.0-0.13","4518","2","23","Female","approach_avoid_spark_v1","""event"",""trial"",""time""
""fullscreenenter"",""1"",""3309""
""fullscreenexit"",""5"",""19809""
""blur"",""18"",""116844""
""focus"",""18"",""116965""
""blur"",""19"",""127931""
""focus"",""19"",""132553""
""blur"",""19"",""134357""
""focus"",""19"",""143608""
""blur"",""20"",""173676""
""focus"",""20"",""185320""
""blur"",""21"",""188617""
""focus"",""21"",""194066""
""blur"",""22"",""197860""
""focus"",""22"",""204120""
","""event"",""trial"",""time""
""blur"",""18"",""116844""
""blur"",""19"",""127931""
""blur"",""19"",""134357""
""blur"",""20"",""173676""
""blur"",""21"",""188617""
""blur"",""22"",""197860""
","""event"",""trial"",""time""
""focus"",""18"",""116965""
""focus"",""19"",""132553""
""focus"",""19"",""143608""
""focus"",""20"",""185320""
""focus"",""21"",""194066""
""focus"",""22"",""204120""
","""event"",""trial"",""time""
""fullscreenenter"",""1"",""3309""
","""event"",""trial"",""time""
""fullscreenexit"",""5"",""19809""
","","","","","","1246.6000000089407","<p> You will have 3 seconds to make each choice. Try to respond before time runs out! </p><p> You will lose 5 points each time you do not make a response. </p>","","0","instructions","","","","","","","","","","",""
"learning-instructions","22","205246","0.0-8.0-0.0-0.14","4518","2","23","Female","approach_avoid_spark_v1","""event"",""trial"",""time""
""fullscreenenter"",""1"",""3309""
""fullscreenexit"",""5"",""19809""
""blur"",""18"",""116844""
""focus"",""18"",""116965""
""blur"",""19"",""127931""
""focus"",""19"",""132553""
""blur"",""19"",""134357""
""focus"",""19"",""143608""
""blur"",""20"",""173676""
""focus"",""20"",""185320""
""blur"",""21"",""188617""
""focus"",""21"",""194066""
""blur"",""22"",""197860""
""focus"",""22"",""204120""
","""event"",""trial"",""time""
""blur"",""18"",""116844""
""blur"",""19"",""127931""
""blur"",""19"",""134357""
""blur"",""20"",""173676""
""blur"",""21"",""188617""
""blur"",""22"",""197860""
","""event"",""trial"",""time""
""focus"",""18"",""116965""
""focus"",""19"",""132553""
""focus"",""19"",""143608""
""focus"",""20"",""185320""
""focus"",""21"",""194066""
""focus"",""22"",""204120""
","""event"",""trial"",""time""
""fullscreenenter"",""1"",""3309""
","""event"",""trial"",""time""
""fullscreenexit"",""5"",""19809""
","","","","","","3594.7000000029802","<p> This is just a practice round, but in the real game, your bonus payment will depend on your total number of points.","","0","instructions","","","","","","","","","","",""
"learning-instructions","23","211613","0.0-8.0-0.0-0.15","4518","2","23","Female","approach_avoid_spark_v1","""event"",""trial"",""time""
""fullscreenenter"",""1"",""3309""
""fullscreenexit"",""5"",""19809""
""blur"",""18"",""116844""
""focus"",""18"",""116965""
""blur"",""19"",""127931""
""focus"",""19"",""132553""
""blur"",""19"",""134357""
""focus"",""19"",""143608""
""blur"",""20"",""173676""
""focus"",""20"",""185320""
""blur"",""21"",""188617""
""focus"",""21"",""194066""
""blur"",""22"",""197860""
""focus"",""22"",""204120""
","""event"",""trial"",""time""
""blur"",""18"",""116844""
""blur"",""19"",""127931""
""blur"",""19"",""134357""
""blur"",""20"",""173676""
""blur"",""21"",""188617""
""blur"",""22"",""197860""
","""event"",""trial"",""time""
""focus"",""18"",""116965""
""focus"",""19"",""132553""
""focus"",""19"",""143608""
""focus"",""20"",""185320""
""focus"",""21"",""194066""
""focus"",""22"",""204120""
","""event"",""trial"",""time""
""fullscreenenter"",""1"",""3309""
","""event"",""trial"",""time""
""fullscreenexit"",""5"",""19809""
","","","","","","611.9000000059605","<p> Remember, you can give them the equipment by pressing 1 and choose not to give it to them by pressing 0. </p><br><div class=""choice-instructions-grid""> <div class=""choice-option""><img src=""images/approach.png"" class=""choice-option-img"" stage=""instructions"" position=""0"" ><div class=""choice-option-text""> Press ""1."" </div></div><div class=""choice-option""><img src=""images/avoid.png"" class=""choice-option-img"" stage=""instructions"" position=""1"" ><div class=""choice-option-text""> Press ""0."" </div></div>","","0","instructions","","","","","","","","","","",""
"html-button-response","24","212851","0.0-8.0-1.0","4518","2","23","Female","approach_avoid_spark_v1","""event"",""trial"",""time""
""fullscreenenter"",""1"",""3309""
""fullscreenexit"",""5"",""19809""
""blur"",""18"",""116844""
""focus"",""18"",""116965""
""blur"",""19"",""127931""
""focus"",""19"",""132553""
""blur"",""19"",""134357""
""focus"",""19"",""143608""
""blur"",""20"",""173676""
""focus"",""20"",""185320""
""blur"",""21"",""188617""
""focus"",""21"",""194066""
""blur"",""22"",""197860""
""focus"",""22"",""204120""
","""event"",""trial"",""time""
""blur"",""18"",""116844""
""blur"",""19"",""127931""
""blur"",""19"",""134357""
""blur"",""20"",""173676""
""blur"",""21"",""188617""
""blur"",""22"",""197860""
","""event"",""trial"",""time""
""focus"",""18"",""116965""
""focus"",""19"",""132553""
""focus"",""19"",""143608""
""focus"",""20"",""185320""
""focus"",""21"",""194066""
""focus"",""22"",""204120""
","""event"",""trial"",""time""
""fullscreenenter"",""1"",""3309""
","""event"",""trial"",""time""
""fullscreenexit"",""5"",""19809""
","","","","","","1134.5","<p> Ready to practice? </p>","0","","","","","","","","","","","","",""
"html-keyboard-response","25","213470","0.0-8.0-2.0-0.0","4518","2","23","Female","approach_avoid_spark_v1","""event"",""trial"",""time""
""fullscreenenter"",""1"",""3309""
""fullscreenexit"",""5"",""19809""
""blur"",""18"",""116844""
""focus"",""18"",""116965""
""blur"",""19"",""127931""
""focus"",""19"",""132553""
""blur"",""19"",""134357""
""focus"",""19"",""143608""
""blur"",""20"",""173676""
""focus"",""20"",""185320""
""blur"",""21"",""188617""
""focus"",""21"",""194066""
""blur"",""22"",""197860""
""focus"",""22"",""204120""
","""event"",""trial"",""time""
""blur"",""18"",""116844""
""blur"",""19"",""127931""
""blur"",""19"",""134357""
""blur"",""20"",""173676""
""blur"",""21"",""188617""
""blur"",""22"",""197860""
","""event"",""trial"",""time""
""focus"",""18"",""116965""
""focus"",""19"",""132553""
""focus"",""19"",""143608""
""focus"",""20"",""185320""
""focus"",""21"",""194066""
""focus"",""22"",""204120""
","""event"",""trial"",""time""
""fullscreenenter"",""1"",""3309""
","""event"",""trial"",""time""
""fullscreenexit"",""5"",""19809""
","","","","","","null","<div style=""font-size:60px;"">+</div>","null","","fixation","","","","","","","","","","",""
"aa-learning-trial","26","216481","0.0-8.0-2.0-1.0","4518","2","23","Female","approach_avoid_spark_v1","""event"",""trial"",""time""
""fullscreenenter"",""1"",""3309""
""fullscreenexit"",""5"",""19809""
""blur"",""18"",""116844""
""focus"",""18"",""116965""
""blur"",""19"",""127931""
""focus"",""19"",""132553""
""blur"",""19"",""134357""
""focus"",""19"",""143608""
""blur"",""20"",""173676""
""focus"",""20"",""185320""
""blur"",""21"",""188617""
""focus"",""21"",""194066""
""blur"",""22"",""197860""
""focus"",""22"",""204120""
","""event"",""trial"",""time""
""blur"",""18"",""116844""
""blur"",""19"",""127931""
""blur"",""19"",""134357""
""blur"",""20"",""173676""
""blur"",""21"",""188617""
""blur"",""22"",""197860""
","""event"",""trial"",""time""
""focus"",""18"",""116965""
""focus"",""19"",""132553""
""focus"",""19"",""143608""
""focus"",""20"",""185320""
""focus"",""21"",""194066""
""focus"",""22"",""204120""
","""event"",""trial"",""time""
""fullscreenenter"",""1"",""3309""
","""event"",""trial"",""time""
""fullscreenexit"",""5"",""19809""
","","","","","","1854.4000000059605","images/racket4.png","","","learning","-1","-1","1","1","practice","practice","practice","-1","","",""
"html-keyboard-response","27","216990","0.0-8.0-2.0-0.1","4518","2","23","Female","approach_avoid_spark_v1","""event"",""trial"",""time""
""fullscreenenter"",""1"",""3309""
""fullscreenexit"",""5"",""19809""
""blur"",""18"",""116844""
""focus"",""18"",""116965""
""blur"",""19"",""127931""
""focus"",""19"",""132553""
""blur"",""19"",""134357""
""focus"",""19"",""143608""
""blur"",""20"",""173676""
""focus"",""20"",""185320""
""blur"",""21"",""188617""
""focus"",""21"",""194066""
""blur"",""22"",""197860""
""focus"",""22"",""204120""
","""event"",""trial"",""time""
""blur"",""18"",""116844""
""blur"",""19"",""127931""
""blur"",""19"",""134357""
""blur"",""20"",""173676""
""blur"",""21"",""188617""
""blur"",""22"",""197860""
","""event"",""trial"",""time""
""focus"",""18"",""116965""
""focus"",""19"",""132553""
""focus"",""19"",""143608""
""focus"",""20"",""185320""
""focus"",""21"",""194066""
""focus"",""22"",""204120""
","""event"",""trial"",""time""
""fullscreenenter"",""1"",""3309""
","""event"",""trial"",""time""
""fullscreenexit"",""5"",""19809""
","","","","","","null","<div style=""font-size:60px;"">+</div>","null","","fixation","","","","","","","","","","",""
"aa-learning-trial","28","220000","0.0-8.0-2.0-1.1","4518","2","23","Female","approach_avoid_spark_v1","""event"",""trial"",""time""
""fullscreenenter"",""1"",""3309""
""fullscreenexit"",""5"",""19809""
""blur"",""18"",""116844""
""focus"",""18"",""116965""
""blur"",""19"",""127931""
""focus"",""19"",""132553""
""blur"",""19"",""134357""
""focus"",""19"",""143608""
""blur"",""20"",""173676""
""focus"",""20"",""185320""
""blur"",""21"",""188617""
""focus"",""21"",""194066""
""blur"",""22"",""197860""
""focus"",""22"",""204120""
","""event"",""trial"",""time""
""blur"",""18"",""116844""
""blur"",""19"",""127931""
""blur"",""19"",""134357""
""blur"",""20"",""173676""
""blur"",""21"",""188617""
""blur"",""22"",""197860""
","""event"",""trial"",""time""
""focus"",""18"",""116965""
""focus"",""19"",""132553""
""focus"",""19"",""143608""
""focus"",""20"",""185320""
""focus"",""21"",""194066""
""focus"",""22"",""204120""
","""event"",""trial"",""time""
""fullscreenenter"",""1"",""3309""
","""event"",""trial"",""time""
""fullscreenexit"",""5"",""19809""
","","","","","","2155","images/racket4.png","","","learning","4","0","0","0","practice","practice","practice","-1","","",""
"html-keyboard-response","29","220510","0.0-8.0-2.0-0.2","4518","2","23","Female","approach_avoid_spark_v1","""event"",""trial"",""time""
""fullscreenenter"",""1"",""3309""
""fullscreenexit"",""5"",""19809""
""blur"",""18"",""116844""
""focus"",""18"",""116965""
""blur"",""19"",""127931""
""focus"",""19"",""132553""
""blur"",""19"",""134357""
""focus"",""19"",""143608""
""blur"",""20"",""173676""
""focus"",""20"",""185320""
""blur"",""21"",""188617""
""focus"",""21"",""194066""
""blur"",""22"",""197860""
""focus"",""22"",""204120""
","""event"",""trial"",""time""
""blur"",""18"",""116844""
""blur"",""19"",""127931""
""blur"",""19"",""134357""
""blur"",""20"",""173676""
""blur"",""21"",""188617""
""blur"",""22"",""197860""
","""event"",""trial"",""time""
""focus"",""18"",""116965""
""focus"",""19"",""132553""
""focus"",""19"",""143608""
""focus"",""20"",""185320""
""focus"",""21"",""194066""
""focus"",""22"",""204120""
","""event"",""trial"",""time""
""fullscreenenter"",""1"",""3309""
","""event"",""trial"",""time""
""fullscreenexit"",""5"",""19809""
","","","","","","null","<div style=""font-size:60px;"">+</div>","null","","fixation","","","","","","","","","","",""
"aa-learning-trial","30","223520","0.0-8.0-2.0-1.2","4518","2","23","Female","approach_avoid_spark_v1","""event"",""trial"",""time""
""fullscreenenter"",""1"",""3309""
""fullscreenexit"",""5"",""19809""
""blur"",""18"",""116844""
""focus"",""18"",""116965""
""blur"",""19"",""127931""
""focus"",""19"",""132553""
""blur"",""19"",""134357""
""focus"",""19"",""143608""
""blur"",""20"",""173676""
""focus"",""20"",""185320""
""blur"",""21"",""188617""
""focus"",""21"",""194066""
""blur"",""22"",""197860""
""focus"",""22"",""204120""
","""event"",""trial"",""time""
""blur"",""18"",""116844""
""blur"",""19"",""127931""
""blur"",""19"",""134357""
""blur"",""20"",""173676""
""blur"",""21"",""188617""
""blur"",""22"",""197860""
","""event"",""trial"",""time""
""focus"",""18"",""116965""
""focus"",""19"",""132553""
""focus"",""19"",""143608""
""focus"",""20"",""185320""
""focus"",""21"",""194066""
""focus"",""22"",""204120""
","""event"",""trial"",""time""
""fullscreenenter"",""1"",""3309""
","""event"",""trial"",""time""
""fullscreenexit"",""5"",""19809""
","","","","","","1238.8999999910593","images/ball3.png","","","learning","-3","-3","1","1","practice","practice","practice","-1","","",""
"html-keyboard-response","31","224030","0.0-8.0-2.0-0.3","4518","2","23","Female","approach_avoid_spark_v1","""event"",""trial"",""time""
""fullscreenenter"",""1"",""3309""
""fullscreenexit"",""5"",""19809""
""blur"",""18"",""116844""
""focus"",""18"",""116965""
""blur"",""19"",""127931""
""focus"",""19"",""132553""
""blur"",""19"",""134357""
""focus"",""19"",""143608""
""blur"",""20"",""173676""
""focus"",""20"",""185320""
""blur"",""21"",""188617""
""focus"",""21"",""194066""
""blur"",""22"",""197860""
""focus"",""22"",""204120""
","""event"",""trial"",""time""
""blur"",""18"",""116844""
""blur"",""19"",""127931""
""blur"",""19"",""134357""
""blur"",""20"",""173676""
""blur"",""21"",""188617""
""blur"",""22"",""197860""
","""event"",""trial"",""time""
""focus"",""18"",""116965""
""focus"",""19"",""132553""
""focus"",""19"",""143608""
""focus"",""20"",""185320""
""focus"",""21"",""194066""
""focus"",""22"",""204120""
","""event"",""trial"",""time""
""fullscreenenter"",""1"",""3309""
","""event"",""trial"",""time""
""fullscreenexit"",""5"",""19809""
","","","","","","null","<div style=""font-size:60px;"">+</div>","null","","fixation","","","","","","","","","","",""
"aa-learning-trial","32","227040","0.0-8.0-2.0-1.3","4518","2","23","Female","approach_avoid_spark_v1","""event"",""trial"",""time""
""fullscreenenter"",""1"",""3309""
""fullscreenexit"",""5"",""19809""
""blur"",""18"",""116844""
""focus"",""18"",""116965""
""blur"",""19"",""127931""
""focus"",""19"",""132553""
""blur"",""19"",""134357""
""focus"",""19"",""143608""
""blur"",""20"",""173676""
""focus"",""20"",""185320""
""blur"",""21"",""188617""
""focus"",""21"",""194066""
""blur"",""22"",""197860""
""focus"",""22"",""204120""
","""event"",""trial"",""time""
""blur"",""18"",""116844""
""blur"",""19"",""127931""
""blur"",""19"",""134357""
""blur"",""20"",""173676""
""blur"",""21"",""188617""
""blur"",""22"",""197860""
","""event"",""trial"",""time""
""focus"",""18"",""116965""
""focus"",""19"",""132553""
""focus"",""19"",""143608""
""focus"",""20"",""185320""
""focus"",""21"",""194066""
""focus"",""22"",""204120""
","""event"",""trial"",""time""
""fullscreenenter"",""1"",""3309""
","""event"",""trial"",""time""
""fullscreenexit"",""5"",""19809""
","","","","","","1752.7999999970198","images/racket1.png","","","learning","1","0","0","0","practice","practice","practice","-1","","",""
"html-keyboard-response","33","227549","0.0-8.0-2.0-0.4","4518","2","23","Female","approach_avoid_spark_v1","""event"",""trial"",""time""
""fullscreenenter"",""1"",""3309""
""fullscreenexit"",""5"",""19809""
""blur"",""18"",""116844""
""focus"",""18"",""116965""
""blur"",""19"",""127931""
""focus"",""19"",""132553""
""blur"",""19"",""134357""
""focus"",""19"",""143608""
""blur"",""20"",""173676""
""focus"",""20"",""185320""
""blur"",""21"",""188617""
""focus"",""21"",""194066""
""blur"",""22"",""197860""
""focus"",""22"",""204120""
","""event"",""trial"",""time""
""blur"",""18"",""116844""
""blur"",""19"",""127931""
""blur"",""19"",""134357""
""blur"",""20"",""173676""
""blur"",""21"",""188617""
""blur"",""22"",""197860""
","""event"",""trial"",""time""
""focus"",""18"",""116965""
""focus"",""19"",""132553""
""focus"",""19"",""143608""
""focus"",""20"",""185320""
""focus"",""21"",""194066""
""focus"",""22"",""204120""
","""event"",""trial"",""time""
""fullscreenenter"",""1"",""3309""
","""event"",""trial"",""time""
""fullscreenexit"",""5"",""19809""
","","","","","","null","<div style=""font-size:60px;"">+</div>","null","","fixation","","","","","","","","","","",""
"aa-learning-trial","34","230561","0.0-8.0-2.0-1.4","4518","2","23","Female","approach_avoid_spark_v1","""event"",""trial"",""time""
""fullscreenenter"",""1"",""3309""
""fullscreenexit"",""5"",""19809""
""blur"",""18"",""116844""
""focus"",""18"",""116965""
""blur"",""19"",""127931""
""focus"",""19"",""132553""
""blur"",""19"",""134357""
""focus"",""19"",""143608""
""blur"",""20"",""173676""
""focus"",""20"",""185320""
""blur"",""21"",""188617""
""focus"",""21"",""194066""
""blur"",""22"",""197860""
""focus"",""22"",""204120""
","""event"",""trial"",""time""
""blur"",""18"",""116844""
""blur"",""19"",""127931""
""blur"",""19"",""134357""
""blur"",""20"",""173676""
""blur"",""21"",""188617""
""blur"",""22"",""197860""
","""event"",""trial"",""time""
""focus"",""18"",""116965""
""focus"",""19"",""132553""
""focus"",""19"",""143608""
""focus"",""20"",""185320""
""focus"",""21"",""194066""
""focus"",""22"",""204120""
","""event"",""trial"",""time""
""fullscreenenter"",""1"",""3309""
","""event"",""trial"",""time""
""fullscreenexit"",""5"",""19809""
","","","","","","964.7999999970198","images/ball2.png","","","learning","-8","0","0","0","practice","practice","practice","-1","","",""
"html-keyboard-response","35","231080","0.0-8.0-2.0-0.5","4518","2","23","Female","approach_avoid_spark_v1","""event"",""trial"",""time""
""fullscreenenter"",""1"",""3309""
""fullscreenexit"",""5"",""19809""
""blur"",""18"",""116844""
""focus"",""18"",""116965""
""blur"",""19"",""127931""
""focus"",""19"",""132553""
""blur"",""19"",""134357""
""focus"",""19"",""143608""
""blur"",""20"",""173676""
""focus"",""20"",""185320""
""blur"",""21"",""188617""
""focus"",""21"",""194066""
""blur"",""22"",""197860""
""focus"",""22"",""204120""
","""event"",""trial"",""time""
""blur"",""18"",""116844""
""blur"",""19"",""127931""
""blur"",""19"",""134357""
""blur"",""20"",""173676""
""blur"",""21"",""188617""
""blur"",""22"",""197860""
","""event"",""trial"",""time""
""focus"",""18"",""116965""
""focus"",""19"",""132553""
""focus"",""19"",""143608""
""focus"",""20"",""185320""
""focus"",""21"",""194066""
""focus"",""22"",""204120""
","""event"",""trial"",""time""
""fullscreenenter"",""1"",""3309""
","""event"",""trial"",""time""
""fullscreenexit"",""5"",""19809""
","","","","","","null","<div style=""font-size:60px;"">+</div>","null","","fixation","","","","","","","","","","",""
"aa-learning-trial","36","234090","0.0-8.0-2.0-1.5","4518","2","23","Female","approach_avoid_spark_v1","""event"",""trial"",""time""
""fullscreenenter"",""1"",""3309""
""fullscreenexit"",""5"",""19809""
""blur"",""18"",""116844""
""focus"",""18"",""116965""
""blur"",""19"",""127931""
""focus"",""19"",""132553""
""blur"",""19"",""134357""
""focus"",""19"",""143608""
""blur"",""20"",""173676""
""focus"",""20"",""185320""
""blur"",""21"",""188617""
""focus"",""21"",""194066""
""blur"",""22"",""197860""
""focus"",""22"",""204120""
","""event"",""trial"",""time""
""blur"",""18"",""116844""
""blur"",""19"",""127931""
""blur"",""19"",""134357""
""blur"",""20"",""173676""
""blur"",""21"",""188617""
""blur"",""22"",""197860""
","""event"",""trial"",""time""
""focus"",""18"",""116965""
""focus"",""19"",""132553""
""focus"",""19"",""143608""
""focus"",""20"",""185320""
""focus"",""21"",""194066""
""focus"",""22"",""204120""
","""event"",""trial"",""time""
""fullscreenenter"",""1"",""3309""
","""event"",""trial"",""time""
""fullscreenexit"",""5"",""19809""
","","","","","","829.8999999910593","images/ball2.png","","","learning","-3","0","0","0","practice","practice","practice","-1","","",""
"html-keyboard-response","37","234598","0.0-8.0-2.0-0.6","4518","2","23","Female","approach_avoid_spark_v1","""event"",""trial"",""time""
""fullscreenenter"",""1"",""3309""
""fullscreenexit"",""5"",""19809""
""blur"",""18"",""116844""
""focus"",""18"",""116965""
""blur"",""19"",""127931""
""focus"",""19"",""132553""
""blur"",""19"",""134357""
""focus"",""19"",""143608""
""blur"",""20"",""173676""
""focus"",""20"",""185320""
""blur"",""21"",""188617""
""focus"",""21"",""194066""
""blur"",""22"",""197860""
""focus"",""22"",""204120""
","""event"",""trial"",""time""
""blur"",""18"",""116844""
""blur"",""19"",""127931""
""blur"",""19"",""134357""
""blur"",""20"",""173676""
""blur"",""21"",""188617""
""blur"",""22"",""197860""
","""event"",""trial"",""time""
""focus"",""18"",""116965""
""focus"",""19"",""132553""
""focus"",""19"",""143608""
""focus"",""20"",""185320""
""focus"",""21"",""194066""
""focus"",""22"",""204120""
","""event"",""trial"",""time""
""fullscreenenter"",""1"",""3309""
","""event"",""trial"",""time""
""fullscreenexit"",""5"",""19809""
","","","","","","null","<div style=""font-size:60px;"">+</div>","null","","fixation","","","","","","","","","","",""
"aa-learning-trial","38","237610","0.0-8.0-2.0-1.6","4518","2","23","Female","approach_avoid_spark_v1","""event"",""trial"",""time""
""fullscreenenter"",""1"",""3309""
""fullscreenexit"",""5"",""19809""
""blur"",""18"",""116844""
""focus"",""18"",""116965""
""blur"",""19"",""127931""
""focus"",""19"",""132553""
""blur"",""19"",""134357""
""focus"",""19"",""143608""
""blur"",""20"",""173676""
""focus"",""20"",""185320""
""blur"",""21"",""188617""
""focus"",""21"",""194066""
""blur"",""22"",""197860""
""focus"",""22"",""204120""
","""event"",""trial"",""time""
""blur"",""18"",""116844""
""blur"",""19"",""127931""
""blur"",""19"",""134357""
""blur"",""20"",""173676""
""blur"",""21"",""188617""
""blur"",""22"",""197860""
","""event"",""trial"",""time""
""focus"",""18"",""116965""
""focus"",""19"",""132553""
""focus"",""19"",""143608""
""focus"",""20"",""185320""
""focus"",""21"",""194066""
""focus"",""22"",""204120""
","""event"",""trial"",""time""
""fullscreenenter"",""1"",""3309""
","""event"",""trial"",""time""
""fullscreenexit"",""5"",""19809""
","","","","","","1111.0999999940395","images/ball1.png","","","learning","-3","0","0","0","practice","practice","practice","-1","","",""
"html-keyboard-response","39","238120","0.0-8.0-2.0-0.7","4518","2","23","Female","approach_avoid_spark_v1","""event"",""trial"",""time""
""fullscreenenter"",""1"",""3309""
""fullscreenexit"",""5"",""19809""
""blur"",""18"",""116844""
""focus"",""18"",""116965""
""blur"",""19"",""127931""
""focus"",""19"",""132553""
""blur"",""19"",""134357""
""focus"",""19"",""143608""
""blur"",""20"",""173676""
""focus"",""20"",""185320""
""blur"",""21"",""188617""
""focus"",""21"",""194066""
""blur"",""22"",""197860""
""focus"",""22"",""204120""
","""event"",""trial"",""time""
""blur"",""18"",""116844""
""blur"",""19"",""127931""
""blur"",""19"",""134357""
""blur"",""20"",""173676""
""blur"",""21"",""188617""
""blur"",""22"",""197860""
","""event"",""trial"",""time""
""focus"",""18"",""116965""
""focus"",""19"",""132553""
""focus"",""19"",""143608""
""focus"",""20"",""185320""
""focus"",""21"",""194066""
""focus"",""22"",""204120""
","""event"",""trial"",""time""
""fullscreenenter"",""1"",""3309""
","""event"",""trial"",""time""
""fullscreenexit"",""5"",""19809""
","","","","","","null","<div style=""font-size:60px;"">+</div>","null","","fixation","","","","","","","","","","",""
"aa-learning-trial","40","241125","0.0-8.0-2.0-1.7","4518","2","23","Female","approach_avoid_spark_v1","""event"",""trial"",""time""
""fullscreenenter"",""1"",""3309""
""fullscreenexit"",""5"",""19809""
""blur"",""18"",""116844""
""focus"",""18"",""116965""
""blur"",""19"",""127931""
""focus"",""19"",""132553""
""blur"",""19"",""134357""
""focus"",""19"",""143608""
""blur"",""20"",""173676""
""focus"",""20"",""185320""
""blur"",""21"",""188617""
""focus"",""21"",""194066""
""blur"",""22"",""197860""
""focus"",""22"",""204120""
","""event"",""trial"",""time""
""blur"",""18"",""116844""
""blur"",""19"",""127931""
""blur"",""19"",""134357""
""blur"",""20"",""173676""
""blur"",""21"",""188617""
""blur"",""22"",""197860""
","""event"",""trial"",""time""
""focus"",""18"",""116965""
""focus"",""19"",""132553""
""focus"",""19"",""143608""
""focus"",""20"",""185320""
""focus"",""21"",""194066""
""focus"",""22"",""204120""
","""event"",""trial"",""time""
""fullscreenenter"",""1"",""3309""
","""event"",""trial"",""time""
""fullscreenexit"",""5"",""19809""
","","","","","","1007.1000000089407","images/racket4.png","","","learning","-4","-4","1","1","practice","practice","practice","-1","","",""
"html-keyboard-response","41","241628","0.0-8.0-2.0-0.8","4518","2","23","Female","approach_avoid_spark_v1","""event"",""trial"",""time""
""fullscreenenter"",""1"",""3309""
""fullscreenexit"",""5"",""19809""
""blur"",""18"",""116844""
""focus"",""18"",""116965""
""blur"",""19"",""127931""
""focus"",""19"",""132553""
""blur"",""19"",""134357""
""focus"",""19"",""143608""
""blur"",""20"",""173676""
""focus"",""20"",""185320""
""blur"",""21"",""188617""
""focus"",""21"",""194066""
""blur"",""22"",""197860""
""focus"",""22"",""204120""
","""event"",""trial"",""time""
""blur"",""18"",""116844""
""blur"",""19"",""127931""
""blur"",""19"",""134357""
""blur"",""20"",""173676""
""blur"",""21"",""188617""
""blur"",""22"",""197860""
","""event"",""trial"",""time""
""focus"",""18"",""116965""
""focus"",""19"",""132553""
""focus"",""19"",""143608""
""focus"",""20"",""185320""
""focus"",""21"",""194066""
""focus"",""22"",""204120""
","""event"",""trial"",""time""
""fullscreenenter"",""1"",""3309""
","""event"",""trial"",""time""
""fullscreenexit"",""5"",""19809""
","","","","","","null","<div style=""font-size:60px;"">+</div>","null","","fixation","","","","","","","","","","",""
"aa-learning-trial","42","244636","0.0-8.0-2.0-1.8","4518","2","23","Female","approach_avoid_spark_v1","""event"",""trial"",""time""
""fullscreenenter"",""1"",""3309""
""fullscreenexit"",""5"",""19809""
""blur"",""18"",""116844""
""focus"",""18"",""116965""
""blur"",""19"",""127931""
""focus"",""19"",""132553""
""blur"",""19"",""134357""
""focus"",""19"",""143608""
""blur"",""20"",""173676""
""focus"",""20"",""185320""
""blur"",""21"",""188617""
""focus"",""21"",""194066""
""blur"",""22"",""197860""
""focus"",""22"",""204120""
","""event"",""trial"",""time""
""blur"",""18"",""116844""
""blur"",""19"",""127931""
""blur"",""19"",""134357""
""blur"",""20"",""173676""
""blur"",""21"",""188617""
""blur"",""22"",""197860""
","""event"",""trial"",""time""
""focus"",""18"",""116965""
""focus"",""19"",""132553""
""focus"",""19"",""143608""
""focus"",""20"",""185320""
""focus"",""21"",""194066""
""focus"",""22"",""204120""
","""event"",""trial"",""time""
""fullscreenenter"",""1"",""3309""
","""event"",""trial"",""time""
""fullscreenexit"",""5"",""19809""
","","","","","","1133.8999999910593","images/ball2.png","","","learning","-2","-2","1","1","practice","practice","practice","-1","","",""
"html-keyboard-response","43","245140","0.0-8.0-2.0-0.9","4518","2","23","Female","approach_avoid_spark_v1","""event"",""trial"",""time""
""fullscreenenter"",""1"",""3309""
""fullscreenexit"",""5"",""19809""
""blur"",""18"",""116844""
""focus"",""18"",""116965""
""blur"",""19"",""127931""
""focus"",""19"",""132553""
""blur"",""19"",""134357""
""focus"",""19"",""143608""
""blur"",""20"",""173676""
""focus"",""20"",""185320""
""blur"",""21"",""188617""
""focus"",""21"",""194066""
""blur"",""22"",""197860""
""focus"",""22"",""204120""
","""event"",""trial"",""time""
""blur"",""18"",""116844""
""blur"",""19"",""127931""
""blur"",""19"",""134357""
""blur"",""20"",""173676""
""blur"",""21"",""188617""
""blur"",""22"",""197860""
","""event"",""trial"",""time""
""focus"",""18"",""116965""
""focus"",""19"",""132553""
""focus"",""19"",""143608""
""focus"",""20"",""185320""
""focus"",""21"",""194066""
""focus"",""22"",""204120""
","""event"",""trial"",""time""
""fullscreenenter"",""1"",""3309""
","""event"",""trial"",""time""
""fullscreenexit"",""5"",""19809""
","","","","","","null","<div style=""font-size:60px;"">+</div>","null","","fixation","","","","","","","","","","",""
"aa-learning-trial","44","248148","0.0-8.0-2.0-1.9","4518","2","23","Female","approach_avoid_spark_v1","""event"",""trial"",""time""
""fullscreenenter"",""1"",""3309""
""fullscreenexit"",""5"",""19809""
""blur"",""18"",""116844""
""focus"",""18"",""116965""
""blur"",""19"",""127931""
""focus"",""19"",""132553""
""blur"",""19"",""134357""
""focus"",""19"",""143608""
""blur"",""20"",""173676""
""focus"",""20"",""185320""
""blur"",""21"",""188617""
""focus"",""21"",""194066""
""blur"",""22"",""197860""
""focus"",""22"",""204120""
","""event"",""trial"",""time""
""blur"",""18"",""116844""
""blur"",""19"",""127931""
""blur"",""19"",""134357""
""blur"",""20"",""173676""
""blur"",""21"",""188617""
""blur"",""22"",""197860""
","""event"",""trial"",""time""
""focus"",""18"",""116965""
""focus"",""19"",""132553""
""focus"",""19"",""143608""
""focus"",""20"",""185320""
""focus"",""21"",""194066""
""focus"",""22"",""204120""
","""event"",""trial"",""time""
""fullscreenenter"",""1"",""3309""
","""event"",""trial"",""time""
""fullscreenexit"",""5"",""19809""
","","","","","","1193.8999999910593","images/racket4.png","","","learning","5","0","0","0","practice","practice","practice","-1","","",""
"html-keyboard-response","45","248653","0.0-8.0-2.0-0.10","4518","2","23","Female","approach_avoid_spark_v1","""event"",""trial"",""time""
""fullscreenenter"",""1"",""3309""
""fullscreenexit"",""5"",""19809""
""blur"",""18"",""116844""
""focus"",""18"",""116965""
""blur"",""19"",""127931""
""focus"",""19"",""132553""
""blur"",""19"",""134357""
""focus"",""19"",""143608""
""blur"",""20"",""173676""
""focus"",""20"",""185320""
""blur"",""21"",""188617""
""focus"",""21"",""194066""
""blur"",""22"",""197860""
""focus"",""22"",""204120""
","""event"",""trial"",""time""
""blur"",""18"",""116844""
""blur"",""19"",""127931""
""blur"",""19"",""134357""
""blur"",""20"",""173676""
""blur"",""21"",""188617""
""blur"",""22"",""197860""
","""event"",""trial"",""time""
""focus"",""18"",""116965""
""focus"",""19"",""132553""
""focus"",""19"",""143608""
""focus"",""20"",""185320""
""focus"",""21"",""194066""
""focus"",""22"",""204120""
","""event"",""trial"",""time""
""fullscreenenter"",""1"",""3309""
","""event"",""trial"",""time""
""fullscreenexit"",""5"",""19809""
","","","","","","null","<div style=""font-size:60px;"">+</div>","null","","fixation","","","","","","","","","","",""
"aa-learning-trial","46","251661","0.0-8.0-2.0-1.10","4518","2","23","Female","approach_avoid_spark_v1","""event"",""trial"",""time""
""fullscreenenter"",""1"",""3309""
""fullscreenexit"",""5"",""19809""
""blur"",""18"",""116844""
""focus"",""18"",""116965""
""blur"",""19"",""127931""
""focus"",""19"",""132553""
""blur"",""19"",""134357""
""focus"",""19"",""143608""
""blur"",""20"",""173676""
""focus"",""20"",""185320""
""blur"",""21"",""188617""
""focus"",""21"",""194066""
""blur"",""22"",""197860""
""focus"",""22"",""204120""
","""event"",""trial"",""time""
""blur"",""18"",""116844""
""blur"",""19"",""127931""
""blur"",""19"",""134357""
""blur"",""20"",""173676""
""blur"",""21"",""188617""
""blur"",""22"",""197860""
","""event"",""trial"",""time""
""focus"",""18"",""116965""
""focus"",""19"",""132553""
""focus"",""19"",""143608""
""focus"",""20"",""185320""
""focus"",""21"",""194066""
""focus"",""22"",""204120""
","""event"",""trial"",""time""
""fullscreenenter"",""1"",""3309""
","""event"",""trial"",""time""
""fullscreenexit"",""5"",""19809""
","","","","","","698.4000000059605","images/racket4.png","","","learning","-5","0","0","0","practice","practice","practice","-1","","",""
"html-keyboard-response","47","252164","0.0-8.0-2.0-0.11","4518","2","23","Female","approach_avoid_spark_v1","""event"",""trial"",""time""
""fullscreenenter"",""1"",""3309""
""fullscreenexit"",""5"",""19809""
""blur"",""18"",""116844""
""focus"",""18"",""116965""
""blur"",""19"",""127931""
""focus"",""19"",""132553""
""blur"",""19"",""134357""
""focus"",""19"",""143608""
""blur"",""20"",""173676""
""focus"",""20"",""185320""
""blur"",""21"",""188617""
""focus"",""21"",""194066""
""blur"",""22"",""197860""
""focus"",""22"",""204120""
","""event"",""trial"",""time""
""blur"",""18"",""116844""
""blur"",""19"",""127931""
""blur"",""19"",""134357""
""blur"",""20"",""173676""
""blur"",""21"",""188617""
""blur"",""22"",""197860""
","""event"",""trial"",""time""
""focus"",""18"",""116965""
""focus"",""19"",""132553""
""focus"",""19"",""143608""
""focus"",""20"",""185320""
""focus"",""21"",""194066""
""focus"",""22"",""204120""
","""event"",""trial"",""time""
""fullscreenenter"",""1"",""3309""
","""event"",""trial"",""time""
""fullscreenexit"",""5"",""19809""
","","","","","","null","<div style=""font-size:60px;"">+</div>","null","","fixation","","","","","","","","","","",""
"aa-learning-trial","48","255172","0.0-8.0-2.0-1.11","4518","2","23","Female","approach_avoid_spark_v1","""event"",""trial"",""time""
""fullscreenenter"",""1"",""3309""
""fullscreenexit"",""5"",""19809""
""blur"",""18"",""116844""
""focus"",""18"",""116965""
""blur"",""19"",""127931""
""focus"",""19"",""132553""
""blur"",""19"",""134357""
""focus"",""19"",""143608""
""blur"",""20"",""173676""
""focus"",""20"",""185320""
""blur"",""21"",""188617""
""focus"",""21"",""194066""
""blur"",""22"",""197860""
""focus"",""22"",""204120""
","""event"",""trial"",""time""
""blur"",""18"",""116844""
""blur"",""19"",""127931""
""blur"",""19"",""134357""
""blur"",""20"",""173676""
""blur"",""21"",""188617""
""blur"",""22"",""197860""
","""event"",""trial"",""time""
""focus"",""18"",""116965""
""focus"",""19"",""132553""
""focus"",""19"",""143608""
""focus"",""20"",""185320""
""focus"",""21"",""194066""
""focus"",""22"",""204120""
","""event"",""trial"",""time""
""fullscreenenter"",""1"",""3309""
","""event"",""trial"",""time""
""fullscreenexit"",""5"",""19809""
","","","","","","1111.1000000089407","images/racket2.png","","","learning","-1","-1","1","1","practice","practice","practice","-1","","",""
"html-button-response","49","258108","0.0-8.0-3.0","4518","2","23","Female","approach_avoid_spark_v1","""event"",""trial"",""time""
""fullscreenenter"",""1"",""3309""
""fullscreenexit"",""5"",""19809""
""blur"",""18"",""116844""
""focus"",""18"",""116965""
""blur"",""19"",""127931""
""focus"",""19"",""132553""
""blur"",""19"",""134357""
""focus"",""19"",""143608""
""blur"",""20"",""173676""
""focus"",""20"",""185320""
""blur"",""21"",""188617""
""focus"",""21"",""194066""
""blur"",""22"",""197860""
""focus"",""22"",""204120""
","""event"",""trial"",""time""
""blur"",""18"",""116844""
""blur"",""19"",""127931""
""blur"",""19"",""134357""
""blur"",""20"",""173676""
""blur"",""21"",""188617""
""blur"",""22"",""197860""
","""event"",""trial"",""time""
""focus"",""18"",""116965""
""focus"",""19"",""132553""
""focus"",""19"",""143608""
""focus"",""20"",""185320""
""focus"",""21"",""194066""
""focus"",""22"",""204120""
","""event"",""trial"",""time""
""fullscreenenter"",""1"",""3309""
","""event"",""trial"",""time""
""fullscreenexit"",""5"",""19809""
","","","","","","2932.2000000029802","<p> You earned -11 points in the practice round! </p>","0","","break","","","","","","","","","","",""
"learning-instructions","50","264924","0.0-8.0-4.0-0.0","4518","2","23","Female","approach_avoid_spark_v1","""event"",""trial"",""time""
""fullscreenenter"",""1"",""3309""
""fullscreenexit"",""5"",""19809""
""blur"",""18"",""116844""
""focus"",""18"",""116965""
""blur"",""19"",""127931""
""focus"",""19"",""132553""
""blur"",""19"",""134357""
""focus"",""19"",""143608""
""blur"",""20"",""173676""
""focus"",""20"",""185320""
""blur"",""21"",""188617""
""focus"",""21"",""194066""
""blur"",""22"",""197860""
""focus"",""22"",""204120""
","""event"",""trial"",""time""
""blur"",""18"",""116844""
""blur"",""19"",""127931""
""blur"",""19"",""134357""
""blur"",""20"",""173676""
""blur"",""21"",""188617""
""blur"",""22"",""197860""
","""event"",""trial"",""time""
""focus"",""18"",""116965""
""focus"",""19"",""132553""
""focus"",""19"",""143608""
""focus"",""20"",""185320""
""focus"",""21"",""194066""
""focus"",""22"",""204120""
","""event"",""trial"",""time""
""fullscreenenter"",""1"",""3309""
","""event"",""trial"",""time""
""fullscreenexit"",""5"",""19809""
","","","","","","867.5","<p> It's almost time to start the real game. </p><p> Before you start, we're going to ask you a few questions about how the game works. </p>","","0","instructions","","","","","","","","","","",""
"preload","51","266130","0.0-8.0-5.0","4518","2","23","Female","approach_avoid_spark_v1","""event"",""trial"",""time""
""fullscreenenter"",""1"",""3309""
""fullscreenexit"",""5"",""19809""
""blur"",""18"",""116844""
""focus"",""18"",""116965""
""blur"",""19"",""127931""
""focus"",""19"",""132553""
""blur"",""19"",""134357""
""focus"",""19"",""143608""
""blur"",""20"",""173676""
""focus"",""20"",""185320""
""blur"",""21"",""188617""
""focus"",""21"",""194066""
""blur"",""22"",""197860""
""focus"",""22"",""204120""
","""event"",""trial"",""time""
""blur"",""18"",""116844""
""blur"",""19"",""127931""
""blur"",""19"",""134357""
""blur"",""20"",""173676""
""blur"",""21"",""188617""
""blur"",""22"",""197860""
","""event"",""trial"",""time""
""focus"",""18"",""116965""
""focus"",""19"",""132553""
""focus"",""19"",""143608""
""focus"",""20"",""185320""
""focus"",""21"",""194066""
""focus"",""22"",""204120""
","""event"",""trial"",""time""
""fullscreenenter"",""1"",""3309""
","""event"",""trial"",""time""
""fullscreenexit"",""5"",""19809""
","true","false","[]","[]","[]","","","","","","","","","","","","","","","",""
"comp-q","52","272238","0.0-8.0-6.0-0.0","4518","2","23","Female","approach_avoid_spark_v1","""event"",""trial"",""time""
""fullscreenenter"",""1"",""3309""
""fullscreenexit"",""5"",""19809""
""blur"",""18"",""116844""
""focus"",""18"",""116965""
""blur"",""19"",""127931""
""focus"",""19"",""132553""
""blur"",""19"",""134357""
""focus"",""19"",""143608""
""blur"",""20"",""173676""
""focus"",""20"",""185320""
""blur"",""21"",""188617""
""focus"",""21"",""194066""
""blur"",""22"",""197860""
""focus"",""22"",""204120""
","""event"",""trial"",""time""
""blur"",""18"",""116844""
""blur"",""19"",""127931""
""blur"",""19"",""134357""
""blur"",""20"",""173676""
""blur"",""21"",""188617""
""blur"",""22"",""197860""
","""event"",""trial"",""time""
""focus"",""18"",""116965""
""focus"",""19"",""132553""
""focus"",""19"",""143608""
""focus"",""20"",""185320""
""focus"",""21"",""194066""
""focus"",""22"",""204120""
","""event"",""trial"",""time""
""fullscreenenter"",""1"",""3309""
","""event"",""trial"",""time""
""fullscreenexit"",""5"",""19809""
","","","","","","1110","<p> <b> True or False? </b> </p><p> If you see a number in GREY, that means you earned that many points. </p>","","1","comp_question","","","","","","","","","true","",""
"comp-q","53","281815","0.0-8.0-6.0-1.0","4518","2","23","Female","approach_avoid_spark_v1","""event"",""trial"",""time""
""fullscreenenter"",""1"",""3309""
""fullscreenexit"",""5"",""19809""
""blur"",""18"",""116844""
""focus"",""18"",""116965""
""blur"",""19"",""127931""
""focus"",""19"",""132553""
""blur"",""19"",""134357""
""focus"",""19"",""143608""
""blur"",""20"",""173676""
""focus"",""20"",""185320""
""blur"",""21"",""188617""
""focus"",""21"",""194066""
""blur"",""22"",""197860""
""focus"",""22"",""204120""
","""event"",""trial"",""time""
""blur"",""18"",""116844""
""blur"",""19"",""127931""
""blur"",""19"",""134357""
""blur"",""20"",""173676""
""blur"",""21"",""188617""
""blur"",""22"",""197860""
","""event"",""trial"",""time""
""focus"",""18"",""116965""
""focus"",""19"",""132553""
""focus"",""19"",""143608""
""focus"",""20"",""185320""
""focus"",""21"",""194066""
""focus"",""22"",""204120""
","""event"",""trial"",""time""
""fullscreenenter"",""1"",""3309""
","""event"",""trial"",""time""
""fullscreenexit"",""5"",""19809""
","","","","","","1198","<p><b> That's right! </b> If you see a grey number, it means you earned ZERO points. <br> The grey numbers show the points you WOULD HAVE earned if you had made the other choice. </p>","","0","comp_answer","","","","","","","","","","",""
"comp-q","54","288528","0.0-8.0-7.0-0.0","4518","2","23","Female","approach_avoid_spark_v1","""event"",""trial"",""time""
""fullscreenenter"",""1"",""3309""
""fullscreenexit"",""5"",""19809""
""blur"",""18"",""116844""
""focus"",""18"",""116965""
""blur"",""19"",""127931""
""focus"",""19"",""132553""
""blur"",""19"",""134357""
""focus"",""19"",""143608""
""blur"",""20"",""173676""
""focus"",""20"",""185320""
""blur"",""21"",""188617""
""focus"",""21"",""194066""
""blur"",""22"",""197860""
""focus"",""22"",""204120""
","""event"",""trial"",""time""
""blur"",""18"",""116844""
""blur"",""19"",""127931""
""blur"",""19"",""134357""
""blur"",""20"",""173676""
""blur"",""21"",""188617""
""blur"",""22"",""197860""
","""event"",""trial"",""time""
""focus"",""18"",""116965""
""focus"",""19"",""132553""
""focus"",""19"",""143608""
""focus"",""20"",""185320""
""focus"",""21"",""194066""
""focus"",""22"",""204120""
","""event"",""trial"",""time""
""fullscreenenter"",""1"",""3309""
","""event"",""trial"",""time""
""fullscreenexit"",""5"",""19809""
","","","","","","2001","<p> <b> True or False? </b> </p><p> You will have as much time as you want to make each choice. </p>","","1","comp_question","","","","","","","","","true","",""
"comp-q","55","293598","0.0-8.0-7.0-1.0","4518","2","23","Female","approach_avoid_spark_v1","""event"",""trial"",""time""
""fullscreenenter"",""1"",""3309""
""fullscreenexit"",""5"",""19809""
""blur"",""18"",""116844""
""focus"",""18"",""116965""
""blur"",""19"",""127931""
""focus"",""19"",""132553""
""blur"",""19"",""134357""
""focus"",""19"",""143608""
""blur"",""20"",""173676""
""focus"",""20"",""185320""
""blur"",""21"",""188617""
""focus"",""21"",""194066""
""blur"",""22"",""197860""
""focus"",""22"",""204120""
","""event"",""trial"",""time""
""blur"",""18"",""116844""
""blur"",""19"",""127931""
""blur"",""19"",""134357""
""blur"",""20"",""173676""
""blur"",""21"",""188617""
""blur"",""22"",""197860""
","""event"",""trial"",""time""
""focus"",""18"",""116965""
""focus"",""19"",""132553""
""focus"",""19"",""143608""
""focus"",""20"",""185320""
""focus"",""21"",""194066""
""focus"",""22"",""204120""
","""event"",""trial"",""time""
""fullscreenenter"",""1"",""3309""
","""event"",""trial"",""time""
""fullscreenexit"",""5"",""19809""
","","","","","","1011.1000000089407","<p> <b> That's right! </b> You will only have 3 seconds to make each choice. </p>","","0","comp_answer","","","","","","","","","","",""
"comp-q","56","298841","0.0-8.0-8.0-0.0","4518","2","23","Female","approach_avoid_spark_v1","""event"",""trial"",""time""
""fullscreenenter"",""1"",""3309""
""fullscreenexit"",""5"",""19809""
""blur"",""18"",""116844""
""focus"",""18"",""116965""
""blur"",""19"",""127931""
""focus"",""19"",""132553""
""blur"",""19"",""134357""
""focus"",""19"",""143608""
""blur"",""20"",""173676""
""focus"",""20"",""185320""
""blur"",""21"",""188617""
""focus"",""21"",""194066""
""blur"",""22"",""197860""
""focus"",""22"",""204120""
","""event"",""trial"",""time""
""blur"",""18"",""116844""
""blur"",""19"",""127931""
""blur"",""19"",""134357""
""blur"",""20"",""173676""
""blur"",""21"",""188617""
""blur"",""22"",""197860""
","""event"",""trial"",""time""
""focus"",""18"",""116965""
""focus"",""19"",""132553""
""focus"",""19"",""143608""
""focus"",""20"",""185320""
""focus"",""21"",""194066""
""focus"",""22"",""204120""
","""event"",""trial"",""time""
""fullscreenenter"",""1"",""3309""
","""event"",""trial"",""time""
""fullscreenexit"",""5"",""19809""
","","","","","","573","<p> <b> True or False? </b> </p><p> You should use the '1' and '0' keys to make your choices. </p>","","0","comp_question","","","","","","","","","true","",""
"comp-q","57","304143","0.0-8.0-8.0-1.0","4518","2","23","Female","approach_avoid_spark_v1","""event"",""trial"",""time""
""fullscreenenter"",""1"",""3309""
""fullscreenexit"",""5"",""19809""
""blur"",""18"",""116844""
""focus"",""18"",""116965""
""blur"",""19"",""127931""
""focus"",""19"",""132553""
""blur"",""19"",""134357""
""focus"",""19"",""143608""
""blur"",""20"",""173676""
""focus"",""20"",""185320""
""blur"",""21"",""188617""
""focus"",""21"",""194066""
""blur"",""22"",""197860""
""focus"",""22"",""204120""
","""event"",""trial"",""time""
""blur"",""18"",""116844""
""blur"",""19"",""127931""
""blur"",""19"",""134357""
""blur"",""20"",""173676""
""blur"",""21"",""188617""
""blur"",""22"",""197860""
","""event"",""trial"",""time""
""focus"",""18"",""116965""
""focus"",""19"",""132553""
""focus"",""19"",""143608""
""focus"",""20"",""185320""
""focus"",""21"",""194066""
""focus"",""22"",""204120""
","""event"",""trial"",""time""
""fullscreenenter"",""1"",""3309""
","""event"",""trial"",""time""
""fullscreenexit"",""5"",""19809""
","","","","","","695.6000000089407","<p> <b> That's right! </b> You should use the '1' and '0' keys to make each choice. </p>","","0","comp_answer","","","","","","","","","","",""
"learning-instructions","58","311522","0.0-8.0-9.0-0.0","4518","2","23","Female","approach_avoid_spark_v1","""event"",""trial"",""time""
""fullscreenenter"",""1"",""3309""
""fullscreenexit"",""5"",""19809""
""blur"",""18"",""116844""
""focus"",""18"",""116965""
""blur"",""19"",""127931""
""focus"",""19"",""132553""
""blur"",""19"",""134357""
""focus"",""19"",""143608""
""blur"",""20"",""173676""
""focus"",""20"",""185320""
""blur"",""21"",""188617""
""focus"",""21"",""194066""
""blur"",""22"",""197860""
""focus"",""22"",""204120""
","""event"",""trial"",""time""
""blur"",""18"",""116844""
""blur"",""19"",""127931""
""blur"",""19"",""134357""
""blur"",""20"",""173676""
""blur"",""21"",""188617""
""blur"",""22"",""197860""
","""event"",""trial"",""time""
""focus"",""18"",""116965""
""focus"",""19"",""132553""
""focus"",""19"",""143608""
""focus"",""20"",""185320""
""focus"",""21"",""194066""
""focus"",""22"",""204120""
","""event"",""trial"",""time""
""fullscreenenter"",""1"",""3309""
","""event"",""trial"",""time""
""fullscreenexit"",""5"",""19809""
","","","","","","1105.0999999940395","<p> It's now time to start the real game. </p>Do your best, because the points you earn in the next rounds will influence your bonus payment. </p>","","0","instructions","","","","","","","","","","",""
"preload","59","311651","0.0-9.0-0.0","4518","2","23","Female","approach_avoid_spark_v1","""event"",""trial"",""time""
""fullscreenenter"",""1"",""3309""
""fullscreenexit"",""5"",""19809""
""blur"",""18"",""116844""
""focus"",""18"",""116965""
""blur"",""19"",""127931""
""focus"",""19"",""132553""
""blur"",""19"",""134357""
""focus"",""19"",""143608""
""blur"",""20"",""173676""
""focus"",""20"",""185320""
""blur"",""21"",""188617""
""focus"",""21"",""194066""
""blur"",""22"",""197860""
""focus"",""22"",""204120""
","""event"",""trial"",""time""
""blur"",""18"",""116844""
""blur"",""19"",""127931""
""blur"",""19"",""134357""
""blur"",""20"",""173676""
""blur"",""21"",""188617""
""blur"",""22"",""197860""
","""event"",""trial"",""time""
""focus"",""18"",""116965""
""focus"",""19"",""132553""
""focus"",""19"",""143608""
""focus"",""20"",""185320""
""focus"",""21"",""194066""
""focus"",""22"",""204120""
","""event"",""trial"",""time""
""fullscreenenter"",""1"",""3309""
","""event"",""trial"",""time""
""fullscreenexit"",""5"",""19809""
","true","false","[]","[]","[]","","","","","","","","","","","","","","","",""
"learning-instructions","60","317785","0.0-9.0-1.0-0.0","4518","2","23","Female","approach_avoid_spark_v1","""event"",""trial"",""time""
""fullscreenenter"",""1"",""3309""
""fullscreenexit"",""5"",""19809""
""blur"",""18"",""116844""
""focus"",""18"",""116965""
""blur"",""19"",""127931""
""focus"",""19"",""132553""
""blur"",""19"",""134357""
""focus"",""19"",""143608""
""blur"",""20"",""173676""
""focus"",""20"",""185320""
""blur"",""21"",""188617""
""focus"",""21"",""194066""
""blur"",""22"",""197860""
""focus"",""22"",""204120""
","""event"",""trial"",""time""
""blur"",""18"",""116844""
""blur"",""19"",""127931""
""blur"",""19"",""134357""
""blur"",""20"",""173676""
""blur"",""21"",""188617""
""blur"",""22"",""197860""
","""event"",""trial"",""time""
""focus"",""18"",""116965""
""focus"",""19"",""132553""
""focus"",""19"",""143608""
""focus"",""20"",""185320""
""focus"",""21"",""194066""
""focus"",""22"",""204120""
","""event"",""trial"",""time""
""fullscreenenter"",""1"",""3309""
","""event"",""trial"",""time""
""fullscreenexit"",""5"",""19809""
","","","","","","1207.2000000029802","<p> Your goal in this round is to sell different plants to a picky customer. </p></div>","","0","instructions","","","","","","","","","","",""
"learning-instructions","61","327791","0.0-9.0-1.0-0.1","4518","2","23","Female","approach_avoid_spark_v1","""event"",""trial"",""time""
""fullscreenenter"",""1"",""3309""
""fullscreenexit"",""5"",""19809""
""blur"",""18"",""116844""
""focus"",""18"",""116965""
""blur"",""19"",""127931""
""focus"",""19"",""132553""
""blur"",""19"",""134357""
""focus"",""19"",""143608""
""blur"",""20"",""173676""
""focus"",""20"",""185320""
""blur"",""21"",""188617""
""focus"",""21"",""194066""
""blur"",""22"",""197860""
""focus"",""22"",""204120""
","""event"",""trial"",""time""
""blur"",""18"",""116844""
""blur"",""19"",""127931""
""blur"",""19"",""134357""
""blur"",""20"",""173676""
""blur"",""21"",""188617""
""blur"",""22"",""197860""
","""event"",""trial"",""time""
""focus"",""18"",""116965""
""focus"",""19"",""132553""
""focus"",""19"",""143608""
""focus"",""20"",""185320""
""focus"",""21"",""194066""
""focus"",""22"",""204120""
","""event"",""trial"",""time""
""fullscreenenter"",""1"",""3309""
","""event"",""trial"",""time""
""fullscreenexit"",""5"",""19809""
","","","","","","884.2000000029802","<p> The customer likes some plants and dislikes others.  </p><p> On each turn, you will see a plant.   </p><p> You need to decide whether to offer it to the customer or not.  </p>","","0","instructions","","","","","","","","","","",""
"learning-instructions","62","334166","0.0-9.0-1.0-0.2","4518","2","23","Female","approach_avoid_spark_v1","""event"",""trial"",""time""
""fullscreenenter"",""1"",""3309""
""fullscreenexit"",""5"",""19809""
""blur"",""18"",""116844""
""focus"",""18"",""116965""
""blur"",""19"",""127931""
""focus"",""19"",""132553""
""blur"",""19"",""134357""
""focus"",""19"",""143608""
""blur"",""20"",""173676""
""focus"",""20"",""185320""
""blur"",""21"",""188617""
""focus"",""21"",""194066""
""blur"",""22"",""197860""
""focus"",""22"",""204120""
","""event"",""trial"",""time""
""blur"",""18"",""116844""
""blur"",""19"",""127931""
""blur"",""19"",""134357""
""blur"",""20"",""173676""
""blur"",""21"",""188617""
""blur"",""22"",""197860""
","""event"",""trial"",""time""
""focus"",""18"",""116965""
""focus"",""19"",""132553""
""focus"",""19"",""143608""
""focus"",""20"",""185320""
""focus"",""21"",""194066""
""focus"",""22"",""204120""
","""event"",""trial"",""time""
""fullscreenenter"",""1"",""3309""
","""event"",""trial"",""time""
""fullscreenexit"",""5"",""19809""
","","","","","","938.7000000029802","<p> You can offer the plant by pressing 1 and decide to not offer it by pressing 0. </p><br><div class=""choice-instructions-grid""> <div class=""choice-option""><img src=""images/approach.png"" class=""choice-option-img"" stage=""instructions"" position=""0"" ><div class=""choice-option-text""> Press ""1."" </div></div><div class=""choice-option""><img src=""images/avoid.png"" class=""choice-option-img"" stage=""instructions"" position=""1"" ><div class=""choice-option-text""> Press ""0."" </div></div>","","0","instructions","","","","","","","","","","",""
"learning-instructions","63","343324","0.0-9.0-1.0-0.3","4518","2","23","Female","approach_avoid_spark_v1","""event"",""trial"",""time""
""fullscreenenter"",""1"",""3309""
""fullscreenexit"",""5"",""19809""
""blur"",""18"",""116844""
""focus"",""18"",""116965""
""blur"",""19"",""127931""
""focus"",""19"",""132553""
""blur"",""19"",""134357""
""focus"",""19"",""143608""
""blur"",""20"",""173676""
""focus"",""20"",""185320""
""blur"",""21"",""188617""
""focus"",""21"",""194066""
""blur"",""22"",""197860""
""focus"",""22"",""204120""
","""event"",""trial"",""time""
""blur"",""18"",""116844""
""blur"",""19"",""127931""
""blur"",""19"",""134357""
""blur"",""20"",""173676""
""blur"",""21"",""188617""
""blur"",""22"",""197860""
","""event"",""trial"",""time""
""focus"",""18"",""116965""
""focus"",""19"",""132553""
""focus"",""19"",""143608""
""focus"",""20"",""185320""
""focus"",""21"",""194066""
""focus"",""22"",""204120""
","""event"",""trial"",""time""
""fullscreenenter"",""1"",""3309""
","""event"",""trial"",""time""
""fullscreenexit"",""5"",""19809""
","","","","","","437.09999999403954","<p> If you offer a plant to the customer that she likes, she will be very pleased! </p><p> But if you offer a plant that she does NOT like, she will be annoyed. </p>","","0","instructions","","","","","","","","","","",""
"learning-instructions","64","357619","0.0-9.0-1.0-0.4","4518","2","23","Female","approach_avoid_spark_v1","""event"",""trial"",""time""
""fullscreenenter"",""1"",""3309""
""fullscreenexit"",""5"",""19809""
""blur"",""18"",""116844""
""focus"",""18"",""116965""
""blur"",""19"",""127931""
""focus"",""19"",""132553""
""blur"",""19"",""134357""
""focus"",""19"",""143608""
""blur"",""20"",""173676""
""focus"",""20"",""185320""
""blur"",""21"",""188617""
""focus"",""21"",""194066""
""blur"",""22"",""197860""
""focus"",""22"",""204120""
","""event"",""trial"",""time""
""blur"",""18"",""116844""
""blur"",""19"",""127931""
""blur"",""19"",""134357""
""blur"",""20"",""173676""
""blur"",""21"",""188617""
""blur"",""22"",""197860""
","""event"",""trial"",""time""
""focus"",""18"",""116965""
""focus"",""19"",""132553""
""focus"",""19"",""143608""
""focus"",""20"",""185320""
""focus"",""21"",""194066""
""focus"",""22"",""204120""
","""event"",""trial"",""time""
""fullscreenenter"",""1"",""3309""
","""event"",""trial"",""time""
""fullscreenexit"",""5"",""19809""
","","","","","","2081.7999999970198","<p> You will earn points based on how you made the customer feel. </p><p> If you made her pleased, you will WIN anywhere from 1 - 9 points, </p><p> but if you made her annoyed, you will LOSE anywhere from 1 - 9 points. </p>","","0","instructions","","","","","","","","","","",""
"learning-instructions","65","367121","0.0-9.0-1.0-0.5","4518","2","23","Female","approach_avoid_spark_v1","""event"",""trial"",""time""
""fullscreenenter"",""1"",""3309""
""fullscreenexit"",""5"",""19809""
""blur"",""18"",""116844""
""focus"",""18"",""116965""
""blur"",""19"",""127931""
""focus"",""19"",""132553""
""blur"",""19"",""134357""
""focus"",""19"",""143608""
""blur"",""20"",""173676""
""focus"",""20"",""185320""
""blur"",""21"",""188617""
""focus"",""21"",""194066""
""blur"",""22"",""197860""
""focus"",""22"",""204120""
","""event"",""trial"",""time""
""blur"",""18"",""116844""
""blur"",""19"",""127931""
""blur"",""19"",""134357""
""blur"",""20"",""173676""
""blur"",""21"",""188617""
""blur"",""22"",""197860""
","""event"",""trial"",""time""
""focus"",""18"",""116965""
""focus"",""19"",""132553""
""focus"",""19"",""143608""
""focus"",""20"",""185320""
""focus"",""21"",""194066""
""focus"",""22"",""204120""
","""event"",""trial"",""time""
""fullscreenenter"",""1"",""3309""
","""event"",""trial"",""time""
""fullscreenexit"",""5"",""19809""
","","","","","","2184.2999999970198","<p> You will see how many points you won or lost in the center of the screen. </p><p> Here is what you would see if you won 5 points: </p><p style=""color:green;font-size:50px;font-weight:bolder"">5</p>","","0","instructions","","","","","","","","","","",""
"learning-instructions","66","371367","0.0-9.0-1.0-0.6","4518","2","23","Female","approach_avoid_spark_v1","""event"",""trial"",""time""
""fullscreenenter"",""1"",""3309""
""fullscreenexit"",""5"",""19809""
""blur"",""18"",""116844""
""focus"",""18"",""116965""
""blur"",""19"",""127931""
""focus"",""19"",""132553""
""blur"",""19"",""134357""
""focus"",""19"",""143608""
""blur"",""20"",""173676""
""focus"",""20"",""185320""
""blur"",""21"",""188617""
""focus"",""21"",""194066""
""blur"",""22"",""197860""
""focus"",""22"",""204120""
","""event"",""trial"",""time""
""blur"",""18"",""116844""
""blur"",""19"",""127931""
""blur"",""19"",""134357""
""blur"",""20"",""173676""
""blur"",""21"",""188617""
""blur"",""22"",""197860""
","""event"",""trial"",""time""
""focus"",""18"",""116965""
""focus"",""19"",""132553""
""focus"",""19"",""143608""
""focus"",""20"",""185320""
""focus"",""21"",""194066""
""focus"",""22"",""204120""
","""event"",""trial"",""time""
""fullscreenenter"",""1"",""3309""
","""event"",""trial"",""time""
""fullscreenexit"",""5"",""19809""
","","","","","","720","<p> And here is what you would see if you lost 3 points: </p><p style=""color:red;font-size:50px;font-weight:bolder"">-3</p>","","0","instructions","","","","","","","","","","",""
"learning-instructions","67","394402","0.0-9.0-1.0-0.7","4518","2","23","Female","approach_avoid_spark_v1","""event"",""trial"",""time""
""fullscreenenter"",""1"",""3309""
""fullscreenexit"",""5"",""19809""
""blur"",""18"",""116844""
""focus"",""18"",""116965""
""blur"",""19"",""127931""
""focus"",""19"",""132553""
""blur"",""19"",""134357""
""focus"",""19"",""143608""
""blur"",""20"",""173676""
""focus"",""20"",""185320""
""blur"",""21"",""188617""
""focus"",""21"",""194066""
""blur"",""22"",""197860""
""focus"",""22"",""204120""
","""event"",""trial"",""time""
""blur"",""18"",""116844""
""blur"",""19"",""127931""
""blur"",""19"",""134357""
""blur"",""20"",""173676""
""blur"",""21"",""188617""
""blur"",""22"",""197860""
","""event"",""trial"",""time""
""focus"",""18"",""116965""
""focus"",""19"",""132553""
""focus"",""19"",""143608""
""focus"",""20"",""185320""
""focus"",""21"",""194066""
""focus"",""22"",""204120""
","""event"",""trial"",""time""
""fullscreenenter"",""1"",""3309""
","""event"",""trial"",""time""
""fullscreenexit"",""5"",""19809""
","","","","","","8574.5","<p> Some plants will make the customer VERY pleased or annoyed. </p><p> These plants will make you win or lose LOTS of points. </p><p> The customer will have less strong feelings about other plants. </p><p> These plants will make you win or lose small amounts of points. </p>","","0","instructions","","","","","","","","","","",""
"learning-instructions","68","407533","0.0-9.0-1.0-0.8","4518","2","23","Female","approach_avoid_spark_v1","""event"",""trial"",""time""
""fullscreenenter"",""1"",""3309""
""fullscreenexit"",""5"",""19809""
""blur"",""18"",""116844""
""focus"",""18"",""116965""
""blur"",""19"",""127931""
""focus"",""19"",""132553""
""blur"",""19"",""134357""
""focus"",""19"",""143608""
""blur"",""20"",""173676""
""focus"",""20"",""185320""
""blur"",""21"",""188617""
""focus"",""21"",""194066""
""blur"",""22"",""197860""
""focus"",""22"",""204120""
","""event"",""trial"",""time""
""blur"",""18"",""116844""
""blur"",""19"",""127931""
""blur"",""19"",""134357""
""blur"",""20"",""173676""
""blur"",""21"",""188617""
""blur"",""22"",""197860""
","""event"",""trial"",""time""
""focus"",""18"",""116965""
""focus"",""19"",""132553""
""focus"",""19"",""143608""
""focus"",""20"",""185320""
""focus"",""21"",""194066""
""focus"",""22"",""204120""
","""event"",""trial"",""time""
""fullscreenenter"",""1"",""3309""
","""event"",""trial"",""time""
""fullscreenexit"",""5"",""19809""
","","","","","","795.7999999970198","<p> If you choose to not offer the plant to the customer, you will not win or lose any points. </p><p>  However, in the center of the screen, you will see the number of points you WOULD HAVE won or lost if you had offered the plant. </p>","","0","instructions","","","","","","","","","","",""
"learning-instructions","69","420028","0.0-9.0-1.0-0.9","4518","2","23","Female","approach_avoid_spark_v1","""event"",""trial"",""time""
""fullscreenenter"",""1"",""3309""
""fullscreenexit"",""5"",""19809""
""blur"",""18"",""116844""
""focus"",""18"",""116965""
""blur"",""19"",""127931""
""focus"",""19"",""132553""
""blur"",""19"",""134357""
""focus"",""19"",""143608""
""blur"",""20"",""173676""
""focus"",""20"",""185320""
""blur"",""21"",""188617""
""focus"",""21"",""194066""
""blur"",""22"",""197860""
""focus"",""22"",""204120""
","""event"",""trial"",""time""
""blur"",""18"",""116844""
""blur"",""19"",""127931""
""blur"",""19"",""134357""
""blur"",""20"",""173676""
""blur"",""21"",""188617""
""blur"",""22"",""197860""
","""event"",""trial"",""time""
""focus"",""18"",""116965""
""focus"",""19"",""132553""
""focus"",""19"",""143608""
""focus"",""20"",""185320""
""focus"",""21"",""194066""
""focus"",""22"",""204120""
","""event"",""trial"",""time""
""fullscreenenter"",""1"",""3309""
","""event"",""trial"",""time""
""fullscreenexit"",""5"",""19809""
","","","","","","1280.7999999970198","<p> Here is what you might see if you did not offer the plant but the customer would have liked it: </p><p style=""color:grey; font-size:50px; display: inline-block; border-spacing: 15px; border-width:3px; border-style:solid; border-color:red"">  &nbsp; 6 &nbsp; </p><p> Remember, in this case, you would not win or lose ANY points because you did not offer the plant.  </p>","","0","instructions","","","","","","","","","","",""
"learning-instructions","70","429545","0.0-9.0-1.0-0.10","4518","2","23","Female","approach_avoid_spark_v1","""event"",""trial"",""time""
""fullscreenenter"",""1"",""3309""
""fullscreenexit"",""5"",""19809""
""blur"",""18"",""116844""
""focus"",""18"",""116965""
""blur"",""19"",""127931""
""focus"",""19"",""132553""
""blur"",""19"",""134357""
""focus"",""19"",""143608""
""blur"",""20"",""173676""
""focus"",""20"",""185320""
""blur"",""21"",""188617""
""focus"",""21"",""194066""
""blur"",""22"",""197860""
""focus"",""22"",""204120""
","""event"",""trial"",""time""
""blur"",""18"",""116844""
""blur"",""19"",""127931""
""blur"",""19"",""134357""
""blur"",""20"",""173676""
""blur"",""21"",""188617""
""blur"",""22"",""197860""
","""event"",""trial"",""time""
""focus"",""18"",""116965""
""focus"",""19"",""132553""
""focus"",""19"",""143608""
""focus"",""20"",""185320""
""focus"",""21"",""194066""
""focus"",""22"",""204120""
","""event"",""trial"",""time""
""fullscreenenter"",""1"",""3309""
","""event"",""trial"",""time""
""fullscreenexit"",""5"",""19809""
","","","","","","2087.5999999940395","<p> Try to make the best choice for each plant because </p><p> at the end of the game, you will earn bonus money based on how many points you earned. </p>","","0","instructions","","","","","","","","","","",""
"learning-instructions","71","438216","0.0-9.0-1.0-0.11","4518","2","23","Female","approach_avoid_spark_v1","""event"",""trial"",""time""
""fullscreenenter"",""1"",""3309""
""fullscreenexit"",""5"",""19809""
""blur"",""18"",""116844""
""focus"",""18"",""116965""
""blur"",""19"",""127931""
""focus"",""19"",""132553""
""blur"",""19"",""134357""
""focus"",""19"",""143608""
""blur"",""20"",""173676""
""focus"",""20"",""185320""
""blur"",""21"",""188617""
""focus"",""21"",""194066""
""blur"",""22"",""197860""
""focus"",""22"",""204120""
","""event"",""trial"",""time""
""blur"",""18"",""116844""
""blur"",""19"",""127931""
""blur"",""19"",""134357""
""blur"",""20"",""173676""
""blur"",""21"",""188617""
""blur"",""22"",""197860""
","""event"",""trial"",""time""
""focus"",""18"",""116965""
""focus"",""19"",""132553""
""focus"",""19"",""143608""
""focus"",""20"",""185320""
""focus"",""21"",""194066""
""focus"",""22"",""204120""
","""event"",""trial"",""time""
""fullscreenenter"",""1"",""3309""
","""event"",""trial"",""time""
""fullscreenexit"",""5"",""19809""
","","","","","","478.79999999701977","<p> You will have 3 seconds to make each choice. Try to respond before time runs out! </p><p> You will lose 5 points each time you do not make a response. </p>","","0","instructions","","","","","","","","","","",""
"html-keyboard-response","72","438836","0.0-9.0-2.0-0.0","4518","2","23","Female","approach_avoid_spark_v1","""event"",""trial"",""time""
""fullscreenenter"",""1"",""3309""
""fullscreenexit"",""5"",""19809""
""blur"",""18"",""116844""
""focus"",""18"",""116965""
""blur"",""19"",""127931""
""focus"",""19"",""132553""
""blur"",""19"",""134357""
""focus"",""19"",""143608""
""blur"",""20"",""173676""
""focus"",""20"",""185320""
""blur"",""21"",""188617""
""focus"",""21"",""194066""
""blur"",""22"",""197860""
""focus"",""22"",""204120""
","""event"",""trial"",""time""
""blur"",""18"",""116844""
""blur"",""19"",""127931""
""blur"",""19"",""134357""
""blur"",""20"",""173676""
""blur"",""21"",""188617""
""blur"",""22"",""197860""
","""event"",""trial"",""time""
""focus"",""18"",""116965""
""focus"",""19"",""132553""
""focus"",""19"",""143608""
""focus"",""20"",""185320""
""focus"",""21"",""194066""
""focus"",""22"",""204120""
","""event"",""trial"",""time""
""fullscreenenter"",""1"",""3309""
","""event"",""trial"",""time""
""fullscreenexit"",""5"",""19809""
","","","","","","null","<div style=""font-size:60px;"">+</div>","null","","fixation","","","","","","","","","","",""
"aa-learning-trial","73","441855","0.0-9.0-2.0-1.0","4518","2","23","Female","approach_avoid_spark_v1","""event"",""trial"",""time""
""fullscreenenter"",""1"",""3309""
""fullscreenexit"",""5"",""19809""
""blur"",""18"",""116844""
""focus"",""18"",""116965""
""blur"",""19"",""127931""
""focus"",""19"",""132553""
""blur"",""19"",""134357""
""focus"",""19"",""143608""
""blur"",""20"",""173676""
""focus"",""20"",""185320""
""blur"",""21"",""188617""
""focus"",""21"",""194066""
""blur"",""22"",""197860""
""focus"",""22"",""204120""
","""event"",""trial"",""time""
""blur"",""18"",""116844""
""blur"",""19"",""127931""
""blur"",""19"",""134357""
""blur"",""20"",""173676""
""blur"",""21"",""188617""
""blur"",""22"",""197860""
","""event"",""trial"",""time""
""focus"",""18"",""116965""
""focus"",""19"",""132553""
""focus"",""19"",""143608""
""focus"",""20"",""185320""
""focus"",""21"",""194066""
""focus"",""22"",""204120""
","""event"",""trial"",""time""
""fullscreenenter"",""1"",""3309""
","""event"",""trial"",""time""
""fullscreenexit"",""5"",""19809""
","","","","","","1367.9000000059605","images/tree2.png","","","learning","7","0","0","0","tree","plants","2","0","","neutral","0"
"html-keyboard-response","74","442375","0.0-9.0-2.0-0.1","4518","2","23","Female","approach_avoid_spark_v1","""event"",""trial"",""time""
""fullscreenenter"",""1"",""3309""
""fullscreenexit"",""5"",""19809""
""blur"",""18"",""116844""
""focus"",""18"",""116965""
""blur"",""19"",""127931""
""focus"",""19"",""132553""
""blur"",""19"",""134357""
""focus"",""19"",""143608""
""blur"",""20"",""173676""
""focus"",""20"",""185320""
""blur"",""21"",""188617""
""focus"",""21"",""194066""
""blur"",""22"",""197860""
""focus"",""22"",""204120""
","""event"",""trial"",""time""
""blur"",""18"",""116844""
""blur"",""19"",""127931""
""blur"",""19"",""134357""
""blur"",""20"",""173676""
""blur"",""21"",""188617""
""blur"",""22"",""197860""
","""event"",""trial"",""time""
""focus"",""18"",""116965""
""focus"",""19"",""132553""
""focus"",""19"",""143608""
""focus"",""20"",""185320""
""focus"",""21"",""194066""
""focus"",""22"",""204120""
","""event"",""trial"",""time""
""fullscreenenter"",""1"",""3309""
","""event"",""trial"",""time""
""fullscreenexit"",""5"",""19809""
","","","","","","null","<div style=""font-size:60px;"">+</div>","null","","fixation","","","","","","","","","","",""
"aa-learning-trial","75","445386","0.0-9.0-2.0-1.1","4518","2","23","Female","approach_avoid_spark_v1","""event"",""trial"",""time""
""fullscreenenter"",""1"",""3309""
""fullscreenexit"",""5"",""19809""
""blur"",""18"",""116844""
""focus"",""18"",""116965""
""blur"",""19"",""127931""
""focus"",""19"",""132553""
""blur"",""19"",""134357""
""focus"",""19"",""143608""
""blur"",""20"",""173676""
""focus"",""20"",""185320""
""blur"",""21"",""188617""
""focus"",""21"",""194066""
""blur"",""22"",""197860""
""focus"",""22"",""204120""
","""event"",""trial"",""time""
""blur"",""18"",""116844""
""blur"",""19"",""127931""
""blur"",""19"",""134357""
""blur"",""20"",""173676""
""blur"",""21"",""188617""
""blur"",""22"",""197860""
","""event"",""trial"",""time""
""focus"",""18"",""116965""
""focus"",""19"",""132553""
""focus"",""19"",""143608""
""focus"",""20"",""185320""
""focus"",""21"",""194066""
""focus"",""22"",""204120""
","""event"",""trial"",""time""
""fullscreenenter"",""1"",""3309""
","""event"",""trial"",""time""
""fullscreenexit"",""5"",""19809""
","","","","","","997.2000000029802","images/cactus8.png","","","learning","-5","-5","1","1","cactus","plants","2","0","","bad","[-6]"
"html-keyboard-response","76","445895","0.0-9.0-2.0-0.2","4518","2","23","Female","approach_avoid_spark_v1","""event"",""trial"",""time""
""fullscreenenter"",""1"",""3309""
""fullscreenexit"",""5"",""19809""
""blur"",""18"",""116844""
""focus"",""18"",""116965""
""blur"",""19"",""127931""
""focus"",""19"",""132553""
""blur"",""19"",""134357""
""focus"",""19"",""143608""
""blur"",""20"",""173676""
""focus"",""20"",""185320""
""blur"",""21"",""188617""
""focus"",""21"",""194066""
""blur"",""22"",""197860""
""focus"",""22"",""204120""
","""event"",""trial"",""time""
""blur"",""18"",""116844""
""blur"",""19"",""127931""
""blur"",""19"",""134357""
""blur"",""20"",""173676""
""blur"",""21"",""188617""
""blur"",""22"",""197860""
","""event"",""trial"",""time""
""focus"",""18"",""116965""
""focus"",""19"",""132553""
""focus"",""19"",""143608""
""focus"",""20"",""185320""
""focus"",""21"",""194066""
""focus"",""22"",""204120""
","""event"",""trial"",""time""
""fullscreenenter"",""1"",""3309""
","""event"",""trial"",""time""
""fullscreenexit"",""5"",""19809""
","","","","","","null","<div style=""font-size:60px;"">+</div>","null","","fixation","","","","","","","","","","",""
"aa-learning-trial","77","448906","0.0-9.0-2.0-1.2","4518","2","23","Female","approach_avoid_spark_v1","""event"",""trial"",""time""
""fullscreenenter"",""1"",""3309""
""fullscreenexit"",""5"",""19809""
""blur"",""18"",""116844""
""focus"",""18"",""116965""
""blur"",""19"",""127931""
""focus"",""19"",""132553""
""blur"",""19"",""134357""
""focus"",""19"",""143608""
""blur"",""20"",""173676""
""focus"",""20"",""185320""
""blur"",""21"",""188617""
""focus"",""21"",""194066""
""blur"",""22"",""197860""
""focus"",""22"",""204120""
","""event"",""trial"",""time""
""blur"",""18"",""116844""
""blur"",""19"",""127931""
""blur"",""19"",""134357""
""blur"",""20"",""173676""
""blur"",""21"",""188617""
""blur"",""22"",""197860""
","""event"",""trial"",""time""
""focus"",""18"",""116965""
""focus"",""19"",""132553""
""focus"",""19"",""143608""
""focus"",""20"",""185320""
""focus"",""21"",""194066""
""focus"",""22"",""204120""
","""event"",""trial"",""time""
""fullscreenenter"",""1"",""3309""
","""event"",""trial"",""time""
""fullscreenexit"",""5"",""19809""
","","","","","","604.7999999970198","images/tree2.png","","","learning","7","0","0","0","tree","plants","2","0","","neutral","0"
"html-keyboard-response","78","449415","0.0-9.0-2.0-0.3","4518","2","23","Female","approach_avoid_spark_v1","""event"",""trial"",""time""
""fullscreenenter"",""1"",""3309""
""fullscreenexit"",""5"",""19809""
""blur"",""18"",""116844""
""focus"",""18"",""116965""
""blur"",""19"",""127931""
""focus"",""19"",""132553""
""blur"",""19"",""134357""
""focus"",""19"",""143608""
""blur"",""20"",""173676""
""focus"",""20"",""185320""
""blur"",""21"",""188617""
""focus"",""21"",""194066""
""blur"",""22"",""197860""
""focus"",""22"",""204120""
","""event"",""trial"",""time""
""blur"",""18"",""116844""
""blur"",""19"",""127931""
""blur"",""19"",""134357""
""blur"",""20"",""173676""
""blur"",""21"",""188617""
""blur"",""22"",""197860""
","""event"",""trial"",""time""
""focus"",""18"",""116965""
""focus"",""19"",""132553""
""focus"",""19"",""143608""
""focus"",""20"",""185320""
""focus"",""21"",""194066""
""focus"",""22"",""204120""
","""event"",""trial"",""time""
""fullscreenenter"",""1"",""3309""
","""event"",""trial"",""time""
""fullscreenexit"",""5"",""19809""
","","","","","","null","<div style=""font-size:60px;"">+</div>","null","","fixation","","","","","","","","","","",""
"aa-learning-trial","79","452430","0.0-9.0-2.0-1.3","4518","2","23","Female","approach_avoid_spark_v1","""event"",""trial"",""time""
""fullscreenenter"",""1"",""3309""
""fullscreenexit"",""5"",""19809""
""blur"",""18"",""116844""
""focus"",""18"",""116965""
""blur"",""19"",""127931""
""focus"",""19"",""132553""
""blur"",""19"",""134357""
""focus"",""19"",""143608""
""blur"",""20"",""173676""
""focus"",""20"",""185320""
""blur"",""21"",""188617""
""focus"",""21"",""194066""
""blur"",""22"",""197860""
""focus"",""22"",""204120""
","""event"",""trial"",""time""
""blur"",""18"",""116844""
""blur"",""19"",""127931""
""blur"",""19"",""134357""
""blur"",""20"",""173676""
""blur"",""21"",""188617""
""blur"",""22"",""197860""
","""event"",""trial"",""time""
""focus"",""18"",""116965""
""focus"",""19"",""132553""
""focus"",""19"",""143608""
""focus"",""20"",""185320""
""focus"",""21"",""194066""
""focus"",""22"",""204120""
","""event"",""trial"",""time""
""fullscreenenter"",""1"",""3309""
","""event"",""trial"",""time""
""fullscreenexit"",""5"",""19809""
","","","","","","432.40000000596046","images/bush5.png","","","learning","-2","0","0","0","bush","plants","2","0","","good","[4]"
"html-keyboard-response","80","452935","0.0-9.0-2.0-0.4","4518","2","23","Female","approach_avoid_spark_v1","""event"",""trial"",""time""
""fullscreenenter"",""1"",""3309""
""fullscreenexit"",""5"",""19809""
""blur"",""18"",""116844""
""focus"",""18"",""116965""
""blur"",""19"",""127931""
""focus"",""19"",""132553""
""blur"",""19"",""134357""
""focus"",""19"",""143608""
""blur"",""20"",""173676""
""focus"",""20"",""185320""
""blur"",""21"",""188617""
""focus"",""21"",""194066""
""blur"",""22"",""197860""
""focus"",""22"",""204120""
","""event"",""trial"",""time""
""blur"",""18"",""116844""
""blur"",""19"",""127931""
""blur"",""19"",""134357""
""blur"",""20"",""173676""
""blur"",""21"",""188617""
""blur"",""22"",""197860""
","""event"",""trial"",""time""
""focus"",""18"",""116965""
""focus"",""19"",""132553""
""focus"",""19"",""143608""
""focus"",""20"",""185320""
""focus"",""21"",""194066""
""focus"",""22"",""204120""
","""event"",""trial"",""time""
""fullscreenenter"",""1"",""3309""
","""event"",""trial"",""time""
""fullscreenexit"",""5"",""19809""
","","","","","","null","<div style=""font-size:60px;"">+</div>","null","","fixation","","","","","","","","","","",""
"aa-learning-trial","81","455956","0.0-9.0-2.0-1.4","4518","2","23","Female","approach_avoid_spark_v1","""event"",""trial"",""time""
""fullscreenenter"",""1"",""3309""
""fullscreenexit"",""5"",""19809""
""blur"",""18"",""116844""
""focus"",""18"",""116965""
""blur"",""19"",""127931""
""focus"",""19"",""132553""
""blur"",""19"",""134357""
""focus"",""19"",""143608""
""blur"",""20"",""173676""
""focus"",""20"",""185320""
""blur"",""21"",""188617""
""focus"",""21"",""194066""
""blur"",""22"",""197860""
""focus"",""22"",""204120""
","""event"",""trial"",""time""
""blur"",""18"",""116844""
""blur"",""19"",""127931""
""blur"",""19"",""134357""
""blur"",""20"",""173676""
""blur"",""21"",""188617""
""blur"",""22"",""197860""
","""event"",""trial"",""time""
""focus"",""18"",""116965""
""focus"",""19"",""132553""
""focus"",""19"",""143608""
""focus"",""20"",""185320""
""focus"",""21"",""194066""
""focus"",""22"",""204120""
","""event"",""trial"",""time""
""fullscreenenter"",""1"",""3309""
","""event"",""trial"",""time""
""fullscreenexit"",""5"",""19809""
","","","","","","840.4000000059605","images/tree4.png","","","learning","2","0","0","0","tree","plants","2","0","","neutral","0"
"html-keyboard-response","82","456476","0.0-9.0-2.0-0.5","4518","2","23","Female","approach_avoid_spark_v1","""event"",""trial"",""time""
""fullscreenenter"",""1"",""3309""
""fullscreenexit"",""5"",""19809""
""blur"",""18"",""116844""
""focus"",""18"",""116965""
""blur"",""19"",""127931""
""focus"",""19"",""132553""
""blur"",""19"",""134357""
""focus"",""19"",""143608""
""blur"",""20"",""173676""
""focus"",""20"",""185320""
""blur"",""21"",""188617""
""focus"",""21"",""194066""
""blur"",""22"",""197860""
""focus"",""22"",""204120""
","""event"",""trial"",""time""
""blur"",""18"",""116844""
""blur"",""19"",""127931""
""blur"",""19"",""134357""
""blur"",""20"",""173676""
""blur"",""21"",""188617""
""blur"",""22"",""197860""
","""event"",""trial"",""time""
""focus"",""18"",""116965""
""focus"",""19"",""132553""
""focus"",""19"",""143608""
""focus"",""20"",""185320""
""focus"",""21"",""194066""
""focus"",""22"",""204120""
","""event"",""trial"",""time""
""fullscreenenter"",""1"",""3309""
","""event"",""trial"",""time""
""fullscreenexit"",""5"",""19809""
","","","","","","null","<div style=""font-size:60px;"">+</div>","null","","fixation","","","","","","","","","","",""
"aa-learning-trial","83","459486","0.0-9.0-2.0-1.5","4518","2","23","Female","approach_avoid_spark_v1","""event"",""trial"",""time""
""fullscreenenter"",""1"",""3309""
""fullscreenexit"",""5"",""19809""
""blur"",""18"",""116844""
""focus"",""18"",""116965""
""blur"",""19"",""127931""
""focus"",""19"",""132553""
""blur"",""19"",""134357""
""focus"",""19"",""143608""
""blur"",""20"",""173676""
""focus"",""20"",""185320""
""blur"",""21"",""188617""
""focus"",""21"",""194066""
""blur"",""22"",""197860""
""focus"",""22"",""204120""
","""event"",""trial"",""time""
""blur"",""18"",""116844""
""blur"",""19"",""127931""
""blur"",""19"",""134357""
""blur"",""20"",""173676""
""blur"",""21"",""188617""
""blur"",""22"",""197860""
","""event"",""trial"",""time""
""focus"",""18"",""116965""
""focus"",""19"",""132553""
""focus"",""19"",""143608""
""focus"",""20"",""185320""
""focus"",""21"",""194066""
""focus"",""22"",""204120""
","""event"",""trial"",""time""
""fullscreenenter"",""1"",""3309""
","""event"",""trial"",""time""
""fullscreenexit"",""5"",""19809""
","","","","","","489.20000000298023","images/bush8.png","","","learning","9","0","0","0","bush","plants","2","0","","good","[4]"
"html-keyboard-response","84","459995","0.0-9.0-2.0-0.6","4518","2","23","Female","approach_avoid_spark_v1","""event"",""trial"",""time""
""fullscreenenter"",""1"",""3309""
""fullscreenexit"",""5"",""19809""
""blur"",""18"",""116844""
""focus"",""18"",""116965""
""blur"",""19"",""127931""
""focus"",""19"",""132553""
""blur"",""19"",""134357""
""focus"",""19"",""143608""
""blur"",""20"",""173676""
""focus"",""20"",""185320""
""blur"",""21"",""188617""
""focus"",""21"",""194066""
""blur"",""22"",""197860""
""focus"",""22"",""204120""
","""event"",""trial"",""time""
""blur"",""18"",""116844""
""blur"",""19"",""127931""
""blur"",""19"",""134357""
""blur"",""20"",""173676""
""blur"",""21"",""188617""
""blur"",""22"",""197860""
","""event"",""trial"",""time""
""focus"",""18"",""116965""
""focus"",""19"",""132553""
""focus"",""19"",""143608""
""focus"",""20"",""185320""
""focus"",""21"",""194066""
""focus"",""22"",""204120""
","""event"",""trial"",""time""
""fullscreenenter"",""1"",""3309""
","""event"",""trial"",""time""
""fullscreenexit"",""5"",""19809""
","","","","","","null","<div style=""font-size:60px;"">+</div>","null","","fixation","","","","","","","","","","",""
"aa-learning-trial","85","463006","0.0-9.0-2.0-1.6","4518","2","23","Female","approach_avoid_spark_v1","""event"",""trial"",""time""
""fullscreenenter"",""1"",""3309""
""fullscreenexit"",""5"",""19809""
""blur"",""18"",""116844""
""focus"",""18"",""116965""
""blur"",""19"",""127931""
""focus"",""19"",""132553""
""blur"",""19"",""134357""
""focus"",""19"",""143608""
""blur"",""20"",""173676""
""focus"",""20"",""185320""
""blur"",""21"",""188617""
""focus"",""21"",""194066""
""blur"",""22"",""197860""
""focus"",""22"",""204120""
","""event"",""trial"",""time""
""blur"",""18"",""116844""
""blur"",""19"",""127931""
""blur"",""19"",""134357""
""blur"",""20"",""173676""
""blur"",""21"",""188617""
""blur"",""22"",""197860""
","""event"",""trial"",""time""
""focus"",""18"",""116965""
""focus"",""19"",""132553""
""focus"",""19"",""143608""
""focus"",""20"",""185320""
""focus"",""21"",""194066""
""focus"",""22"",""204120""
","""event"",""trial"",""time""
""fullscreenenter"",""1"",""3309""
","""event"",""trial"",""time""
""fullscreenexit"",""5"",""19809""
","","","","","","516.7999999970198","images/tree1.png","","","learning","-6","0","0","0","tree","plants","2","0","","neutral","0"
"html-keyboard-response","86","463516","0.0-9.0-2.0-0.7","4518","2","23","Female","approach_avoid_spark_v1","""event"",""trial"",""time""
""fullscreenenter"",""1"",""3309""
""fullscreenexit"",""5"",""19809""
""blur"",""18"",""116844""
""focus"",""18"",""116965""
""blur"",""19"",""127931""
""focus"",""19"",""132553""
""blur"",""19"",""134357""
""focus"",""19"",""143608""
""blur"",""20"",""173676""
""focus"",""20"",""185320""
""blur"",""21"",""188617""
""focus"",""21"",""194066""
""blur"",""22"",""197860""
""focus"",""22"",""204120""
","""event"",""trial"",""time""
""blur"",""18"",""116844""
""blur"",""19"",""127931""
""blur"",""19"",""134357""
""blur"",""20"",""173676""
""blur"",""21"",""188617""
""blur"",""22"",""197860""
","""event"",""trial"",""time""
""focus"",""18"",""116965""
""focus"",""19"",""132553""
""focus"",""19"",""143608""
""focus"",""20"",""185320""
""focus"",""21"",""194066""
""focus"",""22"",""204120""
","""event"",""trial"",""time""
""fullscreenenter"",""1"",""3309""
","""event"",""trial"",""time""
""fullscreenexit"",""5"",""19809""
","","","","","","null","<div style=""font-size:60px;"">+</div>","null","","fixation","","","","","","","","","","",""
"aa-learning-trial","87","466526","0.0-9.0-2.0-1.7","4518","2","23","Female","approach_avoid_spark_v1","""event"",""trial"",""time""
""fullscreenenter"",""1"",""3309""
""fullscreenexit"",""5"",""19809""
""blur"",""18"",""116844""
""focus"",""18"",""116965""
""blur"",""19"",""127931""
""focus"",""19"",""132553""
""blur"",""19"",""134357""
""focus"",""19"",""143608""
""blur"",""20"",""173676""
""focus"",""20"",""185320""
""blur"",""21"",""188617""
""focus"",""21"",""194066""
""blur"",""22"",""197860""
""focus"",""22"",""204120""
","""event"",""trial"",""time""
""blur"",""18"",""116844""
""blur"",""19"",""127931""
""blur"",""19"",""134357""
""blur"",""20"",""173676""
""blur"",""21"",""188617""
""blur"",""22"",""197860""
","""event"",""trial"",""time""
""focus"",""18"",""116965""
""focus"",""19"",""132553""
""focus"",""19"",""143608""
""focus"",""20"",""185320""
""focus"",""21"",""194066""
