"trial_type","trial_index","time_elapsed","internal_node_id","subject_id","task_condition","age","gender","task_version","interactions","blur_events","focus_events","fullscreenenter_events","fullscreenexit_events","success","timeout","failed_images","failed_audio","failed_video","rt","stimulus","response","button_pressed","task_part","approach_reward","points","key_press","option_selected","stim_cat","task_block","block_condition","block_number","correct","cat_type","mean_cat_reward"
"pavlovia","0","7","0.0-0.0","3827","1","12","Female","approach_avoid_spark_v1","""event"",""trial"",""time""
""fullscreenenter"",""1"",""3781""
","
","
","""event"",""trial"",""time""
""fullscreenenter"",""1"",""3781""
","
","","","","","","","","","","","","","","","","","","","","",""
"fullscreen","1","4742","0.0-1.0","3827","1","12","Female","approach_avoid_spark_v1","""event"",""trial"",""time""
""fullscreenenter"",""1"",""3781""
","
","
","""event"",""trial"",""time""
""fullscreenenter"",""1"",""3781""
","
","true","","","","","","","","","","","","","","","","","","","",""
"preload","2","12094","0.0-2.0","3827","1","12","Female","approach_avoid_spark_v1","""event"",""trial"",""time""
""fullscreenenter"",""1"",""3781""
","
","
","""event"",""trial"",""time""
""fullscreenenter"",""1"",""3781""
","
","true","false","[]","[]","[]","","","","","","","","","","","","","","","",""
"audio-keyboard-response","3","20012","0.0-3.0","3827","1","12","Female","approach_avoid_spark_v1","""event"",""trial"",""time""
""fullscreenenter"",""1"",""3781""
","
","
","""event"",""trial"",""time""
""fullscreenenter"",""1"",""3781""
","
","","","","","","7914.666666666667","audio/beep_loop.wav"," ","","","","","","","","","","","","",""
"audio-button-response","4","22399","0.0-4.0","3827","1","12","Female","approach_avoid_spark_v1","""event"",""trial"",""time""
""fullscreenenter"",""1"",""3781""
","
","
","""event"",""trial"",""time""
""fullscreenenter"",""1"",""3781""
","
","","","","","","2379","audio/shark.wav","4","","","","","","","","","","","","",""
"audio-button-response","5","24915","0.0-5.0","3827","1","12","Female","approach_avoid_spark_v1","""event"",""trial"",""time""
""fullscreenenter"",""1"",""3781""
","
","
","""event"",""trial"",""time""
""fullscreenenter"",""1"",""3781""
","
","","","","","","1504","audio/turtle.wav","1","","","","","","","","","","","","",""
"preload","6","27891","0.0-6.0","3827","1","12","Female","approach_avoid_spark_v1","""event"",""trial"",""time""
""fullscreenenter"",""1"",""3781""
","
","
","""event"",""trial"",""time""
""fullscreenenter"",""1"",""3781""
","
","true","false","[]","[]","[]","","","","","","","","","","","","","","","",""
"html-keyboard-response","7","29701","0.0-7.0","3827","1","12","Female","approach_avoid_spark_v1","""event"",""trial"",""time""
""fullscreenenter"",""1"",""3781""
","
","
","""event"",""trial"",""time""
""fullscreenenter"",""1"",""3781""
","
","","","","","","1806.7999999988824","Welcome to the experiment. Press any key to begin and to advance the instructions."," ","","","","","","","","","","","","",""
"learning-instructions","8","37983","0.0-8.0-0.0-0.0","3827","1","12","Female","approach_avoid_spark_v1","""event"",""trial"",""time""
""fullscreenenter"",""1"",""3781""
","
","
","""event"",""trial"",""time""
""fullscreenenter"",""1"",""3781""
","
","","","","","","1336.7000000011176","<p> Welcome! Today you are going to play 6 different rounds of a decision-making game. </p><p> Use the mouse to click next to continue. </p>","","0","instructions","","","","","","","","","","",""
"learning-instructions","9","41612","0.0-8.0-0.0-0.1","3827","1","12","Female","approach_avoid_spark_v1","""event"",""trial"",""time""
""fullscreenenter"",""1"",""3781""
","
","
","""event"",""trial"",""time""
""fullscreenenter"",""1"",""3781""
","
","","","","","","903.9000000003725","<p> You will start with a practice round to learn the rules. </p>","","0","instructions","","","","","","","","","","",""
"learning-instructions","10","45579","0.0-8.0-0.0-0.2","3827","1","12","Female","approach_avoid_spark_v1","""event"",""trial"",""time""
""fullscreenenter"",""1"",""3781""
","
","
","""event"",""trial"",""time""
""fullscreenenter"",""1"",""3781""
","
","","","","","","509.7000000011176","<p> Your goal in this round is to give out sports equipment to kids. </p></div>","","0","instructions","","","","","","","","","","",""
"learning-instructions","11","55008","0.0-8.0-0.0-0.3","3827","1","12","Female","approach_avoid_spark_v1","""event"",""trial"",""time""
""fullscreenenter"",""1"",""3781""
","
","
","""event"",""trial"",""time""
""fullscreenenter"",""1"",""3781""
","
","","","","","","1878.699999999255","<p> The kids only like some of the equipment.  </p><p> On each turn, you will see a piece of sports equipment.   </p><p> You need to decide whether to give it to the kids or not.  </p>","","0","instructions","","","","","","","","","","",""
"learning-instructions","12","60277","0.0-8.0-0.0-0.4","3827","1","12","Female","approach_avoid_spark_v1","""event"",""trial"",""time""
""fullscreenenter"",""1"",""3781""
","
","
","""event"",""trial"",""time""
""fullscreenenter"",""1"",""3781""
","
","","","","","","516.7999999988824","<p> You can give them the equipment by pressing 1 and choose not to give it to them by pressing 0. </p><br><div class=""choice-instructions-grid""> <div class=""choice-option""><img src=""images/approach.png"" class=""choice-option-img"" stage=""instructions"" position=""0"" ><div class=""choice-option-text""> Press ""1."" </div></div><div class=""choice-option""><img src=""images/avoid.png"" class=""choice-option-img"" stage=""instructions"" position=""1"" ><div class=""choice-option-text""> Press ""0."" </div></div>","","0","instructions","","","","","","","","","","",""
"learning-instructions","13","68170","0.0-8.0-0.0-0.5","3827","1","12","Female","approach_avoid_spark_v1","""event"",""trial"",""time""
""fullscreenenter"",""1"",""3781""
","
","
","""event"",""trial"",""time""
""fullscreenenter"",""1"",""3781""
","
","","","","","","509.80000000074506","<p> If you give them a piece of equipment they like, they will be happy! </p><p> But if you give them a piece of equipment they do not like, they will be sad. </p>","","0","instructions","","","","","","","","","","",""
"learning-instructions","14","79417","0.0-8.0-0.0-0.6","3827","1","12","Female","approach_avoid_spark_v1","""event"",""trial"",""time""
""fullscreenenter"",""1"",""3781""
","
","
","""event"",""trial"",""time""
""fullscreenenter"",""1"",""3781""
","
","","","","","","733.3000000007451","<p> You will earn points based on how you make kids feel. </p><p> If you make them happy, you will WIN anywhere from 1 - 9 points, </p><p> but if you make them sad, you will LOSE anywhere from 1 - 9 points. </p>","","0","instructions","","","","","","","","","","",""
"learning-instructions","15","89631","0.0-8.0-0.0-0.7","3827","1","12","Female","approach_avoid_spark_v1","""event"",""trial"",""time""
""fullscreenenter"",""1"",""3781""
","
","
","""event"",""trial"",""time""
""fullscreenenter"",""1"",""3781""
","
","","","","","","668.4000000003725","<p> You will see how many points you won or lost in the center of the screen. </p><p> Here is what you would see if you won 6 points: </p><p style=""color:green;font-size:50px;font-weight:bolder"">6</p><p style=""color:green"">The text is GREEN because you WON points.</p>","","0","instructions","","","","","","","","","","",""
"learning-instructions","16","95705","0.0-8.0-0.0-0.8","3827","1","12","Female","approach_avoid_spark_v1","""event"",""trial"",""time""
""fullscreenenter"",""1"",""3781""
","
","
","""event"",""trial"",""time""
""fullscreenenter"",""1"",""3781""
","
","","","","","","570.5","<p> And here is what you would see if you lost 4 points: </p><p style=""color:red;font-size:50px;font-weight:bolder"">-4</p><p style=""color:red"">The text is RED because you LOST points. </p>","","0","instructions","","","","","","","","","","",""
"learning-instructions","17","110969","0.0-8.0-0.0-0.9","3827","1","12","Female","approach_avoid_spark_v1","""event"",""trial"",""time""
""fullscreenenter"",""1"",""3781""
","
","
","""event"",""trial"",""time""
""fullscreenenter"",""1"",""3781""
","
","","","","","","556.3000000007451","<p> Some of the equipment will make the kids VERY happy or sad. </p><p> These pieces of equipment will make you win or lose LOTS of points. </p><p> Other pieces of equipment will only make the kids a little happy or sad. </p><p> These pieces of equipment will make you win or lose small amounts of points. </p>","","0","instructions","","","","","","","","","","",""
"learning-instructions","18","135504","0.0-8.0-0.0-0.10","3827","1","12","Female","approach_avoid_spark_v1","""event"",""trial"",""time""
""fullscreenenter"",""1"",""3781""
","
","
","""event"",""trial"",""time""
""fullscreenenter"",""1"",""3781""
","
","","","","","","13908.599999999627","<p> If you choose not to give them the equipment, you will not win or lose any points. </p><p>  However, in the center of the screen, you will see the number of points you WOULD HAVE won or lost if you had given them the equipment. </p>","","0","instructions","","","","","","","","","","",""
"learning-instructions","19","157780","0.0-8.0-0.0-0.11","3827","1","12","Female","approach_avoid_spark_v1","""event"",""trial"",""time""
""fullscreenenter"",""1"",""3781""
","
","
","""event"",""trial"",""time""
""fullscreenenter"",""1"",""3781""
","
","","","","","","756.6000000014901","<p> Here is what you might see if you did not give the equipment to the kids but it would have made them happy: </p><p style=""color:grey; font-size:50px; display: inline-block; border-spacing: 15px; border-width:3px; border-style:solid; border-color:red"">  &nbsp; 7 &nbsp; </p><p> Remember, in this case, you would not win or lose ANY points because you did not give them the equipment.  </p><p style=""color:grey"">The text is GREY because you earned ZERO points. </p><p style=""color:red"">However, choosing to give the kids the equipment would have made you win points. The box around the text is RED because you chose the worse option. </p>","","0","instructions","","","","","","","","","","",""
"learning-instructions","20","179301","0.0-8.0-0.0-0.12","3827","1","12","Female","approach_avoid_spark_v1","""event"",""trial"",""time""
""fullscreenenter"",""1"",""3781""
","
","
","""event"",""trial"",""time""
""fullscreenenter"",""1"",""3781""
","
","","","","","","452.7999999988824","<p> Here is what you might see if you did not give the equipment to the kids but it would have made them sad: </p><p style=""color:grey;font-size:50px; display: inline-block; border-spacing: 15px; border-width:3px; border-style:solid; border-color:green"">  &nbsp; -8 &nbsp; </p><p> Remember, in this case, you would not win or lose ANY points because you did not give them the equipment.  </p><p style=""color:grey"">The text is GREY because you earned ZERO points. </p><p  style=""color:green""> Choosing to give the kids the equipment would have made you lose points. The box around the text is GREEN because you chose the better option.</p>","","0","instructions","","","","","","","","","","",""
"learning-instructions","21","188678","0.0-8.0-0.0-0.13","3827","1","12","Female","approach_avoid_spark_v1","""event"",""trial"",""time""
""fullscreenenter"",""1"",""3781""
","
","
","""event"",""trial"",""time""
""fullscreenenter"",""1"",""3781""
","
","","","","","","523.2000000011176","<p> You will have 3 seconds to make each choice. Try to respond before time runs out! </p><p> You will lose 5 points each time you do not make a response. </p>","","0","instructions","","","","","","","","","","",""
"learning-instructions","22","194634","0.0-8.0-0.0-0.14","3827","1","12","Female","approach_avoid_spark_v1","""event"",""trial"",""time""
""fullscreenenter"",""1"",""3781""
","
","
","""event"",""trial"",""time""
""fullscreenenter"",""1"",""3781""
","
","","","","","","542","<p> This is just a practice round, but in the real game, your bonus payment will depend on your total number of points.","","0","instructions","","","","","","","","","","",""
"learning-instructions","23","200880","0.0-8.0-0.0-0.15","3827","1","12","Female","approach_avoid_spark_v1","""event"",""trial"",""time""
""fullscreenenter"",""1"",""3781""
","
","
","""event"",""trial"",""time""
""fullscreenenter"",""1"",""3781""
","
","","","","","","475.3999999985099","<p> Remember, you can give them the equipment by pressing 1 and choose not to give it to them by pressing 0. </p><br><div class=""choice-instructions-grid""> <div class=""choice-option""><img src=""images/approach.png"" class=""choice-option-img"" stage=""instructions"" position=""0"" ><div class=""choice-option-text""> Press ""1."" </div></div><div class=""choice-option""><img src=""images/avoid.png"" class=""choice-option-img"" stage=""instructions"" position=""1"" ><div class=""choice-option-text""> Press ""0."" </div></div>","","0","instructions","","","","","","","","","","",""
"html-button-response","24","203147","0.0-8.0-1.0","3827","1","12","Female","approach_avoid_spark_v1","""event"",""trial"",""time""
""fullscreenenter"",""1"",""3781""
","
","
","""event"",""trial"",""time""
""fullscreenenter"",""1"",""3781""
","
","","","","","","2162.7000000011176","<p> Ready to practice? </p>","0","","","","","","","","","","","","",""
"html-keyboard-response","25","203759","0.0-8.0-2.0-0.0","3827","1","12","Female","approach_avoid_spark_v1","""event"",""trial"",""time""
""fullscreenenter"",""1"",""3781""
","
","
","""event"",""trial"",""time""
""fullscreenenter"",""1"",""3781""
","
","","","","","","null","<div style=""font-size:60px;"">+</div>","null","","fixation","","","","","","","","","","",""
"aa-learning-trial","26","206767","0.0-8.0-2.0-1.0","3827","1","12","Female","approach_avoid_spark_v1","""event"",""trial"",""time""
""fullscreenenter"",""1"",""3781""
","
","
","""event"",""trial"",""time""
""fullscreenenter"",""1"",""3781""
","
","","","","","","1261.800000000745","images/racket3.png","","","learning","2","2","1","1","practice","practice","practice","-1","","",""
"html-keyboard-response","27","207270","0.0-8.0-2.0-0.1","3827","1","12","Female","approach_avoid_spark_v1","""event"",""trial"",""time""
""fullscreenenter"",""1"",""3781""
","
","
","""event"",""trial"",""time""
""fullscreenenter"",""1"",""3781""
","
","","","","","","null","<div style=""font-size:60px;"">+</div>","null","","fixation","","","","","","","","","","",""
"aa-learning-trial","28","210279","0.0-8.0-2.0-1.1","3827","1","12","Female","approach_avoid_spark_v1","""event"",""trial"",""time""
""fullscreenenter"",""1"",""3781""
","
","
","""event"",""trial"",""time""
""fullscreenenter"",""1"",""3781""
","
","","","","","","1058.0999999996275","images/ball4.png","","","learning","-7","-7","1","1","practice","practice","practice","-1","","",""
"html-keyboard-response","29","210783","0.0-8.0-2.0-0.2","3827","1","12","Female","approach_avoid_spark_v1","""event"",""trial"",""time""
""fullscreenenter"",""1"",""3781""
","
","
","""event"",""trial"",""time""
""fullscreenenter"",""1"",""3781""
","
","","","","","","null","<div style=""font-size:60px;"">+</div>","null","","fixation","","","","","","","","","","",""
"aa-learning-trial","30","213791","0.0-8.0-2.0-1.2","3827","1","12","Female","approach_avoid_spark_v1","""event"",""trial"",""time""
""fullscreenenter"",""1"",""3781""
","
","
","""event"",""trial"",""time""
""fullscreenenter"",""1"",""3781""
","
","","","","","","568.2999999988824","images/ball2.png","","","learning","9","0","0","0","practice","practice","practice","-1","","",""
"html-keyboard-response","31","214295","0.0-8.0-2.0-0.3","3827","1","12","Female","approach_avoid_spark_v1","""event"",""trial"",""time""
""fullscreenenter"",""1"",""3781""
","
","
","""event"",""trial"",""time""
""fullscreenenter"",""1"",""3781""
","
","","","","","","null","<div style=""font-size:60px;"">+</div>","null","","fixation","","","","","","","","","","",""
"aa-learning-trial","32","217303","0.0-8.0-2.0-1.3","3827","1","12","Female","approach_avoid_spark_v1","""event"",""trial"",""time""
""fullscreenenter"",""1"",""3781""
","
","
","""event"",""trial"",""time""
""fullscreenenter"",""1"",""3781""
","
","","","","","","264.40000000037253","images/racket2.png","","","learning","-1","-1","1","1","practice","practice","practice","-1","","",""
"html-keyboard-response","33","217806","0.0-8.0-2.0-0.4","3827","1","12","Female","approach_avoid_spark_v1","""event"",""trial"",""time""
""fullscreenenter"",""1"",""3781""
","
","
","""event"",""trial"",""time""
""fullscreenenter"",""1"",""3781""
","
","","","","","","null","<div style=""font-size:60px;"">+</div>","null","","fixation","","","","","","","","","","",""
"aa-learning-trial","34","220814","0.0-8.0-2.0-1.4","3827","1","12","Female","approach_avoid_spark_v1","""event"",""trial"",""time""
""fullscreenenter"",""1"",""3781""
","
","
","""event"",""trial"",""time""
""fullscreenenter"",""1"",""3781""
","
","","","","","","103.40000000037253","images/ball1.png","","","learning","-3","0","0","0","practice","practice","practice","-1","","",""
"html-keyboard-response","35","221318","0.0-8.0-2.0-0.5","3827","1","12","Female","approach_avoid_spark_v1","""event"",""trial"",""time""
""fullscreenenter"",""1"",""3781""
","
","
","""event"",""trial"",""time""
""fullscreenenter"",""1"",""3781""
","
","","","","","","null","<div style=""font-size:60px;"">+</div>","null","","fixation","","","","","","","","","","",""
"aa-learning-trial","36","224327","0.0-8.0-2.0-1.5","3827","1","12","Female","approach_avoid_spark_v1","""event"",""trial"",""time""
""fullscreenenter"",""1"",""3781""
","
","
","""event"",""trial"",""time""
""fullscreenenter"",""1"",""3781""
","
","","","","","","356.5","images/ball1.png","","","learning","-1","-1","1","1","practice","practice","practice","-1","","",""
"html-keyboard-response","37","224830","0.0-8.0-2.0-0.6","3827","1","12","Female","approach_avoid_spark_v1","""event"",""trial"",""time""
""fullscreenenter"",""1"",""3781""
","
","
","""event"",""trial"",""time""
""fullscreenenter"",""1"",""3781""
","
","","","","","","null","<div style=""font-size:60px;"">+</div>","null","","fixation","","","","","","","","","","",""
"aa-learning-trial","38","227839","0.0-8.0-2.0-1.6","3827","1","12","Female","approach_avoid_spark_v1","""event"",""trial"",""time""
""fullscreenenter"",""1"",""3781""
","
","
","""event"",""trial"",""time""
""fullscreenenter"",""1"",""3781""
","
","","","","","","421.40000000037253","images/racket2.png","","","learning","-2","0","0","0","practice","practice","practice","-1","","",""
"html-keyboard-response","39","228342","0.0-8.0-2.0-0.7","3827","1","12","Female","approach_avoid_spark_v1","""event"",""trial"",""time""
""fullscreenenter"",""1"",""3781""
","
","
","""event"",""trial"",""time""
""fullscreenenter"",""1"",""3781""
","
","","","","","","null","<div style=""font-size:60px;"">+</div>","null","","fixation","","","","","","","","","","",""
"aa-learning-trial","40","231351","0.0-8.0-2.0-1.7","3827","1","12","Female","approach_avoid_spark_v1","""event"",""trial"",""time""
""fullscreenenter"",""1"",""3781""
","
","
","""event"",""trial"",""time""
""fullscreenenter"",""1"",""3781""
","
","","","","","","878.6000000014901","images/racket4.png","","","learning","-2","-2","1","1","practice","practice","practice","-1","","",""
"html-keyboard-response","41","231854","0.0-8.0-2.0-0.8","3827","1","12","Female","approach_avoid_spark_v1","""event"",""trial"",""time""
""fullscreenenter"",""1"",""3781""
","
","
","""event"",""trial"",""time""
""fullscreenenter"",""1"",""3781""
","
","","","","","","null","<div style=""font-size:60px;"">+</div>","null","","fixation","","","","","","","","","","",""
"aa-learning-trial","42","234863","0.0-8.0-2.0-1.8","3827","1","12","Female","approach_avoid_spark_v1","""event"",""trial"",""time""
""fullscreenenter"",""1"",""3781""
","
","
","""event"",""trial"",""time""
""fullscreenenter"",""1"",""3781""
","
","","","","","","450.40000000037253","images/racket1.png","","","learning","5","0","0","0","practice","practice","practice","-1","","",""
"html-keyboard-response","43","235366","0.0-8.0-2.0-0.9","3827","1","12","Female","approach_avoid_spark_v1","""event"",""trial"",""time""
""fullscreenenter"",""1"",""3781""
","
","
","""event"",""trial"",""time""
""fullscreenenter"",""1"",""3781""
","
","","","","","","null","<div style=""font-size:60px;"">+</div>","null","","fixation","","","","","","","","","","",""
"aa-learning-trial","44","238375","0.0-8.0-2.0-1.9","3827","1","12","Female","approach_avoid_spark_v1","""event"",""trial"",""time""
""fullscreenenter"",""1"",""3781""
","
","
","""event"",""trial"",""time""
""fullscreenenter"",""1"",""3781""
","
","","","","","","481.80000000074506","images/racket2.png","","","learning","9","9","1","1","practice","practice","practice","-1","","",""
"html-keyboard-response","45","238879","0.0-8.0-2.0-0.10","3827","1","12","Female","approach_avoid_spark_v1","""event"",""trial"",""time""
""fullscreenenter"",""1"",""3781""
","
","
","""event"",""trial"",""time""
""fullscreenenter"",""1"",""3781""
","
","","","","","","null","<div style=""font-size:60px;"">+</div>","null","","fixation","","","","","","","","","","",""
"aa-learning-trial","46","241886","0.0-8.0-2.0-1.10","3827","1","12","Female","approach_avoid_spark_v1","""event"",""trial"",""time""
""fullscreenenter"",""1"",""3781""
","
","
","""event"",""trial"",""time""
""fullscreenenter"",""1"",""3781""
","
","","","","","","741.5","images/racket1.png","","","learning","4","4","1","1","practice","practice","practice","-1","","",""
"html-keyboard-response","47","242390","0.0-8.0-2.0-0.11","3827","1","12","Female","approach_avoid_spark_v1","""event"",""trial"",""time""
""fullscreenenter"",""1"",""3781""
","
","
","""event"",""trial"",""time""
""fullscreenenter"",""1"",""3781""
","
","","","","","","null","<div style=""font-size:60px;"">+</div>","null","","fixation","","","","","","","","","","",""
"aa-learning-trial","48","245398","0.0-8.0-2.0-1.11","3827","1","12","Female","approach_avoid_spark_v1","""event"",""trial"",""time""
""fullscreenenter"",""1"",""3781""
","
","
","""event"",""trial"",""time""
""fullscreenenter"",""1"",""3781""
","
","","","","","","386.19999999925494","images/ball2.png","","","learning","3","0","0","0","practice","practice","practice","-1","","",""
"html-button-response","49","247911","0.0-8.0-3.0","3827","1","12","Female","approach_avoid_spark_v1","""event"",""trial"",""time""
""fullscreenenter"",""1"",""3781""
","
","
","""event"",""trial"",""time""
""fullscreenenter"",""1"",""3781""
","
","","","","","","2509.5","<p> You earned 4 points in the practice round! </p>","0","","break","","","","","","","","","","",""
"learning-instructions","50","255578","0.0-8.0-4.0-0.0","3827","1","12","Female","approach_avoid_spark_v1","""event"",""trial"",""time""
""fullscreenenter"",""1"",""3781""
","
","
","""event"",""trial"",""time""
""fullscreenenter"",""1"",""3781""
","
","","","","","","1614.199999999255","<p> It's almost time to start the real game. </p><p> Before you start, we're going to ask you a few questions about how the game works. </p>","","0","instructions","","","","","","","","","","",""
"preload","51","256718","0.0-8.0-5.0","3827","1","12","Female","approach_avoid_spark_v1","""event"",""trial"",""time""
""fullscreenenter"",""1"",""3781""
","
","
","""event"",""trial"",""time""
""fullscreenenter"",""1"",""3781""
","
","true","false","[]","[]","[]","","","","","","","","","","","","","","","",""
"comp-q","52","263148","0.0-8.0-6.0-0.0","3827","1","12","Female","approach_avoid_spark_v1","""event"",""trial"",""time""
""fullscreenenter"",""1"",""3781""
","
","
","""event"",""trial"",""time""
""fullscreenenter"",""1"",""3781""
","
","","","","","","1433","<p> <b> True or False? </b> </p><p> If you see a number in GREY, that means you earned that many points. </p>","","1","comp_question","","","","","","","","","true","",""
"comp-q","53","272855","0.0-8.0-6.0-1.0","3827","1","12","Female","approach_avoid_spark_v1","""event"",""trial"",""time""
""fullscreenenter"",""1"",""3781""
","
","
","""event"",""trial"",""time""
""fullscreenenter"",""1"",""3781""
","
","","","","","","1353.7999999988824","<p><b> That's right! </b> If you see a grey number, it means you earned ZERO points. <br> The grey numbers show the points you WOULD HAVE earned if you had made the other choice. </p>","","0","comp_answer","","","","","","","","","","",""
"comp-q","54","278197","0.0-8.0-7.0-0.0","3827","1","12","Female","approach_avoid_spark_v1","""event"",""trial"",""time""
""fullscreenenter"",""1"",""3781""
","
","
","""event"",""trial"",""time""
""fullscreenenter"",""1"",""3781""
","
","","","","","","650.9000000003725","<p> <b> True or False? </b> </p><p> You will have as much time as you want to make each choice. </p>","","1","comp_question","","","","","","","","","true","",""
"comp-q","55","283857","0.0-8.0-7.0-1.0","3827","1","12","Female","approach_avoid_spark_v1","""event"",""trial"",""time""
""fullscreenenter"",""1"",""3781""
","
","
","""event"",""trial"",""time""
""fullscreenenter"",""1"",""3781""
","
","","","","","","1619.7999999988824","<p> <b> That's right! </b> You will only have 3 seconds to make each choice. </p>","","0","comp_answer","","","","","","","","","","",""
"comp-q","56","289050","0.0-8.0-8.0-0.0","3827","1","12","Female","approach_avoid_spark_v1","""event"",""trial"",""time""
""fullscreenenter"",""1"",""3781""
","
","
","""event"",""trial"",""time""
""fullscreenenter"",""1"",""3781""
","
","","","","","","543.1999999992549","<p> <b> True or False? </b> </p><p> You should use the '1' and '0' keys to make your choices. </p>","","0","comp_question","","","","","","","","","true","",""
"comp-q","57","294928","0.0-8.0-8.0-1.0","3827","1","12","Female","approach_avoid_spark_v1","""event"",""trial"",""time""
""fullscreenenter"",""1"",""3781""
","
","
","""event"",""trial"",""time""
""fullscreenenter"",""1"",""3781""
","
","","","","","","1272.4000000003725","<p> <b> That's right! </b> You should use the '1' and '0' keys to make each choice. </p>","","0","comp_answer","","","","","","","","","","",""
"learning-instructions","58","302660","0.0-8.0-9.0-0.0","3827","1","12","Female","approach_avoid_spark_v1","""event"",""trial"",""time""
""fullscreenenter"",""1"",""3781""
","
","
","""event"",""trial"",""time""
""fullscreenenter"",""1"",""3781""
","
","","","","","","1466.4000000003725","<p> It's now time to start the real game. </p>Do your best, because the points you earn in the next rounds will influence your bonus payment. </p>","","0","instructions","","","","","","","","","","",""
"preload","59","302801","0.0-9.0-0.0","3827","1","12","Female","approach_avoid_spark_v1","""event"",""trial"",""time""
""fullscreenenter"",""1"",""3781""
","
","
","""event"",""trial"",""time""
""fullscreenenter"",""1"",""3781""
","
","true","false","[]","[]","[]","","","","","","","","","","","","","","","",""
"learning-instructions","60","308323","0.0-9.0-1.0-0.0","3827","1","12","Female","approach_avoid_spark_v1","""event"",""trial"",""time""
""fullscreenenter"",""1"",""3781""
","
","
","""event"",""trial"",""time""
""fullscreenenter"",""1"",""3781""
","
","","","","","","1500.2000000011176","<p> Your goal in this round is to take care of lots of farm animals. </p></div>","","0","instructions","","","","","","","","","","",""
"learning-instructions","61","318881","0.0-9.0-1.0-0.1","3827","1","12","Female","approach_avoid_spark_v1","""event"",""trial"",""time""
""fullscreenenter"",""1"",""3781""
","
","
","""event"",""trial"",""time""
""fullscreenenter"",""1"",""3781""
","
","","","","","","864.7999999988824","<p> Some farm animals are hungry, while other farm animals are already full.  </p><p> On each turn, you will see a farm animal.   </p><p> You need to decide whether to feed it or not.  </p>","","0","instructions","","","","","","","","","","",""
"learning-instructions","62","325261","0.0-9.0-1.0-0.2","3827","1","12","Female","approach_avoid_spark_v1","""event"",""trial"",""time""
""fullscreenenter"",""1"",""3781""
","
","
","""event"",""trial"",""time""
""fullscreenenter"",""1"",""3781""
","
","","","","","","750.5","<p> You can feed the farm animal by pressing 1 and leave the farm animal alone by pressing 0. </p><br><div class=""choice-instructions-grid""> <div class=""choice-option""><img src=""images/approach.png"" class=""choice-option-img"" stage=""instructions"" position=""0"" ><div class=""choice-option-text""> Press ""1."" </div></div><div class=""choice-option""><img src=""images/avoid.png"" class=""choice-option-img"" stage=""instructions"" position=""1"" ><div class=""choice-option-text""> Press ""0."" </div></div>","","0","instructions","","","","","","","","","","",""
"learning-instructions","63","335182","0.0-9.0-1.0-0.3","3827","1","12","Female","approach_avoid_spark_v1","""event"",""trial"",""time""
""fullscreenenter"",""1"",""3781""
","
","
","""event"",""trial"",""time""
""fullscreenenter"",""1"",""3781""
","
","","","","","","703.5","<p> If you feed a hungry farm animal, you will make it feel satisfied! </p><p> But if you feed the farm animal and it was already full, you will make it feel sick. </p>","","0","instructions","","","","","","","","","","",""
"learning-instructions","64","347780","0.0-9.0-1.0-0.4","3827","1","12","Female","approach_avoid_spark_v1","""event"",""trial"",""time""
""fullscreenenter"",""1"",""3781""
","
","
","""event"",""trial"",""time""
""fullscreenenter"",""1"",""3781""
","
","","","","","","582.9000000003725","<p> You will earn points based on how you made the farm animal feel. </p><p> If you made it satisfied, you will WIN anywhere from 1 - 9 points, </p><p> but if you made it sick, you will LOSE anywhere from 1 - 9 points. </p>","","0","instructions","","","","","","","","","","",""
"learning-instructions","65","355751","0.0-9.0-1.0-0.5","3827","1","12","Female","approach_avoid_spark_v1","""event"",""trial"",""time""
""fullscreenenter"",""1"",""3781""
","
","
","""event"",""trial"",""time""
""fullscreenenter"",""1"",""3781""
","
","","","","","","728","<p> You will see how many points you won or lost in the center of the screen. </p><p> Here is what you would see if you won 5 points: </p><p style=""color:green;font-size:50px;font-weight:bolder"">5</p>","","0","instructions","","","","","","","","","","",""
"learning-instructions","66","359821","0.0-9.0-1.0-0.6","3827","1","12","Female","approach_avoid_spark_v1","""event"",""trial"",""time""
""fullscreenenter"",""1"",""3781""
","
","
","""event"",""trial"",""time""
""fullscreenenter"",""1"",""3781""
","
","","","","","","842.8999999985099","<p> And here is what you would see if you lost 3 points: </p><p style=""color:red;font-size:50px;font-weight:bolder"">-3</p>","","0","instructions","","","","","","","","","","",""
"learning-instructions","67","375770","0.0-9.0-1.0-0.7","3827","1","12","Female","approach_avoid_spark_v1","""event"",""trial"",""time""
""fullscreenenter"",""1"",""3781""
","
","
","""event"",""trial"",""time""
""fullscreenenter"",""1"",""3781""
","
","","","","","","843.5","<p> Some farm animals will become very satisfied or very sick. </p><p> These farm animals will make you win or lose LOTS of points. </p><p> Other farm animals have less strong feelings. </p><p> These farm animals will make you win or lose small amounts of points. </p>","","0","instructions","","","","","","","","","","",""
"learning-instructions","68","388276","0.0-9.0-1.0-0.8","3827","1","12","Female","approach_avoid_spark_v1","""event"",""trial"",""time""
""fullscreenenter"",""1"",""3781""
","
","
","""event"",""trial"",""time""
""fullscreenenter"",""1"",""3781""
","
","","","","","","789.3000000007451","<p> If you choose to leave the farm animal alone, you will not win or lose any points. </p><p>  However, in the center of the screen, you will see the number of points you WOULD HAVE won or lost if you had fed the farm animal. </p>","","0","instructions","","","","","","","","","","",""
"learning-instructions","69","400316","0.0-9.0-1.0-0.9","3827","1","12","Female","approach_avoid_spark_v1","""event"",""trial"",""time""
""fullscreenenter"",""1"",""3781""
","
","
","""event"",""trial"",""time""
""fullscreenenter"",""1"",""3781""
","
","","","","","","953","<p> Here is what you might see if you did not feed the farm animal but the animal was hungry: </p><p style=""color:grey; font-size:50px; display: inline-block; border-spacing: 15px; border-width:3px; border-style:solid; border-color:red"">  &nbsp; 6 &nbsp; </p><p> Remember, in this case, you would not win or lose ANY points because you did not feed the farm animal.  </p>","","0","instructions","","","","","","","","","","",""
"learning-instructions","70","408314","0.0-9.0-1.0-0.10","3827","1","12","Female","approach_avoid_spark_v1","""event"",""trial"",""time""
""fullscreenenter"",""1"",""3781""
","
","
","""event"",""trial"",""time""
""fullscreenenter"",""1"",""3781""
","
","","","","","","485.59999999962747","<p> Try to make the best choice for each farm animal because </p><p> at the end of the game, you will earn bonus money based on how many points you earned. </p>","","0","instructions","","","","","","","","","","",""
"learning-instructions","71","417346","0.0-9.0-1.0-0.11","3827","1","12","Female","approach_avoid_spark_v1","""event"",""trial"",""time""
""fullscreenenter"",""1"",""3781""
","
","
","""event"",""trial"",""time""
""fullscreenenter"",""1"",""3781""
","
","","","","","","849.2000000011176","<p> You will have 3 seconds to make each choice. Try to respond before time runs out! </p><p> You will lose 5 points each time you do not make a response. </p>","","0","instructions","","","","","","","","","","",""
"html-keyboard-response","72","417950","0.0-9.0-2.0-0.0","3827","1","12","Female","approach_avoid_spark_v1","""event"",""trial"",""time""
""fullscreenenter"",""1"",""3781""
","
","
","""event"",""trial"",""time""
""fullscreenenter"",""1"",""3781""
","
","","","","","","null","<div style=""font-size:60px;"">+</div>","null","","fixation","","","","","","","","","","",""
"aa-learning-trial","73","420958","0.0-9.0-2.0-1.0","3827","1","12","Female","approach_avoid_spark_v1","""event"",""trial"",""time""
""fullscreenenter"",""1"",""3781""
","
","
","""event"",""trial"",""time""
""fullscreenenter"",""1"",""3781""
","
","","","","","","1244.8999999985099","images/goat2.png","","","learning","5","5","1","1","goat","animals","1","0","","good","[6]"
"html-keyboard-response","74","421463","0.0-9.0-2.0-0.1","3827","1","12","Female","approach_avoid_spark_v1","""event"",""trial"",""time""
""fullscreenenter"",""1"",""3781""
","
","
","""event"",""trial"",""time""
""fullscreenenter"",""1"",""3781""
","
","","","","","","null","<div style=""font-size:60px;"">+</div>","null","","fixation","","","","","","","","","","",""
"aa-learning-trial","75","424470","0.0-9.0-2.0-1.1","3827","1","12","Female","approach_avoid_spark_v1","""event"",""trial"",""time""
""fullscreenenter"",""1"",""3781""
","
","
","""event"",""trial"",""time""
""fullscreenenter"",""1"",""3781""
","
","","","","","","1439.0999999996275","images/sheep2.png","","","learning","-4","0","0","0","sheep","animals","1","0","","bad","[-6]"
"html-keyboard-response","76","424974","0.0-9.0-2.0-0.2","3827","1","12","Female","approach_avoid_spark_v1","""event"",""trial"",""time""
""fullscreenenter"",""1"",""3781""
","
","
","""event"",""trial"",""time""
""fullscreenenter"",""1"",""3781""
","
","","","","","","null","<div style=""font-size:60px;"">+</div>","null","","fixation","","","","","","","","","","",""
"aa-learning-trial","77","427983","0.0-9.0-2.0-1.2","3827","1","12","Female","approach_avoid_spark_v1","""event"",""trial"",""time""
""fullscreenenter"",""1"",""3781""
","
","
","""event"",""trial"",""time""
""fullscreenenter"",""1"",""3781""
","
","","","","","","1313.0999999996275","images/goat2.png","","","learning","5","0","0","0","goat","animals","1","0","","good","[6]"
"html-keyboard-response","78","428486","0.0-9.0-2.0-0.3","3827","1","12","Female","approach_avoid_spark_v1","""event"",""trial"",""time""
""fullscreenenter"",""1"",""3781""
","
","
","""event"",""trial"",""time""
""fullscreenenter"",""1"",""3781""
","
","","","","","","null","<div style=""font-size:60px;"">+</div>","null","","fixation","","","","","","","","","","",""
"aa-learning-trial","79","431495","0.0-9.0-2.0-1.3","3827","1","12","Female","approach_avoid_spark_v1","""event"",""trial"",""time""
""fullscreenenter"",""1"",""3781""
","
","
","""event"",""trial"",""time""
""fullscreenenter"",""1"",""3781""
","
","","","","","","1233.2000000011176","images/goat4.png","","","learning","5","5","1","1","goat","animals","1","0","","good","[6]"
"html-keyboard-response","80","431998","0.0-9.0-2.0-0.4","3827","1","12","Female","approach_avoid_spark_v1","""event"",""trial"",""time""
""fullscreenenter"",""1"",""3781""
","
","
","""event"",""trial"",""time""
""fullscreenenter"",""1"",""3781""
","
","","","","","","null","<div style=""font-size:60px;"">+</div>","null","","fixation","","","","","","","","","","",""
"aa-learning-trial","81","435006","0.0-9.0-2.0-1.4","3827","1","12","Female","approach_avoid_spark_v1","""event"",""trial"",""time""
""fullscreenenter"",""1"",""3781""
","
","
","""event"",""trial"",""time""
""fullscreenenter"",""1"",""3781""
","
","","","","","","842.7999999988824","images/sheep2.png","","","learning","-5","-5","1","1","sheep","animals","1","0","","bad","[-6]"
"html-keyboard-response","82","435510","0.0-9.0-2.0-0.5","3827","1","12","Female","approach_avoid_spark_v1","""event"",""trial"",""time""
""fullscreenenter"",""1"",""3781""
","
","
","""event"",""trial"",""time""
""fullscreenenter"",""1"",""3781""
","
","","","","","","null","<div style=""font-size:60px;"">+</div>","null","","fixation","","","","","","","","","","",""
"aa-learning-trial","83","438519","0.0-9.0-2.0-1.5","3827","1","12","Female","approach_avoid_spark_v1","""event"",""trial"",""time""
""fullscreenenter"",""1"",""3781""
","
","
","""event"",""trial"",""time""
""fullscreenenter"",""1"",""3781""
","
","","","","","","688.8000000007451","images/sheep5.png","","","learning","-6","-6","1","1","sheep","animals","1","0","","bad","[-6]"
"html-keyboard-response","84","439022","0.0-9.0-2.0-0.6","3827","1","12","Female","approach_avoid_spark_v1","""event"",""trial"",""time""
""fullscreenenter"",""1"",""3781""
","
","
","""event"",""trial"",""time""
""fullscreenenter"",""1"",""3781""
","
","","","","","","null","<div style=""font-size:60px;"">+</div>","null","","fixation","","","","","","","","","","",""
"aa-learning-trial","85","442030","0.0-9.0-2.0-1.6","3827","1","12","Female","approach_avoid_spark_v1","""event"",""trial"",""time""
""fullscreenenter"",""1"",""3781""
","
","
","""event"",""trial"",""time""
""fullscreenenter"",""1"",""3781""
","
","","","","","","1136.4000000003725","images/cow1.png","","","learning","[-1]","0","0","0","cow","animals","1","0","","neutral","0"
"html-keyboard-response","86","442534","0.0-9.0-2.0-0.7","3827","1","12","Female","approach_avoid_spark_v1","""event"",""trial"",""time""
""fullscreenenter"",""1"",""3781""
","
","
","""event"",""trial"",""time""
""fullscreenenter"",""1"",""3781""
","
","","","","","","null","<div style=""font-size:60px;"">+</div>","null","","fixation","","","","","","","","","","",""
"aa-learning-trial","87","445543","0.0-9.0-2.0-1.7","3827","1","12","Female","approach_avoid_spark_v1","""event"",""trial"",""time""
""fullscreenenter"",""1"",""3781""
","
","
","""event"",""trial"",""time""
""fullscreenenter"",""1"",""3781""
","
","","","","","","699.3000000007451","images/cow2.png","","","learning","1","1","1","1","cow","animals","1","0","","neutral","0"
"html-keyboard-response","88","446046","0.0-9.0-2.0-0.8","3827","1","12","Female","approach_avoid_spark_v1","""event"",""trial"",""time""
""fullscreenenter"",""1"",""3781""
","
","
","""event"",""trial"",""time""
""fullscreenenter"",""1"",""3781""
","
","","","","","","null","<div style=""font-size:60px;"">+</div>","null","","fixation","","","","","","","","","","",""
"aa-learning-trial","89","449055","0.0-9.0-2.0-1.8","3827","1","12","Female","approach_avoid_spark_v1","""event"",""trial"",""time""
""fullscreenenter"",""1"",""3781""
","
","
","""event"",""trial"",""time""
""fullscreenenter"",""1"",""3781""
","
","","","","","","1711.699999999255","images/cow2.png","","","learning","2","0","0","0","cow","animals","1","0","","neutral","0"
"html-keyboard-response","90","449559","0.0-9.0-2.0-0.9","3827","1","12","Female","approach_avoid_spark_v1","""event"",""trial"",""time""
""fullscreenenter"",""1"",""3781""
","
","
","""event"",""trial"",""time""
""fullscreenenter"",""1"",""3781""
","
","","","","","","null","<div style=""font-size:60px;"">+</div>","null","","fixation","","","","","","","","","","",""
"aa-learning-trial","91","452567","0.0-9.0-2.0-1.9","3827","1","12","Female","approach_avoid_spark_v1","""event"",""trial"",""time""
""fullscreenenter"",""1"",""3781""
","
","
","""event"",""trial"",""time""
""fullscreenenter"",""1"",""3781""
","
","","","","","","1100.1000000014901","images/cow1.png","","","learning","1","1","1","1","cow","animals","1","0","","neutral","0"
"html-keyboard-response","92","453070","0.0-9.0-2.0-0.10","3827","1","12","Female","approach_avoid_spark_v1","""event"",""trial"",""time""
""fullscreenenter"",""1"",""3781""
","
","
","""event"",""trial"",""time""
""fullscreenenter"",""1"",""3781""
","
","","","","","","null","<div style=""font-size:60px;"">+</div>","null","","fixation","","","","","","","","","","",""
"aa-learning-trial","93","456079","0.0-9.0-2.0-1.10","3827","1","12","Female","approach_avoid_spark_v1","""event"",""trial"",""time""
""fullscreenenter"",""1"",""3781""
","
","
","""event"",""trial"",""time""
""fullscreenenter"",""1"",""3781""
","
","","","","","","908.5999999996275","images/goat4.png","","","learning","6","6","1","1","goat","animals","1","0","","good","[6]"
"html-keyboard-response","94","456582","0.0-9.0-2.0-0.11","3827","1","12","Female","approach_avoid_spark_v1","""event"",""trial"",""time""
""fullscreenenter"",""1"",""3781""
","
","
","""event"",""trial"",""time""
""fullscreenenter"",""1"",""3781""
","
","","","","","","null","<div style=""font-size:60px;"">+</div>","null","","fixation","","","","","","","","","","",""
"aa-learning-trial","95","459591","0.0-9.0-2.0-1.11","3827","1","12","Female","approach_avoid_spark_v1","""event"",""trial"",""time""
""fullscreenenter"",""1"",""3781""
","
","
","""event"",""trial"",""time""
""fullscreenenter"",""1"",""3781""
","
","","","","","","996.7000000011176","images/goat5.png","","","learning","6","6","1","1","goat","animals","1","0","","good","[6]"
"html-keyboard-response","96","460094","0.0-9.0-2.0-0.12","3827","1","12","Female","approach_avoid_spark_v1","""event"",""trial"",""time""
""fullscreenenter"",""1"",""3781""
","
","
","""event"",""trial"",""time""
""fullscreenenter"",""1"",""3781""
","
","","","","","","null","<div style=""font-size:60px;"">+</div>","null","","fixation","","","","","","","","","","",""
"aa-learning-trial","97","463103","0.0-9.0-2.0-1.12","3827","1","12","Female","approach_avoid_spark_v1","""event"",""trial"",""time""
""fullscreenenter"",""1"",""3781""
","
","
","""event"",""trial"",""time""
""fullscreenenter"",""1"",""3781""
","
","","","","","","953","images/sheep6.png","","","learning","-4","0","0","0","sheep","animals","1","0","","bad","[-6]"
"html-keyboard-response","98","463606","0.0-9.0-2.0-0.13","3827","1","12","Female","approach_avoid_spark_v1","""event"",""trial"",""time""
""fullscreenenter"",""1"",""3781""
","
","
","""event"",""trial"",""time""
""fullscreenenter"",""1"",""3781""
","
","","","","","","null","<div style=""font-size:60px;"">+</div>","null","","fixation","","","","","","","","","","",""
"aa-learning-trial","99","466615","0.0-9.0-2.0-1.13","3827","1","12","Female","approach_avoid_spark_v1","""event"",""trial"",""time""
""fullscreenenter"",""1"",""3781""
","
","
","""event"",""trial"",""time""
""fullscreenenter"",""1"",""3781""
","
","","","","","","806.6999999992549","images/sheep5.png","","","learning","-5","-5","1","1","sheep","animals","1","0","","bad","[-6]"
"html-keyboard-response","100","467118","0.0-9.0-2.0-0.14","3827","1","12","Female","approach_avoid_spark_v1","""event"",""trial"",""time""
""fullscreenenter"",""1"",""3781""
","
","
","""event"",""trial"",""time""
""fullscreenenter"",""1"",""3781""
","
","","","","","","null","<div style=""font-size:60px;"">+</div>","null","","fixation","","","","","","","","","","",""
"aa-learning-trial","101","470127","0.0-9.0-2.0-1.14","3827","1","12","Female","approach_avoid_spark_v1","""event"",""trial"",""time""
""fullscreenenter"",""1"",""3781""
","
","
","""event"",""trial"",""time""
""fullscreenenter"",""1"",""3781""
","
","","","","","","1519","images/cow3.png","","","learning","[-1]","0","0","0","cow","animals","1","0","","neutral","0"
"html-keyboard-response","102","470630","0.0-9.0-2.0-0.15","3827","1","12","Female","approach_avoid_spark_v1","""event"",""trial"",""time""
""fullscreenenter"",""1"",""3781""
","
","
","""event"",""trial"",""time""
""fullscreenenter"",""1"",""3781""
","
","","","","","","null","<div style=""font-size:60px;"">+</div>","null","","fixation","","","","","","","","","","",""
"aa-learning-trial","103","473639","0.0-9.0-2.0-1.15","3827","1","12","Female","approach_avoid_spark_v1","""event"",""trial"",""time""
""fullscreenenter"",""1"",""3781""
","
","
","""event"",""trial"",""time""
""fullscreenenter"",""1"",""3781""
","
","","","","","","941.6999999992549","images/goat5.png","","","learning","5","5","1","1","goat","animals","1","0","","good","[6]"
"html-keyboard-response","104","474142","0.0-9.0-2.0-0.16","3827","1","12","Female","approach_avoid_spark_v1","""event"",""trial"",""time""
""fullscreenenter"",""1"",""3781""
","
","
","""event"",""trial"",""time""
""fullscreenenter"",""1"",""3781""
","
","","","","","","null","<div style=""font-size:60px;"">+</div>","null","","fixation","","","","","","","","","","",""
"aa-learning-trial","105","477151","0.0-9.0-2.0-1.16","3827","1","12","Female","approach_avoid_spark_v1","""event"",""trial"",""time""
""fullscreenenter"",""1"",""3781""
","
","
","""event"",""trial"",""time""
""fullscreenenter"",""1"",""3781""
","
","","","","","","658.2000000011176","images/sheep5.png","","","learning","-6","0","0","0","sheep","animals","1","0","","bad","[-6]"
"html-keyboard-response","106","477654","0.0-9.0-2.0-0.17","3827","1","12","Female","approach_avoid_spark_v1","""event"",""trial"",""time""
""fullscreenenter"",""1"",""3781""
","
","
","""event"",""trial"",""time""
""fullscreenenter"",""1"",""3781""
","
","","","","","","null","<div style=""font-size:60px;"">+</div>","null","","fixation","","","","","","","","","","",""
"aa-learning-trial","107","480663","0.0-9.0-2.0-1.17","3827","1","12","Female","approach_avoid_spark_v1","""event"",""trial"",""time""
""fullscreenenter"",""1"",""3781""
","
","
","""event"",""trial"",""time""
""fullscreenenter"",""1"",""3781""
","
","","","","","","1184.6000000014901","images/cow1.png","","","learning","1","0","0","0","cow","animals","1","0","","neutral","0"
"html-keyboard-response","108","481166","0.0-9.0-2.0-0.18","3827","1","12","Female","approach_avoid_spark_v1","""event"",""trial"",""time""
""fullscreenenter"",""1"",""3781""
","
","
","""event"",""trial"",""time""
""fullscreenenter"",""1"",""3781""
","
","","","","","","null","<div style=""font-size:60px;"">+</div>","null","","fixation","","","","","","","","","","",""
"aa-learning-trial","109","484175","0.0-9.0-2.0-1.18","3827","1","12","Female","approach_avoid_spark_v1","""event"",""trial"",""time""
""fullscreenenter"",""1"",""3781""
","
","
","""event"",""trial"",""time""
""fullscreenenter"",""1"",""3781""
","
","","","","","","590.3000000007451","images/goat2.png","","","learning","5","5","1","1","goat","animals","1","0","","good","[6]"
"html-keyboard-response","110","484679","0.0-9.0-2.0-0.19","3827","1","12","Female","approach_avoid_spark_v1","""event"",""trial"",""time""
""fullscreenenter"",""1"",""3781""
","
","
","""event"",""trial"",""time""
""fullscreenenter"",""1"",""3781""
","
","","","","","","null","<div style=""font-size:60px;"">+</div>","null","","fixation","","","","","","","","","","",""
"aa-learning-trial","111","487687","0.0-9.0-2.0-1.19","3827","1","12","Female","approach_avoid_spark_v1","""event"",""trial"",""time""
""fullscreenenter"",""1"",""3781""
","
","
","""event"",""trial"",""time""
""fullscreenenter"",""1"",""3781""
","
","","","","","","706.0999999996275","images/cow2.png","","","learning","[1]","0","0","0","cow","animals","1","0","","neutral","0"
"html-keyboard-response","112","488190","0.0-9.0-2.0-0.20","3827","1","12","Female","approach_avoid_spark_v1","""event"",""trial"",""time""
""fullscreenenter"",""1"",""3781""
","
","
","""event"",""trial"",""time""
""fullscreenenter"",""1"",""3781""
","
","","","","","","null","<div style=""font-size:60px;"">+</div>","null","","fixation","","","","","","","","","","",""
"aa-learning-trial","113","491199","0.0-9.0-2.0-1.20","3827","1","12","Female","approach_avoid_spark_v1","""event"",""trial"",""time""
""fullscreenenter"",""1"",""3781""
","
","
","""event"",""trial"",""time""
""fullscreenenter"",""1"",""3781""
","
","","","","","","1055.5","images/sheep2.png","","","learning","-5","0","0","0","sheep","animals","1","0","","bad","[-6]"
"html-keyboard-response","114","491702","0.0-9.0-2.0-0.21","3827","1","12","Female","approach_avoid_spark_v1","""event"",""trial"",""time""
""fullscreenenter"",""1"",""3781""
","
","
","""event"",""trial"",""time""
""fullscreenenter"",""1"",""3781""
","
","","","","","","null","<div style=""font-size:60px;"">+</div>","null","","fixation","","","","","","","","","","",""
"aa-learning-trial","115","494711","0.0-9.0-2.0-1.21","3827","1","12","Female","approach_avoid_spark_v1","""event"",""trial"",""time""
""fullscreenenter"",""1"",""3781""
","
","
","""event"",""trial"",""time""
""fullscreenenter"",""1"",""3781""
","
","","","","","","723.0999999996275","images/cow1.png","","","learning","-1","-1","1","1","cow","animals","1","0","","neutral","0"
"html-keyboard-response","116","495214","0.0-9.0-2.0-0.22","3827","1","12","Female","approach_avoid_spark_v1","""event"",""trial"",""time""
""fullscreenenter"",""1"",""3781""
","
","
","""event"",""trial"",""time""
""fullscreenenter"",""1"",""3781""
","
","","","","","","null","<div style=""font-size:60px;"">+</div>","null","","fixation","","","","","","","","","","",""
"aa-learning-trial","117","498223","0.0-9.0-2.0-1.22","3827","1","12","Female","approach_avoid_spark_v1","""event"",""trial"",""time""
""fullscreenenter"",""1"",""3781""
","
","
","""event"",""trial"",""time""
""fullscreenenter"",""1"",""3781""
","
","","","","","","1216.3999999985099","images/goat2.png","","","learning","5","0","0","0","goat","animals","1","0","","good","[6]"
"html-keyboard-response","118","498726","0.0-9.0-2.0-0.23","3827","1","12","Female","approach_avoid_spark_v1","""event"",""trial"",""time""
""fullscreenenter"",""1"",""3781""
","
","
","""event"",""trial"",""time""
""fullscreenenter"",""1"",""3781""
","
","","","","","","null","<div style=""font-size:60px;"">+</div>","null","","fixation","","","","","","","","","","",""
"aa-learning-trial","119","501735","0.0-9.0-2.0-1.23","3827","1","12","Female","approach_avoid_spark_v1","""event"",""trial"",""time""
""fullscreenenter"",""1"",""3781""
","
","
","""event"",""trial"",""time""
""fullscreenenter"",""1"",""3781""
","
","","","","","","987.5999999996275","images/cow2.png","","","learning","-1","-1","1","1","cow","animals","1","0","","neutral","0"
"html-keyboard-response","120","502238","0.0-9.0-2.0-0.24","3827","1","12","Female","approach_avoid_spark_v1","""event"",""trial"",""time""
""fullscreenenter"",""1"",""3781""
","
","
","""event"",""trial"",""time""
""fullscreenenter"",""1"",""3781""
","
","","","","","","null","<div style=""font-size:60px;"">+</div>","null","","fixation","","","","","","","","","","",""
"aa-learning-trial","121","505246","0.0-9.0-2.0-1.24","3827","1","12","Female","approach_avoid_spark_v1","""event"",""trial"",""time""
""fullscreenenter"",""1"",""3781""
","
","
","""event"",""trial"",""time""
""fullscreenenter"",""1"",""3781""
","
","","","","","","1120.199999999255","images/sheep8.png","","","learning","-6","-6","1","1","sheep","animals","1","0","","bad","[-6]"
"html-keyboard-response","122","505751","0.0-9.0-2.0-0.25","3827","1","12","Female","approach_avoid_spark_v1","""event"",""trial"",""time""
""fullscreenenter"",""1"",""3781""
","
","
","""event"",""trial"",""time""
""fullscreenenter"",""1"",""3781""
","
","","","","","","null","<div style=""font-size:60px;"">+</div>","null","","fixation","","","","","","","","","","",""
"aa-learning-trial","123","508759","0.0-9.0-2.0-1.25","3827","1","12","Female","approach_avoid_spark_v1","""event"",""trial"",""time""
""fullscreenenter"",""1"",""3781""
","
","
","""event"",""trial"",""time""
""fullscreenenter"",""1"",""3781""
","
","","","","","","715","images/sheep5.png","","","learning","-6","-6","1","1","sheep","animals","1","0","","bad","[-6]"
"html-keyboard-response","124","509262","0.0-9.0-2.0-0.26","3827","1","12","Female","approach_avoid_spark_v1","""event"",""trial"",""time""
""fullscreenenter"",""1"",""3781""
","
","
","""event"",""trial"",""time""
""fullscreenenter"",""1"",""3781""
","
","","","","","","null","<div style=""font-size:60px;"">+</div>","null","","fixation","","","","","","","","","","",""
"aa-learning-trial","125","512271","0.0-9.0-2.0-1.26","3827","1","12","Female","approach_avoid_spark_v1","""event"",""trial"",""time""
""fullscreenenter"",""1"",""3781""
","
","
","""event"",""trial"",""time""
""fullscreenenter"",""1"",""3781""
","
","","","","","","866.2000000011176","images/goat4.png","","","learning","7","7","1","1","goat","animals","1","0","","good","[6]"
"html-keyboard-response","126","512774","0.0-9.0-2.0-0.27","3827","1","12","Female","approach_avoid_spark_v1","""event"",""trial"",""time""
""fullscreenenter"",""1"",""3781""
","
","
","""event"",""trial"",""time""
""fullscreenenter"",""1"",""3781""
","
","","","","","","null","<div style=""font-size:60px;"">+</div>","null","","fixation","","","","","","","","","","",""
"aa-learning-trial","127","515782","0.0-9.0-2.0-1.27","3827","1","12","Female","approach_avoid_spark_v1","""event"",""trial"",""time""
""fullscreenenter"",""1"",""3781""
","
","
","""event"",""trial"",""time""
""fullscreenenter"",""1"",""3781""
","
","","","","","","887.2999999988824","images/sheep7.png","","","learning","-7","0","0","0","sheep","animals","1","0","","bad","[-6]"
"html-keyboard-response","128","516286","0.0-9.0-2.0-0.28","3827","1","12","Female","approach_avoid_spark_v1","""event"",""trial"",""time""
""fullscreenenter"",""1"",""3781""
","
","
","""event"",""trial"",""time""
""fullscreenenter"",""1"",""3781""
","
","","","","","","null","<div style=""font-size:60px;"">+</div>","null","","fixation","","","","","","","","","","",""
"aa-learning-trial","129","519294","0.0-9.0-2.0-1.28","3827","1","12","Female","approach_avoid_spark_v1","""event"",""trial"",""time""
""fullscreenenter"",""1"",""3781""
","
","
","""event"",""trial"",""time""
""fullscreenenter"",""1"",""3781""
","
","","","","","","662.7000000011176","images/goat5.png","","","learning","7","7","1","1","goat","animals","1","0","","good","[6]"
"html-keyboard-response","130","519798","0.0-9.0-2.0-0.29","3827","1","12","Female","approach_avoid_spark_v1","""event"",""trial"",""time""
""fullscreenenter"",""1"",""3781""
","
","
","""event"",""trial"",""time""
""fullscreenenter"",""1"",""3781""
","
","","","","","","null","<div style=""font-size:60px;"">+</div>","null","","fixation","","","","","","","","","","",""
"aa-learning-trial","131","522806","0.0-9.0-2.0-1.29","3827","1","12","Female","approach_avoid_spark_v1","""event"",""trial"",""time""
""fullscreenenter"",""1"",""3781""
","
","
","""event"",""trial"",""time""
""fullscreenenter"",""1"",""3781""
","
","","","","","","1213","images/sheep2.png","","","learning","-7","0","0","0","sheep","animals","1","0","","bad","[-6]"
"html-keyboard-response","132","523310","0.0-9.0-2.0-0.30","3827","1","12","Female","approach_avoid_spark_v1","""event"",""trial"",""time""
""fullscreenenter"",""1"",""3781""
","
","
","""event"",""trial"",""time""
""fullscreenenter"",""1"",""3781""
","
","","","","","","null","<div style=""font-size:60px;"">+</div>","null","","fixation","","","","","","","","","","",""
"aa-learning-trial","133","526318","0.0-9.0-2.0-1.30","3827","1","12","Female","approach_avoid_spark_v1","""event"",""trial"",""time""
""fullscreenenter"",""1"",""3781""
","
","
","""event"",""trial"",""time""
""fullscreenenter"",""1"",""3781""
","
","","","","","","488.7999999988824","images/goat4.png","","","learning","8","8","1","1","goat","animals","1","0","","good","[6]"
"html-keyboard-response","134","526822","0.0-9.0-2.0-0.31","3827","1","12","Female","approach_avoid_spark_v1","""event"",""trial"",""time""
""fullscreenenter"",""1"",""3781""
","
","
","""event"",""trial"",""time""
""fullscreenenter"",""1"",""3781""
","
","","","","","","null","<div style=""font-size:60px;"">+</div>","null","","fixation","","","","","","","","","","",""
"aa-learning-trial","135","529830","0.0-9.0-2.0-1.31","3827","1","12","Female","approach_avoid_spark_v1","""event"",""trial"",""time""
""fullscreenenter"",""1"",""3781""
","
","
","""event"",""trial"",""time""
""fullscreenenter"",""1"",""3781""
","
","","","","","","548.5","images/goat1.png","","","learning","6","0","0","0","goat","animals","1","0","","good","[6]"
"html-keyboard-response","136","530334","0.0-9.0-2.0-0.32","3827","1","12","Female","approach_avoid_spark_v1","""event"",""trial"",""time""
""fullscreenenter"",""1"",""3781""
","
","
","""event"",""trial"",""time""
""fullscreenenter"",""1"",""3781""
","
","","","","","","null","<div style=""font-size:60px;"">+</div>","null","","fixation","","","","","","","","","","",""
"aa-learning-trial","137","533342","0.0-9.0-2.0-1.32","3827","1","12","Female","approach_avoid_spark_v1","""event"",""trial"",""time""
""fullscreenenter"",""1"",""3781""
","
","
","""event"",""trial"",""time""
""fullscreenenter"",""1"",""3781""
","
","","","","","","1058.800000000745","images/cow1.png","","","learning","-1","-1","1","1","cow","animals","1","0","","neutral","0"
"html-keyboard-response","138","533846","0.0-9.0-2.0-0.33","3827","1","12","Female","approach_avoid_spark_v1","""event"",""trial"",""time""
""fullscreenenter"",""1"",""3781""
","
","
","""event"",""trial"",""time""
""fullscreenenter"",""1"",""3781""
","
","","","","","","null","<div style=""font-size:60px;"">+</div>","null","","fixation","","","","","","","","","","",""
"aa-learning-trial","139","536855","0.0-9.0-2.0-1.33","3827","1","12","Female","approach_avoid_spark_v1","""event"",""trial"",""time""
""fullscreenenter"",""1"",""3781""
","
","
","""event"",""trial"",""time""
""fullscreenenter"",""1"",""3781""
","
","","","","","","835.3000000007451","images/goat4.png","","","learning","6","6","1","1","goat","animals","1","0","","good","[6]"
"html-keyboard-response","140","537358","0.0-9.0-2.0-0.34","3827","1","12","Female","approach_avoid_spark_v1","""event"",""trial"",""time""
""fullscreenenter"",""1"",""3781""
","
","
","""event"",""trial"",""time""
""fullscreenenter"",""1"",""3781""
","
","","","","","","null","<div style=""font-size:60px;"">+</div>","null","","fixation","","","","","","","","","","",""
"aa-learning-trial","141","540366","0.0-9.0-2.0-1.34","3827","1","12","Female","approach_avoid_spark_v1","""event"",""trial"",""time""
""fullscreenenter"",""1"",""3781""
","
","
","""event"",""trial"",""time""
""fullscreenenter"",""1"",""3781""
","
","","","","","","979.5999999996275","images/sheep2.png","","","learning","-5","0","0","0","sheep","animals","1","0","","bad","[-6]"
"html-keyboard-response","142","540870","0.0-9.0-2.0-0.35","3827","1","12","Female","approach_avoid_spark_v1","""event"",""trial"",""time""
""fullscreenenter"",""1"",""3781""
","
","
","""event"",""trial"",""time""
""fullscreenenter"",""1"",""3781""
","
","","","","","","null","<div style=""font-size:60px;"">+</div>","null","","fixation","","","","","","","","","","",""
"aa-learning-trial","143","543878","0.0-9.0-2.0-1.35","3827","1","12","Female","approach_avoid_spark_v1","""event"",""trial"",""time""
""fullscreenenter"",""1"",""3781""
","
","
","""event"",""trial"",""time""
""fullscreenenter"",""1"",""3781""
","
","","","","","","1004.5","images/cow3.png","","","learning","[-1]","0","0","0","cow","animals","1","0","","neutral","0"
"html-keyboard-response","144","544382","0.0-9.0-2.0-0.36","3827","1","12","Female","approach_avoid_spark_v1","""event"",""trial"",""time""
""fullscreenenter"",""1"",""3781""
","
","
","""event"",""trial"",""time""
""fullscreenenter"",""1"",""3781""
","
","","","","","","null","<div style=""font-size:60px;"">+</div>","null","","fixation","","","","","","","","","","",""
"aa-learning-trial","145","547390","0.0-9.0-2.0-1.36","3827","1","12","Female","approach_avoid_spark_v1","""event"",""trial"",""time""
""fullscreenenter"",""1"",""3781""
","
","
","""event"",""trial"",""time""
""fullscreenenter"",""1"",""3781""
","
","","","","","","958.3000000007451","images/cow2.png","","","learning","[1]","0","0","0","cow","animals","1","0","","neutral","0"
"html-keyboard-response","146","547894","0.0-9.0-2.0-0.37","3827","1","12","Female","approach_avoid_spark_v1","""event"",""trial"",""time""
""fullscreenenter"",""1"",""3781""
","
","
","""event"",""trial"",""time""
""fullscreenenter"",""1"",""3781""
","
","","","","","","null","<div style=""font-size:60px;"">+</div>","null","","fixation","","","","","","","","","","",""
"aa-learning-trial","147","550902","0.0-9.0-2.0-1.37","3827","1","12","Female","approach_avoid_spark_v1","""event"",""trial"",""time""
""fullscreenenter"",""1"",""3781""
","
","
","""event"",""trial"",""time""
""fullscreenenter"",""1"",""3781""
","
","","","","","","764.4000000003725","images/sheep5.png","","","learning","-7","-7","1","1","sheep","animals","1","0","","bad","[-6]"
"html-keyboard-response","148","551406","0.0-9.0-2.0-0.38","3827","1","12","Female","approach_avoid_spark_v1","""event"",""trial"",""time""
""fullscreenenter"",""1"",""3781""
","
","
","""event"",""trial"",""time""
""fullscreenenter"",""1"",""3781""
","
","","","","","","null","<div style=""font-size:60px;"">+</div>","null","","fixation","","","","","","","","","","",""
"aa-learning-trial","149","554414","0.0-9.0-2.0-1.38","3827","1","12","Female","approach_avoid_spark_v1","""event"",""trial"",""time""
""fullscreenenter"",""1"",""3781""
","
","
","""event"",""trial"",""time""
""fullscreenenter"",""1"",""3781""
","
","","","","","","958.1000000014901","images/sheep6.png","","","learning","-5","0","0","0","sheep","animals","1","0","","bad","[-6]"
"html-keyboard-response","150","554918","0.0-9.0-2.0-0.39","3827","1","12","Female","approach_avoid_spark_v1","""event"",""trial"",""time""
""fullscreenenter"",""1"",""3781""
","
","
","""event"",""trial"",""time""
""fullscreenenter"",""1"",""3781""
","
","","","","","","null","<div style=""font-size:60px;"">+</div>","null","","fixation","","","","","","","","","","",""
"aa-learning-trial","151","557926","0.0-9.0-2.0-1.39","3827","1","12","Female","approach_avoid_spark_v1","""event"",""trial"",""time""
""fullscreenenter"",""1"",""3781""
","
","
","""event"",""trial"",""time""
""fullscreenenter"",""1"",""3781""
","
","","","","","","710.2999999988824","images/sheep5.png","","","learning","-7","-7","1","1","sheep","animals","1","0","","bad","[-6]"
"html-keyboard-response","152","558430","0.0-9.0-2.0-0.40","3827","1","12","Female","approach_avoid_spark_v1","""event"",""trial"",""time""
""fullscreenenter"",""1"",""3781""
","
","
","""event"",""trial"",""time""
""fullscreenenter"",""1"",""3781""
","
","","","","","","null","<div style=""font-size:60px;"">+</div>","null","","fixation","","","","","","","","","","",""
"aa-learning-trial","153","561438","0.0-9.0-2.0-1.40","3827","1","12","Female","approach_avoid_spark_v1","""event"",""trial"",""time""
""fullscreenenter"",""1"",""3781""
","
","
","""event"",""trial"",""time""
""fullscreenenter"",""1"",""3781""
","
","","","","","","638.9000000003725","images/goat2.png","","","learning","6","0","0","0","goat","animals","1","0","","good","[6]"
"html-keyboard-response","154","561942","0.0-9.0-2.0-0.41","3827","1","12","Female","approach_avoid_spark_v1","""event"",""trial"",""time""
""fullscreenenter"",""1"",""3781""
","
","
","""event"",""trial"",""time""
""fullscreenenter"",""1"",""3781""
","
","","","","","","null","<div style=""font-size:60px;"">+</div>","null","","fixation","","","","","","","","","","",""
"aa-learning-trial","155","564951","0.0-9.0-2.0-1.41","3827","1","12","Female","approach_avoid_spark_v1","""event"",""trial"",""time""
""fullscreenenter"",""1"",""3781""
","
","
","""event"",""trial"",""time""
""fullscreenenter"",""1"",""3781""
","
","","","","","","746.6999999992549","images/goat4.png","","","learning","8","8","1","1","goat","animals","1","0","","good","[6]"
"html-keyboard-response","156","565454","0.0-9.0-2.0-0.42","3827","1","12","Female","approach_avoid_spark_v1","""event"",""trial"",""time""
""fullscreenenter"",""1"",""3781""
","
","
","""event"",""trial"",""time""
""fullscreenenter"",""1"",""3781""
","
","","","","","","null","<div style=""font-size:60px;"">+</div>","null","","fixation","","","","","","","","","","",""
"aa-learning-trial","157","568462","0.0-9.0-2.0-1.42","3827","1","12","Female","approach_avoid_spark_v1","""event"",""trial"",""time""
""fullscreenenter"",""1"",""3781""
","
","
","""event"",""trial"",""time""
""fullscreenenter"",""1"",""3781""
","
","","","","","","1084.800000000745","images/cow3.png","","","learning","2","2","1","1","cow","animals","1","0","","neutral","0"
"html-keyboard-response","158","568966","0.0-9.0-2.0-0.43","3827","1","12","Female","approach_avoid_spark_v1","""event"",""trial"",""time""
""fullscreenenter"",""1"",""3781""
","
","
","""event"",""trial"",""time""
""fullscreenenter"",""1"",""3781""
","
","","","","","","null","<div style=""font-size:60px;"">+</div>","null","","fixation","","","","","","","","","","",""
"aa-learning-trial","159","571974","0.0-9.0-2.0-1.43","3827","1","12","Female","approach_avoid_spark_v1","""event"",""trial"",""time""
""fullscreenenter"",""1"",""3781""
","
","
","""event"",""trial"",""time""
""fullscreenenter"",""1"",""3781""
","
","","","","","","1416.800000000745","images/cow4.png","","","learning","-2","0","0","0","cow","animals","1","0","","neutral","0"
"html-keyboard-response","160","572479","0.0-9.0-2.0-0.44","3827","1","12","Female","approach_avoid_spark_v1","""event"",""trial"",""time""
""fullscreenenter"",""1"",""3781""
","
","
","""event"",""trial"",""time""
""fullscreenenter"",""1"",""3781""
","
","","","","","","null","<div style=""font-size:60px;"">+</div>","null","","fixation","","","","","","","","","","",""
"aa-learning-trial","161","575486","0.0-9.0-2.0-1.44","3827","1","12","Female","approach_avoid_spark_v1","""event"",""trial"",""time""
""fullscreenenter"",""1"",""3781""
","
","
","""event"",""trial"",""time""
""fullscreenenter"",""1"",""3781""
","
","","","","","","825","images/goat2.png","","","learning","5","5","1","1","goat","animals","1","0","","good","[6]"
"html-keyboard-response","162","575990","0.0-9.0-2.0-0.45","3827","1","12","Female","approach_avoid_spark_v1","""event"",""trial"",""time""
""fullscreenenter"",""1"",""3781""
","
","
","""event"",""trial"",""time""
""fullscreenenter"",""1"",""3781""
","
","","","","","","null","<div style=""font-size:60px;"">+</div>","null","","fixation","","","","","","","","","","",""
"aa-learning-trial","163","578998","0.0-9.0-2.0-1.45","3827","1","12","Female","approach_avoid_spark_v1","""event"",""trial"",""time""
""fullscreenenter"",""1"",""3781""
","
","
","""event"",""trial"",""time""
""fullscreenenter"",""1"",""3781""
","
","","","","","","878.0999999996275","images/sheep6.png","","","learning","-3","0","0","0","sheep","animals","1","0","","bad","[-6]"
"html-keyboard-response","164","579502","0.0-9.0-2.0-0.46","3827","1","12","Female","approach_avoid_spark_v1","""event"",""trial"",""time""
""fullscreenenter"",""1"",""3781""
","
","
","""event"",""trial"",""time""
""fullscreenenter"",""1"",""3781""
","
","","","","","","null","<div style=""font-size:60px;"">+</div>","null","","fixation","","","","","","","","","","",""
"aa-learning-trial","165","582510","0.0-9.0-2.0-1.46","3827","1","12","Female","approach_avoid_spark_v1","""event"",""trial"",""time""
""fullscreenenter"",""1"",""3781""
","
","
","""event"",""trial"",""time""
""fullscreenenter"",""1"",""3781""
","
","","","","","","633.4000000003725","images/cow2.png","","","learning","-1","-1","1","1","cow","animals","1","0","","neutral","0"
"html-keyboard-response","166","583022","0.0-9.0-2.0-0.47","3827","1","12","Female","approach_avoid_spark_v1","""event"",""trial"",""time""
""fullscreenenter"",""1"",""3781""
","
","
","""event"",""trial"",""time""
""fullscreenenter"",""1"",""3781""
","
","","","","","","null","<div style=""font-size:60px;"">+</div>","null","","fixation","","","","","","","","","","",""
"aa-learning-trial","167","586030","0.0-9.0-2.0-1.47","3827","1","12","Female","approach_avoid_spark_v1","""event"",""trial"",""time""
""fullscreenenter"",""1"",""3781""
","
","
","""event"",""trial"",""time""
""fullscreenenter"",""1"",""3781""
","
","","","","","","657.3000000007451","images/sheep2.png","","","learning","-5","0","0","0","sheep","animals","1","0","","bad","[-6]"
"html-keyboard-response","168","586534","0.0-9.0-2.0-0.48","3827","1","12","Female","approach_avoid_spark_v1","""event"",""trial"",""time""
""fullscreenenter"",""1"",""3781""
","
","
","""event"",""trial"",""time""
""fullscreenenter"",""1"",""3781""
","
","","","","","","null","<div style=""font-size:60px;"">+</div>","null","","fixation","","","","","","","","","","",""
"aa-learning-trial","169","589542","0.0-9.0-2.0-1.48","3827","1","12","Female","approach_avoid_spark_v1","""event"",""trial"",""time""
""fullscreenenter"",""1"",""3781""
","
","
","""event"",""trial"",""time""
""fullscreenenter"",""1"",""3781""
","
","","","","","","706.2000000011176","images/cow6.png","","","learning","1","1","1","1","cow","animals","1","0","","neutral","0"
"html-keyboard-response","170","590046","0.0-9.0-2.0-0.49","3827","1","12","Female","approach_avoid_spark_v1","""event"",""trial"",""time""
""fullscreenenter"",""1"",""3781""
","
","
","""event"",""trial"",""time""
""fullscreenenter"",""1"",""3781""
","
","","","","","","null","<div style=""font-size:60px;"">+</div>","null","","fixation","","","","","","","","","","",""
"aa-learning-trial","171","593054","0.0-9.0-2.0-1.49","3827","1","12","Female","approach_avoid_spark_v1","""event"",""trial"",""time""
""fullscreenenter"",""1"",""3781""
","
","
","""event"",""trial"",""time""
""fullscreenenter"",""1"",""3781""
","
","","","","","","624.1999999992549","images/cow1.png","","","learning","[-1]","0","0","0","cow","animals","1","0","","neutral","0"
"html-keyboard-response","172","593558","0.0-9.0-2.0-0.50","3827","1","12","Female","approach_avoid_spark_v1","""event"",""trial"",""time""
""fullscreenenter"",""1"",""3781""
","
","
","""event"",""trial"",""time""
""fullscreenenter"",""1"",""3781""
","
","","","","","","null","<div style=""font-size:60px;"">+</div>","null","","fixation","","","","","","","","","","",""
"aa-learning-trial","173","596567","0.0-9.0-2.0-1.50","3827","1","12","Female","approach_avoid_spark_v1","""event"",""trial"",""time""
""fullscreenenter"",""1"",""3781""
","
","
","""event"",""trial"",""time""
""fullscreenenter"",""1"",""3781""
","
","","","","","","614.0999999996275","images/goat8.png","","","learning","5","5","1","1","goat","animals","1","0","","good","[6]"
"html-button-response","174","602611","0.0-9.0-3.0","3827","1","12","Female","approach_avoid_spark_v1","""event"",""trial"",""time""
""fullscreenenter"",""1"",""3781""
","
","
","""event"",""trial"",""time""
""fullscreenenter"",""1"",""3781""
","
","","","","","","6042.5","<p> You have completed the round! <p> In this round, you earned 37 points! </p>","0","","break","","","","","","","","","","",""
"html-button-response","175","603825","0.0-10.0","3827","1","12","Female","approach_avoid_spark_v1","""event"",""trial"",""time""
""fullscreenenter"",""1"",""3781""
","
","
","""event"",""trial"",""time""
""fullscreenenter"",""1"",""3781""
","
","","","","","","1211.2000000011176","<p> Now it's time to play another round. </p>","0","","transition_screen","","","","","","","","","","",""
"preload","176","603964","0.0-11.0-0.0","3827","1","12","Female","approach_avoid_spark_v1","""event"",""trial"",""time""
""fullscreenenter"",""1"",""3781""
","
","
","""event"",""trial"",""time""
""fullscreenenter"",""1"",""3781""
","
","true","false","[]","[]","[]","","","","","","","","","","","","","","","",""
"learning-instructions","177","612921","0.0-11.0-1.0-0.0","3827","1","12","Female","approach_avoid_spark_v1","""event"",""trial"",""time""
""fullscreenenter"",""1"",""3781""
","
","
","""event"",""trial"",""time""
""fullscreenenter"",""1"",""3781""
","
","","","","","","3496.60000000149","<p> Your goal in this round is to take your friend for rides in different vehicles. </p></div>","","0","instructions","","","","","","","","","","",""
"learning-instructions","178","623161","0.0-11.0-1.0-0.1","3827","1","12","Female","approach_avoid_spark_v1","""event"",""trial"",""time""
""fullscreenenter"",""1"",""3781""
","
","
","""event"",""trial"",""time""
""fullscreenenter"",""1"",""3781""
","
","","","","","","485.2000000011176","<p> Your friend enjoys riding in some vehicles but not in others.  </p><p> On each turn, you will see a vehicle.   </p><p> You need to decide whether to take your friend for a ride or not.  </p>","","0","instructions","","","","","","","","","","",""
"learning-instructions","179","630029","0.0-11.0-1.0-0.2","3827","1","12","Female","approach_avoid_spark_v1","""event"",""trial"",""time""
""fullscreenenter"",""1"",""3781""
","
","
","""event"",""trial"",""time""
""fullscreenenter"",""1"",""3781""
","
","","","","","","529.4000000003725","<p> You can take your friend for a ride in the vehicle by pressing 1 and skip the ride by pressing 0. </p><br><div class=""choice-instructions-grid""> <div class=""choice-option""><img src=""images/approach.png"" class=""choice-option-img"" stage=""instructions"" position=""0"" ><div class=""choice-option-text""> Press ""1."" </div></div><div class=""choice-option""><img src=""images/avoid.png"" class=""choice-option-img"" stage=""instructions"" position=""1"" ><div class=""choice-option-text""> Press ""0."" </div></div>","","0","instructions","","","","","","","","","","",""
"learning-instructions","180","639203","0.0-11.0-1.0-0.3","3827","1","12","Female","approach_avoid_spark_v1","""event"",""trial"",""time""
""fullscreenenter"",""1"",""3781""
","
","
","""event"",""trial"",""time""
""fullscreenenter"",""1"",""3781""
","
","","","","","","577.2999999988824","<p> If you take them for a ride in a vehicle they like, they will be thrilled! </p><p> But if you take them for a ride in a vehicle they do not like, they will be upset. </p>","","0","instructions","","","","","","","","","","",""
"learning-instructions","181","651564","0.0-11.0-1.0-0.4","3827","1","12","Female","approach_avoid_spark_v1","""event"",""trial"",""time""
""fullscreenenter"",""1"",""3781""
","
","
","""event"",""trial"",""time""
""fullscreenenter"",""1"",""3781""
","
","","","","","","785.1999999992549","<p> You will earn points based on how you made your friend feel. </p><p> If you made him thrilled, you will WIN anywhere from 1 - 9 points, </p><p> but if you made him upset, you will LOSE anywhere from 1 - 9 points. </p>","","0","instructions","","","","","","","","","","",""
"learning-instructions","182","659187","0.0-11.0-1.0-0.5","3827","1","12","Female","approach_avoid_spark_v1","""event"",""trial"",""time""
""fullscreenenter"",""1"",""3781""
","
","
","""event"",""trial"",""time""
""fullscreenenter"",""1"",""3781""
","
","","","","","","966.8000000007451","<p> You will see how many points you won or lost in the center of the screen. </p><p> Here is what you would see if you won 5 points: </p><p style=""color:green;font-size:50px;font-weight:bolder"">5</p>","","0","instructions","","","","","","","","","","",""
"learning-instructions","183","662534","0.0-11.0-1.0-0.6","3827","1","12","Female","approach_avoid_spark_v1","""event"",""trial"",""time""
""fullscreenenter"",""1"",""3781""
","
","
","""event"",""trial"",""time""
""fullscreenenter"",""1"",""3781""
","
","","","","","","507.40000000037253","<p> And here is what you would see if you lost 3 points: </p><p style=""color:red;font-size:50px;font-weight:bolder"">-3</p>","","0","instructions","","","","","","","","","","",""
"learning-instructions","184","678814","0.0-11.0-1.0-0.7","3827","1","12","Female","approach_avoid_spark_v1","""event"",""trial"",""time""
""fullscreenenter"",""1"",""3781""
","
","
","""event"",""trial"",""time""
""fullscreenenter"",""1"",""3781""
","
","","","","","","997.7000000011176","<p> Some vehicles will make your friend REALLY thrilled or upset. </p><p> These vehicles will make you win or lose LOTS of points. </p><p> Other vehicles will only make him feel a little thrilled or upset. </p><p> These vehicles will make you win or lose small amounts of points. </p>","","0","instructions","","","","","","","","","","",""
"learning-instructions","185","691772","0.0-11.0-1.0-0.8","3827","1","12","Female","approach_avoid_spark_v1","""event"",""trial"",""time""
""fullscreenenter"",""1"",""3781""
","
","
","""event"",""trial"",""time""
""fullscreenenter"",""1"",""3781""
","
","","","","","","1321.5","<p> If you choose to skip the ride, you will not win or lose any points. </p><p>  However, in the center of the screen, you will see the number of points you WOULD HAVE won or lost if you had taken your friend for a ride. </p>","","0","instructions","","","","","","","","","","",""
"learning-instructions","186","703055","0.0-11.0-1.0-0.9","3827","1","12","Female","approach_avoid_spark_v1","""event"",""trial"",""time""
""fullscreenenter"",""1"",""3781""
","
","
","""event"",""trial"",""time""
""fullscreenenter"",""1"",""3781""
","
","","","","","","398.09999999962747","<p> Here is what you might see if you did not take your friend for a ride but he would have enjoyed it: </p><p style=""color:grey; font-size:50px; display: inline-block; border-spacing: 15px; border-width:3px; border-style:solid; border-color:red"">  &nbsp; 6 &nbsp; </p><p> Remember, in this case, you would not win or lose ANY points because you skipped the ride.  </p>","","0","instructions","","","","","","","","","","",""
"learning-instructions","187","713006","0.0-11.0-1.0-0.10","3827","1","12","Female","approach_avoid_spark_v1","""event"",""trial"",""time""
""fullscreenenter"",""1"",""3781""
","
","
","""event"",""trial"",""time""
""fullscreenenter"",""1"",""3781""
","
","","","","","","2374.199999999255","<p> Try to make the best choice for each vehicle because </p><p> at the end of the game, you will earn bonus money based on how many points you earned. </p>","","0","instructions","","","","","","","","","","",""
"learning-instructions","188","723048","0.0-11.0-1.0-0.11","3827","1","12","Female","approach_avoid_spark_v1","""event"",""trial"",""time""
""fullscreenenter"",""1"",""3781""
","
","
","""event"",""trial"",""time""
""fullscreenenter"",""1"",""3781""
","
","","","","","","1862.0999999996275","<p> You will have 3 seconds to make each choice. Try to respond before time runs out! </p><p> You will lose 5 points each time you do not make a response. </p>","","0","instructions","","","","","","","","","","",""
"html-keyboard-response","189","723654","0.0-11.0-2.0-0.0","3827","1","12","Female","approach_avoid_spark_v1","""event"",""trial"",""time""
""fullscreenenter"",""1"",""3781""
","
","
","""event"",""trial"",""time""
""fullscreenenter"",""1"",""3781""
","
","","","","","","null","<div style=""font-size:60px;"">+</div>","null","","fixation","","","","","","","","","","",""
"aa-learning-trial","190","726662","0.0-11.0-2.0-1.0","3827","1","12","Female","approach_avoid_spark_v1","""event"",""trial"",""time""
""fullscreenenter"",""1"",""3781""
","
","
","""event"",""trial"",""time""
""fullscreenenter"",""1"",""3781""
","
","","","","","","1456.2999999988824","images/boat6.png","","","learning","-2","-2","1","1","boat","vehicles","2","1","","good","[4]"
"html-keyboard-response","191","727166","0.0-11.0-2.0-0.1","3827","1","12","Female","approach_avoid_spark_v1","""event"",""trial"",""time""
""fullscreenenter"",""1"",""3781""
","
","
","""event"",""trial"",""time""
""fullscreenenter"",""1"",""3781""
","
","","","","","","null","<div style=""font-size:60px;"">+</div>","null","","fixation","","","","","","","","","","",""
"aa-learning-trial","192","730174","0.0-11.0-2.0-1.1","3827","1","12","Female","approach_avoid_spark_v1","""event"",""trial"",""time""
""fullscreenenter"",""1"",""3781""
","
","
","""event"",""trial"",""time""
""fullscreenenter"",""1"",""3781""
","
","","","","","","798.1000000014901","images/train2.png","","","learning","2","2","1","1","train","vehicles","2","1","","bad","[-6]"
"html-keyboard-response","193","730678","0.0-11.0-2.0-0.2","3827","1","12","Female","approach_avoid_spark_v1","""event"",""trial"",""time""
""fullscreenenter"",""1"",""3781""
","
","
","""event"",""trial"",""time""
""fullscreenenter"",""1"",""3781""
","
","","","","","","null","<div style=""font-size:60px;"">+</div>","null","","fixation","","","","","","","","","","",""
"aa-learning-trial","194","733694","0.0-11.0-2.0-1.2","3827","1","12","Female","approach_avoid_spark_v1","""event"",""trial"",""time""
""fullscreenenter"",""1"",""3781""
","
","
","""event"",""trial"",""time""
""fullscreenenter"",""1"",""3781""
","
","","","","","","626.9000000003725","images/plane2.png","","","learning","6","0","0","0","plane","vehicles","2","1","","neutral","0"
"html-keyboard-response","195","734198","0.0-11.0-2.0-0.3","3827","1","12","Female","approach_avoid_spark_v1","""event"",""trial"",""time""
""fullscreenenter"",""1"",""3781""
","
","
","""event"",""trial"",""time""
""fullscreenenter"",""1"",""3781""
","
","","","","","","null","<div style=""font-size:60px;"">+</div>","null","","fixation","","","","","","","","","","",""
"aa-learning-trial","196","737206","0.0-11.0-2.0-1.3","3827","1","12","Female","approach_avoid_spark_v1","""event"",""trial"",""time""
""fullscreenenter"",""1"",""3781""
","
","
","""event"",""trial"",""time""
""fullscreenenter"",""1"",""3781""
","
","","","","","","1348.5999999996275","images/train8.png","","","learning","-9","0","0","0","train","vehicles","2","1","","bad","[-6]"
"html-keyboard-response","197","737710","0.0-11.0-2.0-0.4","3827","1","12","Female","approach_avoid_spark_v1","""event"",""trial"",""time""
""fullscreenenter"",""1"",""3781""
","
","
","""event"",""trial"",""time""
""fullscreenenter"",""1"",""3781""
","
","","","","","","null","<div style=""font-size:60px;"">+</div>","null","","fixation","","","","","","","","","","",""
"aa-learning-trial","198","740718","0.0-11.0-2.0-1.4","3827","1","12","Female","approach_avoid_spark_v1","""event"",""trial"",""time""
""fullscreenenter"",""1"",""3781""
","
","
","""event"",""trial"",""time""
""fullscreenenter"",""1"",""3781""
","
","","","","","","714","images/plane4.png","","","learning","-4","-4","1","1","plane","vehicles","2","1","","neutral","0"
"html-keyboard-response","199","741222","0.0-11.0-2.0-0.5","3827","1","12","Female","approach_avoid_spark_v1","""event"",""trial"",""time""
""fullscreenenter"",""1"",""3781""
","
","
","""event"",""trial"",""time""
""fullscreenenter"",""1"",""3781""
","
","","","","","","null","<div style=""font-size:60px;"">+</div>","null","","fixation","","","","","","","","","","",""
"aa-learning-trial","200","744230","0.0-11.0-2.0-1.5","3827","1","12","Female","approach_avoid_spark_v1","""event"",""trial"",""time""
""fullscreenenter"",""1"",""3781""
","
","
","""event"",""trial"",""time""
""fullscreenenter"",""1"",""3781""
","
","","","","","","871.7000000011176","images/boat3.png","","","learning","4","4","1","1","boat","vehicles","2","1","","good","[4]"
"html-keyboard-response","201","744734","0.0-11.0-2.0-0.6","3827","1","12","Female","approach_avoid_spark_v1","""event"",""trial"",""time""
""fullscreenenter"",""1"",""3781""
","
","
","""event"",""trial"",""time""
""fullscreenenter"",""1"",""3781""
","
","","","","","","null","<div style=""font-size:60px;"">+</div>","null","","fixation","","","","","","","","","","",""
"aa-learning-trial","202","747742","0.0-11.0-2.0-1.6","3827","1","12","Female","approach_avoid_spark_v1","""event"",""trial"",""time""
""fullscreenenter"",""1"",""3781""
","
","
","""event"",""trial"",""time""
""fullscreenenter"",""1"",""3781""
","
","","","","","","338.40000000037253","images/plane8.png","","","learning","-1","0","0","0","plane","vehicles","2","1","","neutral","0"
"html-keyboard-response","203","748246","0.0-11.0-2.0-0.7","3827","1","12","Female","approach_avoid_spark_v1","""event"",""trial"",""time""
""fullscreenenter"",""1"",""3781""
","
","
","""event"",""trial"",""time""
""fullscreenenter"",""1"",""3781""
","
","","","","","","null","<div style=""font-size:60px;"">+</div>","null","","fixation","","","","","","","","","","",""
"aa-learning-trial","204","751255","0.0-11.0-2.0-1.7","3827","1","12","Female","approach_avoid_spark_v1","""event"",""trial"",""time""
""fullscreenenter"",""1"",""3781""
","
","
","""event"",""trial"",""time""
""fullscreenenter"",""1"",""3781""
","
","","","","","","377.90000000037253","images/train4.png","","","learning","5","5","1","1","train","vehicles","2","1","","bad","[-6]"
"html-keyboard-response","205","751758","0.0-11.0-2.0-0.8","3827","1","12","Female","approach_avoid_spark_v1","""event"",""trial"",""time""
""fullscreenenter"",""1"",""3781""
","
","
","""event"",""trial"",""time""
""fullscreenenter"",""1"",""3781""
","
","","","","","","null","<div style=""font-size:60px;"">+</div>","null","","fixation","","","","","","","","","","",""
"aa-learning-trial","206","754767","0.0-11.0-2.0-1.8","3827","1","12","Female","approach_avoid_spark_v1","""event"",""trial"",""time""
""fullscreenenter"",""1"",""3781""
","
","
","""event"",""trial"",""time""
""fullscreenenter"",""1"",""3781""
","
","","","","","","1106.800000000745","images/boat7.png","","","learning","8","0","0","0","boat","vehicles","2","1","","good","[4]"
"html-keyboard-response","207","755270","0.0-11.0-2.0-0.9","3827","1","12","Female","approach_avoid_spark_v1","""event"",""trial"",""time""
""fullscreenenter"",""1"",""3781""
","
","
","""event"",""trial"",""time""
""fullscreenenter"",""1"",""3781""
","
","","","","","","null","<div style=""font-size:60px;"">+</div>","null","","fixation","","","","","","","","","","",""
"aa-learning-trial","208","758278","0.0-11.0-2.0-1.9","3827","1","12","Female","approach_avoid_spark_v1","""event"",""trial"",""time""
""fullscreenenter"",""1"",""3781""
","
","
","""event"",""trial"",""time""
""fullscreenenter"",""1"",""3781""
","
","","","","","","1173","images/train2.png","","","learning","2","0","0","0","train","vehicles","2","1","","bad","[-6]"
"html-keyboard-response","209","758782","0.0-11.0-2.0-0.10","3827","1","12","Female","approach_avoid_spark_v1","""event"",""trial"",""time""
""fullscreenenter"",""1"",""3781""
","
","
","""event"",""trial"",""time""
""fullscreenenter"",""1"",""3781""
","
","","","","","","null","<div style=""font-size:60px;"">+</div>","null","","fixation","","","","","","","","","","",""
"aa-learning-trial","210","761791","0.0-11.0-2.0-1.10","3827","1","12","Female","approach_avoid_spark_v1","""event"",""trial"",""time""
""fullscreenenter"",""1"",""3781""
","
","
","""event"",""trial"",""time""
""fullscreenenter"",""1"",""3781""
","
","","","","","","757.2999999988824","images/plane2.png","","","learning","6","6","1","1","plane","vehicles","2","1","","neutral","0"
"html-keyboard-response","211","762294","0.0-11.0-2.0-0.11","3827","1","12","Female","approach_avoid_spark_v1","""event"",""trial"",""time""
""fullscreenenter"",""1"",""3781""
","
","
","""event"",""trial"",""time""
""fullscreenenter"",""1"",""3781""
","
","","","","","","null","<div style=""font-size:60px;"">+</div>","null","","fixation","","","","","","","","","","",""
"aa-learning-trial","212","765303","0.0-11.0-2.0-1.11","3827","1","12","Female","approach_avoid_spark_v1","""event"",""trial"",""time""
""fullscreenenter"",""1"",""3781""
","
","
","""event"",""trial"",""time""
""fullscreenenter"",""1"",""3781""
","
","","","","","","912.3999999985099","images/train8.png","","","learning","-9","0","0","0","train","vehicles","2","1","","bad","[-6]"
"html-keyboard-response","213","765806","0.0-11.0-2.0-0.12","3827","1","12","Female","approach_avoid_spark_v1","""event"",""trial"",""time""
""fullscreenenter"",""1"",""3781""
","
","
","""event"",""trial"",""time""
""fullscreenenter"",""1"",""3781""
","
","","","","","","null","<div style=""font-size:60px;"">+</div>","null","","fixation","","","","","","","","","","",""
"aa-learning-trial","214","768815","0.0-11.0-2.0-1.12","3827","1","12","Female","approach_avoid_spark_v1","""event"",""trial"",""time""
""fullscreenenter"",""1"",""3781""
","
","
","""event"",""trial"",""time""
""fullscreenenter"",""1"",""3781""
","
","","","","","","425.40000000037253","images/boat3.png","","","learning","4","4","1","1","boat","vehicles","2","1","","good","[4]"
"html-keyboard-response","215","769318","0.0-11.0-2.0-0.13","3827","1","12","Female","approach_avoid_spark_v1","""event"",""trial"",""time""
""fullscreenenter"",""1"",""3781""
","
","
","""event"",""trial"",""time""
""fullscreenenter"",""1"",""3781""
","
","","","","","","null","<div style=""font-size:60px;"">+</div>","null","","fixation","","","","","","","","","","",""
"aa-learning-trial","216","772327","0.0-11.0-2.0-1.13","3827","1","12","Female","approach_avoid_spark_v1","""event"",""trial"",""time""
""fullscreenenter"",""1"",""3781""
","
","
","""event"",""trial"",""time""
""fullscreenenter"",""1"",""3781""
","
","","","","","","408.5","images/boat7.png","","","learning","8","0","0","0","boat","vehicles","2","1","","good","[4]"
"html-keyboard-response","217","772830","0.0-11.0-2.0-0.14","3827","1","12","Female","approach_avoid_spark_v1","""event"",""trial"",""time""
""fullscreenenter"",""1"",""3781""
","
","
","""event"",""trial"",""time""
""fullscreenenter"",""1"",""3781""
","
","","","","","","null","<div style=""font-size:60px;"">+</div>","null","","fixation","","","","","","","","","","",""
"aa-learning-trial","218","775839","0.0-11.0-2.0-1.14","3827","1","12","Female","approach_avoid_spark_v1","""event"",""trial"",""time""
""fullscreenenter"",""1"",""3781""
","
","
","""event"",""trial"",""time""
""fullscreenenter"",""1"",""3781""
","
","","","","","","596.4000000003725","images/plane8.png","","","learning","-1","-1","1","1","plane","vehicles","2","1","","neutral","0"
"html-keyboard-response","219","776342","0.0-11.0-2.0-0.15","3827","1","12","Female","approach_avoid_spark_v1","""event"",""trial"",""time""
""fullscreenenter"",""1"",""3781""
","
","
","""event"",""trial"",""time""
""fullscreenenter"",""1"",""3781""
","
","","","","","","null","<div style=""font-size:60px;"">+</div>","null","","fixation","","","","","","","","","","",""
"aa-learning-trial","220","779350","0.0-11.0-2.0-1.15","3827","1","12","Female","approach_avoid_spark_v1","""event"",""trial"",""time""
""fullscreenenter"",""1"",""3781""
","
","
","""event"",""trial"",""time""
""fullscreenenter"",""1"",""3781""
","
","","","","","","524.2999999988824","images/boat7.png","","","learning","8","8","1","1","boat","vehicles","2","1","","good","[4]"
"html-keyboard-response","221","779854","0.0-11.0-2.0-0.16","3827","1","12","Female","approach_avoid_spark_v1","""event"",""trial"",""time""
""fullscreenenter"",""1"",""3781""
","
","
","""event"",""trial"",""time""
""fullscreenenter"",""1"",""3781""
","
","","","","","","null","<div style=""font-size:60px;"">+</div>","null","","fixation","","","","","","","","","","",""
"aa-learning-trial","222","782862","0.0-11.0-2.0-1.16","3827","1","12","Female","approach_avoid_spark_v1","""event"",""trial"",""time""
""fullscreenenter"",""1"",""3781""
","
","
","""event"",""trial"",""time""
""fullscreenenter"",""1"",""3781""
","
","","","","","","1008.5","images/boat3.png","","","learning","4","4","1","1","boat","vehicles","2","1","","good","[4]"
"html-keyboard-response","223","783366","0.0-11.0-2.0-0.17","3827","1","12","Female","approach_avoid_spark_v1","""event"",""trial"",""time""
""fullscreenenter"",""1"",""3781""
","
","
","""event"",""trial"",""time""
""fullscreenenter"",""1"",""3781""
","
","","","","","","null","<div style=""font-size:60px;"">+</div>","null","","fixation","","","","","","","","","","",""
"aa-learning-trial","224","786374","0.0-11.0-2.0-1.17","3827","1","12","Female","approach_avoid_spark_v1","""event"",""trial"",""time""
""fullscreenenter"",""1"",""3781""
","
","
","""event"",""trial"",""time""
""fullscreenenter"",""1"",""3781""
","
","","","","","","1019","images/boat3.png","","","learning","4","4","1","1","boat","vehicles","2","1","","good","[4]"
"html-keyboard-response","225","786878","0.0-11.0-2.0-0.18","3827","1","12","Female","approach_avoid_spark_v1","""event"",""trial"",""time""
""fullscreenenter"",""1"",""3781""
","
","
","""event"",""trial"",""time""
""fullscreenenter"",""1"",""3781""
","
","","","","","","null","<div style=""font-size:60px;"">+</div>","null","","fixation","","","","","","","","","","",""
"aa-learning-trial","226","789886","0.0-11.0-2.0-1.18","3827","1","12","Female","approach_avoid_spark_v1","""event"",""trial"",""time""
""fullscreenenter"",""1"",""3781""
","
","
","""event"",""trial"",""time""
""fullscreenenter"",""1"",""3781""
","
","","","","","","943.9000000003725","images/train2.png","","","learning","2","2","1","1","train","vehicles","2","1","","bad","[-6]"
"html-keyboard-response","227","790390","0.0-11.0-2.0-0.19","3827","1","12","Female","approach_avoid_spark_v1","""event"",""trial"",""time""
""fullscreenenter"",""1"",""3781""
","
","
","""event"",""trial"",""time""
""fullscreenenter"",""1"",""3781""
","
","","","","","","null","<div style=""font-size:60px;"">+</div>","null","","fixation","","","","","","","","","","",""
"aa-learning-trial","228","793398","0.0-11.0-2.0-1.19","3827","1","12","Female","approach_avoid_spark_v1","""event"",""trial"",""time""
""fullscreenenter"",""1"",""3781""
","
","
","""event"",""trial"",""time""
""fullscreenenter"",""1"",""3781""
","
","","","","","","1117.5999999996275","images/train5.png","","","learning","7","0","0","0","train","vehicles","2","1","","bad","[-6]"
"html-keyboard-response","229","793902","0.0-11.0-2.0-0.20","3827","1","12","Female","approach_avoid_spark_v1","""event"",""trial"",""time""
""fullscreenenter"",""1"",""3781""
","
","
","""event"",""trial"",""time""
""fullscreenenter"",""1"",""3781""
","
","","","","","","null","<div style=""font-size:60px;"">+</div>","null","","fixation","","","","","","","","","","",""
"aa-learning-trial","230","796911","0.0-11.0-2.0-1.20","3827","1","12","Female","approach_avoid_spark_v1","""event"",""trial"",""time""
""fullscreenenter"",""1"",""3781""
","
","
","""event"",""trial"",""time""
""fullscreenenter"",""1"",""3781""
","
","","","","","","738.9000000003725","images/boat3.png","","","learning","4","4","1","1","boat","vehicles","2","1","","good","[4]"
"html-keyboard-response","231","797414","0.0-11.0-2.0-0.21","3827","1","12","Female","approach_avoid_spark_v1","""event"",""trial"",""time""
""fullscreenenter"",""1"",""3781""
","
","
","""event"",""trial"",""time""
""fullscreenenter"",""1"",""3781""
","
","","","","","","null","<div style=""font-size:60px;"">+</div>","null","","fixation","","","","","","","","","","",""
"aa-learning-trial","232","800423","0.0-11.0-2.0-1.21","3827","1","12","Female","approach_avoid_spark_v1","""event"",""trial"",""time""
""fullscreenenter"",""1"",""3781""
","
","
","""event"",""trial"",""time""
""fullscreenenter"",""1"",""3781""
","
","","","","","","1010.1999999992549","images/plane2.png","","","learning","6","6","1","1","plane","vehicles","2","1","","neutral","0"
"html-keyboard-response","233","800926","0.0-11.0-2.0-0.22","3827","1","12","Female","approach_avoid_spark_v1","""event"",""trial"",""time""
""fullscreenenter"",""1"",""3781""
","
","
","""event"",""trial"",""time""
""fullscreenenter"",""1"",""3781""
","
","","","","","","null","<div style=""font-size:60px;"">+</div>","null","","fixation","","","","","","","","","","",""
"aa-learning-trial","234","803934","0.0-11.0-2.0-1.22","3827","1","12","Female","approach_avoid_spark_v1","""event"",""trial"",""time""
""fullscreenenter"",""1"",""3781""
","
","
","""event"",""trial"",""time""
""fullscreenenter"",""1"",""3781""
","
","","","","","","1528.800000000745","images/train2.png","","","learning","2","2","1","1","train","vehicles","2","1","","bad","[-6]"
"html-keyboard-response","235","804438","0.0-11.0-2.0-0.23","3827","1","12","Female","approach_avoid_spark_v1","""event"",""trial"",""time""
""fullscreenenter"",""1"",""3781""
","
","
","""event"",""trial"",""time""
""fullscreenenter"",""1"",""3781""
","
","","","","","","null","<div style=""font-size:60px;"">+</div>","null","","fixation","","","","","","","","","","",""
"aa-learning-trial","236","807446","0.0-11.0-2.0-1.23","3827","1","12","Female","approach_avoid_spark_v1","""event"",""trial"",""time""
""fullscreenenter"",""1"",""3781""
","
","
