"trial_type","trial_index","time_elapsed","internal_node_id","subject_id","task_condition","age","gender","task_version","interactions","blur_events","focus_events","fullscreenenter_events","fullscreenexit_events","success","timeout","failed_images","failed_audio","failed_video","rt","stimulus","response","button_pressed","task_part","approach_reward","points","key_press","option_selected","stim_cat","task_block","block_condition","block_number","correct","cat_type","mean_cat_reward"
"pavlovia","0","6","0.0-0.0","4497","1","15","Female","approach_avoid_spark_v1","""event"",""trial"",""time""
""fullscreenenter"",""1"",""3458""
","
","
","""event"",""trial"",""time""
""fullscreenenter"",""1"",""3458""
","
","","","","","","","","","","","","","","","","","","","","",""
"fullscreen","1","4448","0.0-1.0","4497","1","15","Female","approach_avoid_spark_v1","""event"",""trial"",""time""
""fullscreenenter"",""1"",""3458""
","
","
","""event"",""trial"",""time""
""fullscreenenter"",""1"",""3458""
","
","true","","","","","","","","","","","","","","","","","","","",""
"preload","2","16554","0.0-2.0","4497","1","15","Female","approach_avoid_spark_v1","""event"",""trial"",""time""
""fullscreenenter"",""1"",""3458""
","
","
","""event"",""trial"",""time""
""fullscreenenter"",""1"",""3458""
","
","true","false","[]","[]","[]","","","","","","","","","","","","","","","",""
"audio-keyboard-response","3","22655","0.0-3.0","4497","1","15","Female","approach_avoid_spark_v1","""event"",""trial"",""time""
""fullscreenenter"",""1"",""3458""
","
","
","""event"",""trial"",""time""
""fullscreenenter"",""1"",""3458""
","
","","","","","","6079.999999999998","audio/beep_loop.wav"," ","","","","","","","","","","","","",""
"audio-button-response","4","24655","0.0-4.0","4497","1","15","Female","approach_avoid_spark_v1","""event"",""trial"",""time""
""fullscreenenter"",""1"",""3458""
","
","
","""event"",""trial"",""time""
""fullscreenenter"",""1"",""3458""
","
","","","","","","1995","audio/shark.wav","4","","","","","","","","","","","","",""
"audio-button-response","5","27264","0.0-5.0","4497","1","15","Female","approach_avoid_spark_v1","""event"",""trial"",""time""
""fullscreenenter"",""1"",""3458""
","
","
","""event"",""trial"",""time""
""fullscreenenter"",""1"",""3458""
","
","","","","","","1600","audio/turtle.wav","1","","","","","","","","","","","","",""
"preload","6","31715","0.0-6.0","4497","1","15","Female","approach_avoid_spark_v1","""event"",""trial"",""time""
""fullscreenenter"",""1"",""3458""
","
","
","""event"",""trial"",""time""
""fullscreenenter"",""1"",""3458""
","
","true","false","[]","[]","[]","","","","","","","","","","","","","","","",""
"html-keyboard-response","7","44891","0.0-7.0","4497","1","15","Female","approach_avoid_spark_v1","""event"",""trial"",""time""
""fullscreenenter"",""1"",""3458""
","
","
","""event"",""trial"",""time""
""fullscreenenter"",""1"",""3458""
","
","","","","","","13174.70000000298","Welcome to the experiment. Press any key to begin and to advance the instructions."," ","","","","","","","","","","","","",""
"learning-instructions","8","53259","0.0-8.0-0.0-0.0","4497","1","15","Female","approach_avoid_spark_v1","""event"",""trial"",""time""
""fullscreenenter"",""1"",""3458""
","
","
","""event"",""trial"",""time""
""fullscreenenter"",""1"",""3458""
","
","","","","","","1411.6000000014901","<p> Welcome! Today you are going to play 6 different rounds of a decision-making game. </p><p> Use the mouse to click next to continue. </p>","","0","instructions","","","","","","","","","","",""
"learning-instructions","9","56808","0.0-8.0-0.0-0.1","4497","1","15","Female","approach_avoid_spark_v1","""event"",""trial"",""time""
""fullscreenenter"",""1"",""3458""
","
","
","""event"",""trial"",""time""
""fullscreenenter"",""1"",""3458""
","
","","","","","","820.7999999970198","<p> You will start with a practice round to learn the rules. </p>","","0","instructions","","","","","","","","","","",""
"learning-instructions","10","60768","0.0-8.0-0.0-0.2","4497","1","15","Female","approach_avoid_spark_v1","""event"",""trial"",""time""
""fullscreenenter"",""1"",""3458""
","
","
","""event"",""trial"",""time""
""fullscreenenter"",""1"",""3458""
","
","","","","","","511","<p> Your goal in this round is to give out sports equipment to kids. </p></div>","","0","instructions","","","","","","","","","","",""
"learning-instructions","11","69157","0.0-8.0-0.0-0.3","4497","1","15","Female","approach_avoid_spark_v1","""event"",""trial"",""time""
""fullscreenenter"",""1"",""3458""
","
","
","""event"",""trial"",""time""
""fullscreenenter"",""1"",""3458""
","
","","","","","","842.5999999940395","<p> The kids only like some of the equipment.  </p><p> On each turn, you will see a piece of sports equipment.   </p><p> You need to decide whether to give it to the kids or not.  </p>","","0","instructions","","","","","","","","","","",""
"learning-instructions","12","74946","0.0-8.0-0.0-0.4","4497","1","15","Female","approach_avoid_spark_v1","""event"",""trial"",""time""
""fullscreenenter"",""1"",""3458""
","
","
","""event"",""trial"",""time""
""fullscreenenter"",""1"",""3458""
","
","","","","","","1039","<p> You can give them the equipment by pressing 1 and choose not to give it to them by pressing 0. </p><br><div class=""choice-instructions-grid""> <div class=""choice-option""><img src=""images/approach.png"" class=""choice-option-img"" stage=""instructions"" position=""0"" ><div class=""choice-option-text""> Press ""1."" </div></div><div class=""choice-option""><img src=""images/avoid.png"" class=""choice-option-img"" stage=""instructions"" position=""1"" ><div class=""choice-option-text""> Press ""0."" </div></div>","","0","instructions","","","","","","","","","","",""
"learning-instructions","13","83184","0.0-8.0-0.0-0.5","4497","1","15","Female","approach_avoid_spark_v1","""event"",""trial"",""time""
""fullscreenenter"",""1"",""3458""
","
","
","""event"",""trial"",""time""
""fullscreenenter"",""1"",""3458""
","
","","","","","","846.9000000059605","<p> If you give them a piece of equipment they like, they will be happy! </p><p> But if you give them a piece of equipment they do not like, they will be sad. </p>","","0","instructions","","","","","","","","","","",""
"learning-instructions","14","94545","0.0-8.0-0.0-0.6","4497","1","15","Female","approach_avoid_spark_v1","""event"",""trial"",""time""
""fullscreenenter"",""1"",""3458""
","
","
","""event"",""trial"",""time""
""fullscreenenter"",""1"",""3458""
","
","","","","","","842.6999999955297","<p> You will earn points based on how you make kids feel. </p><p> If you make them happy, you will WIN anywhere from 1 - 9 points, </p><p> but if you make them sad, you will LOSE anywhere from 1 - 9 points. </p>","","0","instructions","","","","","","","","","","",""
"learning-instructions","15","104541","0.0-8.0-0.0-0.7","4497","1","15","Female","approach_avoid_spark_v1","""event"",""trial"",""time""
""fullscreenenter"",""1"",""3458""
","
","
","""event"",""trial"",""time""
""fullscreenenter"",""1"",""3458""
","
","","","","","","442.6000000014901","<p> You will see how many points you won or lost in the center of the screen. </p><p> Here is what you would see if you won 6 points: </p><p style=""color:green;font-size:50px;font-weight:bolder"">6</p><p style=""color:green"">The text is GREEN because you WON points.</p>","","0","instructions","","","","","","","","","","",""
"learning-instructions","16","110652","0.0-8.0-0.0-0.8","4497","1","15","Female","approach_avoid_spark_v1","""event"",""trial"",""time""
""fullscreenenter"",""1"",""3458""
","
","
","""event"",""trial"",""time""
""fullscreenenter"",""1"",""3458""
","
","","","","","","598.1000000014901","<p> And here is what you would see if you lost 4 points: </p><p style=""color:red;font-size:50px;font-weight:bolder"">-4</p><p style=""color:red"">The text is RED because you LOST points. </p>","","0","instructions","","","","","","","","","","",""
"learning-instructions","17","125930","0.0-8.0-0.0-0.9","4497","1","15","Female","approach_avoid_spark_v1","""event"",""trial"",""time""
""fullscreenenter"",""1"",""3458""
","
","
","""event"",""trial"",""time""
""fullscreenenter"",""1"",""3458""
","
","","","","","","562.5","<p> Some of the equipment will make the kids VERY happy or sad. </p><p> These pieces of equipment will make you win or lose LOTS of points. </p><p> Other pieces of equipment will only make the kids a little happy or sad. </p><p> These pieces of equipment will make you win or lose small amounts of points. </p>","","0","instructions","","","","","","","","","","",""
"learning-instructions","18","136933","0.0-8.0-0.0-0.10","4497","1","15","Female","approach_avoid_spark_v1","""event"",""trial"",""time""
""fullscreenenter"",""1"",""3458""
","
","
","""event"",""trial"",""time""
""fullscreenenter"",""1"",""3458""
","
","","","","","","371.20000000298023","<p> If you choose not to give them the equipment, you will not win or lose any points. </p><p>  However, in the center of the screen, you will see the number of points you WOULD HAVE won or lost if you had given them the equipment. </p>","","0","instructions","","","","","","","","","","",""
"learning-instructions","19","158959","0.0-8.0-0.0-0.11","4497","1","15","Female","approach_avoid_spark_v1","""event"",""trial"",""time""
""fullscreenenter"",""1"",""3458""
","
","
","""event"",""trial"",""time""
""fullscreenenter"",""1"",""3458""
","
","","","","","","486.79999999701977","<p> Here is what you might see if you did not give the equipment to the kids but it would have made them happy: </p><p style=""color:grey; font-size:50px; display: inline-block; border-spacing: 15px; border-width:3px; border-style:solid; border-color:red"">  &nbsp; 7 &nbsp; </p><p> Remember, in this case, you would not win or lose ANY points because you did not give them the equipment.  </p><p style=""color:grey"">The text is GREY because you earned ZERO points. </p><p style=""color:red"">However, choosing to give the kids the equipment would have made you win points. The box around the text is RED because you chose the worse option. </p>","","0","instructions","","","","","","","","","","",""
"learning-instructions","20","181666","0.0-8.0-0.0-0.12","4497","1","15","Female","approach_avoid_spark_v1","""event"",""trial"",""time""
""fullscreenenter"",""1"",""3458""
","
","
","""event"",""trial"",""time""
""fullscreenenter"",""1"",""3458""
","
","","","","","","1625.2999999970198","<p> Here is what you might see if you did not give the equipment to the kids but it would have made them sad: </p><p style=""color:grey;font-size:50px; display: inline-block; border-spacing: 15px; border-width:3px; border-style:solid; border-color:green"">  &nbsp; -8 &nbsp; </p><p> Remember, in this case, you would not win or lose ANY points because you did not give them the equipment.  </p><p style=""color:grey"">The text is GREY because you earned ZERO points. </p><p  style=""color:green""> Choosing to give the kids the equipment would have made you lose points. The box around the text is GREEN because you chose the better option.</p>","","0","instructions","","","","","","","","","","",""
"learning-instructions","21","191800","0.0-8.0-0.0-0.13","4497","1","15","Female","approach_avoid_spark_v1","""event"",""trial"",""time""
""fullscreenenter"",""1"",""3458""
","
","
","""event"",""trial"",""time""
""fullscreenenter"",""1"",""3458""
","
","","","","","","875","<p> You will have 3 seconds to make each choice. Try to respond before time runs out! </p><p> You will lose 5 points each time you do not make a response. </p>","","0","instructions","","","","","","","","","","",""
"learning-instructions","22","197593","0.0-8.0-0.0-0.14","4497","1","15","Female","approach_avoid_spark_v1","""event"",""trial"",""time""
""fullscreenenter"",""1"",""3458""
","
","
","""event"",""trial"",""time""
""fullscreenenter"",""1"",""3458""
","
","","","","","","381.19999999552965","<p> This is just a practice round, but in the real game, your bonus payment will depend on your total number of points.","","0","instructions","","","","","","","","","","",""
"learning-instructions","23","203847","0.0-8.0-0.0-0.15","4497","1","15","Female","approach_avoid_spark_v1","""event"",""trial"",""time""
""fullscreenenter"",""1"",""3458""
","
","
","""event"",""trial"",""time""
""fullscreenenter"",""1"",""3458""
","
","","","","","","489","<p> Remember, you can give them the equipment by pressing 1 and choose not to give it to them by pressing 0. </p><br><div class=""choice-instructions-grid""> <div class=""choice-option""><img src=""images/approach.png"" class=""choice-option-img"" stage=""instructions"" position=""0"" ><div class=""choice-option-text""> Press ""1."" </div></div><div class=""choice-option""><img src=""images/avoid.png"" class=""choice-option-img"" stage=""instructions"" position=""1"" ><div class=""choice-option-text""> Press ""0."" </div></div>","","0","instructions","","","","","","","","","","",""
"html-button-response","24","206225","0.0-8.0-1.0","4497","1","15","Female","approach_avoid_spark_v1","""event"",""trial"",""time""
""fullscreenenter"",""1"",""3458""
","
","
","""event"",""trial"",""time""
""fullscreenenter"",""1"",""3458""
","
","","","","","","2275.39999999851","<p> Ready to practice? </p>","0","","","","","","","","","","","","",""
"html-keyboard-response","25","206827","0.0-8.0-2.0-0.0","4497","1","15","Female","approach_avoid_spark_v1","""event"",""trial"",""time""
""fullscreenenter"",""1"",""3458""
","
","
","""event"",""trial"",""time""
""fullscreenenter"",""1"",""3458""
","
","","","","","","null","<div style=""font-size:60px;"">+</div>","null","","fixation","","","","","","","","","","",""
"aa-learning-trial","26","209831","0.0-8.0-2.0-1.0","4497","1","15","Female","approach_avoid_spark_v1","""event"",""trial"",""time""
""fullscreenenter"",""1"",""3458""
","
","
","""event"",""trial"",""time""
""fullscreenenter"",""1"",""3458""
","
","","","","","","1634.2999999970198","images/racket1.png","","","learning","-7","-7","1","1","practice","practice","practice","-1","","",""
"html-keyboard-response","27","210333","0.0-8.0-2.0-0.1","4497","1","15","Female","approach_avoid_spark_v1","""event"",""trial"",""time""
""fullscreenenter"",""1"",""3458""
","
","
","""event"",""trial"",""time""
""fullscreenenter"",""1"",""3458""
","
","","","","","","null","<div style=""font-size:60px;"">+</div>","null","","fixation","","","","","","","","","","",""
"aa-learning-trial","28","213336","0.0-8.0-2.0-1.1","4497","1","15","Female","approach_avoid_spark_v1","""event"",""trial"",""time""
""fullscreenenter"",""1"",""3458""
","
","
","""event"",""trial"",""time""
""fullscreenenter"",""1"",""3458""
","
","","","","","","1252","images/racket2.png","","","learning","9","0","0","0","practice","practice","practice","-1","","",""
"html-keyboard-response","29","213837","0.0-8.0-2.0-0.2","4497","1","15","Female","approach_avoid_spark_v1","""event"",""trial"",""time""
""fullscreenenter"",""1"",""3458""
","
","
","""event"",""trial"",""time""
""fullscreenenter"",""1"",""3458""
","
","","","","","","null","<div style=""font-size:60px;"">+</div>","null","","fixation","","","","","","","","","","",""
"aa-learning-trial","30","216841","0.0-8.0-2.0-1.2","4497","1","15","Female","approach_avoid_spark_v1","""event"",""trial"",""time""
""fullscreenenter"",""1"",""3458""
","
","
","""event"",""trial"",""time""
""fullscreenenter"",""1"",""3458""
","
","","","","","","630.6000000014901","images/ball2.png","","","learning","3","3","1","1","practice","practice","practice","-1","","",""
"html-keyboard-response","31","217344","0.0-8.0-2.0-0.3","4497","1","15","Female","approach_avoid_spark_v1","""event"",""trial"",""time""
""fullscreenenter"",""1"",""3458""
","
","
","""event"",""trial"",""time""
""fullscreenenter"",""1"",""3458""
","
","","","","","","null","<div style=""font-size:60px;"">+</div>","null","","fixation","","","","","","","","","","",""
"aa-learning-trial","32","220347","0.0-8.0-2.0-1.3","4497","1","15","Female","approach_avoid_spark_v1","""event"",""trial"",""time""
""fullscreenenter"",""1"",""3458""
","
","
","""event"",""trial"",""time""
""fullscreenenter"",""1"",""3458""
","
","","","","","","408.70000000298023","images/racket2.png","","","learning","-5","-5","1","1","practice","practice","practice","-1","","",""
"html-keyboard-response","33","220849","0.0-8.0-2.0-0.4","4497","1","15","Female","approach_avoid_spark_v1","""event"",""trial"",""time""
""fullscreenenter"",""1"",""3458""
","
","
","""event"",""trial"",""time""
""fullscreenenter"",""1"",""3458""
","
","","","","","","null","<div style=""font-size:60px;"">+</div>","null","","fixation","","","","","","","","","","",""
"aa-learning-trial","34","223852","0.0-8.0-2.0-1.4","4497","1","15","Female","approach_avoid_spark_v1","""event"",""trial"",""time""
""fullscreenenter"",""1"",""3458""
","
","
","""event"",""trial"",""time""
""fullscreenenter"",""1"",""3458""
","
","","","","","","742.1000000014901","images/racket3.png","","","learning","-6","-6","1","1","practice","practice","practice","-1","","",""
"html-keyboard-response","35","224353","0.0-8.0-2.0-0.5","4497","1","15","Female","approach_avoid_spark_v1","""event"",""trial"",""time""
""fullscreenenter"",""1"",""3458""
","
","
","""event"",""trial"",""time""
""fullscreenenter"",""1"",""3458""
","
","","","","","","null","<div style=""font-size:60px;"">+</div>","null","","fixation","","","","","","","","","","",""
"aa-learning-trial","36","227356","0.0-8.0-2.0-1.5","4497","1","15","Female","approach_avoid_spark_v1","""event"",""trial"",""time""
""fullscreenenter"",""1"",""3458""
","
","
","""event"",""trial"",""time""
""fullscreenenter"",""1"",""3458""
","
","","","","","","763.8999999985099","images/ball2.png","","","learning","9","9","1","1","practice","practice","practice","-1","","",""
"html-keyboard-response","37","227857","0.0-8.0-2.0-0.6","4497","1","15","Female","approach_avoid_spark_v1","""event"",""trial"",""time""
""fullscreenenter"",""1"",""3458""
","
","
","""event"",""trial"",""time""
""fullscreenenter"",""1"",""3458""
","
","","","","","","null","<div style=""font-size:60px;"">+</div>","null","","fixation","","","","","","","","","","",""
"aa-learning-trial","38","230860","0.0-8.0-2.0-1.6","4497","1","15","Female","approach_avoid_spark_v1","""event"",""trial"",""time""
""fullscreenenter"",""1"",""3458""
","
","
","""event"",""trial"",""time""
""fullscreenenter"",""1"",""3458""
","
","","","","","","659.5","images/ball1.png","","","learning","8","8","1","1","practice","practice","practice","-1","","",""
"html-keyboard-response","39","231362","0.0-8.0-2.0-0.7","4497","1","15","Female","approach_avoid_spark_v1","""event"",""trial"",""time""
""fullscreenenter"",""1"",""3458""
","
","
","""event"",""trial"",""time""
""fullscreenenter"",""1"",""3458""
","
","","","","","","null","<div style=""font-size:60px;"">+</div>","null","","fixation","","","","","","","","","","",""
"aa-learning-trial","40","234365","0.0-8.0-2.0-1.7","4497","1","15","Female","approach_avoid_spark_v1","""event"",""trial"",""time""
""fullscreenenter"",""1"",""3458""
","
","
","""event"",""trial"",""time""
""fullscreenenter"",""1"",""3458""
","
","","","","","","511.8999999985099","images/racket1.png","","","learning","1","0","0","0","practice","practice","practice","-1","","",""
"html-keyboard-response","41","234866","0.0-8.0-2.0-0.8","4497","1","15","Female","approach_avoid_spark_v1","""event"",""trial"",""time""
""fullscreenenter"",""1"",""3458""
","
","
","""event"",""trial"",""time""
""fullscreenenter"",""1"",""3458""
","
","","","","","","null","<div style=""font-size:60px;"">+</div>","null","","fixation","","","","","","","","","","",""
"aa-learning-trial","42","237870","0.0-8.0-2.0-1.8","4497","1","15","Female","approach_avoid_spark_v1","""event"",""trial"",""time""
""fullscreenenter"",""1"",""3458""
","
","
","""event"",""trial"",""time""
""fullscreenenter"",""1"",""3458""
","
","","","","","","796.1000000014901","images/racket4.png","","","learning","3","0","0","0","practice","practice","practice","-1","","",""
"html-keyboard-response","43","238372","0.0-8.0-2.0-0.9","4497","1","15","Female","approach_avoid_spark_v1","""event"",""trial"",""time""
""fullscreenenter"",""1"",""3458""
","
","
","""event"",""trial"",""time""
""fullscreenenter"",""1"",""3458""
","
","","","","","","null","<div style=""font-size:60px;"">+</div>","null","","fixation","","","","","","","","","","",""
"aa-learning-trial","44","241374","0.0-8.0-2.0-1.9","4497","1","15","Female","approach_avoid_spark_v1","""event"",""trial"",""time""
""fullscreenenter"",""1"",""3458""
","
","
","""event"",""trial"",""time""
""fullscreenenter"",""1"",""3458""
","
","","","","","","542.6000000014901","images/ball1.png","","","learning","8","8","1","1","practice","practice","practice","-1","","",""
"html-keyboard-response","45","241876","0.0-8.0-2.0-0.10","4497","1","15","Female","approach_avoid_spark_v1","""event"",""trial"",""time""
""fullscreenenter"",""1"",""3458""
","
","
","""event"",""trial"",""time""
""fullscreenenter"",""1"",""3458""
","
","","","","","","null","<div style=""font-size:60px;"">+</div>","null","","fixation","","","","","","","","","","",""
"aa-learning-trial","46","244882","0.0-8.0-2.0-1.10","4497","1","15","Female","approach_avoid_spark_v1","""event"",""trial"",""time""
""fullscreenenter"",""1"",""3458""
","
","
","""event"",""trial"",""time""
""fullscreenenter"",""1"",""3458""
","
","","","","","","426.8999999985099","images/racket2.png","","","learning","2","0","0","0","practice","practice","practice","-1","","",""
"html-keyboard-response","47","245383","0.0-8.0-2.0-0.11","4497","1","15","Female","approach_avoid_spark_v1","""event"",""trial"",""time""
""fullscreenenter"",""1"",""3458""
","
","
","""event"",""trial"",""time""
""fullscreenenter"",""1"",""3458""
","
","","","","","","null","<div style=""font-size:60px;"">+</div>","null","","fixation","","","","","","","","","","",""
"aa-learning-trial","48","248386","0.0-8.0-2.0-1.11","4497","1","15","Female","approach_avoid_spark_v1","""event"",""trial"",""time""
""fullscreenenter"",""1"",""3458""
","
","
","""event"",""trial"",""time""
""fullscreenenter"",""1"",""3458""
","
","","","","","","1356.8999999985099","images/racket2.png","","","learning","8","0","0","0","practice","practice","practice","-1","","",""
"html-button-response","49","250382","0.0-8.0-3.0","4497","1","15","Female","approach_avoid_spark_v1","""event"",""trial"",""time""
""fullscreenenter"",""1"",""3458""
","
","
","""event"",""trial"",""time""
""fullscreenenter"",""1"",""3458""
","
","","","","","","1993.3999999985099","<p> You earned 10 points in the practice round! </p>","0","","break","","","","","","","","","","",""
"learning-instructions","50","257860","0.0-8.0-4.0-0.0","4497","1","15","Female","approach_avoid_spark_v1","""event"",""trial"",""time""
""fullscreenenter"",""1"",""3458""
","
","
","""event"",""trial"",""time""
""fullscreenenter"",""1"",""3458""
","
","","","","","","1394.2999999970198","<p> It's almost time to start the real game. </p><p> Before you start, we're going to ask you a few questions about how the game works. </p>","","0","instructions","","","","","","","","","","",""
"preload","51","260022","0.0-8.0-5.0","4497","1","15","Female","approach_avoid_spark_v1","""event"",""trial"",""time""
""fullscreenenter"",""1"",""3458""
","
","
","""event"",""trial"",""time""
""fullscreenenter"",""1"",""3458""
","
","true","false","[]","[]","[]","","","","","","","","","","","","","","","",""
"comp-q","52","267210","0.0-8.0-6.0-0.0","4497","1","15","Female","approach_avoid_spark_v1","""event"",""trial"",""time""
""fullscreenenter"",""1"",""3458""
","
","
","""event"",""trial"",""time""
""fullscreenenter"",""1"",""3458""
","
","","","","","","2184.60000000149","<p> <b> True or False? </b> </p><p> If you see a number in GREY, that means you earned that many points. </p>","","1","comp_question","","","","","","","","","true","",""
"comp-q","53","280975","0.0-8.0-6.0-1.0","4497","1","15","Female","approach_avoid_spark_v1","""event"",""trial"",""time""
""fullscreenenter"",""1"",""3458""
","
","
","""event"",""trial"",""time""
""fullscreenenter"",""1"",""3458""
","
","","","","","","5406.60000000149","<p><b> That's right! </b> If you see a grey number, it means you earned ZERO points. <br> The grey numbers show the points you WOULD HAVE earned if you had made the other choice. </p>","","0","comp_answer","","","","","","","","","","",""
"comp-q","54","289380","0.0-8.0-7.0-0.0","4497","1","15","Female","approach_avoid_spark_v1","""event"",""trial"",""time""
""fullscreenenter"",""1"",""3458""
","
","
","""event"",""trial"",""time""
""fullscreenenter"",""1"",""3458""
","
","","","","","","3717.39999999851","<p> <b> True or False? </b> </p><p> You will have as much time as you want to make each choice. </p>","","1","comp_question","","","","","","","","","true","",""
"comp-q","55","297962","0.0-8.0-7.0-1.0","4497","1","15","Female","approach_avoid_spark_v1","""event"",""trial"",""time""
""fullscreenenter"",""1"",""3458""
","
","
","""event"",""trial"",""time""
""fullscreenenter"",""1"",""3458""
","
","","","","","","4544.89999999851","<p> <b> That's right! </b> You will only have 3 seconds to make each choice. </p>","","0","comp_answer","","","","","","","","","","",""
"comp-q","56","303907","0.0-8.0-8.0-0.0","4497","1","15","Female","approach_avoid_spark_v1","""event"",""trial"",""time""
""fullscreenenter"",""1"",""3458""
","
","
","""event"",""trial"",""time""
""fullscreenenter"",""1"",""3458""
","
","","","","","","1293.7000000029802","<p> <b> True or False? </b> </p><p> You should use the '1' and '0' keys to make your choices. </p>","","0","comp_question","","","","","","","","","true","",""
"comp-q","57","312129","0.0-8.0-8.0-1.0","4497","1","15","Female","approach_avoid_spark_v1","""event"",""trial"",""time""
""fullscreenenter"",""1"",""3458""
","
","
","""event"",""trial"",""time""
""fullscreenenter"",""1"",""3458""
","
","","","","","","3607.8000000044703","<p> <b> That's right! </b> You should use the '1' and '0' keys to make each choice. </p>","","0","comp_answer","","","","","","","","","","",""
"learning-instructions","58","321713","0.0-8.0-9.0-0.0","4497","1","15","Female","approach_avoid_spark_v1","""event"",""trial"",""time""
""fullscreenenter"",""1"",""3458""
","
","
","""event"",""trial"",""time""
""fullscreenenter"",""1"",""3458""
","
","","","","","","3324.0999999940395","<p> It's now time to start the real game. </p>Do your best, because the points you earn in the next rounds will influence your bonus payment. </p>","","0","instructions","","","","","","","","","","",""
"preload","59","321846","0.0-9.0-0.0","4497","1","15","Female","approach_avoid_spark_v1","""event"",""trial"",""time""
""fullscreenenter"",""1"",""3458""
","
","
","""event"",""trial"",""time""
""fullscreenenter"",""1"",""3458""
","
","true","false","[]","[]","[]","","","","","","","","","","","","","","","",""
"learning-instructions","60","326986","0.0-9.0-1.0-0.0","4497","1","15","Female","approach_avoid_spark_v1","""event"",""trial"",""time""
""fullscreenenter"",""1"",""3458""
","
","
","""event"",""trial"",""time""
""fullscreenenter"",""1"",""3458""
","
","","","","","","1568.6000000014901","<p> Your goal in this round is to eat tasty fruit. </p></div>","","0","instructions","","","","","","","","","","",""
"learning-instructions","61","337520","0.0-9.0-1.0-0.1","4497","1","15","Female","approach_avoid_spark_v1","""event"",""trial"",""time""
""fullscreenenter"",""1"",""3458""
","
","
","""event"",""trial"",""time""
""fullscreenenter"",""1"",""3458""
","
","","","","","","838.2000000029802","<p> Some of the fruits you will see are tasty. Others are rotten on the inside.  </p><p> On each turn, you will see a fruit.   </p><p> You need to decide whether to eat it or not.  </p>","","0","instructions","","","","","","","","","","",""
"learning-instructions","62","345598","0.0-9.0-1.0-0.2","4497","1","15","Female","approach_avoid_spark_v1","""event"",""trial"",""time""
""fullscreenenter"",""1"",""3458""
","
","
","""event"",""trial"",""time""
""fullscreenenter"",""1"",""3458""
","
","","","","","","3262.5","<p> You can eat the fruit by pressing 1 and choose not to eat it by pressing 0. </p><br><div class=""choice-instructions-grid""> <div class=""choice-option""><img src=""images/approach.png"" class=""choice-option-img"" stage=""instructions"" position=""0"" ><div class=""choice-option-text""> Press ""1."" </div></div><div class=""choice-option""><img src=""images/avoid.png"" class=""choice-option-img"" stage=""instructions"" position=""1"" ><div class=""choice-option-text""> Press ""0."" </div></div>","","0","instructions","","","","","","","","","","",""
"learning-instructions","63","353307","0.0-9.0-1.0-0.3","4497","1","15","Female","approach_avoid_spark_v1","""event"",""trial"",""time""
""fullscreenenter"",""1"",""3458""
","
","
","""event"",""trial"",""time""
""fullscreenenter"",""1"",""3458""
","
","","","","","","698.7999999970198","<p> If you eat the fruit and it was tasty, you will win points! </p><p> But if you eat the fruit and it was rotten, you will lose points. </p>","","0","instructions","","","","","","","","","","",""
"learning-instructions","64","366522","0.0-9.0-1.0-0.4","4497","1","15","Female","approach_avoid_spark_v1","""event"",""trial"",""time""
""fullscreenenter"",""1"",""3458""
","
","
","""event"",""trial"",""time""
""fullscreenenter"",""1"",""3458""
","
","","","","","","1860.9000000059605","<p> You will earn points based on how tasty or rotten the fruit was. </p><p> If it was tasty, you will WIN anywhere from 1 - 9 points, </p><p> but if it was rotten, you will LOSE anywhere from 1 - 9 points. </p>","","0","instructions","","","","","","","","","","",""
"learning-instructions","65","375387","0.0-9.0-1.0-0.5","4497","1","15","Female","approach_avoid_spark_v1","""event"",""trial"",""time""
""fullscreenenter"",""1"",""3458""
","
","
","""event"",""trial"",""time""
""fullscreenenter"",""1"",""3458""
","
","","","","","","1351.1000000014901","<p> You will see how many points you won or lost in the center of the screen. </p><p> Here is what you would see if you earned 5 points: </p><p style=""color:green;font-size:50px;font-weight:bolder"">5</p>","","0","instructions","","","","","","","","","","",""
"learning-instructions","66","380383","0.0-9.0-1.0-0.6","4497","1","15","Female","approach_avoid_spark_v1","""event"",""trial"",""time""
""fullscreenenter"",""1"",""3458""
","
","
","""event"",""trial"",""time""
""fullscreenenter"",""1"",""3458""
","
","","","","","","1524.5","<p> And here is what you would see if you lost 3 points: </p><p style=""color:red;font-size:50px;font-weight:bolder"">-3</p>","","0","instructions","","","","","","","","","","",""
"learning-instructions","67","395179","0.0-9.0-1.0-0.7","4497","1","15","Female","approach_avoid_spark_v1","""event"",""trial"",""time""
""fullscreenenter"",""1"",""3458""
","
","
","""event"",""trial"",""time""
""fullscreenenter"",""1"",""3458""
","
","","","","","","821.8999999985099","<p> Some fruit is very tasty or very rotten. </p><p> These fruits will make you win or lose LOTS of points. </p><p> Other fruits are only kind of tasty or kind of rotten. </p><p> These fruits will make you win or lose small amounts of points. </p>","","0","instructions","","","","","","","","","","",""
"learning-instructions","68","408646","0.0-9.0-1.0-0.8","4497","1","15","Female","approach_avoid_spark_v1","""event"",""trial"",""time""
""fullscreenenter"",""1"",""3458""
","
","
","""event"",""trial"",""time""
""fullscreenenter"",""1"",""3458""
","
","","","","","","2396.2000000029802","<p> If you choose to not eat the fruit, you will not win or lose any points. </p><p>  However, in the center of the screen, you will see the number of points you WOULD HAVE earned if you had eaten the fruit. </p>","","0","instructions","","","","","","","","","","",""
"learning-instructions","69","419325","0.0-9.0-1.0-0.9","4497","1","15","Female","approach_avoid_spark_v1","""event"",""trial"",""time""
""fullscreenenter"",""1"",""3458""
","
","
","""event"",""trial"",""time""
""fullscreenenter"",""1"",""3458""
","
","","","","","","776.5","<p> Here is what you might see if you did not eat the fruit but the fruit was tasty: </p><p style=""color:grey; font-size:50px; display: inline-block; border-spacing: 15px; border-width:3px; border-style:solid; border-color:red"">  &nbsp; 6 &nbsp; </p><p> Remember, in this case, you would not win or lose ANY points because you did not eat the fruit.  </p>","","0","instructions","","","","","","","","","","",""
"learning-instructions","70","427525","0.0-9.0-1.0-0.10","4497","1","15","Female","approach_avoid_spark_v1","""event"",""trial"",""time""
""fullscreenenter"",""1"",""3458""
","
","
","""event"",""trial"",""time""
""fullscreenenter"",""1"",""3458""
","
","","","","","","410.5","<p> Try to make the best choice for each fruit because </p><p> at the end of the game, you will earn bonus money based on how many points you earned. </p>","","0","instructions","","","","","","","","","","",""
"learning-instructions","71","439255","0.0-9.0-1.0-0.11","4497","1","15","Female","approach_avoid_spark_v1","""event"",""trial"",""time""
""fullscreenenter"",""1"",""3458""
","
","
","""event"",""trial"",""time""
""fullscreenenter"",""1"",""3458""
","
","","","","","","3543.7000000029802","<p> You will have 3 seconds to make each choice. Try to respond before time runs out! </p><p> You will lose 5 points each time you do not make a response. </p>","","0","instructions","","","","","","","","","","",""
"html-keyboard-response","72","439857","0.0-9.0-2.0-0.0","4497","1","15","Female","approach_avoid_spark_v1","""event"",""trial"",""time""
""fullscreenenter"",""1"",""3458""
","
","
","""event"",""trial"",""time""
""fullscreenenter"",""1"",""3458""
","
","","","","","","null","<div style=""font-size:60px;"">+</div>","null","","fixation","","","","","","","","","","",""
"aa-learning-trial","73","442860","0.0-9.0-2.0-1.0","4497","1","15","Female","approach_avoid_spark_v1","""event"",""trial"",""time""
""fullscreenenter"",""1"",""3458""
","
","
","""event"",""trial"",""time""
""fullscreenenter"",""1"",""3458""
","
","","","","","","2544.2000000029802","images/straw4.png","","","learning","2","2","1","1","straw","fruit","1","0","","good","[4]"
"html-keyboard-response","74","443361","0.0-9.0-2.0-0.1","4497","1","15","Female","approach_avoid_spark_v1","""event"",""trial"",""time""
""fullscreenenter"",""1"",""3458""
","
","
","""event"",""trial"",""time""
""fullscreenenter"",""1"",""3458""
","
","","","","","","null","<div style=""font-size:60px;"">+</div>","null","","fixation","","","","","","","","","","",""
"aa-learning-trial","75","446364","0.0-9.0-2.0-1.1","4497","1","15","Female","approach_avoid_spark_v1","""event"",""trial"",""time""
""fullscreenenter"",""1"",""3458""
","
","
","""event"",""trial"",""time""
""fullscreenenter"",""1"",""3458""
","
","","","","","","1852.7999999970198","images/orange5.png","","","learning","-5","-5","1","1","orange","fruit","1","0","","bad","[-6]"
"html-keyboard-response","76","446865","0.0-9.0-2.0-0.2","4497","1","15","Female","approach_avoid_spark_v1","""event"",""trial"",""time""
""fullscreenenter"",""1"",""3458""
","
","
","""event"",""trial"",""time""
""fullscreenenter"",""1"",""3458""
","
","","","","","","null","<div style=""font-size:60px;"">+</div>","null","","fixation","","","","","","","","","","",""
"aa-learning-trial","77","449868","0.0-9.0-2.0-1.2","4497","1","15","Female","approach_avoid_spark_v1","""event"",""trial"",""time""
""fullscreenenter"",""1"",""3458""
","
","
","""event"",""trial"",""time""
""fullscreenenter"",""1"",""3458""
","
","","","","","","1080.6000000014901","images/orange1.png","","","learning","-8","-8","1","1","orange","fruit","1","0","","bad","[-6]"
"html-keyboard-response","78","450370","0.0-9.0-2.0-0.3","4497","1","15","Female","approach_avoid_spark_v1","""event"",""trial"",""time""
""fullscreenenter"",""1"",""3458""
","
","
","""event"",""trial"",""time""
""fullscreenenter"",""1"",""3458""
","
","","","","","","null","<div style=""font-size:60px;"">+</div>","null","","fixation","","","","","","","","","","",""
"aa-learning-trial","79","453373","0.0-9.0-2.0-1.3","4497","1","15","Female","approach_avoid_spark_v1","""event"",""trial"",""time""
""fullscreenenter"",""1"",""3458""
","
","
","""event"",""trial"",""time""
""fullscreenenter"",""1"",""3458""
","
","","","","","","424","images/straw3.png","","","learning","2","2","1","1","straw","fruit","1","0","","good","[4]"
"html-keyboard-response","80","453874","0.0-9.0-2.0-0.4","4497","1","15","Female","approach_avoid_spark_v1","""event"",""trial"",""time""
""fullscreenenter"",""1"",""3458""
","
","
","""event"",""trial"",""time""
""fullscreenenter"",""1"",""3458""
","
","","","","","","null","<div style=""font-size:60px;"">+</div>","null","","fixation","","","","","","","","","","",""
"aa-learning-trial","81","456878","0.0-9.0-2.0-1.4","4497","1","15","Female","approach_avoid_spark_v1","""event"",""trial"",""time""
""fullscreenenter"",""1"",""3458""
","
","
","""event"",""trial"",""time""
""fullscreenenter"",""1"",""3458""
","
","","","","","","749","images/orange4.png","","","learning","-7","0","0","0","orange","fruit","1","0","","bad","[-6]"
"html-keyboard-response","82","457379","0.0-9.0-2.0-0.5","4497","1","15","Female","approach_avoid_spark_v1","""event"",""trial"",""time""
""fullscreenenter"",""1"",""3458""
","
","
","""event"",""trial"",""time""
""fullscreenenter"",""1"",""3458""
","
","","","","","","null","<div style=""font-size:60px;"">+</div>","null","","fixation","","","","","","","","","","",""
"aa-learning-trial","83","460382","0.0-9.0-2.0-1.5","4497","1","15","Female","approach_avoid_spark_v1","""event"",""trial"",""time""
""fullscreenenter"",""1"",""3458""
","
","
","""event"",""trial"",""time""
""fullscreenenter"",""1"",""3458""
","
","","","","","","911.6999999955297","images/apple3.png","","","learning","2","2","1","1","apple","fruit","1","0","","neutral","0"
"html-keyboard-response","84","460884","0.0-9.0-2.0-0.6","4497","1","15","Female","approach_avoid_spark_v1","""event"",""trial"",""time""
""fullscreenenter"",""1"",""3458""
","
","
","""event"",""trial"",""time""
""fullscreenenter"",""1"",""3458""
","
","","","","","","null","<div style=""font-size:60px;"">+</div>","null","","fixation","","","","","","","","","","",""
"aa-learning-trial","85","463887","0.0-9.0-2.0-1.6","4497","1","15","Female","approach_avoid_spark_v1","""event"",""trial"",""time""
""fullscreenenter"",""1"",""3458""
","
","
","""event"",""trial"",""time""
""fullscreenenter"",""1"",""3458""
","
","","","","","","604","images/straw4.png","","","learning","1","1","1","1","straw","fruit","1","0","","good","[4]"
"html-keyboard-response","86","464388","0.0-9.0-2.0-0.7","4497","1","15","Female","approach_avoid_spark_v1","""event"",""trial"",""time""
""fullscreenenter"",""1"",""3458""
","
","
","""event"",""trial"",""time""
""fullscreenenter"",""1"",""3458""
","
","","","","","","null","<div style=""font-size:60px;"">+</div>","null","","fixation","","","","","","","","","","",""
"aa-learning-trial","87","467391","0.0-9.0-2.0-1.7","4497","1","15","Female","approach_avoid_spark_v1","""event"",""trial"",""time""
""fullscreenenter"",""1"",""3458""
","
","
","""event"",""trial"",""time""
""fullscreenenter"",""1"",""3458""
","
","","","","","","561.2999999970198","images/straw3.png","","","learning","4","4","1","1","straw","fruit","1","0","","good","[4]"
"html-keyboard-response","88","467893","0.0-9.0-2.0-0.8","4497","1","15","Female","approach_avoid_spark_v1","""event"",""trial"",""time""
""fullscreenenter"",""1"",""3458""
","
","
","""event"",""trial"",""time""
""fullscreenenter"",""1"",""3458""
","
","","","","","","null","<div style=""font-size:60px;"">+</div>","null","","fixation","","","","","","","","","","",""
"aa-learning-trial","89","470896","0.0-9.0-2.0-1.8","4497","1","15","Female","approach_avoid_spark_v1","""event"",""trial"",""time""
""fullscreenenter"",""1"",""3458""
","
","
","""event"",""trial"",""time""
""fullscreenenter"",""1"",""3458""
","
","","","","","","961.9000000059605","images/apple6.png","","","learning","-1","-1","1","1","apple","fruit","1","0","","neutral","0"
"html-keyboard-response","90","471398","0.0-9.0-2.0-0.9","4497","1","15","Female","approach_avoid_spark_v1","""event"",""trial"",""time""
""fullscreenenter"",""1"",""3458""
","
","
","""event"",""trial"",""time""
""fullscreenenter"",""1"",""3458""
","
","","","","","","null","<div style=""font-size:60px;"">+</div>","null","","fixation","","","","","","","","","","",""
"aa-learning-trial","91","474400","0.0-9.0-2.0-1.9","4497","1","15","Female","approach_avoid_spark_v1","""event"",""trial"",""time""
""fullscreenenter"",""1"",""3458""
","
","
","""event"",""trial"",""time""
""fullscreenenter"",""1"",""3458""
","
","","","","","","811.2999999970198","images/orange4.png","","","learning","-5","0","0","0","orange","fruit","1","0","","bad","[-6]"
"html-keyboard-response","92","474902","0.0-9.0-2.0-0.10","4497","1","15","Female","approach_avoid_spark_v1","""event"",""trial"",""time""
""fullscreenenter"",""1"",""3458""
","
","
","""event"",""trial"",""time""
""fullscreenenter"",""1"",""3458""
","
","","","","","","null","<div style=""font-size:60px;"">+</div>","null","","fixation","","","","","","","","","","",""
"aa-learning-trial","93","477905","0.0-9.0-2.0-1.10","4497","1","15","Female","approach_avoid_spark_v1","""event"",""trial"",""time""
""fullscreenenter"",""1"",""3458""
","
","
","""event"",""trial"",""time""
""fullscreenenter"",""1"",""3458""
","
","","","","","","764.7000000029802","images/apple8.png","","","learning","-2","-2","1","1","apple","fruit","1","0","","neutral","0"
"html-keyboard-response","94","478407","0.0-9.0-2.0-0.11","4497","1","15","Female","approach_avoid_spark_v1","""event"",""trial"",""time""
""fullscreenenter"",""1"",""3458""
","
","
","""event"",""trial"",""time""
""fullscreenenter"",""1"",""3458""
","
","","","","","","null","<div style=""font-size:60px;"">+</div>","null","","fixation","","","","","","","","","","",""
"aa-learning-trial","95","481410","0.0-9.0-2.0-1.11","4497","1","15","Female","approach_avoid_spark_v1","""event"",""trial"",""time""
""fullscreenenter"",""1"",""3458""
","
","
","""event"",""trial"",""time""
""fullscreenenter"",""1"",""3458""
","
","","","","","","799.2000000029802","images/orange1.png","","","learning","-4","0","0","0","orange","fruit","1","0","","bad","[-6]"
"html-keyboard-response","96","481911","0.0-9.0-2.0-0.12","4497","1","15","Female","approach_avoid_spark_v1","""event"",""trial"",""time""
""fullscreenenter"",""1"",""3458""
","
","
","""event"",""trial"",""time""
""fullscreenenter"",""1"",""3458""
","
","","","","","","null","<div style=""font-size:60px;"">+</div>","null","","fixation","","","","","","","","","","",""
"aa-learning-trial","97","484914","0.0-9.0-2.0-1.12","4497","1","15","Female","approach_avoid_spark_v1","""event"",""trial"",""time""
""fullscreenenter"",""1"",""3458""
","
","
","""event"",""trial"",""time""
""fullscreenenter"",""1"",""3458""
","
","","","","","","614.8000000044703","images/straw1.png","","","learning","4","4","1","1","straw","fruit","1","0","","good","[4]"
"html-keyboard-response","98","485416","0.0-9.0-2.0-0.13","4497","1","15","Female","approach_avoid_spark_v1","""event"",""trial"",""time""
""fullscreenenter"",""1"",""3458""
","
","
","""event"",""trial"",""time""
""fullscreenenter"",""1"",""3458""
","
","","","","","","null","<div style=""font-size:60px;"">+</div>","null","","fixation","","","","","","","","","","",""
"aa-learning-trial","99","488419","0.0-9.0-2.0-1.13","4497","1","15","Female","approach_avoid_spark_v1","""event"",""trial"",""time""
""fullscreenenter"",""1"",""3458""
","
","
","""event"",""trial"",""time""
""fullscreenenter"",""1"",""3458""
","
","","","","","","776.8999999985099","images/apple3.png","","","learning","1","0","0","0","apple","fruit","1","0","","neutral","0"
"html-keyboard-response","100","488921","0.0-9.0-2.0-0.14","4497","1","15","Female","approach_avoid_spark_v1","""event"",""trial"",""time""
""fullscreenenter"",""1"",""3458""
","
","
","""event"",""trial"",""time""
""fullscreenenter"",""1"",""3458""
","
","","","","","","null","<div style=""font-size:60px;"">+</div>","null","","fixation","","","","","","","","","","",""
"aa-learning-trial","101","491923","0.0-9.0-2.0-1.14","4497","1","15","Female","approach_avoid_spark_v1","""event"",""trial"",""time""
""fullscreenenter"",""1"",""3458""
","
","
","""event"",""trial"",""time""
""fullscreenenter"",""1"",""3458""
","
","","","","","","871.1000000014901","images/apple8.png","","","learning","1","0","0","0","apple","fruit","1","0","","neutral","0"
"html-keyboard-response","102","492425","0.0-9.0-2.0-0.15","4497","1","15","Female","approach_avoid_spark_v1","""event"",""trial"",""time""
""fullscreenenter"",""1"",""3458""
","
","
","""event"",""trial"",""time""
""fullscreenenter"",""1"",""3458""
","
","","","","","","null","<div style=""font-size:60px;"">+</div>","null","","fixation","","","","","","","","","","",""
"aa-learning-trial","103","495428","0.0-9.0-2.0-1.15","4497","1","15","Female","approach_avoid_spark_v1","""event"",""trial"",""time""
""fullscreenenter"",""1"",""3458""
","
","
","""event"",""trial"",""time""
""fullscreenenter"",""1"",""3458""
","
","","","","","","763.5","images/apple6.png","","","learning","1","0","0","0","apple","fruit","1","0","","neutral","0"
"html-keyboard-response","104","495930","0.0-9.0-2.0-0.16","4497","1","15","Female","approach_avoid_spark_v1","""event"",""trial"",""time""
""fullscreenenter"",""1"",""3458""
","
","
","""event"",""trial"",""time""
""fullscreenenter"",""1"",""3458""
","
","","","","","","null","<div style=""font-size:60px;"">+</div>","null","","fixation","","","","","","","","","","",""
"aa-learning-trial","105","498933","0.0-9.0-2.0-1.16","4497","1","15","Female","approach_avoid_spark_v1","""event"",""trial"",""time""
""fullscreenenter"",""1"",""3458""
","
","
","""event"",""trial"",""time""
""fullscreenenter"",""1"",""3458""
","
","","","","","","737.8999999985099","images/apple8.png","","","learning","-2","-2","1","1","apple","fruit","1","0","","neutral","0"
"html-keyboard-response","106","499435","0.0-9.0-2.0-0.17","4497","1","15","Female","approach_avoid_spark_v1","""event"",""trial"",""time""
""fullscreenenter"",""1"",""3458""
","
","
","""event"",""trial"",""time""
""fullscreenenter"",""1"",""3458""
","
","","","","","","null","<div style=""font-size:60px;"">+</div>","null","","fixation","","","","","","","","","","",""
"aa-learning-trial","107","502438","0.0-9.0-2.0-1.17","4497","1","15","Female","approach_avoid_spark_v1","""event"",""trial"",""time""
""fullscreenenter"",""1"",""3458""
","
","
","""event"",""trial"",""time""
""fullscreenenter"",""1"",""3458""
","
","","","","","","503.6000000014901","images/apple3.png","","","learning","-1","0","0","0","apple","fruit","1","0","","neutral","0"
"html-keyboard-response","108","502940","0.0-9.0-2.0-0.18","4497","1","15","Female","approach_avoid_spark_v1","""event"",""trial"",""time""
""fullscreenenter"",""1"",""3458""
","
","
","""event"",""trial"",""time""
""fullscreenenter"",""1"",""3458""
","
","","","","","","null","<div style=""font-size:60px;"">+</div>","null","","fixation","","","","","","","","","","",""
"aa-learning-trial","109","505943","0.0-9.0-2.0-1.18","4497","1","15","Female","approach_avoid_spark_v1","""event"",""trial"",""time""
""fullscreenenter"",""1"",""3458""
","
","
","""event"",""trial"",""time""
""fullscreenenter"",""1"",""3458""
","
","","","","","","471.30000000447035","images/straw4.png","","","learning","2","2","1","1","straw","fruit","1","0","","good","[4]"
"html-keyboard-response","110","506444","0.0-9.0-2.0-0.19","4497","1","15","Female","approach_avoid_spark_v1","""event"",""trial"",""time""
""fullscreenenter"",""1"",""3458""
","
","
","""event"",""trial"",""time""
""fullscreenenter"",""1"",""3458""
","
","","","","","","null","<div style=""font-size:60px;"">+</div>","null","","fixation","","","","","","","","","","",""
"aa-learning-trial","111","509447","0.0-9.0-2.0-1.19","4497","1","15","Female","approach_avoid_spark_v1","""event"",""trial"",""time""
""fullscreenenter"",""1"",""3458""
","
","
","""event"",""trial"",""time""
""fullscreenenter"",""1"",""3458""
","
","","","","","","654.7999999970198","images/orange1.png","","","learning","-5","0","0","0","orange","fruit","1","0","","bad","[-6]"
"html-keyboard-response","112","509949","0.0-9.0-2.0-0.20","4497","1","15","Female","approach_avoid_spark_v1","""event"",""trial"",""time""
""fullscreenenter"",""1"",""3458""
","
","
","""event"",""trial"",""time""
""fullscreenenter"",""1"",""3458""
","
","","","","","","null","<div style=""font-size:60px;"">+</div>","null","","fixation","","","","","","","","","","",""
"aa-learning-trial","113","512952","0.0-9.0-2.0-1.20","4497","1","15","Female","approach_avoid_spark_v1","""event"",""trial"",""time""
""fullscreenenter"",""1"",""3458""
","
","
","""event"",""trial"",""time""
""fullscreenenter"",""1"",""3458""
","
","","","","","","843","images/apple6.png","","","learning","3","0","0","0","apple","fruit","1","0","","neutral","0"
"html-keyboard-response","114","513454","0.0-9.0-2.0-0.21","4497","1","15","Female","approach_avoid_spark_v1","""event"",""trial"",""time""
""fullscreenenter"",""1"",""3458""
","
","
","""event"",""trial"",""time""
""fullscreenenter"",""1"",""3458""
","
","","","","","","null","<div style=""font-size:60px;"">+</div>","null","","fixation","","","","","","","","","","",""
"aa-learning-trial","115","516456","0.0-9.0-2.0-1.21","4497","1","15","Female","approach_avoid_spark_v1","""event"",""trial"",""time""
""fullscreenenter"",""1"",""3458""
","
","
","""event"",""trial"",""time""
""fullscreenenter"",""1"",""3458""
","
","","","","","","594.7999999970198","images/apple8.png","","","learning","1","1","1","1","apple","fruit","1","0","","neutral","0"
"html-keyboard-response","116","516958","0.0-9.0-2.0-0.22","4497","1","15","Female","approach_avoid_spark_v1","""event"",""trial"",""time""
""fullscreenenter"",""1"",""3458""
","
","
","""event"",""trial"",""time""
""fullscreenenter"",""1"",""3458""
","
","","","","","","null","<div style=""font-size:60px;"">+</div>","null","","fixation","","","","","","","","","","",""
"aa-learning-trial","117","519961","0.0-9.0-2.0-1.22","4497","1","15","Female","approach_avoid_spark_v1","""event"",""trial"",""time""
""fullscreenenter"",""1"",""3458""
","
","
","""event"",""trial"",""time""
""fullscreenenter"",""1"",""3458""
","
","","","","","","698.9000000059605","images/straw4.png","","","learning","4","4","1","1","straw","fruit","1","0","","good","[4]"
"html-keyboard-response","118","520462","0.0-9.0-2.0-0.23","4497","1","15","Female","approach_avoid_spark_v1","""event"",""trial"",""time""
""fullscreenenter"",""1"",""3458""
","
","
","""event"",""trial"",""time""
""fullscreenenter"",""1"",""3458""
","
","","","","","","null","<div style=""font-size:60px;"">+</div>","null","","fixation","","","","","","","","","","",""
"aa-learning-trial","119","523466","0.0-9.0-2.0-1.23","4497","1","15","Female","approach_avoid_spark_v1","""event"",""trial"",""time""
""fullscreenenter"",""1"",""3458""
","
","
","""event"",""trial"",""time""
""fullscreenenter"",""1"",""3458""
","
","","","","","","693.7999999970198","images/orange5.png","","","learning","-5","0","0","0","orange","fruit","1","0","","bad","[-6]"
"html-keyboard-response","120","523968","0.0-9.0-2.0-0.24","4497","1","15","Female","approach_avoid_spark_v1","""event"",""trial"",""time""
""fullscreenenter"",""1"",""3458""
","
","
","""event"",""trial"",""time""
""fullscreenenter"",""1"",""3458""
","
","","","","","","null","<div style=""font-size:60px;"">+</div>","null","","fixation","","","","","","","","","","",""
"aa-learning-trial","121","526971","0.0-9.0-2.0-1.24","4497","1","15","Female","approach_avoid_spark_v1","""event"",""trial"",""time""
""fullscreenenter"",""1"",""3458""
","
","
","""event"",""trial"",""time""
""fullscreenenter"",""1"",""3458""
","
","","","","","","732.1999999955297","images/orange1.png","","","learning","-6","0","0","0","orange","fruit","1","0","","bad","[-6]"
"html-keyboard-response","122","527473","0.0-9.0-2.0-0.25","4497","1","15","Female","approach_avoid_spark_v1","""event"",""trial"",""time""
""fullscreenenter"",""1"",""3458""
","
","
","""event"",""trial"",""time""
""fullscreenenter"",""1"",""3458""
","
","","","","","","null","<div style=""font-size:60px;"">+</div>","null","","fixation","","","","","","","","","","",""
"aa-learning-trial","123","530475","0.0-9.0-2.0-1.25","4497","1","15","Female","approach_avoid_spark_v1","""event"",""trial"",""time""
""fullscreenenter"",""1"",""3458""
","
","
","""event"",""trial"",""time""
""fullscreenenter"",""1"",""3458""
","
","","","","","","1562.3000000044703","images/apple3.png","","","learning","1","1","1","1","apple","fruit","1","0","","neutral","0"
"html-keyboard-response","124","530977","0.0-9.0-2.0-0.26","4497","1","15","Female","approach_avoid_spark_v1","""event"",""trial"",""time""
""fullscreenenter"",""1"",""3458""
","
","
","""event"",""trial"",""time""
""fullscreenenter"",""1"",""3458""
","
","","","","","","null","<div style=""font-size:60px;"">+</div>","null","","fixation","","","","","","","","","","",""
"aa-learning-trial","125","533981","0.0-9.0-2.0-1.26","4497","1","15","Female","approach_avoid_spark_v1","""event"",""trial"",""time""
""fullscreenenter"",""1"",""3458""
","
","
","""event"",""trial"",""time""
""fullscreenenter"",""1"",""3458""
","
","","","","","","731.1000000014901","images/straw3.png","","","learning","3","3","1","1","straw","fruit","1","0","","good","[4]"
"html-keyboard-response","126","534483","0.0-9.0-2.0-0.27","4497","1","15","Female","approach_avoid_spark_v1","""event"",""trial"",""time""
""fullscreenenter"",""1"",""3458""
","
","
","""event"",""trial"",""time""
""fullscreenenter"",""1"",""3458""
","
","","","","","","null","<div style=""font-size:60px;"">+</div>","null","","fixation","","","","","","","","","","",""
"aa-learning-trial","127","537486","0.0-9.0-2.0-1.27","4497","1","15","Female","approach_avoid_spark_v1","""event"",""trial"",""time""
""fullscreenenter"",""1"",""3458""
","
","
","""event"",""trial"",""time""
""fullscreenenter"",""1"",""3458""
","
","","","","","","641.3999999985099","images/orange4.png","","","learning","-5","0","0","0","orange","fruit","1","0","","bad","[-6]"
"html-keyboard-response","128","537987","0.0-9.0-2.0-0.28","4497","1","15","Female","approach_avoid_spark_v1","""event"",""trial"",""time""
""fullscreenenter"",""1"",""3458""
","
","
","""event"",""trial"",""time""
""fullscreenenter"",""1"",""3458""
","
","","","","","","null","<div style=""font-size:60px;"">+</div>","null","","fixation","","","","","","","","","","",""
"aa-learning-trial","129","540990","0.0-9.0-2.0-1.28","4497","1","15","Female","approach_avoid_spark_v1","""event"",""trial"",""time""
""fullscreenenter"",""1"",""3458""
","
","
","""event"",""trial"",""time""
""fullscreenenter"",""1"",""3458""
","
","","","","","","700.1999999955297","images/orange4.png","","","learning","-8","0","0","0","orange","fruit","1","0","","bad","[-6]"
"html-keyboard-response","130","541491","0.0-9.0-2.0-0.29","4497","1","15","Female","approach_avoid_spark_v1","""event"",""trial"",""time""
""fullscreenenter"",""1"",""3458""
","
","
","""event"",""trial"",""time""
""fullscreenenter"",""1"",""3458""
","
","","","","","","null","<div style=""font-size:60px;"">+</div>","null","","fixation","","","","","","","","","","",""
"aa-learning-trial","131","544494","0.0-9.0-2.0-1.29","4497","1","15","Female","approach_avoid_spark_v1","""event"",""trial"",""time""
""fullscreenenter"",""1"",""3458""
","
","
","""event"",""trial"",""time""
""fullscreenenter"",""1"",""3458""
","
","","","","","","585.8999999985099","images/orange1.png","","","learning","-4","0","0","0","orange","fruit","1","0","","bad","[-6]"
"html-keyboard-response","132","544995","0.0-9.0-2.0-0.30","4497","1","15","Female","approach_avoid_spark_v1","""event"",""trial"",""time""
""fullscreenenter"",""1"",""3458""
","
","
","""event"",""trial"",""time""
""fullscreenenter"",""1"",""3458""
","
","","","","","","null","<div style=""font-size:60px;"">+</div>","null","","fixation","","","","","","","","","","",""
"aa-learning-trial","133","547998","0.0-9.0-2.0-1.30","4497","1","15","Female","approach_avoid_spark_v1","""event"",""trial"",""time""
""fullscreenenter"",""1"",""3458""
","
","
","""event"",""trial"",""time""
""fullscreenenter"",""1"",""3458""
","
","","","","","","563","images/straw8.png","","","learning","5","5","1","1","straw","fruit","1","0","","good","[4]"
"html-keyboard-response","134","548499","0.0-9.0-2.0-0.31","4497","1","15","Female","approach_avoid_spark_v1","""event"",""trial"",""time""
""fullscreenenter"",""1"",""3458""
","
","
","""event"",""trial"",""time""
""fullscreenenter"",""1"",""3458""
","
","","","","","","null","<div style=""font-size:60px;"">+</div>","null","","fixation","","","","","","","","","","",""
"aa-learning-trial","135","551503","0.0-9.0-2.0-1.31","4497","1","15","Female","approach_avoid_spark_v1","""event"",""trial"",""time""
""fullscreenenter"",""1"",""3458""
","
","
","""event"",""trial"",""time""
""fullscreenenter"",""1"",""3458""
","
","","","","","","543.3000000044703","images/orange5.png","","","learning","-5","0","0","0","orange","fruit","1","0","","bad","[-6]"
"html-keyboard-response","136","552005","0.0-9.0-2.0-0.32","4497","1","15","Female","approach_avoid_spark_v1","""event"",""trial"",""time""
""fullscreenenter"",""1"",""3458""
","
","
","""event"",""trial"",""time""
""fullscreenenter"",""1"",""3458""
","
","","","","","","null","<div style=""font-size:60px;"">+</div>","null","","fixation","","","","","","","","","","",""
"aa-learning-trial","137","555008","0.0-9.0-2.0-1.32","4497","1","15","Female","approach_avoid_spark_v1","""event"",""trial"",""time""
""fullscreenenter"",""1"",""3458""
","
","
","""event"",""trial"",""time""
""fullscreenenter"",""1"",""3458""
","
","","","","","","456.3999999985099","images/orange1.png","","","learning","-5","0","0","0","orange","fruit","1","0","","bad","[-6]"
"html-keyboard-response","138","555509","0.0-9.0-2.0-0.33","4497","1","15","Female","approach_avoid_spark_v1","""event"",""trial"",""time""
""fullscreenenter"",""1"",""3458""
","
","
","""event"",""trial"",""time""
""fullscreenenter"",""1"",""3458""
","
","","","","","","null","<div style=""font-size:60px;"">+</div>","null","","fixation","","","","","","","","","","",""
"aa-learning-trial","139","558512","0.0-9.0-2.0-1.33","4497","1","15","Female","approach_avoid_spark_v1","""event"",""trial"",""time""
""fullscreenenter"",""1"",""3458""
","
","
","""event"",""trial"",""time""
""fullscreenenter"",""1"",""3458""
","
","","","","","","554.1000000014901","images/straw4.png","","","learning","4","4","1","1","straw","fruit","1","0","","good","[4]"
"html-keyboard-response","140","559013","0.0-9.0-2.0-0.34","4497","1","15","Female","approach_avoid_spark_v1","""event"",""trial"",""time""
""fullscreenenter"",""1"",""3458""
","
","
","""event"",""trial"",""time""
""fullscreenenter"",""1"",""3458""
","
","","","","","","null","<div style=""font-size:60px;"">+</div>","null","","fixation","","","","","","","","","","",""
"aa-learning-trial","141","562016","0.0-9.0-2.0-1.34","4497","1","15","Female","approach_avoid_spark_v1","""event"",""trial"",""time""
""fullscreenenter"",""1"",""3458""
","
","
","""event"",""trial"",""time""
""fullscreenenter"",""1"",""3458""
","
","","","","","","605.1000000014901","images/orange8.png","","","learning","-5","0","0","0","orange","fruit","1","0","","bad","[-6]"
"html-keyboard-response","142","562518","0.0-9.0-2.0-0.35","4497","1","15","Female","approach_avoid_spark_v1","""event"",""trial"",""time""
""fullscreenenter"",""1"",""3458""
","
","
","""event"",""trial"",""time""
""fullscreenenter"",""1"",""3458""
","
","","","","","","null","<div style=""font-size:60px;"">+</div>","null","","fixation","","","","","","","","","","",""
"aa-learning-trial","143","565521","0.0-9.0-2.0-1.35","4497","1","15","Female","approach_avoid_spark_v1","""event"",""trial"",""time""
""fullscreenenter"",""1"",""3458""
","
","
","""event"",""trial"",""time""
""fullscreenenter"",""1"",""3458""
","
","","","","","","554.3999999985099","images/straw3.png","","","learning","4","4","1","1","straw","fruit","1","0","","good","[4]"
"html-keyboard-response","144","566022","0.0-9.0-2.0-0.36","4497","1","15","Female","approach_avoid_spark_v1","""event"",""trial"",""time""
""fullscreenenter"",""1"",""3458""
","
","
","""event"",""trial"",""time""
""fullscreenenter"",""1"",""3458""
","
","","","","","","null","<div style=""font-size:60px;"">+</div>","null","","fixation","","","","","","","","","","",""
"aa-learning-trial","145","569025","0.0-9.0-2.0-1.36","4497","1","15","Female","approach_avoid_spark_v1","""event"",""trial"",""time""
""fullscreenenter"",""1"",""3458""
","
","
","""event"",""trial"",""time""
""fullscreenenter"",""1"",""3458""
","
","","","","","","556.6000000014901","images/orange7.png","","","learning","-5","0","0","0","orange","fruit","1","0","","bad","[-6]"
"html-keyboard-response","146","569526","0.0-9.0-2.0-0.37","4497","1","15","Female","approach_avoid_spark_v1","""event"",""trial"",""time""
""fullscreenenter"",""1"",""3458""
","
","
","""event"",""trial"",""time""
""fullscreenenter"",""1"",""3458""
","
","","","","","","null","<div style=""font-size:60px;"">+</div>","null","","fixation","","","","","","","","","","",""
"aa-learning-trial","147","572529","0.0-9.0-2.0-1.37","4497","1","15","Female","approach_avoid_spark_v1","""event"",""trial"",""time""
""fullscreenenter"",""1"",""3458""
","
","
","""event"",""trial"",""time""
""fullscreenenter"",""1"",""3458""
","
","","","","","","991.8000000044703","images/apple4.png","","","learning","-1","-1","1","1","apple","fruit","1","0","","neutral","0"
"html-keyboard-response","148","573030","0.0-9.0-2.0-0.38","4497","1","15","Female","approach_avoid_spark_v1","""event"",""trial"",""time""
""fullscreenenter"",""1"",""3458""
","
","
","""event"",""trial"",""time""
""fullscreenenter"",""1"",""3458""
","
","","","","","","null","<div style=""font-size:60px;"">+</div>","null","","fixation","","","","","","","","","","",""
"aa-learning-trial","149","576033","0.0-9.0-2.0-1.38","4497","1","15","Female","approach_avoid_spark_v1","""event"",""trial"",""time""
""fullscreenenter"",""1"",""3458""
","
","
","""event"",""trial"",""time""
""fullscreenenter"",""1"",""3458""
","
","","","","","","609","images/apple8.png","","","learning","-2","-2","1","1","apple","fruit","1","0","","neutral","0"
"html-keyboard-response","150","576535","0.0-9.0-2.0-0.39","4497","1","15","Female","approach_avoid_spark_v1","""event"",""trial"",""time""
""fullscreenenter"",""1"",""3458""
","
","
","""event"",""trial"",""time""
""fullscreenenter"",""1"",""3458""
","
","","","","","","null","<div style=""font-size:60px;"">+</div>","null","","fixation","","","","","","","","","","",""
"aa-learning-trial","151","579537","0.0-9.0-2.0-1.39","4497","1","15","Female","approach_avoid_spark_v1","""event"",""trial"",""time""
""fullscreenenter"",""1"",""3458""
","
","
","""event"",""trial"",""time""
""fullscreenenter"",""1"",""3458""
","
","","","","","","885.6000000014901","images/apple1.png","","","learning","-1","-1","1","1","apple","fruit","1","0","","neutral","0"
"html-keyboard-response","152","580039","0.0-9.0-2.0-0.40","4497","1","15","Female","approach_avoid_spark_v1","""event"",""trial"",""time""
""fullscreenenter"",""1"",""3458""
","
","
","""event"",""trial"",""time""
""fullscreenenter"",""1"",""3458""
","
","","","","","","null","<div style=""font-size:60px;"">+</div>","null","","fixation","","","","","","","","","","",""
"aa-learning-trial","153","583041","0.0-9.0-2.0-1.40","4497","1","15","Female","approach_avoid_spark_v1","""event"",""trial"",""time""
""fullscreenenter"",""1"",""3458""
","
","
","""event"",""trial"",""time""
""fullscreenenter"",""1"",""3458""
","
","","","","","","731.1000000014901","images/orange4.png","","","learning","-5","0","0","0","orange","fruit","1","0","","bad","[-6]"
"html-keyboard-response","154","583543","0.0-9.0-2.0-0.41","4497","1","15","Female","approach_avoid_spark_v1","""event"",""trial"",""time""
""fullscreenenter"",""1"",""3458""
","
","
","""event"",""trial"",""time""
""fullscreenenter"",""1"",""3458""
","
","","","","","","null","<div style=""font-size:60px;"">+</div>","null","","fixation","","","","","","","","","","",""
"aa-learning-trial","155","586546","0.0-9.0-2.0-1.41","4497","1","15","Female","approach_avoid_spark_v1","""event"",""trial"",""time""
""fullscreenenter"",""1"",""3458""
","
","
","""event"",""trial"",""time""
""fullscreenenter"",""1"",""3458""
","
","","","","","","768.8000000044703","images/straw1.png","","","learning","3","3","1","1","straw","fruit","1","0","","good","[4]"
"html-keyboard-response","156","587048","0.0-9.0-2.0-0.42","4497","1","15","Female","approach_avoid_spark_v1","""event"",""trial"",""time""
""fullscreenenter"",""1"",""3458""
","
","
","""event"",""trial"",""time""
""fullscreenenter"",""1"",""3458""
","
","","","","","","null","<div style=""font-size:60px;"">+</div>","null","","fixation","","","","","","","","","","",""
"aa-learning-trial","157","590051","0.0-9.0-2.0-1.42","4497","1","15","Female","approach_avoid_spark_v1","""event"",""trial"",""time""
""fullscreenenter"",""1"",""3458""
","
","
","""event"",""trial"",""time""
""fullscreenenter"",""1"",""3458""
","
","","","","","","null","images/straw1.png","","","learning","4","-5","","null","straw","fruit","1","0","","good","[4]"
"html-keyboard-response","158","590553","0.0-9.0-2.0-0.43","4497","1","15","Female","approach_avoid_spark_v1","""event"",""trial"",""time""
""fullscreenenter"",""1"",""3458""
","
","
","""event"",""trial"",""time""
""fullscreenenter"",""1"",""3458""
","
","","","","","","null","<div style=""font-size:60px;"">+</div>","null","","fixation","","","","","","","","","","",""
"aa-learning-trial","159","593558","0.0-9.0-2.0-1.43","4497","1","15","Female","approach_avoid_spark_v1","""event"",""trial"",""time""
""fullscreenenter"",""1"",""3458""
","
","
","""event"",""trial"",""time""
""fullscreenenter"",""1"",""3458""
","
","","","","","","1680.7999999970198","images/apple3.png","","","learning","3","3","1","1","apple","fruit","1","0","","neutral","0"
"html-keyboard-response","160","594059","0.0-9.0-2.0-0.44","4497","1","15","Female","approach_avoid_spark_v1","""event"",""trial"",""time""
""fullscreenenter"",""1"",""3458""
","
","
","""event"",""trial"",""time""
""fullscreenenter"",""1"",""3458""
","
","","","","","","null","<div style=""font-size:60px;"">+</div>","null","","fixation","","","","","","","","","","",""
"aa-learning-trial","161","597062","0.0-9.0-2.0-1.44","4497","1","15","Female","approach_avoid_spark_v1","""event"",""trial"",""time""
""fullscreenenter"",""1"",""3458""
","
","
","""event"",""trial"",""time""
""fullscreenenter"",""1"",""3458""
","
","","","","","","709.8999999985099","images/straw4.png","","","learning","3","3","1","1","straw","fruit","1","0","","good","[4]"
"html-keyboard-response","162","597564","0.0-9.0-2.0-0.45","4497","1","15","Female","approach_avoid_spark_v1","""event"",""trial"",""time""
""fullscreenenter"",""1"",""3458""
","
","
","""event"",""trial"",""time""
""fullscreenenter"",""1"",""3458""
","
","","","","","","null","<div style=""font-size:60px;"">+</div>","null","","fixation","","","","","","","","","","",""
"aa-learning-trial","163","600566","0.0-9.0-2.0-1.45","4497","1","15","Female","approach_avoid_spark_v1","""event"",""trial"",""time""
""fullscreenenter"",""1"",""3458""
","
","
","""event"",""trial"",""time""
""fullscreenenter"",""1"",""3458""
","
","","","","","","554","images/straw3.png","","","learning","4","4","1","1","straw","fruit","1","0","","good","[4]"
"html-keyboard-response","164","601068","0.0-9.0-2.0-0.46","4497","1","15","Female","approach_avoid_spark_v1","""event"",""trial"",""time""
""fullscreenenter"",""1"",""3458""
","
","
","""event"",""trial"",""time""
""fullscreenenter"",""1"",""3458""
","
","","","","","","null","<div style=""font-size:60px;"">+</div>","null","","fixation","","","","","","","","","","",""
"aa-learning-trial","165","604071","0.0-9.0-2.0-1.46","4497","1","15","Female","approach_avoid_spark_v1","""event"",""trial"",""time""
""fullscreenenter"",""1"",""3458""
","
","
","""event"",""trial"",""time""
""fullscreenenter"",""1"",""3458""
","
","","","","","","541.7999999970198","images/orange4.png","","","learning","-7","0","0","0","orange","fruit","1","0","","bad","[-6]"
"html-keyboard-response","166","604572","0.0-9.0-2.0-0.47","4497","1","15","Female","approach_avoid_spark_v1","""event"",""trial"",""time""
""fullscreenenter"",""1"",""3458""
","
","
","""event"",""trial"",""time""
""fullscreenenter"",""1"",""3458""
","
","","","","","","null","<div style=""font-size:60px;"">+</div>","null","","fixation","","","","","","","","","","",""
"aa-learning-trial","167","607575","0.0-9.0-2.0-1.47","4497","1","15","Female","approach_avoid_spark_v1","""event"",""trial"",""time""
""fullscreenenter"",""1"",""3458""
","
","
","""event"",""trial"",""time""
""fullscreenenter"",""1"",""3458""
","
","","","","","","524.1000000014901","images/straw2.png","","","learning","2","2","1","1","straw","fruit","1","0","","good","[4]"
"html-keyboard-response","168","608077","0.0-9.0-2.0-0.48","4497","1","15","Female","approach_avoid_spark_v1","""event"",""trial"",""time""
""fullscreenenter"",""1"",""3458""
","
","
","""event"",""trial"",""time""
""fullscreenenter"",""1"",""3458""
","
","","","","","","null","<div style=""font-size:60px;"">+</div>","null","","fixation","","","","","","","","","","",""
"aa-learning-trial","169","611080","0.0-9.0-2.0-1.48","4497","1","15","Female","approach_avoid_spark_v1","""event"",""trial"",""time""
""fullscreenenter"",""1"",""3458""
","
","
","""event"",""trial"",""time""
""fullscreenenter"",""1"",""3458""
","
","","","","","","2236","images/apple8.png","","","learning","[-1]","-1","1","1","apple","fruit","1","0","","neutral","0"
"html-keyboard-response","170","611581","0.0-9.0-2.0-0.49","4497","1","15","Female","approach_avoid_spark_v1","""event"",""trial"",""time""
""fullscreenenter"",""1"",""3458""
","
","
","""event"",""trial"",""time""
""fullscreenenter"",""1"",""3458""
","
","","","","","","null","<div style=""font-size:60px;"">+</div>","null","","fixation","","","","","","","","","","",""
"aa-learning-trial","171","614584","0.0-9.0-2.0-1.49","4497","1","15","Female","approach_avoid_spark_v1","""event"",""trial"",""time""
""fullscreenenter"",""1"",""3458""
","
","
","""event"",""trial"",""time""
""fullscreenenter"",""1"",""3458""
","
","","","","","","700.9000000059605","images/straw3.png","","","learning","3","3","1","1","straw","fruit","1","0","","good","[4]"
"html-keyboard-response","172","615086","0.0-9.0-2.0-0.50","4497","1","15","Female","approach_avoid_spark_v1","""event"",""trial"",""time""
""fullscreenenter"",""1"",""3458""
","
","
","""event"",""trial"",""time""
""fullscreenenter"",""1"",""3458""
","
","","","","","","null","<div style=""font-size:60px;"">+</div>","null","","fixation","","","","","","","","","","",""
"aa-learning-trial","173","618089","0.0-9.0-2.0-1.50","4497","1","15","Female","approach_avoid_spark_v1","""event"",""trial"",""time""
""fullscreenenter"",""1"",""3458""
","
","
","""event"",""trial"",""time""
""fullscreenenter"",""1"",""3458""
","
","","","","","","1246.7999999970198","images/apple3.png","","","learning","-1","-1","1","1","apple","fruit","1","0","","neutral","0"
"html-button-response","174","622919","0.0-9.0-3.0","4497","1","15","Female","approach_avoid_spark_v1","""event"",""trial"",""time""
""fullscreenenter"",""1"",""3458""
","
","
","""event"",""trial"",""time""
""fullscreenenter"",""1"",""3458""
","
","","","","","","4828.10000000149","<p> You have completed the round! <p> In this round, you earned 28 points! </p>","0","","break","","","","","","","","","","",""
"html-button-response","175","626866","0.0-10.0","4497","1","15","Female","approach_avoid_spark_v1","""event"",""trial"",""time""
""fullscreenenter"",""1"",""3458""
","
","
","""event"",""trial"",""time""
""fullscreenenter"",""1"",""3458""
","
","","","","","","3945.5","<p> Now it's time to play another round. </p>","0","","transition_screen","","","","","","","","","","",""
"preload","176","626998","0.0-11.0-0.0","4497","1","15","Female","approach_avoid_spark_v1","""event"",""trial"",""time""
""fullscreenenter"",""1"",""3458""
","
","
","""event"",""trial"",""time""
""fullscreenenter"",""1"",""3458""
","
","true","false","[]","[]","[]","","","","","","","","","","","","","","","",""
"learning-instructions","177","633959","0.0-11.0-1.0-0.0","4497","1","15","Female","approach_avoid_spark_v1","""event"",""trial"",""time""
""fullscreenenter"",""1"",""3458""
","
","
","""event"",""trial"",""time""
""fullscreenenter"",""1"",""3458""
","
","","","","","","1185.8999999985099","<p> Your goal in this round is to take your friend for rides in different vehicles. </p></div>","","0","instructions","","","","","","","","","","",""
"learning-instructions","178","644450","0.0-11.0-1.0-0.1","4497","1","15","Female","approach_avoid_spark_v1","""event"",""trial"",""time""
""fullscreenenter"",""1"",""3458""
","
","
","""event"",""trial"",""time""
""fullscreenenter"",""1"",""3458""
","
","","","","","","636.2000000029802","<p> Your friend enjoys riding in some vehicles but not in others.  </p><p> On each turn, you will see a vehicle.   </p><p> You need to decide whether to take your friend for a ride or not.  </p>","","0","instructions","","","","","","","","","","",""
"learning-instructions","179","651515","0.0-11.0-1.0-0.2","4497","1","15","Female","approach_avoid_spark_v1","""event"",""trial"",""time""
""fullscreenenter"",""1"",""3458""
","
","
","""event"",""trial"",""time""
""fullscreenenter"",""1"",""3458""
","
","","","","","","682.6999999955297","<p> You can take your friend for a ride in the vehicle by pressing 1 and skip the ride by pressing 0. </p><br><div class=""choice-instructions-grid""> <div class=""choice-option""><img src=""images/approach.png"" class=""choice-option-img"" stage=""instructions"" position=""0"" ><div class=""choice-option-text""> Press ""1."" </div></div><div class=""choice-option""><img src=""images/avoid.png"" class=""choice-option-img"" stage=""instructions"" position=""1"" ><div class=""choice-option-text""> Press ""0."" </div></div>","","0","instructions","","","","","","","","","","",""
"learning-instructions","180","660827","0.0-11.0-1.0-0.3","4497","1","15","Female","approach_avoid_spark_v1","""event"",""trial"",""time""
""fullscreenenter"",""1"",""3458""
","
","
","""event"",""trial"",""time""
""fullscreenenter"",""1"",""3458""
","
","","","","","","758.2000000029802","<p> If you take them for a ride in a vehicle they like, they will be thrilled! </p><p> But if you take them for a ride in a vehicle they do not like, they will be upset. </p>","","0","instructions","","","","","","","","","","",""
"learning-instructions","181","673044","0.0-11.0-1.0-0.4","4497","1","15","Female","approach_avoid_spark_v1","""event"",""trial"",""time""
""fullscreenenter"",""1"",""3458""
","
","
","""event"",""trial"",""time""
""fullscreenenter"",""1"",""3458""
","
","","","","","","420.3999999985099","<p> You will earn points based on how you made your friend feel. </p><p> If you made him thrilled, you will WIN anywhere from 1 - 9 points, </p><p> but if you made him upset, you will LOSE anywhere from 1 - 9 points. </p>","","0","instructions","","","","","","","","","","",""
"learning-instructions","182","680168","0.0-11.0-1.0-0.5","4497","1","15","Female","approach_avoid_spark_v1","""event"",""trial"",""time""
""fullscreenenter"",""1"",""3458""
","
","
","""event"",""trial"",""time""
""fullscreenenter"",""1"",""3458""
","
","","","","","","472.5","<p> You will see how many points you won or lost in the center of the screen. </p><p> Here is what you would see if you won 5 points: </p><p style=""color:green;font-size:50px;font-weight:bolder"">5</p>","","0","instructions","","","","","","","","","","",""
"learning-instructions","183","683166","0.0-11.0-1.0-0.6","4497","1","15","Female","approach_avoid_spark_v1","""event"",""trial"",""time""
""fullscreenenter"",""1"",""3458""
","
","
","""event"",""trial"",""time""
""fullscreenenter"",""1"",""3458""
","
","","","","","","174.29999999701977","<p> And here is what you would see if you lost 3 points: </p><p style=""color:red;font-size:50px;font-weight:bolder"">-3</p>","","0","instructions","","","","","","","","","","",""
"learning-instructions","184","699570","0.0-11.0-1.0-0.7","4497","1","15","Female","approach_avoid_spark_v1","""event"",""trial"",""time""
""fullscreenenter"",""1"",""3458""
","
","
","""event"",""trial"",""time""
""fullscreenenter"",""1"",""3458""
","
","","","","","","1324.7000000029802","<p> Some vehicles will make your friend REALLY thrilled or upset. </p><p> These vehicles will make you win or lose LOTS of points. </p><p> Other vehicles will only make him feel a little thrilled or upset. </p><p> These vehicles will make you win or lose small amounts of points. </p>","","0","instructions","","","","","","","","","","",""
"learning-instructions","185","712544","0.0-11.0-1.0-0.8","4497","1","15","Female","approach_avoid_spark_v1","""event"",""trial"",""time""
""fullscreenenter"",""1"",""3458""
","
","
","""event"",""trial"",""time""
""fullscreenenter"",""1"",""3458""
","
","","","","","","1007.7999999970198","<p> If you choose to skip the ride, you will not win or lose any points. </p><p>  However, in the center of the screen, you will see the number of points you WOULD HAVE won or lost if you had taken your friend for a ride. </p>","","0","instructions","","","","","","","","","","",""
"learning-instructions","186","724048","0.0-11.0-1.0-0.9","4497","1","15","Female","approach_avoid_spark_v1","""event"",""trial"",""time""
""fullscreenenter"",""1"",""3458""
","
","
","""event"",""trial"",""time""
""fullscreenenter"",""1"",""3458""
","
","","","","","","468.70000000298023","<p> Here is what you might see if you did not take your friend for a ride but he would have enjoyed it: </p><p style=""color:grey; font-size:50px; display: inline-block; border-spacing: 15px; border-width:3px; border-style:solid; border-color:red"">  &nbsp; 6 &nbsp; </p><p> Remember, in this case, you would not win or lose ANY points because you skipped the ride.  </p>","","0","instructions","","","","","","","","","","",""
"learning-instructions","187","732478","0.0-11.0-1.0-0.10","4497","1","15","Female","approach_avoid_spark_v1","""event"",""trial"",""time""
""fullscreenenter"",""1"",""3458""
","
","
","""event"",""trial"",""time""
""fullscreenenter"",""1"",""3458""
","
","","","","","","738.8999999985099","<p> Try to make the best choice for each vehicle because </p><p> at the end of the game, you will earn bonus money based on how many points you earned. </p>","","0","instructions","","","","","","","","","","",""
"learning-instructions","188","741525","0.0-11.0-1.0-0.11","4497","1","15","Female","approach_avoid_spark_v1","""event"",""trial"",""time""
""fullscreenenter"",""1"",""3458""
","
","
","""event"",""trial"",""time""
""fullscreenenter"",""1"",""3458""
","
","","","","","","867","<p> You will have 3 seconds to make each choice. Try to respond before time runs out! </p><p> You will lose 5 points each time you do not make a response. </p>","","0","instructions","","","","","","","","","","",""
"html-keyboard-response","189","742128","0.0-11.0-2.0-0.0","4497","1","15","Female","approach_avoid_spark_v1","""event"",""trial"",""time""
""fullscreenenter"",""1"",""3458""
","
","
","""event"",""trial"",""time""
""fullscreenenter"",""1"",""3458""
","
","","","","","","null","<div style=""font-size:60px;"">+</div>","null","","fixation","","","","","","","","","","",""
"aa-learning-trial","190","745131","0.0-11.0-2.0-1.0","4497","1","15","Female","approach_avoid_spark_v1","""event"",""trial"",""time""
""fullscreenenter"",""1"",""3458""
","
","
","""event"",""trial"",""time""
""fullscreenenter"",""1"",""3458""
","
","","","","","","null","images/plane1.png","","","learning","6","-5","","null","plane","vehicles","2","1","","neutral","0"
"html-keyboard-response","191","745633","0.0-11.0-2.0-0.1","4497","1","15","Female","approach_avoid_spark_v1","""event"",""trial"",""time""
""fullscreenenter"",""1"",""3458""
","
","
","""event"",""trial"",""time""
""fullscreenenter"",""1"",""3458""
","
","","","","","","null","<div style=""font-size:60px;"">+</div>","null","","fixation","","","","","","","","","","",""
"aa-learning-trial","192","748636","0.0-11.0-2.0-1.1","4497","1","15","Female","approach_avoid_spark_v1","""event"",""trial"",""time""
""fullscreenenter"",""1"",""3458""
","
","
","""event"",""trial"",""time""
""fullscreenenter"",""1"",""3458""
","
","","","","","","712.6999999955297","images/boat6.png","","","learning","-2","-2","1","1","boat","vehicles","2","1","","bad","[-6]"
"html-keyboard-response","193","749138","0.0-11.0-2.0-0.2","4497","1","15","Female","approach_avoid_spark_v1","""event"",""trial"",""time""
""fullscreenenter"",""1"",""3458""
","
","
","""event"",""trial"",""time""
""fullscreenenter"",""1"",""3458""
","
","","","","","","null","<div style=""font-size:60px;"">+</div>","null","","fixation","","","","","","","","","","",""
"aa-learning-trial","194","752141","0.0-11.0-2.0-1.2","4497","1","15","Female","approach_avoid_spark_v1","""event"",""trial"",""time""
""fullscreenenter"",""1"",""3458""
","
","
","""event"",""trial"",""time""
""fullscreenenter"",""1"",""3458""
","
","","","","","","603.6000000014901","images/truck1.png","","","learning","-7","-7","1","1","truck","vehicles","2","1","","good","[4]"
"html-keyboard-response","195","752642","0.0-11.0-2.0-0.3","4497","1","15","Female","approach_avoid_spark_v1","""event"",""trial"",""time""
""fullscreenenter"",""1"",""3458""
","
","
","""event"",""trial"",""time""
""fullscreenenter"",""1"",""3458""
","
","","","","","","null","<div style=""font-size:60px;"">+</div>","null","","fixation","","","","","","","","","","",""
"aa-learning-trial","196","755646","0.0-11.0-2.0-1.3","4497","1","15","Female","approach_avoid_spark_v1","""event"",""trial"",""time""
""fullscreenenter"",""1"",""3458""
","
","
","""event"",""trial"",""time""
""fullscreenenter"",""1"",""3458""
","
","","","","","","666.1000000014901","images/truck2.png","","","learning","8","8","1","1","truck","vehicles","2","1","","good","[4]"
"html-keyboard-response","197","756148","0.0-11.0-2.0-0.4","4497","1","15","Female","approach_avoid_spark_v1","""event"",""trial"",""time""
""fullscreenenter"",""1"",""3458""
","
","
","""event"",""trial"",""time""
""fullscreenenter"",""1"",""3458""
","
","","","","","","null","<div style=""font-size:60px;"">+</div>","null","","fixation","","","","","","","","","","",""
"aa-learning-trial","198","759150","0.0-11.0-2.0-1.4","4497","1","15","Female","approach_avoid_spark_v1","""event"",""trial"",""time""
""fullscreenenter"",""1"",""3458""
","
","
","""event"",""trial"",""time""
""fullscreenenter"",""1"",""3458""
","
","","","","","","632.6000000014901","images/truck7.png","","","learning","-3","-3","1","1","truck","vehicles","2","1","","good","[4]"
"html-keyboard-response","199","759652","0.0-11.0-2.0-0.5","4497","1","15","Female","approach_avoid_spark_v1","""event"",""trial"",""time""
""fullscreenenter"",""1"",""3458""
","
","
","""event"",""trial"",""time""
""fullscreenenter"",""1"",""3458""
","
","","","","","","null","<div style=""font-size:60px;"">+</div>","null","","fixation","","","","","","","","","","",""
"aa-learning-trial","200","762655","0.0-11.0-2.0-1.5","4497","1","15","Female","approach_avoid_spark_v1","""event"",""trial"",""time""
""fullscreenenter"",""1"",""3458""
","
","
","""event"",""trial"",""time""
""fullscreenenter"",""1"",""3458""
","
","","","","","","782","images/plane2.png","","","learning","-4","0","0","0","plane","vehicles","2","1","","neutral","0"
"html-keyboard-response","201","763157","0.0-11.0-2.0-0.6","4497","1","15","Female","approach_avoid_spark_v1","""event"",""trial"",""time""
""fullscreenenter"",""1"",""3458""
","
","
","""event"",""trial"",""time""
""fullscreenenter"",""1"",""3458""
","
","","","","","","null","<div style=""font-size:60px;"">+</div>","null","","fixation","","","","","","","","","","",""
"aa-learning-trial","202","766160","0.0-11.0-2.0-1.6","4497","1","15","Female","approach_avoid_spark_v1","""event"",""trial"",""time""
""fullscreenenter"",""1"",""3458""
","
","
","""event"",""trial"",""time""
""fullscreenenter"",""1"",""3458""
","
","","","","","","984.1999999955297","images/boat2.png","","","learning","-6","0","0","0","boat","vehicles","2","1","","bad","[-6]"
"html-keyboard-response","203","766662","0.0-11.0-2.0-0.7","4497","1","15","Female","approach_avoid_spark_v1","""event"",""trial"",""time""
""fullscreenenter"",""1"",""3458""
","
","
","""event"",""trial"",""time""
""fullscreenenter"",""1"",""3458""
","
","","","","","","null","<div style=""font-size:60px;"">+</div>","null","","fixation","","","","","","","","","","",""
"aa-learning-trial","204","769665","0.0-11.0-2.0-1.7","4497","1","15","Female","approach_avoid_spark_v1","""event"",""trial"",""time""
""fullscreenenter"",""1"",""3458""
","
","
","""event"",""trial"",""time""
""fullscreenenter"",""1"",""3458""
","
","","","","","","665","images/boat5.png","","","learning","7","0","0","0","boat","vehicles","2","1","","bad","[-6]"
"html-keyboard-response","205","770167","0.0-11.0-2.0-0.8","4497","1","15","Female","approach_avoid_spark_v1","""event"",""trial"",""time""
""fullscreenenter"",""1"",""3458""
","
","
","""event"",""trial"",""time""
""fullscreenenter"",""1"",""3458""
","
","","","","","","null","<div style=""font-size:60px;"">+</div>","null","","fixation","","","","","","","","","","",""
"aa-learning-trial","206","773169","0.0-11.0-2.0-1.8","4497","1","15","Female","approach_avoid_spark_v1","""event"",""trial"",""time""
""fullscreenenter"",""1"",""3458""
","
","
","""event"",""trial"",""time""
""fullscreenenter"",""1"",""3458""
","
","","","","","","737","images/boat2.png","","","learning","-6","0","0","0","boat","vehicles","2","1","","bad","[-6]"
"html-keyboard-response","207","773671","0.0-11.0-2.0-0.9","4497","1","15","Female","approach_avoid_spark_v1","""event"",""trial"",""time""
""fullscreenenter"",""1"",""3458""
","
","
","""event"",""trial"",""time""
""fullscreenenter"",""1"",""3458""
","
","","","","","","null","<div style=""font-size:60px;"">+</div>","null","","fixation","","","","","","","","","","",""
"aa-learning-trial","208","776674","0.0-11.0-2.0-1.9","4497","1","15","Female","approach_avoid_spark_v1","""event"",""trial"",""time""
""fullscreenenter"",""1"",""3458""
","
","
","""event"",""trial"",""time""
""fullscreenenter"",""1"",""3458""
","
","","","","","","647.8999999985099","images/plane5.png","","","learning","4","0","0","0","plane","vehicles","2","1","","neutral","0"
"html-keyboard-response","209","777175","0.0-11.0-2.0-0.10","4497","1","15","Female","approach_avoid_spark_v1","""event"",""trial"",""time""
""fullscreenenter"",""1"",""3458""
","
","
","""event"",""trial"",""time""
""fullscreenenter"",""1"",""3458""
","
","","","","","","null","<div style=""font-size:60px;"">+</div>","null","","fixation","","","","","","","","","","",""
"aa-learning-trial","210","780180","0.0-11.0-2.0-1.10","4497","1","15","Female","approach_avoid_spark_v1","""event"",""trial"",""time""
""fullscreenenter"",""1"",""3458""
","
","
","""event"",""trial"",""time""
""fullscreenenter"",""1"",""3458""
","
","","","","","","958.6000000014901","images/truck1.png","","","learning","-7","0","0","0","truck","vehicles","2","1","","good","[4]"
"html-keyboard-response","211","780682","0.0-11.0-2.0-0.11","4497","1","15","Female","approach_avoid_spark_v1","""event"",""trial"",""time""
""fullscreenenter"",""1"",""3458""
","
","
","""event"",""trial"",""time""
""fullscreenenter"",""1"",""3458""
","
","","","","","","null","<div style=""font-size:60px;"">+</div>","null","","fixation","","","","","","","","","","",""
"aa-learning-trial","212","783685","0.0-11.0-2.0-1.11","4497","1","15","Female","approach_avoid_spark_v1","""event"",""trial"",""time""
""fullscreenenter"",""1"",""3458""
","
","
","""event"",""trial"",""time""
""fullscreenenter"",""1"",""3458""
","
","","","","","","1720.1000000014901","images/plane1.png","","","learning","6","0","0","0","plane","vehicles","2","1","","neutral","0"
"html-keyboard-response","213","784187","0.0-11.0-2.0-0.12","4497","1","15","Female","approach_avoid_spark_v1","""event"",""trial"",""time""
""fullscreenenter"",""1"",""3458""
","
","
","""event"",""trial"",""time""
""fullscreenenter"",""1"",""3458""
","
","","","","","","null","<div style=""font-size:60px;"">+</div>","null","","fixation","","","","","","","","","","",""
"aa-learning-trial","214","787190","0.0-11.0-2.0-1.12","4497","1","15","Female","approach_avoid_spark_v1","""event"",""trial"",""time""
""fullscreenenter"",""1"",""3458""
","
","
","""event"",""trial"",""time""
""fullscreenenter"",""1"",""3458""
","
","","","","","","1430.3000000044703","images/boat5.png","","","learning","7","7","1","1","boat","vehicles","2","1","","bad","[-6]"
"html-keyboard-response","215","787691","0.0-11.0-2.0-0.13","4497","1","15","Female","approach_avoid_spark_v1","""event"",""trial"",""time""
""fullscreenenter"",""1"",""3458""
","
","
","""event"",""trial"",""time""
""fullscreenenter"",""1"",""3458""
","
","","","","","","null","<div style=""font-size:60px;"">+</div>","null","","fixation","","","","","","","","","","",""
"aa-learning-trial","216","790694","0.0-11.0-2.0-1.13","4497","1","15","Female","approach_avoid_spark_v1","""event"",""trial"",""time""
""fullscreenenter"",""1"",""3458""
","
","
","""event"",""trial"",""time""
""fullscreenenter"",""1"",""3458""
","
","","","","","","null","images/plane5.png","","","learning","4","-5","","null","plane","vehicles","2","1","","neutral","0"
"html-keyboard-response","217","791196","0.0-11.0-2.0-0.14","4497","1","15","Female","approach_avoid_spark_v1","""event"",""trial"",""time""
""fullscreenenter"",""1"",""3458""
","
","
","""event"",""trial"",""time""
""fullscreenenter"",""1"",""3458""
","
","","","","","","null","<div style=""font-size:60px;"">+</div>","null","","fixation","","","","","","","","","","",""
"aa-learning-trial","218","794199","0.0-11.0-2.0-1.14","4497","1","15","Female","approach_avoid_spark_v1","""event"",""trial"",""time""
""fullscreenenter"",""1"",""3458""
","
","
","""event"",""trial"",""time""
""fullscreenenter"",""1"",""3458""
","
","","","","","","2928","images/truck7.png","","","learning","-3","0","0","0","truck","vehicles","2","1","","good","[4]"
"html-keyboard-response","219","794700","0.0-11.0-2.0-0.15","4497","1","15","Female","approach_avoid_spark_v1","""event"",""trial"",""time""
""fullscreenenter"",""1"",""3458""
","
","
","""event"",""trial"",""time""
""fullscreenenter"",""1"",""3458""
","
","","","","","","null","<div style=""font-size:60px;"">+</div>","null","","fixation","","","","","","","","","","",""
"aa-learning-trial","220","797703","0.0-11.0-2.0-1.15","4497","1","15","Female","approach_avoid_spark_v1","""event"",""trial"",""time""
""fullscreenenter"",""1"",""3458""
","
","
","""event"",""trial"",""time""
""fullscreenenter"",""1"",""3458""
","
","","","","","","1669","images/plane1.png","","","learning","6","0","0","0","plane","vehicles","2","1","","neutral","0"
"html-keyboard-response","221","798205","0.0-11.0-2.0-0.16","4497","1","15","Female","approach_avoid_spark_v1","""event"",""trial"",""time""
""fullscreenenter"",""1"",""3458""
","
","
","""event"",""trial"",""time""
""fullscreenenter"",""1"",""3458""
","
","","","","","","null","<div style=""font-size:60px;"">+</div>","null","","fixation","","","","","","","","","","",""
"aa-learning-trial","222","801208","0.0-11.0-2.0-1.16","4497","1","15","Female","approach_avoid_spark_v1","""event"",""trial"",""time""
""fullscreenenter"",""1"",""3458""
","
","
","""event"",""trial"",""time""
""fullscreenenter"",""1"",""3458""
","
","","","","","","768.5999999940395","images/boat2.png","","","learning","-6","-6","1","1","boat","vehicles","2","1","","bad","[-6]"
"html-keyboard-response","223","801709","0.0-11.0-2.0-0.17","4497","1","15","Female","approach_avoid_spark_v1","""event"",""trial"",""time""
""fullscreenenter"",""1"",""3458""
","
","
","""event"",""trial"",""time""
""fullscreenenter"",""1"",""3458""
","
","","","","","","null","<div style=""font-size:60px;"">+</div>","null","","fixation","","","","","","","","","","",""
"aa-learning-trial","224","804712","0.0-11.0-2.0-1.17","4497","1","15","Female","approach_avoid_spark_v1","""event"",""trial"",""time""
""fullscreenenter"",""1"",""3458""
","
","
","""event"",""trial"",""time""
""fullscreenenter"",""1"",""3458""
","
","","","","","","551","images/truck4.png","","","learning","2","0","0","0","truck","vehicles","2","1","","good","[4]"
"html-keyboard-response","225","805214","0.0-11.0-2.0-0.18","4497","1","15","Female","approach_avoid_spark_v1","""event"",""trial"",""time""
""fullscreenenter"",""1"",""3458""
","
","
","""event"",""trial"",""time""
""fullscreenenter"",""1"",""3458""
","
","","","","","","null","<div style=""font-size:60px;"">+</div>","null","","fixation","","","","","","","","","","",""
"aa-learning-trial","226","808217","0.0-11.0-2.0-1.18","4497","1","15","Female","approach_avoid_spark_v1","""event"",""trial"",""time""
""fullscreenenter"",""1"",""3458""
","
","
","""event"",""trial"",""time""
""fullscreenenter"",""1"",""3458""
","
","","","","","","615.8999999985099","images/truck7.png","","","learning","-3","-3","1","1","truck","vehicles","2","1","","good","[4]"
"html-keyboard-response","227","808719","0.0-11.0-2.0-0.19","4497","1","15","Female","approach_avoid_spark_v1","""event"",""trial"",""time""
""fullscreenenter"",""1"",""3458""
","
","
","""event"",""trial"",""time""
""fullscreenenter"",""1"",""3458""
","
","","","","","","null","<div style=""font-size:60px;"">+</div>","null","","fixation","","","","","","","","","","",""
"aa-learning-trial","228","811724","0.0-11.0-2.0-1.19","4497","1","15","Female","approach_avoid_spark_v1","""event"",""trial"",""time""
""fullscreenenter"",""1"",""3458""
","
","
","""event"",""trial"",""time""
""fullscreenenter"",""1"",""3458""
","
","","","","","","1359.6000000014901","images/boat5.png","","","learning","7","7","1","1","boat","vehicles","2","1","","bad","[-6]"
"html-keyboard-response","229","812226","0.0-11.0-2.0-0.20","4497","1","15","Female","approach_avoid_spark_v1","""event"",""trial"",""time""
""fullscreenenter"",""1"",""3458""
","
","
","""event"",""trial"",""time""
""fullscreenenter"",""1"",""3458""
","
","","","","","","null","<div style=""font-size:60px;"">+</div>","null","","fixation","","","","","","","","","","",""
"aa-learning-trial","230","815229","0.0-11.0-2.0-1.20","4497","1","15","Female","approach_avoid_spark_v1","""event"",""trial"",""time""
""fullscreenenter"",""1"",""3458""
","
","
","""event"",""trial"",""time""
""fullscreenenter"",""1"",""3458""
","
","","","","","","null","images/plane1.png","","","learning","6","-5","","null","plane","vehicles","2","1","","neutral","0"
"html-keyboard-response","231","815731","0.0-11.0-2.0-0.21","4497","1","15","Female","approach_avoid_spark_v1","""event"",""trial"",""time""
""fullscreenenter"",""1"",""3458""
","
","
","""event"",""trial"",""time""
""fullscreenenter"",""1"",""3458""
","
","","","","","","null","<div style=""font-size:60px;"">+</div>","null","","fixation","","","","","","","","","","",""
"aa-learning-trial","232","818737","0.0-11.0-2.0-1.21","4497","1","15","Female","approach_avoid_spark_v1","""event"",""trial"",""time""
""fullscreenenter"",""1"",""3458""
","
","
","""event"",""trial"",""time""
""fullscreenenter"",""1"",""3458""
","
","","","","","","null","images/boat5.png","","","learning","7","-5","","null","boat","vehicles","2","1","","bad","[-6]"
"html-keyboard-response","233","819239","0.0-11.0-2.0-0.22","4497","1","15","Female","approach_avoid_spark_v1","""event"",""trial"",""time""
""fullscreenenter"",""1"",""3458""
""fullscreenexit"",""234"",""821824""
","
","
","""event"",""trial"",""time""
""fullscreenenter"",""1"",""3458""
","""event"",""trial"",""time""
""fullscreenexit"",""234"",""821824""
","","","","","","null","<div style=""font-size:60px;"">+</div>","null","","fixation","","","","","","","","","","",""
"aa-learning-trial","234","822244","0.0-11.0-2.0-1.22","4497","1","15","Female","approach_avoid_spark_v1","""event"",""trial"",""time""
""fullscreenenter"",""1"",""3458""
""fullscreenexit"",""234"",""821824""
","
","
","""event"",""trial"",""time""
""fullscreenenter"",""1"",""3458""
","""event"",""trial"",""time""
""fullscreenexit"",""234"",""821824""
","","","","","","385.70000000298023","images/boat6.png","","","learning","-2","-2","1","1","boat","vehicles","2","1","","bad","[-6]"
"html-keyboard-response","235","822746","0.0-11.0-2.0-0.23","4497","1","15","Female","approach_avoid_spark_v1","""event"",""trial"",""time""
""fullscreenenter"",""1"",""3458""
""fullscreenexit"",""234"",""821824""
","
","
","""event"",""trial"",""time""
""fullscreenenter"",""1"",""3458""
","""event"",""trial"",""time""
""fullscreenexit"",""234"",""821824""
","","","","","","null","<div style=""font-size:60px;"">+</div>","null","","fixation","","","","","","","","","","",""
