"trial_type","trial_index","time_elapsed","internal_node_id","subject_id","task_condition","age","gender","task_version","interactions","blur_events","focus_events","fullscreenenter_events","fullscreenexit_events","success","timeout","failed_images","failed_audio","failed_video","rt","stimulus","response","button_pressed","task_part","approach_reward","points","key_press","option_selected","stim_cat","task_block","block_condition","block_number","correct","cat_type","mean_cat_reward"
"pavlovia","0","3","0.0-0.0","6217","1","10","Male","approach_avoid_spark_v1","""event"",""trial"",""time""
""fullscreenenter"",""1"",""4644""
","
","
","""event"",""trial"",""time""
""fullscreenenter"",""1"",""4644""
","
","","","","","","","","","","","","","","","","","","","","",""
"fullscreen","1","5644","0.0-1.0","6217","1","10","Male","approach_avoid_spark_v1","""event"",""trial"",""time""
""fullscreenenter"",""1"",""4644""
","
","
","""event"",""trial"",""time""
""fullscreenenter"",""1"",""4644""
","
","true","","","","","","","","","","","","","","","","","","","",""
"preload","2","10991","0.0-2.0","6217","1","10","Male","approach_avoid_spark_v1","""event"",""trial"",""time""
""fullscreenenter"",""1"",""4644""
","
","
","""event"",""trial"",""time""
""fullscreenenter"",""1"",""4644""
","
","true","false","[]","[]","[]","","","","","","","","","","","","","","","",""
"audio-keyboard-response","3","15106","0.0-3.0","6217","1","10","Male","approach_avoid_spark_v1","""event"",""trial"",""time""
""fullscreenenter"",""1"",""4644""
","
","
","""event"",""trial"",""time""
""fullscreenenter"",""1"",""4644""
","
","","","","","","4119.999999999999","audio/beep_loop.wav"," ","","","","","","","","","","","","",""
"audio-button-response","4","18155","0.0-4.0","6217","1","10","Male","approach_avoid_spark_v1","""event"",""trial"",""time""
""fullscreenenter"",""1"",""4644""
","
","
","""event"",""trial"",""time""
""fullscreenenter"",""1"",""4644""
","
","","","","","","3040","audio/shark.wav","4","","","","","","","","","","","","",""
"audio-button-response","5","20757","0.0-5.0","6217","1","10","Male","approach_avoid_spark_v1","""event"",""trial"",""time""
""fullscreenenter"",""1"",""4644""
","
","
","""event"",""trial"",""time""
""fullscreenenter"",""1"",""4644""
","
","","","","","","1600","audio/turtle.wav","1","","","","","","","","","","","","",""
"preload","6","24300","0.0-6.0","6217","1","10","Male","approach_avoid_spark_v1","""event"",""trial"",""time""
""fullscreenenter"",""1"",""4644""
","
","
","""event"",""trial"",""time""
""fullscreenenter"",""1"",""4644""
","
","true","false","[]","[]","[]","","","","","","","","","","","","","","","",""
"html-keyboard-response","7","26538","0.0-7.0","6217","1","10","Male","approach_avoid_spark_v1","""event"",""trial"",""time""
""fullscreenenter"",""1"",""4644""
","
","
","""event"",""trial"",""time""
""fullscreenenter"",""1"",""4644""
","
","","","","","","2237.2000000476837","Welcome to the experiment. Press any key to begin and to advance the instructions."," ","","","","","","","","","","","","",""
"learning-instructions","8","34883","0.0-8.0-0.0-0.0","6217","1","10","Male","approach_avoid_spark_v1","""event"",""trial"",""time""
""fullscreenenter"",""1"",""4644""
","
","
","""event"",""trial"",""time""
""fullscreenenter"",""1"",""4644""
","
","","","","","","1386.8000001907349","<p> Welcome! Today you are going to play 6 different rounds of a decision-making game. </p><p> Use the mouse to click next to continue. </p>","","0","instructions","","","","","","","","","","",""
"learning-instructions","9","38439","0.0-8.0-0.0-0.1","6217","1","10","Male","approach_avoid_spark_v1","""event"",""trial"",""time""
""fullscreenenter"",""1"",""4644""
","
","
","""event"",""trial"",""time""
""fullscreenenter"",""1"",""4644""
","
","","","","","","812.5999999046326","<p> You will start with a practice round to learn the rules. </p>","","0","instructions","","","","","","","","","","",""
"learning-instructions","10","42275","0.0-8.0-0.0-0.2","6217","1","10","Male","approach_avoid_spark_v1","""event"",""trial"",""time""
""fullscreenenter"",""1"",""4644""
","
","
","""event"",""trial"",""time""
""fullscreenenter"",""1"",""4644""
","
","","","","","","379.09999990463257","<p> Your goal in this round is to give out sports equipment to kids. </p></div>","","0","instructions","","","","","","","","","","",""
"learning-instructions","11","50350","0.0-8.0-0.0-0.3","6217","1","10","Male","approach_avoid_spark_v1","""event"",""trial"",""time""
""fullscreenenter"",""1"",""4644""
","
","
","""event"",""trial"",""time""
""fullscreenenter"",""1"",""4644""
","
","","","","","","514.7999999523163","<p> The kids only like some of the equipment.  </p><p> On each turn, you will see a piece of sports equipment.   </p><p> You need to decide whether to give it to the kids or not.  </p>","","0","instructions","","","","","","","","","","",""
"learning-instructions","12","55786","0.0-8.0-0.0-0.4","6217","1","10","Male","approach_avoid_spark_v1","""event"",""trial"",""time""
""fullscreenenter"",""1"",""4644""
","
","
","""event"",""trial"",""time""
""fullscreenenter"",""1"",""4644""
","
","","","","","","680.0999999046326","<p> You can give them the equipment by pressing 1 and choose not to give it to them by pressing 0. </p><br><div class=""choice-instructions-grid""> <div class=""choice-option""><img src=""images/approach.png"" class=""choice-option-img"" stage=""instructions"" position=""0"" ><div class=""choice-option-text""> Press ""1."" </div></div><div class=""choice-option""><img src=""images/avoid.png"" class=""choice-option-img"" stage=""instructions"" position=""1"" ><div class=""choice-option-text""> Press ""0."" </div></div>","","0","instructions","","","","","","","","","","",""
"learning-instructions","13","63591","0.0-8.0-0.0-0.5","6217","1","10","Male","approach_avoid_spark_v1","""event"",""trial"",""time""
""fullscreenenter"",""1"",""4644""
","
","
","""event"",""trial"",""time""
""fullscreenenter"",""1"",""4644""
","
","","","","","","414.59999990463257","<p> If you give them a piece of equipment they like, they will be happy! </p><p> But if you give them a piece of equipment they do not like, they will be sad. </p>","","0","instructions","","","","","","","","","","",""
"learning-instructions","14","74469","0.0-8.0-0.0-0.6","6217","1","10","Male","approach_avoid_spark_v1","""event"",""trial"",""time""
""fullscreenenter"",""1"",""4644""
","
","
","""event"",""trial"",""time""
""fullscreenenter"",""1"",""4644""
","
","","","","","","352.5","<p> You will earn points based on how you make kids feel. </p><p> If you make them happy, you will WIN anywhere from 1 - 9 points, </p><p> but if you make them sad, you will LOSE anywhere from 1 - 9 points. </p>","","0","instructions","","","","","","","","","","",""
"learning-instructions","15","85324","0.0-8.0-0.0-0.7","6217","1","10","Male","approach_avoid_spark_v1","""event"",""trial"",""time""
""fullscreenenter"",""1"",""4644""
","
","
","""event"",""trial"",""time""
""fullscreenenter"",""1"",""4644""
","
","","","","","","1288.6999998092651","<p> You will see how many points you won or lost in the center of the screen. </p><p> Here is what you would see if you won 6 points: </p><p style=""color:green;font-size:50px;font-weight:bolder"">6</p><p style=""color:green"">The text is GREEN because you WON points.</p>","","0","instructions","","","","","","","","","","",""
"learning-instructions","16","101858","0.0-8.0-0.0-0.8","6217","1","10","Male","approach_avoid_spark_v1","""event"",""trial"",""time""
""fullscreenenter"",""1"",""4644""
","
","
","""event"",""trial"",""time""
""fullscreenenter"",""1"",""4644""
","
","","","","","","11022.200000047684","<p> And here is what you would see if you lost 4 points: </p><p style=""color:red;font-size:50px;font-weight:bolder"">-4</p><p style=""color:red"">The text is RED because you LOST points. </p>","","0","instructions","","","","","","","","","","",""
"learning-instructions","17","119786","0.0-8.0-0.0-0.9","6217","1","10","Male","approach_avoid_spark_v1","""event"",""trial"",""time""
""fullscreenenter"",""1"",""4644""
","
","
","""event"",""trial"",""time""
""fullscreenenter"",""1"",""4644""
","
","","","","","","3210","<p> Some of the equipment will make the kids VERY happy or sad. </p><p> These pieces of equipment will make you win or lose LOTS of points. </p><p> Other pieces of equipment will only make the kids a little happy or sad. </p><p> These pieces of equipment will make you win or lose small amounts of points. </p>","","0","instructions","","","","","","","","","","",""
"learning-instructions","18","133087","0.0-8.0-0.0-0.10","6217","1","10","Male","approach_avoid_spark_v1","""event"",""trial"",""time""
""fullscreenenter"",""1"",""4644""
","
","
","""event"",""trial"",""time""
""fullscreenenter"",""1"",""4644""
","
","","","","","","2680.2000000476837","<p> If you choose not to give them the equipment, you will not win or lose any points. </p><p>  However, in the center of the screen, you will see the number of points you WOULD HAVE won or lost if you had given them the equipment. </p>","","0","instructions","","","","","","","","","","",""
"learning-instructions","19","155403","0.0-8.0-0.0-0.11","6217","1","10","Male","approach_avoid_spark_v1","""event"",""trial"",""time""
""fullscreenenter"",""1"",""4644""
","
","
","""event"",""trial"",""time""
""fullscreenenter"",""1"",""4644""
","
","","","","","","766.7000000476837","<p> Here is what you might see if you did not give the equipment to the kids but it would have made them happy: </p><p style=""color:grey; font-size:50px; display: inline-block; border-spacing: 15px; border-width:3px; border-style:solid; border-color:red"">  &nbsp; 7 &nbsp; </p><p> Remember, in this case, you would not win or lose ANY points because you did not give them the equipment.  </p><p style=""color:grey"">The text is GREY because you earned ZERO points. </p><p style=""color:red"">However, choosing to give the kids the equipment would have made you win points. The box around the text is RED because you chose the worse option. </p>","","0","instructions","","","","","","","","","","",""
"learning-instructions","20","179047","0.0-8.0-0.0-0.12","6217","1","10","Male","approach_avoid_spark_v1","""event"",""trial"",""time""
""fullscreenenter"",""1"",""4644""
","
","
","""event"",""trial"",""time""
""fullscreenenter"",""1"",""4644""
","
","","","","","","2570.7999999523163","<p> Here is what you might see if you did not give the equipment to the kids but it would have made them sad: </p><p style=""color:grey;font-size:50px; display: inline-block; border-spacing: 15px; border-width:3px; border-style:solid; border-color:green"">  &nbsp; -8 &nbsp; </p><p> Remember, in this case, you would not win or lose ANY points because you did not give them the equipment.  </p><p style=""color:grey"">The text is GREY because you earned ZERO points. </p><p  style=""color:green""> Choosing to give the kids the equipment would have made you lose points. The box around the text is GREEN because you chose the better option.</p>","","0","instructions","","","","","","","","","","",""
"learning-instructions","21","188946","0.0-8.0-0.0-0.13","6217","1","10","Male","approach_avoid_spark_v1","""event"",""trial"",""time""
""fullscreenenter"",""1"",""4644""
","
","
","""event"",""trial"",""time""
""fullscreenenter"",""1"",""4644""
","
","","","","","","761.0999999046326","<p> You will have 3 seconds to make each choice. Try to respond before time runs out! </p><p> You will lose 5 points each time you do not make a response. </p>","","0","instructions","","","","","","","","","","",""
"learning-instructions","22","194614","0.0-8.0-0.0-0.14","6217","1","10","Male","approach_avoid_spark_v1","""event"",""trial"",""time""
""fullscreenenter"",""1"",""4644""
","
","
","""event"",""trial"",""time""
""fullscreenenter"",""1"",""4644""
","
","","","","","","258.89999985694885","<p> This is just a practice round, but in the real game, your bonus payment will depend on your total number of points.","","0","instructions","","","","","","","","","","",""
"learning-instructions","23","201440","0.0-8.0-0.0-0.15","6217","1","10","Male","approach_avoid_spark_v1","""event"",""trial"",""time""
""fullscreenenter"",""1"",""4644""
","
","
","""event"",""trial"",""time""
""fullscreenenter"",""1"",""4644""
","
","","","","","","1064.1999998092651","<p> Remember, you can give them the equipment by pressing 1 and choose not to give it to them by pressing 0. </p><br><div class=""choice-instructions-grid""> <div class=""choice-option""><img src=""images/approach.png"" class=""choice-option-img"" stage=""instructions"" position=""0"" ><div class=""choice-option-text""> Press ""1."" </div></div><div class=""choice-option""><img src=""images/avoid.png"" class=""choice-option-img"" stage=""instructions"" position=""1"" ><div class=""choice-option-text""> Press ""0."" </div></div>","","0","instructions","","","","","","","","","","",""
"html-button-response","24","202992","0.0-8.0-1.0","6217","1","10","Male","approach_avoid_spark_v1","""event"",""trial"",""time""
""fullscreenenter"",""1"",""4644""
","
","
","""event"",""trial"",""time""
""fullscreenenter"",""1"",""4644""
","
","","","","","","1445.7000000476837","<p> Ready to practice? </p>","0","","","","","","","","","","","","",""
"html-keyboard-response","25","203613","0.0-8.0-2.0-0.0","6217","1","10","Male","approach_avoid_spark_v1","""event"",""trial"",""time""
""fullscreenenter"",""1"",""4644""
","
","
","""event"",""trial"",""time""
""fullscreenenter"",""1"",""4644""
","
","","","","","","null","<div style=""font-size:60px;"">+</div>","null","","fixation","","","","","","","","","","",""
"aa-learning-trial","26","206618","0.0-8.0-2.0-1.0","6217","1","10","Male","approach_avoid_spark_v1","""event"",""trial"",""time""
""fullscreenenter"",""1"",""4644""
","
","
","""event"",""trial"",""time""
""fullscreenenter"",""1"",""4644""
","
","","","","","","2770.5999999046326","images/racket3.png","","","learning","6","6","1","1","practice","practice","practice","-1","","",""
"html-keyboard-response","27","207135","0.0-8.0-2.0-0.1","6217","1","10","Male","approach_avoid_spark_v1","""event"",""trial"",""time""
""fullscreenenter"",""1"",""4644""
","
","
","""event"",""trial"",""time""
""fullscreenenter"",""1"",""4644""
","
","","","","","","null","<div style=""font-size:60px;"">+</div>","null","","fixation","","","","","","","","","","",""
"aa-learning-trial","28","210145","0.0-8.0-2.0-1.1","6217","1","10","Male","approach_avoid_spark_v1","""event"",""trial"",""time""
""fullscreenenter"",""1"",""4644""
","
","
","""event"",""trial"",""time""
""fullscreenenter"",""1"",""4644""
","
","","","","","","1152.8999998569489","images/ball3.png","","","learning","2","2","1","1","practice","practice","practice","-1","","",""
"html-keyboard-response","29","210657","0.0-8.0-2.0-0.2","6217","1","10","Male","approach_avoid_spark_v1","""event"",""trial"",""time""
""fullscreenenter"",""1"",""4644""
","
","
","""event"",""trial"",""time""
""fullscreenenter"",""1"",""4644""
","
","","","","","","null","<div style=""font-size:60px;"">+</div>","null","","fixation","","","","","","","","","","",""
"aa-learning-trial","30","213661","0.0-8.0-2.0-1.2","6217","1","10","Male","approach_avoid_spark_v1","""event"",""trial"",""time""
""fullscreenenter"",""1"",""4644""
","
","
","""event"",""trial"",""time""
""fullscreenenter"",""1"",""4644""
","
","","","","","","2231.2999999523163","images/ball3.png","","","learning","-5","-5","1","1","practice","practice","practice","-1","","",""
"html-keyboard-response","31","214184","0.0-8.0-2.0-0.3","6217","1","10","Male","approach_avoid_spark_v1","""event"",""trial"",""time""
""fullscreenenter"",""1"",""4644""
","
","
","""event"",""trial"",""time""
""fullscreenenter"",""1"",""4644""
","
","","","","","","null","<div style=""font-size:60px;"">+</div>","null","","fixation","","","","","","","","","","",""
"aa-learning-trial","32","217200","0.0-8.0-2.0-1.3","6217","1","10","Male","approach_avoid_spark_v1","""event"",""trial"",""time""
""fullscreenenter"",""1"",""4644""
","
","
","""event"",""trial"",""time""
""fullscreenenter"",""1"",""4644""
","
","","","","","","2791.7999999523163","images/ball2.png","","","learning","-9","-9","1","1","practice","practice","practice","-1","","",""
"html-keyboard-response","33","217706","0.0-8.0-2.0-0.4","6217","1","10","Male","approach_avoid_spark_v1","""event"",""trial"",""time""
""fullscreenenter"",""1"",""4644""
","
","
","""event"",""trial"",""time""
""fullscreenenter"",""1"",""4644""
","
","","","","","","null","<div style=""font-size:60px;"">+</div>","null","","fixation","","","","","","","","","","",""
"aa-learning-trial","34","220720","0.0-8.0-2.0-1.4","6217","1","10","Male","approach_avoid_spark_v1","""event"",""trial"",""time""
""fullscreenenter"",""1"",""4644""
","
","
","""event"",""trial"",""time""
""fullscreenenter"",""1"",""4644""
","
","","","","","","2237.600000143051","images/racket1.png","","","learning","-9","-9","1","1","practice","practice","practice","-1","","",""
"html-keyboard-response","35","221225","0.0-8.0-2.0-0.5","6217","1","10","Male","approach_avoid_spark_v1","""event"",""trial"",""time""
""fullscreenenter"",""1"",""4644""
","
","
","""event"",""trial"",""time""
""fullscreenenter"",""1"",""4644""
","
","","","","","","null","<div style=""font-size:60px;"">+</div>","null","","fixation","","","","","","","","","","",""
"aa-learning-trial","36","224240","0.0-8.0-2.0-1.5","6217","1","10","Male","approach_avoid_spark_v1","""event"",""trial"",""time""
""fullscreenenter"",""1"",""4644""
","
","
","""event"",""trial"",""time""
""fullscreenenter"",""1"",""4644""
","
","","","","","","1862.9000000953674","images/ball4.png","","","learning","8","8","1","1","practice","practice","practice","-1","","",""
"html-keyboard-response","37","224752","0.0-8.0-2.0-0.6","6217","1","10","Male","approach_avoid_spark_v1","""event"",""trial"",""time""
""fullscreenenter"",""1"",""4644""
","
","
","""event"",""trial"",""time""
""fullscreenenter"",""1"",""4644""
","
","","","","","","null","<div style=""font-size:60px;"">+</div>","null","","fixation","","","","","","","","","","",""
"aa-learning-trial","38","227770","0.0-8.0-2.0-1.6","6217","1","10","Male","approach_avoid_spark_v1","""event"",""trial"",""time""
""fullscreenenter"",""1"",""4644""
","
","
","""event"",""trial"",""time""
""fullscreenenter"",""1"",""4644""
","
","","","","","","null","images/ball2.png","","","learning","4","-5","","null","practice","practice","practice","-1","","",""
"html-keyboard-response","39","228275","0.0-8.0-2.0-0.7","6217","1","10","Male","approach_avoid_spark_v1","""event"",""trial"",""time""
""fullscreenenter"",""1"",""4644""
","
","
","""event"",""trial"",""time""
""fullscreenenter"",""1"",""4644""
","
","","","","","","null","<div style=""font-size:60px;"">+</div>","null","","fixation","","","","","","","","","","",""
"aa-learning-trial","40","231281","0.0-8.0-2.0-1.7","6217","1","10","Male","approach_avoid_spark_v1","""event"",""trial"",""time""
""fullscreenenter"",""1"",""4644""
","
","
","""event"",""trial"",""time""
""fullscreenenter"",""1"",""4644""
","
","","","","","","1789.2000000476837","images/racket2.png","","","learning","-4","-4","1","1","practice","practice","practice","-1","","",""
"html-keyboard-response","41","231785","0.0-8.0-2.0-0.8","6217","1","10","Male","approach_avoid_spark_v1","""event"",""trial"",""time""
""fullscreenenter"",""1"",""4644""
","
","
","""event"",""trial"",""time""
""fullscreenenter"",""1"",""4644""
","
","","","","","","null","<div style=""font-size:60px;"">+</div>","null","","fixation","","","","","","","","","","",""
"aa-learning-trial","42","234793","0.0-8.0-2.0-1.8","6217","1","10","Male","approach_avoid_spark_v1","""event"",""trial"",""time""
""fullscreenenter"",""1"",""4644""
","
","
","""event"",""trial"",""time""
""fullscreenenter"",""1"",""4644""
","
","","","","","","870.7000000476837","images/ball4.png","","","learning","-7","-7","1","1","practice","practice","practice","-1","","",""
"html-keyboard-response","43","235296","0.0-8.0-2.0-0.9","6217","1","10","Male","approach_avoid_spark_v1","""event"",""trial"",""time""
""fullscreenenter"",""1"",""4644""
","
","
","""event"",""trial"",""time""
""fullscreenenter"",""1"",""4644""
","
","","","","","","null","<div style=""font-size:60px;"">+</div>","null","","fixation","","","","","","","","","","",""
"aa-learning-trial","44","238305","0.0-8.0-2.0-1.9","6217","1","10","Male","approach_avoid_spark_v1","""event"",""trial"",""time""
""fullscreenenter"",""1"",""4644""
","
","
","""event"",""trial"",""time""
""fullscreenenter"",""1"",""4644""
","
","","","","","","1648.5","images/racket4.png","","","learning","9","-5","2","","practice","practice","practice","-1","","",""
"html-keyboard-response","45","238809","0.0-8.0-2.0-0.10","6217","1","10","Male","approach_avoid_spark_v1","""event"",""trial"",""time""
""fullscreenenter"",""1"",""4644""
","
","
","""event"",""trial"",""time""
""fullscreenenter"",""1"",""4644""
","
","","","","","","null","<div style=""font-size:60px;"">+</div>","null","","fixation","","","","","","","","","","",""
"aa-learning-trial","46","241818","0.0-8.0-2.0-1.10","6217","1","10","Male","approach_avoid_spark_v1","""event"",""trial"",""time""
""fullscreenenter"",""1"",""4644""
","
","
","""event"",""trial"",""time""
""fullscreenenter"",""1"",""4644""
","
","","","","","","1079.5999999046326","images/ball1.png","","","learning","-1","-1","1","1","practice","practice","practice","-1","","",""
"html-keyboard-response","47","242321","0.0-8.0-2.0-0.11","6217","1","10","Male","approach_avoid_spark_v1","""event"",""trial"",""time""
""fullscreenenter"",""1"",""4644""
","
","
","""event"",""trial"",""time""
""fullscreenenter"",""1"",""4644""
","
","","","","","","null","<div style=""font-size:60px;"">+</div>","null","","fixation","","","","","","","","","","",""
"aa-learning-trial","48","245329","0.0-8.0-2.0-1.11","6217","1","10","Male","approach_avoid_spark_v1","""event"",""trial"",""time""
""fullscreenenter"",""1"",""4644""
","
","
","""event"",""trial"",""time""
""fullscreenenter"",""1"",""4644""
","
","","","","","","1327.6000001430511","images/ball4.png","","","learning","9","9","1","1","practice","practice","practice","-1","","",""
"html-button-response","49","249478","0.0-8.0-3.0","6217","1","10","Male","approach_avoid_spark_v1","""event"",""trial"",""time""
""fullscreenenter"",""1"",""4644""
","
","
","""event"",""trial"",""time""
""fullscreenenter"",""1"",""4644""
","
","","","","","","4147.299999952316","<p> You earned -20 points in the practice round! </p>","0","","break","","","","","","","","","","",""
"learning-instructions","50","256621","0.0-8.0-4.0-0.0","6217","1","10","Male","approach_avoid_spark_v1","""event"",""trial"",""time""
""fullscreenenter"",""1"",""4644""
","
","
","""event"",""trial"",""time""
""fullscreenenter"",""1"",""4644""
","
","","","","","","518.8999998569489","<p> It's almost time to start the real game. </p><p> Before you start, we're going to ask you a few questions about how the game works. </p>","","0","instructions","","","","","","","","","","",""
"preload","51","258368","0.0-8.0-5.0","6217","1","10","Male","approach_avoid_spark_v1","""event"",""trial"",""time""
""fullscreenenter"",""1"",""4644""
","
","
","""event"",""trial"",""time""
""fullscreenenter"",""1"",""4644""
","
","true","false","[]","[]","[]","","","","","","","","","","","","","","","",""
"comp-q","52","264457","0.0-8.0-6.0-0.0","6217","1","10","Male","approach_avoid_spark_v1","""event"",""trial"",""time""
""fullscreenenter"",""1"",""4644""
","
","
","""event"",""trial"",""time""
""fullscreenenter"",""1"",""4644""
","
","","","","","","1094.0999999046326","<p> <b> True or False? </b> </p><p> If you see a number in GREY, that means you earned that many points. </p>","","1","comp_question","","","","","","","","","true","",""
"comp-q","53","274443","0.0-8.0-6.0-1.0","6217","1","10","Male","approach_avoid_spark_v1","""event"",""trial"",""time""
""fullscreenenter"",""1"",""4644""
","
","
","""event"",""trial"",""time""
""fullscreenenter"",""1"",""4644""
","
","","","","","","1619.7999999523163","<p><b> That's right! </b> If you see a grey number, it means you earned ZERO points. <br> The grey numbers show the points you WOULD HAVE earned if you had made the other choice. </p>","","0","comp_answer","","","","","","","","","","",""
"comp-q","54","280569","0.0-8.0-7.0-0.0","6217","1","10","Male","approach_avoid_spark_v1","""event"",""trial"",""time""
""fullscreenenter"",""1"",""4644""
","
","
","""event"",""trial"",""time""
""fullscreenenter"",""1"",""4644""
","
","","","","","","1426.9000000953674","<p> <b> True or False? </b> </p><p> You will have as much time as you want to make each choice. </p>","","1","comp_question","","","","","","","","","true","",""
"comp-q","55","285665","0.0-8.0-7.0-1.0","6217","1","10","Male","approach_avoid_spark_v1","""event"",""trial"",""time""
""fullscreenenter"",""1"",""4644""
","
","
","""event"",""trial"",""time""
""fullscreenenter"",""1"",""4644""
","
","","","","","","1042.5999999046326","<p> <b> That's right! </b> You will only have 3 seconds to make each choice. </p>","","0","comp_answer","","","","","","","","","","",""
"comp-q","56","291767","0.0-8.0-8.0-0.0","6217","1","10","Male","approach_avoid_spark_v1","""event"",""trial"",""time""
""fullscreenenter"",""1"",""4644""
","
","
","""event"",""trial"",""time""
""fullscreenenter"",""1"",""4644""
","
","","","","","","1434.2999999523163","<p> <b> True or False? </b> </p><p> You should use the '1' and '0' keys to make your choices. </p>","","1","comp_question","","","","","","","","","false","",""
"comp-q","57","297855","0.0-8.0-8.0-1.0","6217","1","10","Male","approach_avoid_spark_v1","""event"",""trial"",""time""
""fullscreenenter"",""1"",""4644""
","
","
","""event"",""trial"",""time""
""fullscreenenter"",""1"",""4644""
","
","","","","","","1531.6000001430511","<p> <b>Incorrect.</b> You <i>should</i> use the '1' and '0' keys to make each choice. </p>","","0","comp_answer","","","","","","","","","","",""
"comp-q","58","303773","0.0-8.0-8.1-0.1","6217","1","10","Male","approach_avoid_spark_v1","""event"",""trial"",""time""
""fullscreenenter"",""1"",""4644""
","
","
","""event"",""trial"",""time""
""fullscreenenter"",""1"",""4644""
","
","","","","","","1260.2000000476837","<p> <b> True or False? </b> </p><p> You should use the '1' and '0' keys to make your choices. </p>","","0","comp_question","","","","","","","","","true","",""
"comp-q","59","309861","0.0-8.0-8.1-1.1","6217","1","10","Male","approach_avoid_spark_v1","""event"",""trial"",""time""
""fullscreenenter"",""1"",""4644""
","
","
","""event"",""trial"",""time""
""fullscreenenter"",""1"",""4644""
","
","","","","","","1477.7999999523163","<p> <b> That's right! </b> You should use the '1' and '0' keys to make each choice. </p>","","0","comp_answer","","","","","","","","","","",""
"learning-instructions","60","317657","0.0-8.0-9.0-0.0","6217","1","10","Male","approach_avoid_spark_v1","""event"",""trial"",""time""
""fullscreenenter"",""1"",""4644""
","
","
","""event"",""trial"",""time""
""fullscreenenter"",""1"",""4644""
","
","","","","","","1503.5999999046326","<p> It's now time to start the real game. </p>Do your best, because the points you earn in the next rounds will influence your bonus payment. </p>","","0","instructions","","","","","","","","","","",""
"preload","61","317784","0.0-9.0-0.0","6217","1","10","Male","approach_avoid_spark_v1","""event"",""trial"",""time""
""fullscreenenter"",""1"",""4644""
","
","
","""event"",""trial"",""time""
""fullscreenenter"",""1"",""4644""
","
","true","false","[]","[]","[]","","","","","","","","","","","","","","","",""
"learning-instructions","62","323311","0.0-9.0-1.0-0.0","6217","1","10","Male","approach_avoid_spark_v1","""event"",""trial"",""time""
""fullscreenenter"",""1"",""4644""
","
","
","""event"",""trial"",""time""
""fullscreenenter"",""1"",""4644""
","
","","","","","","868.8999998569489","<p> Your goal in this round is to decorate your friend's new house with furniture. </p></div>","","0","instructions","","","","","","","","","","",""
"learning-instructions","63","333483","0.0-9.0-1.0-0.1","6217","1","10","Male","approach_avoid_spark_v1","""event"",""trial"",""time""
""fullscreenenter"",""1"",""4644""
","
","
","""event"",""trial"",""time""
""fullscreenenter"",""1"",""4644""
","
","","","","","","360","<p> Your friend likes some pieces of furniture but not others.  </p><p> On each turn, you will see a piece of furniture.   </p><p> You need to decide whether to put it in your friend's house or not.  </p>","","0","instructions","","","","","","","","","","",""
"learning-instructions","64","339603","0.0-9.0-1.0-0.2","6217","1","10","Male","approach_avoid_spark_v1","""event"",""trial"",""time""
""fullscreenenter"",""1"",""4644""
","
","
","""event"",""trial"",""time""
""fullscreenenter"",""1"",""4644""
","
","","","","","","419.40000009536743","<p> You can put the furniture in her house by pressing 1 and deliver it elsewhere by pressing 0. </p><br><div class=""choice-instructions-grid""> <div class=""choice-option""><img src=""images/approach.png"" class=""choice-option-img"" stage=""instructions"" position=""0"" ><div class=""choice-option-text""> Press ""1."" </div></div><div class=""choice-option""><img src=""images/avoid.png"" class=""choice-option-img"" stage=""instructions"" position=""1"" ><div class=""choice-option-text""> Press ""0."" </div></div>","","0","instructions","","","","","","","","","","",""
"learning-instructions","65","348859","0.0-9.0-1.0-0.3","6217","1","10","Male","approach_avoid_spark_v1","""event"",""trial"",""time""
""fullscreenenter"",""1"",""4644""
","
","
","""event"",""trial"",""time""
""fullscreenenter"",""1"",""4644""
","
","","","","","","436.10000014305115","<p> If you decorate your friend's house with furniture she likes, she will be happy! </p><p> But if you give her furniture that she does not like, she will be annoyed. </p>","","0","instructions","","","","","","","","","","",""
"learning-instructions","66","361411","0.0-9.0-1.0-0.4","6217","1","10","Male","approach_avoid_spark_v1","""event"",""trial"",""time""
""fullscreenenter"",""1"",""4644""
","
","
","""event"",""trial"",""time""
""fullscreenenter"",""1"",""4644""
","
","","","","","","347.89999985694885","<p> You will earn points based on how you made your friend feel. </p><p> If you made her happy, you will WIN anywhere from 1 - 9 points, </p><p> but if you made her annoyed you will LOSE anywhere from 1 - 9 points. </p>","","0","instructions","","","","","","","","","","",""
"learning-instructions","67","369407","0.0-9.0-1.0-0.5","6217","1","10","Male","approach_avoid_spark_v1","""event"",""trial"",""time""
""fullscreenenter"",""1"",""4644""
","
","
","""event"",""trial"",""time""
""fullscreenenter"",""1"",""4644""
","
","","","","","","344.7000000476837","<p> You will see how many points you won or lost in the center of the screen. </p><p> Here is what you would see if you won 5 points: </p><p style=""color:green;font-size:50px;font-weight:bolder"">5</p>","","0","instructions","","","","","","","","","","",""
"learning-instructions","68","373330","0.0-9.0-1.0-0.6","6217","1","10","Male","approach_avoid_spark_v1","""event"",""trial"",""time""
""fullscreenenter"",""1"",""4644""
","
","
","""event"",""trial"",""time""
""fullscreenenter"",""1"",""4644""
","
","","","","","","308.09999990463257","<p> And here is what you would see if you lost 3 points: </p><p style=""color:red;font-size:50px;font-weight:bolder"">-3</p>","","0","instructions","","","","","","","","","","",""
"learning-instructions","69","391671","0.0-9.0-1.0-0.7","6217","1","10","Male","approach_avoid_spark_v1","""event"",""trial"",""time""
""fullscreenenter"",""1"",""4644""
","
","
","""event"",""trial"",""time""
""fullscreenenter"",""1"",""4644""
","
","","","","","","917.7000000476837","<p> Some pieces of furniture will make her feel very happy or very annoyed. </p><p> These pieces of furniture will make you win or lose LOTS of points. </p><p> Other pieces of furniture will only make her feel a little happy or a little annoyed. </p><p> These pieces of furniture will make you win or lose small amounts of points. </p>","","0","instructions","","","","","","","","","","",""
"learning-instructions","70","404973","0.0-9.0-1.0-0.8","6217","1","10","Male","approach_avoid_spark_v1","""event"",""trial"",""time""
""fullscreenenter"",""1"",""4644""
","
","
","""event"",""trial"",""time""
""fullscreenenter"",""1"",""4644""
","
","","","","","","589.7000000476837","<p> If you choose to deliver a piece of furniture elsewhere, you will not win or lose any points. </p><p>  However, in the center of the screen, you will see the number of points you WOULD HAVE won or lost if you had given the furniture to your friend. </p>","","0","instructions","","","","","","","","","","",""
"learning-instructions","71","416842","0.0-9.0-1.0-0.9","6217","1","10","Male","approach_avoid_spark_v1","""event"",""trial"",""time""
""fullscreenenter"",""1"",""4644""
","
","
","""event"",""trial"",""time""
""fullscreenenter"",""1"",""4644""
","
","","","","","","429.7000000476837","<p> Here is what you might see if you did not give a piece of furniture to your friend that would have made her happy: </p><p style=""color:grey; font-size:50px; display: inline-block; border-spacing: 15px; border-width:3px; border-style:solid; border-color:red"">  &nbsp; 6 &nbsp; </p><p> Remember, in this case, you would not win or lose ANY points because you did not give her the furniture.  </p>","","0","instructions","","","","","","","","","","",""
"learning-instructions","72","424850","0.0-9.0-1.0-0.10","6217","1","10","Male","approach_avoid_spark_v1","""event"",""trial"",""time""
""fullscreenenter"",""1"",""4644""
","
","
","""event"",""trial"",""time""
""fullscreenenter"",""1"",""4644""
","
","","","","","","388.10000014305115","<p> Try to make the best choice for each piece of furniture because </p><p> at the end of the game, you will earn bonus money based on how many points you earned. </p>","","0","instructions","","","","","","","","","","",""
"learning-instructions","73","433228","0.0-9.0-1.0-0.11","6217","1","10","Male","approach_avoid_spark_v1","""event"",""trial"",""time""
""fullscreenenter"",""1"",""4644""
","
","
","""event"",""trial"",""time""
""fullscreenenter"",""1"",""4644""
","
","","","","","","186.09999990463257","<p> You will have 3 seconds to make each choice. Try to respond before time runs out! </p><p> You will lose 5 points each time you do not make a response. </p>","","0","instructions","","","","","","","","","","",""
"html-keyboard-response","74","433852","0.0-9.0-2.0-0.0","6217","1","10","Male","approach_avoid_spark_v1","""event"",""trial"",""time""
""fullscreenenter"",""1"",""4644""
","
","
","""event"",""trial"",""time""
""fullscreenenter"",""1"",""4644""
","
","","","","","","null","<div style=""font-size:60px;"">+</div>","null","","fixation","","","","","","","","","","",""
"aa-learning-trial","75","436858","0.0-9.0-2.0-1.0","6217","1","10","Male","approach_avoid_spark_v1","""event"",""trial"",""time""
""fullscreenenter"",""1"",""4644""
","
","
","""event"",""trial"",""time""
""fullscreenenter"",""1"",""4644""
","
","","","","","","1603.5999999046326","images/table7.png","","","learning","1","1","1","1","table","furniture","1","0","","neutral","0"
"html-keyboard-response","76","437374","0.0-9.0-2.0-0.1","6217","1","10","Male","approach_avoid_spark_v1","""event"",""trial"",""time""
""fullscreenenter"",""1"",""4644""
","
","
","""event"",""trial"",""time""
""fullscreenenter"",""1"",""4644""
","
","","","","","","null","<div style=""font-size:60px;"">+</div>","null","","fixation","","","","","","","","","","",""
"aa-learning-trial","77","440392","0.0-9.0-2.0-1.1","6217","1","10","Male","approach_avoid_spark_v1","""event"",""trial"",""time""
""fullscreenenter"",""1"",""4644""
","
","
","""event"",""trial"",""time""
""fullscreenenter"",""1"",""4644""
","
","","","","","","1074.1000001430511","images/bed7.png","","","learning","4","4","1","1","bed","furniture","1","0","","good","[5]"
"html-keyboard-response","78","440910","0.0-9.0-2.0-0.2","6217","1","10","Male","approach_avoid_spark_v1","""event"",""trial"",""time""
""fullscreenenter"",""1"",""4644""
","
","
","""event"",""trial"",""time""
""fullscreenenter"",""1"",""4644""
","
","","","","","","null","<div style=""font-size:60px;"">+</div>","null","","fixation","","","","","","","","","","",""
"aa-learning-trial","79","443918","0.0-9.0-2.0-1.2","6217","1","10","Male","approach_avoid_spark_v1","""event"",""trial"",""time""
""fullscreenenter"",""1"",""4644""
","
","
","""event"",""trial"",""time""
""fullscreenenter"",""1"",""4644""
","
","","","","","","849.5","images/table3.png","","","learning","-1","-1","1","1","table","furniture","1","0","","neutral","0"
"html-keyboard-response","80","444430","0.0-9.0-2.0-0.3","6217","1","10","Male","approach_avoid_spark_v1","""event"",""trial"",""time""
""fullscreenenter"",""1"",""4644""
","
","
","""event"",""trial"",""time""
""fullscreenenter"",""1"",""4644""
","
","","","","","","null","<div style=""font-size:60px;"">+</div>","null","","fixation","","","","","","","","","","",""
"aa-learning-trial","81","447442","0.0-9.0-2.0-1.3","6217","1","10","Male","approach_avoid_spark_v1","""event"",""trial"",""time""
""fullscreenenter"",""1"",""4644""
","
","
","""event"",""trial"",""time""
""fullscreenenter"",""1"",""4644""
","
","","","","","","762.2000000476837","images/bed8.png","","","learning","6","6","1","1","bed","furniture","1","0","","good","[5]"
"html-keyboard-response","82","447950","0.0-9.0-2.0-0.4","6217","1","10","Male","approach_avoid_spark_v1","""event"",""trial"",""time""
""fullscreenenter"",""1"",""4644""
","
","
","""event"",""trial"",""time""
""fullscreenenter"",""1"",""4644""
","
","","","","","","null","<div style=""font-size:60px;"">+</div>","null","","fixation","","","","","","","","","","",""
"aa-learning-trial","83","450954","0.0-9.0-2.0-1.4","6217","1","10","Male","approach_avoid_spark_v1","""event"",""trial"",""time""
""fullscreenenter"",""1"",""4644""
","
","
","""event"",""trial"",""time""
""fullscreenenter"",""1"",""4644""
","
","","","","","","1193.2999999523163","images/table2.png","","","learning","-2","0","0","0","table","furniture","1","0","","neutral","0"
"html-keyboard-response","84","451470","0.0-9.0-2.0-0.5","6217","1","10","Male","approach_avoid_spark_v1","""event"",""trial"",""time""
""fullscreenenter"",""1"",""4644""
","
","
","""event"",""trial"",""time""
""fullscreenenter"",""1"",""4644""
","
","","","","","","null","<div style=""font-size:60px;"">+</div>","null","","fixation","","","","","","","","","","",""
"aa-learning-trial","85","454474","0.0-9.0-2.0-1.5","6217","1","10","Male","approach_avoid_spark_v1","""event"",""trial"",""time""
""fullscreenenter"",""1"",""4644""
","
","
","""event"",""trial"",""time""
""fullscreenenter"",""1"",""4644""
","
","","","","","","1354","images/bed1.png","","","learning","6","6","1","1","bed","furniture","1","0","","good","[5]"
"html-keyboard-response","86","454990","0.0-9.0-2.0-0.6","6217","1","10","Male","approach_avoid_spark_v1","""event"",""trial"",""time""
""fullscreenenter"",""1"",""4644""
","
","
","""event"",""trial"",""time""
""fullscreenenter"",""1"",""4644""
","
","","","","","","null","<div style=""font-size:60px;"">+</div>","null","","fixation","","","","","","","","","","",""
"aa-learning-trial","87","457992","0.0-9.0-2.0-1.6","6217","1","10","Male","approach_avoid_spark_v1","""event"",""trial"",""time""
""fullscreenenter"",""1"",""4644""
","
","
","""event"",""trial"",""time""
""fullscreenenter"",""1"",""4644""
","
","","","","","","1185.6999998092651","images/table3.png","","","learning","2","0","0","0","table","furniture","1","0","","neutral","0"
"html-keyboard-response","88","458512","0.0-9.0-2.0-0.7","6217","1","10","Male","approach_avoid_spark_v1","""event"",""trial"",""time""
""fullscreenenter"",""1"",""4644""
","
","
","""event"",""trial"",""time""
""fullscreenenter"",""1"",""4644""
","
","","","","","","null","<div style=""font-size:60px;"">+</div>","null","","fixation","","","","","","","","","","",""
"aa-learning-trial","89","461526","0.0-9.0-2.0-1.7","6217","1","10","Male","approach_avoid_spark_v1","""event"",""trial"",""time""
""fullscreenenter"",""1"",""4644""
","
","
","""event"",""trial"",""time""
""fullscreenenter"",""1"",""4644""
","
","","","","","","1032","images/chair6.png","","","learning","-5","-5","1","1","chair","furniture","1","0","","bad","[-3]"
"html-keyboard-response","90","462048","0.0-9.0-2.0-0.8","6217","1","10","Male","approach_avoid_spark_v1","""event"",""trial"",""time""
""fullscreenenter"",""1"",""4644""
","
","
","""event"",""trial"",""time""
""fullscreenenter"",""1"",""4644""
","
","","","","","","null","<div style=""font-size:60px;"">+</div>","null","","fixation","","","","","","","","","","",""
"aa-learning-trial","91","465057","0.0-9.0-2.0-1.8","6217","1","10","Male","approach_avoid_spark_v1","""event"",""trial"",""time""
""fullscreenenter"",""1"",""4644""
","
","
","""event"",""trial"",""time""
""fullscreenenter"",""1"",""4644""
","
","","","","","","847.7999999523163","images/bed7.png","","","learning","4","4","1","1","bed","furniture","1","0","","good","[5]"
"html-keyboard-response","92","465562","0.0-9.0-2.0-0.9","6217","1","10","Male","approach_avoid_spark_v1","""event"",""trial"",""time""
""fullscreenenter"",""1"",""4644""
","
","
","""event"",""trial"",""time""
""fullscreenenter"",""1"",""4644""
","
","","","","","","null","<div style=""font-size:60px;"">+</div>","null","","fixation","","","","","","","","","","",""
"aa-learning-trial","93","468569","0.0-9.0-2.0-1.9","6217","1","10","Male","approach_avoid_spark_v1","""event"",""trial"",""time""
""fullscreenenter"",""1"",""4644""
","
","
","""event"",""trial"",""time""
""fullscreenenter"",""1"",""4644""
","
","","","","","","887","images/bed8.png","","","learning","9","9","1","1","bed","furniture","1","0","","good","[5]"
"html-keyboard-response","94","469073","0.0-9.0-2.0-0.10","6217","1","10","Male","approach_avoid_spark_v1","""event"",""trial"",""time""
""fullscreenenter"",""1"",""4644""
","
","
","""event"",""trial"",""time""
""fullscreenenter"",""1"",""4644""
","
","","","","","","null","<div style=""font-size:60px;"">+</div>","null","","fixation","","","","","","","","","","",""
"aa-learning-trial","95","472081","0.0-9.0-2.0-1.10","6217","1","10","Male","approach_avoid_spark_v1","""event"",""trial"",""time""
""fullscreenenter"",""1"",""4644""
","
","
","""event"",""trial"",""time""
""fullscreenenter"",""1"",""4644""
","
","","","","","","1078.7000000476837","images/chair5.png","","","learning","-2","-2","1","1","chair","furniture","1","0","","bad","[-3]"
"html-keyboard-response","96","472585","0.0-9.0-2.0-0.11","6217","1","10","Male","approach_avoid_spark_v1","""event"",""trial"",""time""
""fullscreenenter"",""1"",""4644""
","
","
","""event"",""trial"",""time""
""fullscreenenter"",""1"",""4644""
","
","","","","","","null","<div style=""font-size:60px;"">+</div>","null","","fixation","","","","","","","","","","",""
"aa-learning-trial","97","475593","0.0-9.0-2.0-1.11","6217","1","10","Male","approach_avoid_spark_v1","""event"",""trial"",""time""
""fullscreenenter"",""1"",""4644""
","
","
","""event"",""trial"",""time""
""fullscreenenter"",""1"",""4644""
","
","","","","","","2023.7999999523163","images/table7.png","","","learning","-1","0","0","0","table","furniture","1","0","","neutral","0"
"html-keyboard-response","98","476096","0.0-9.0-2.0-0.12","6217","1","10","Male","approach_avoid_spark_v1","""event"",""trial"",""time""
""fullscreenenter"",""1"",""4644""
","
","
","""event"",""trial"",""time""
""fullscreenenter"",""1"",""4644""
","
","","","","","","null","<div style=""font-size:60px;"">+</div>","null","","fixation","","","","","","","","","","",""
"aa-learning-trial","99","479105","0.0-9.0-2.0-1.12","6217","1","10","Male","approach_avoid_spark_v1","""event"",""trial"",""time""
""fullscreenenter"",""1"",""4644""
","
","
","""event"",""trial"",""time""
""fullscreenenter"",""1"",""4644""
","
","","","","","","1071.8999998569489","images/chair5.png","","","learning","-3","0","0","0","chair","furniture","1","0","","bad","[-3]"
"html-keyboard-response","100","479609","0.0-9.0-2.0-0.13","6217","1","10","Male","approach_avoid_spark_v1","""event"",""trial"",""time""
""fullscreenenter"",""1"",""4644""
","
","
","""event"",""trial"",""time""
""fullscreenenter"",""1"",""4644""
","
","","","","","","null","<div style=""font-size:60px;"">+</div>","null","","fixation","","","","","","","","","","",""
"aa-learning-trial","101","482617","0.0-9.0-2.0-1.13","6217","1","10","Male","approach_avoid_spark_v1","""event"",""trial"",""time""
""fullscreenenter"",""1"",""4644""
","
","
","""event"",""trial"",""time""
""fullscreenenter"",""1"",""4644""
","
","","","","","","1032","images/chair2.png","","","learning","-4","0","0","0","chair","furniture","1","0","","bad","[-3]"
"html-keyboard-response","102","483121","0.0-9.0-2.0-0.14","6217","1","10","Male","approach_avoid_spark_v1","""event"",""trial"",""time""
""fullscreenenter"",""1"",""4644""
","
","
","""event"",""trial"",""time""
""fullscreenenter"",""1"",""4644""
","
","","","","","","null","<div style=""font-size:60px;"">+</div>","null","","fixation","","","","","","","","","","",""
"aa-learning-trial","103","486129","0.0-9.0-2.0-1.14","6217","1","10","Male","approach_avoid_spark_v1","""event"",""trial"",""time""
""fullscreenenter"",""1"",""4644""
","
","
","""event"",""trial"",""time""
""fullscreenenter"",""1"",""4644""
","
","","","","","","null","images/chair6.png","","","learning","-1","-5","","null","chair","furniture","1","0","","bad","[-3]"
"html-keyboard-response","104","486633","0.0-9.0-2.0-0.15","6217","1","10","Male","approach_avoid_spark_v1","""event"",""trial"",""time""
""fullscreenenter"",""1"",""4644""
","
","
","""event"",""trial"",""time""
""fullscreenenter"",""1"",""4644""
","
","","","","","","null","<div style=""font-size:60px;"">+</div>","null","","fixation","","","","","","","","","","",""
"aa-learning-trial","105","489641","0.0-9.0-2.0-1.15","6217","1","10","Male","approach_avoid_spark_v1","""event"",""trial"",""time""
""fullscreenenter"",""1"",""4644""
","
","
","""event"",""trial"",""time""
""fullscreenenter"",""1"",""4644""
","
","","","","","","1447.5999999046326","images/bed5.png","","","learning","3","3","1","1","bed","furniture","1","0","","good","[5]"
"html-keyboard-response","106","490145","0.0-9.0-2.0-0.16","6217","1","10","Male","approach_avoid_spark_v1","""event"",""trial"",""time""
""fullscreenenter"",""1"",""4644""
","
","
","""event"",""trial"",""time""
""fullscreenenter"",""1"",""4644""
","
","","","","","","null","<div style=""font-size:60px;"">+</div>","null","","fixation","","","","","","","","","","",""
"aa-learning-trial","107","493154","0.0-9.0-2.0-1.16","6217","1","10","Male","approach_avoid_spark_v1","""event"",""trial"",""time""
""fullscreenenter"",""1"",""4644""
","
","
","""event"",""trial"",""time""
""fullscreenenter"",""1"",""4644""
","
","","","","","","718.2000000476837","images/table7.png","","","learning","1","0","0","0","table","furniture","1","0","","neutral","0"
"html-keyboard-response","108","493657","0.0-9.0-2.0-0.17","6217","1","10","Male","approach_avoid_spark_v1","""event"",""trial"",""time""
""fullscreenenter"",""1"",""4644""
","
","
","""event"",""trial"",""time""
""fullscreenenter"",""1"",""4644""
","
","","","","","","null","<div style=""font-size:60px;"">+</div>","null","","fixation","","","","","","","","","","",""
"aa-learning-trial","109","496665","0.0-9.0-2.0-1.17","6217","1","10","Male","approach_avoid_spark_v1","""event"",""trial"",""time""
""fullscreenenter"",""1"",""4644""
","
","
","""event"",""trial"",""time""
""fullscreenenter"",""1"",""4644""
","
","","","","","","2119","images/chair2.png","","","learning","-3","0","0","0","chair","furniture","1","0","","bad","[-3]"
"html-keyboard-response","110","497169","0.0-9.0-2.0-0.18","6217","1","10","Male","approach_avoid_spark_v1","""event"",""trial"",""time""
""fullscreenenter"",""1"",""4644""
","
","
","""event"",""trial"",""time""
""fullscreenenter"",""1"",""4644""
","
","","","","","","null","<div style=""font-size:60px;"">+</div>","null","","fixation","","","","","","","","","","",""
"aa-learning-trial","111","500186","0.0-9.0-2.0-1.18","6217","1","10","Male","approach_avoid_spark_v1","""event"",""trial"",""time""
""fullscreenenter"",""1"",""4644""
","
","
","""event"",""trial"",""time""
""fullscreenenter"",""1"",""4644""
","
","","","","","","1671.5999999046326","images/table7.png","","","learning","2","0","0","0","table","furniture","1","0","","neutral","0"
"html-keyboard-response","112","500689","0.0-9.0-2.0-0.19","6217","1","10","Male","approach_avoid_spark_v1","""event"",""trial"",""time""
""fullscreenenter"",""1"",""4644""
","
","
","""event"",""trial"",""time""
""fullscreenenter"",""1"",""4644""
","
","","","","","","null","<div style=""font-size:60px;"">+</div>","null","","fixation","","","","","","","","","","",""
"aa-learning-trial","113","503698","0.0-9.0-2.0-1.19","6217","1","10","Male","approach_avoid_spark_v1","""event"",""trial"",""time""
""fullscreenenter"",""1"",""4644""
","
","
","""event"",""trial"",""time""
""fullscreenenter"",""1"",""4644""
","
","","","","","","1031.2000000476837","images/table2.png","","","learning","[1]","0","0","0","table","furniture","1","0","","neutral","0"
"html-keyboard-response","114","504201","0.0-9.0-2.0-0.20","6217","1","10","Male","approach_avoid_spark_v1","""event"",""trial"",""time""
""fullscreenenter"",""1"",""4644""
","
","
","""event"",""trial"",""time""
""fullscreenenter"",""1"",""4644""
","
","","","","","","null","<div style=""font-size:60px;"">+</div>","null","","fixation","","","","","","","","","","",""
"aa-learning-trial","115","507210","0.0-9.0-2.0-1.20","6217","1","10","Male","approach_avoid_spark_v1","""event"",""trial"",""time""
""fullscreenenter"",""1"",""4644""
","
","
","""event"",""trial"",""time""
""fullscreenenter"",""1"",""4644""
","
","","","","","","711.0999999046326","images/bed8.png","","","learning","8","8","1","1","bed","furniture","1","0","","good","[5]"
"html-keyboard-response","116","507713","0.0-9.0-2.0-0.21","6217","1","10","Male","approach_avoid_spark_v1","""event"",""trial"",""time""
""fullscreenenter"",""1"",""4644""
","
","
","""event"",""trial"",""time""
""fullscreenenter"",""1"",""4644""
","
","","","","","","null","<div style=""font-size:60px;"">+</div>","null","","fixation","","","","","","","","","","",""
"aa-learning-trial","117","510721","0.0-9.0-2.0-1.21","6217","1","10","Male","approach_avoid_spark_v1","""event"",""trial"",""time""
""fullscreenenter"",""1"",""4644""
","
","
","""event"",""trial"",""time""
""fullscreenenter"",""1"",""4644""
","
","","","","","","735","images/chair5.png","","","learning","-4","-4","1","1","chair","furniture","1","0","","bad","[-3]"
"html-keyboard-response","118","511224","0.0-9.0-2.0-0.22","6217","1","10","Male","approach_avoid_spark_v1","""event"",""trial"",""time""
""fullscreenenter"",""1"",""4644""
","
","
","""event"",""trial"",""time""
""fullscreenenter"",""1"",""4644""
","
","","","","","","null","<div style=""font-size:60px;"">+</div>","null","","fixation","","","","","","","","","","",""
"aa-learning-trial","119","514233","0.0-9.0-2.0-1.22","6217","1","10","Male","approach_avoid_spark_v1","""event"",""trial"",""time""
""fullscreenenter"",""1"",""4644""
","
","
","""event"",""trial"",""time""
""fullscreenenter"",""1"",""4644""
","
","","","","","","1447.7000000476837","images/bed7.png","","","learning","5","5","1","1","bed","furniture","1","0","","good","[5]"
"html-keyboard-response","120","514737","0.0-9.0-2.0-0.23","6217","1","10","Male","approach_avoid_spark_v1","""event"",""trial"",""time""
""fullscreenenter"",""1"",""4644""
","
","
","""event"",""trial"",""time""
""fullscreenenter"",""1"",""4644""
","
","","","","","","null","<div style=""font-size:60px;"">+</div>","null","","fixation","","","","","","","","","","",""
"aa-learning-trial","121","517746","0.0-9.0-2.0-1.23","6217","1","10","Male","approach_avoid_spark_v1","""event"",""trial"",""time""
""fullscreenenter"",""1"",""4644""
","
","
","""event"",""trial"",""time""
""fullscreenenter"",""1"",""4644""
","
","","","","","","1599.5","images/table3.png","","","learning","-2","0","0","0","table","furniture","1","0","","neutral","0"
"html-keyboard-response","122","518249","0.0-9.0-2.0-0.24","6217","1","10","Male","approach_avoid_spark_v1","""event"",""trial"",""time""
""fullscreenenter"",""1"",""4644""
","
","
","""event"",""trial"",""time""
""fullscreenenter"",""1"",""4644""
","
","","","","","","null","<div style=""font-size:60px;"">+</div>","null","","fixation","","","","","","","","","","",""
"aa-learning-trial","123","521258","0.0-9.0-2.0-1.24","6217","1","10","Male","approach_avoid_spark_v1","""event"",""trial"",""time""
""fullscreenenter"",""1"",""4644""
","
","
","""event"",""trial"",""time""
""fullscreenenter"",""1"",""4644""
","
","","","","","","1135.1999998092651","images/chair5.png","","","learning","-2","0","0","0","chair","furniture","1","0","","bad","[-3]"
"html-keyboard-response","124","521761","0.0-9.0-2.0-0.25","6217","1","10","Male","approach_avoid_spark_v1","""event"",""trial"",""time""
""fullscreenenter"",""1"",""4644""
","
","
","""event"",""trial"",""time""
""fullscreenenter"",""1"",""4644""
","
","","","","","","null","<div style=""font-size:60px;"">+</div>","null","","fixation","","","","","","","","","","",""
"aa-learning-trial","125","524769","0.0-9.0-2.0-1.25","6217","1","10","Male","approach_avoid_spark_v1","""event"",""trial"",""time""
""fullscreenenter"",""1"",""4644""
","
","
","""event"",""trial"",""time""
""fullscreenenter"",""1"",""4644""
","
","","","","","","1055.5999999046326","images/chair6.png","","","learning","-2","0","0","0","chair","furniture","1","0","","bad","[-3]"
"html-keyboard-response","126","525273","0.0-9.0-2.0-0.26","6217","1","10","Male","approach_avoid_spark_v1","""event"",""trial"",""time""
""fullscreenenter"",""1"",""4644""
","
","
","""event"",""trial"",""time""
""fullscreenenter"",""1"",""4644""
","
","","","","","","null","<div style=""font-size:60px;"">+</div>","null","","fixation","","","","","","","","","","",""
"aa-learning-trial","127","528282","0.0-9.0-2.0-1.26","6217","1","10","Male","approach_avoid_spark_v1","""event"",""trial"",""time""
""fullscreenenter"",""1"",""4644""
","
","
","""event"",""trial"",""time""
""fullscreenenter"",""1"",""4644""
","
","","","","","","911","images/table6.png","","","learning","-2","0","0","0","table","furniture","1","0","","neutral","0"
"html-keyboard-response","128","528785","0.0-9.0-2.0-0.27","6217","1","10","Male","approach_avoid_spark_v1","""event"",""trial"",""time""
""fullscreenenter"",""1"",""4644""
","
","
","""event"",""trial"",""time""
""fullscreenenter"",""1"",""4644""
","
","","","","","","null","<div style=""font-size:60px;"">+</div>","null","","fixation","","","","","","","","","","",""
"aa-learning-trial","129","531793","0.0-9.0-2.0-1.27","6217","1","10","Male","approach_avoid_spark_v1","""event"",""trial"",""time""
""fullscreenenter"",""1"",""4644""
","
","
","""event"",""trial"",""time""
""fullscreenenter"",""1"",""4644""
","
","","","","","","630.9000000953674","images/table3.png","","","learning","-1","0","0","0","table","furniture","1","0","","neutral","0"
"html-keyboard-response","130","532298","0.0-9.0-2.0-0.28","6217","1","10","Male","approach_avoid_spark_v1","""event"",""trial"",""time""
""fullscreenenter"",""1"",""4644""
","
","
","""event"",""trial"",""time""
""fullscreenenter"",""1"",""4644""
","
","","","","","","null","<div style=""font-size:60px;"">+</div>","null","","fixation","","","","","","","","","","",""
"aa-learning-trial","131","535305","0.0-9.0-2.0-1.28","6217","1","10","Male","approach_avoid_spark_v1","""event"",""trial"",""time""
""fullscreenenter"",""1"",""4644""
","
","
","""event"",""trial"",""time""
""fullscreenenter"",""1"",""4644""
","
","","","","","","551.2999999523163","images/chair6.png","","","learning","-4","0","0","0","chair","furniture","1","0","","bad","[-3]"
"html-keyboard-response","132","535810","0.0-9.0-2.0-0.29","6217","1","10","Male","approach_avoid_spark_v1","""event"",""trial"",""time""
""fullscreenenter"",""1"",""4644""
","
","
","""event"",""trial"",""time""
""fullscreenenter"",""1"",""4644""
","
","","","","","","null","<div style=""font-size:60px;"">+</div>","null","","fixation","","","","","","","","","","",""
"aa-learning-trial","133","538818","0.0-9.0-2.0-1.29","6217","1","10","Male","approach_avoid_spark_v1","""event"",""trial"",""time""
""fullscreenenter"",""1"",""4644""
","
","
","""event"",""trial"",""time""
""fullscreenenter"",""1"",""4644""
","
","","","","","","790","images/bed7.png","","","learning","6","6","1","1","bed","furniture","1","0","","good","[5]"
"html-keyboard-response","134","539321","0.0-9.0-2.0-0.30","6217","1","10","Male","approach_avoid_spark_v1","""event"",""trial"",""time""
""fullscreenenter"",""1"",""4644""
","
","
","""event"",""trial"",""time""
""fullscreenenter"",""1"",""4644""
","
","","","","","","null","<div style=""font-size:60px;"">+</div>","null","","fixation","","","","","","","","","","",""
"aa-learning-trial","135","542330","0.0-9.0-2.0-1.30","6217","1","10","Male","approach_avoid_spark_v1","""event"",""trial"",""time""
""fullscreenenter"",""1"",""4644""
","
","
","""event"",""trial"",""time""
""fullscreenenter"",""1"",""4644""
","
","","","","","","671.2999999523163","images/bed8.png","","","learning","5","5","1","1","bed","furniture","1","0","","good","[5]"
"html-keyboard-response","136","542833","0.0-9.0-2.0-0.31","6217","1","10","Male","approach_avoid_spark_v1","""event"",""trial"",""time""
""fullscreenenter"",""1"",""4644""
","
","
","""event"",""trial"",""time""
""fullscreenenter"",""1"",""4644""
","
","","","","","","null","<div style=""font-size:60px;"">+</div>","null","","fixation","","","","","","","","","","",""
"aa-learning-trial","137","545841","0.0-9.0-2.0-1.31","6217","1","10","Male","approach_avoid_spark_v1","""event"",""trial"",""time""
""fullscreenenter"",""1"",""4644""
","
","
","""event"",""trial"",""time""
""fullscreenenter"",""1"",""4644""
","
","","","","","","927.2000000476837","images/chair5.png","","","learning","-1","0","0","0","chair","furniture","1","0","","bad","[-3]"
"html-keyboard-response","138","546345","0.0-9.0-2.0-0.32","6217","1","10","Male","approach_avoid_spark_v1","""event"",""trial"",""time""
""fullscreenenter"",""1"",""4644""
","
","
","""event"",""trial"",""time""
""fullscreenenter"",""1"",""4644""
","
","","","","","","null","<div style=""font-size:60px;"">+</div>","null","","fixation","","","","","","","","","","",""
"aa-learning-trial","139","549353","0.0-9.0-2.0-1.32","6217","1","10","Male","approach_avoid_spark_v1","""event"",""trial"",""time""
""fullscreenenter"",""1"",""4644""
","
","
","""event"",""trial"",""time""
""fullscreenenter"",""1"",""4644""
","
","","","","","","902.7999999523163","images/bed1.png","","","learning","4","4","1","1","bed","furniture","1","0","","good","[5]"
"html-keyboard-response","140","549857","0.0-9.0-2.0-0.33","6217","1","10","Male","approach_avoid_spark_v1","""event"",""trial"",""time""
""fullscreenenter"",""1"",""4644""
","
","
","""event"",""trial"",""time""
""fullscreenenter"",""1"",""4644""
","
","","","","","","null","<div style=""font-size:60px;"">+</div>","null","","fixation","","","","","","","","","","",""
"aa-learning-trial","141","552865","0.0-9.0-2.0-1.33","6217","1","10","Male","approach_avoid_spark_v1","""event"",""trial"",""time""
""fullscreenenter"",""1"",""4644""
","
","
","""event"",""trial"",""time""
""fullscreenenter"",""1"",""4644""
","
","","","","","","678.7999999523163","images/table2.png","","","learning","-2","0","0","0","table","furniture","1","0","","neutral","0"
"html-keyboard-response","142","553369","0.0-9.0-2.0-0.34","6217","1","10","Male","approach_avoid_spark_v1","""event"",""trial"",""time""
""fullscreenenter"",""1"",""4644""
","
","
","""event"",""trial"",""time""
""fullscreenenter"",""1"",""4644""
","
","","","","","","null","<div style=""font-size:60px;"">+</div>","null","","fixation","","","","","","","","","","",""
"aa-learning-trial","143","556377","0.0-9.0-2.0-1.34","6217","1","10","Male","approach_avoid_spark_v1","""event"",""trial"",""time""
""fullscreenenter"",""1"",""4644""
","
","
","""event"",""trial"",""time""
""fullscreenenter"",""1"",""4644""
","
","","","","","","647.2999999523163","images/bed7.png","","","learning","5","5","1","1","bed","furniture","1","0","","good","[5]"
"html-keyboard-response","144","556882","0.0-9.0-2.0-0.35","6217","1","10","Male","approach_avoid_spark_v1","""event"",""trial"",""time""
""fullscreenenter"",""1"",""4644""
","
","
","""event"",""trial"",""time""
""fullscreenenter"",""1"",""4644""
","
","","","","","","null","<div style=""font-size:60px;"">+</div>","null","","fixation","","","","","","","","","","",""
"aa-learning-trial","145","559889","0.0-9.0-2.0-1.35","6217","1","10","Male","approach_avoid_spark_v1","""event"",""trial"",""time""
""fullscreenenter"",""1"",""4644""
","
","
","""event"",""trial"",""time""
""fullscreenenter"",""1"",""4644""
","
","","","","","","966.5999999046326","images/table3.png","","","learning","1","0","0","0","table","furniture","1","0","","neutral","0"
"html-keyboard-response","146","560393","0.0-9.0-2.0-0.36","6217","1","10","Male","approach_avoid_spark_v1","""event"",""trial"",""time""
""fullscreenenter"",""1"",""4644""
","
","
","""event"",""trial"",""time""
""fullscreenenter"",""1"",""4644""
","
","","","","","","null","<div style=""font-size:60px;"">+</div>","null","","fixation","","","","","","","","","","",""
"aa-learning-trial","147","563401","0.0-9.0-2.0-1.36","6217","1","10","Male","approach_avoid_spark_v1","""event"",""trial"",""time""
""fullscreenenter"",""1"",""4644""
","
","
","""event"",""trial"",""time""
""fullscreenenter"",""1"",""4644""
","
","","","","","","1950.8000001907349","images/chair7.png","","","learning","-3","-3","1","1","chair","furniture","1","0","","bad","[-3]"
"html-keyboard-response","148","563906","0.0-9.0-2.0-0.37","6217","1","10","Male","approach_avoid_spark_v1","""event"",""trial"",""time""
""fullscreenenter"",""1"",""4644""
","
","
","""event"",""trial"",""time""
""fullscreenenter"",""1"",""4644""
","
","","","","","","null","<div style=""font-size:60px;"">+</div>","null","","fixation","","","","","","","","","","",""
"aa-learning-trial","149","566914","0.0-9.0-2.0-1.37","6217","1","10","Male","approach_avoid_spark_v1","""event"",""trial"",""time""
""fullscreenenter"",""1"",""4644""
","
","
","""event"",""trial"",""time""
""fullscreenenter"",""1"",""4644""
","
","","","","","","703.3999998569489","images/table7.png","","","learning","-2","0","0","0","table","furniture","1","0","","neutral","0"
"html-keyboard-response","150","567417","0.0-9.0-2.0-0.38","6217","1","10","Male","approach_avoid_spark_v1","""event"",""trial"",""time""
""fullscreenenter"",""1"",""4644""
","
","
","""event"",""trial"",""time""
""fullscreenenter"",""1"",""4644""
","
","","","","","","null","<div style=""font-size:60px;"">+</div>","null","","fixation","","","","","","","","","","",""
"aa-learning-trial","151","570426","0.0-9.0-2.0-1.38","6217","1","10","Male","approach_avoid_spark_v1","""event"",""trial"",""time""
""fullscreenenter"",""1"",""4644""
","
","
","""event"",""trial"",""time""
""fullscreenenter"",""1"",""4644""
","
","","","","","","687.5","images/table7.png","","","learning","[1]","0","0","0","table","furniture","1","0","","neutral","0"
"html-keyboard-response","152","570929","0.0-9.0-2.0-0.39","6217","1","10","Male","approach_avoid_spark_v1","""event"",""trial"",""time""
""fullscreenenter"",""1"",""4644""
","
","
","""event"",""trial"",""time""
""fullscreenenter"",""1"",""4644""
","
","","","","","","null","<div style=""font-size:60px;"">+</div>","null","","fixation","","","","","","","","","","",""
"aa-learning-trial","153","573938","0.0-9.0-2.0-1.39","6217","1","10","Male","approach_avoid_spark_v1","""event"",""trial"",""time""
""fullscreenenter"",""1"",""4644""
","
","
","""event"",""trial"",""time""
""fullscreenenter"",""1"",""4644""
","
","","","","","","727","images/bed8.png","","","learning","5","5","1","1","bed","furniture","1","0","","good","[5]"
"html-keyboard-response","154","574442","0.0-9.0-2.0-0.40","6217","1","10","Male","approach_avoid_spark_v1","""event"",""trial"",""time""
""fullscreenenter"",""1"",""4644""
","
","
","""event"",""trial"",""time""
""fullscreenenter"",""1"",""4644""
","
","","","","","","null","<div style=""font-size:60px;"">+</div>","null","","fixation","","","","","","","","","","",""
"aa-learning-trial","155","577449","0.0-9.0-2.0-1.40","6217","1","10","Male","approach_avoid_spark_v1","""event"",""trial"",""time""
""fullscreenenter"",""1"",""4644""
","
","
","""event"",""trial"",""time""
""fullscreenenter"",""1"",""4644""
","
","","","","","","695","images/bed7.png","","","learning","4","4","1","1","bed","furniture","1","0","","good","[5]"
"html-keyboard-response","156","577954","0.0-9.0-2.0-0.41","6217","1","10","Male","approach_avoid_spark_v1","""event"",""trial"",""time""
""fullscreenenter"",""1"",""4644""
","
","
","""event"",""trial"",""time""
""fullscreenenter"",""1"",""4644""
","
","","","","","","null","<div style=""font-size:60px;"">+</div>","null","","fixation","","","","","","","","","","",""
"aa-learning-trial","157","580962","0.0-9.0-2.0-1.41","6217","1","10","Male","approach_avoid_spark_v1","""event"",""trial"",""time""
""fullscreenenter"",""1"",""4644""
","
","
","""event"",""trial"",""time""
""fullscreenenter"",""1"",""4644""
","
","","","","","","726.7999999523163","images/bed3.png","","","learning","6","6","1","1","bed","furniture","1","0","","good","[5]"
"html-keyboard-response","158","581465","0.0-9.0-2.0-0.42","6217","1","10","Male","approach_avoid_spark_v1","""event"",""trial"",""time""
""fullscreenenter"",""1"",""4644""
","
","
","""event"",""trial"",""time""
""fullscreenenter"",""1"",""4644""
","
","","","","","","null","<div style=""font-size:60px;"">+</div>","null","","fixation","","","","","","","","","","",""
"aa-learning-trial","159","584474","0.0-9.0-2.0-1.42","6217","1","10","Male","approach_avoid_spark_v1","""event"",""trial"",""time""
""fullscreenenter"",""1"",""4644""
","
","
","""event"",""trial"",""time""
""fullscreenenter"",""1"",""4644""
","
","","","","","","646.7000000476837","images/bed1.png","","","learning","4","4","1","1","bed","furniture","1","0","","good","[5]"
"html-keyboard-response","160","584977","0.0-9.0-2.0-0.43","6217","1","10","Male","approach_avoid_spark_v1","""event"",""trial"",""time""
""fullscreenenter"",""1"",""4644""
","
","
","""event"",""trial"",""time""
""fullscreenenter"",""1"",""4644""
","
","","","","","","null","<div style=""font-size:60px;"">+</div>","null","","fixation","","","","","","","","","","",""
"aa-learning-trial","161","587985","0.0-9.0-2.0-1.43","6217","1","10","Male","approach_avoid_spark_v1","""event"",""trial"",""time""
""fullscreenenter"",""1"",""4644""
","
","
","""event"",""trial"",""time""
""fullscreenenter"",""1"",""4644""
","
","","","","","","951.5999999046326","images/chair5.png","","","learning","-2","0","0","0","chair","furniture","1","0","","bad","[-3]"
"html-keyboard-response","162","588489","0.0-9.0-2.0-0.44","6217","1","10","Male","approach_avoid_spark_v1","""event"",""trial"",""time""
""fullscreenenter"",""1"",""4644""
","
","
","""event"",""trial"",""time""
""fullscreenenter"",""1"",""4644""
","
","","","","","","null","<div style=""font-size:60px;"">+</div>","null","","fixation","","","","","","","","","","",""
"aa-learning-trial","163","591498","0.0-9.0-2.0-1.44","6217","1","10","Male","approach_avoid_spark_v1","""event"",""trial"",""time""
""fullscreenenter"",""1"",""4644""
","
","
","""event"",""trial"",""time""
""fullscreenenter"",""1"",""4644""
","
","","","","","","1070.7000000476837","images/chair3.png","","","learning","-4","0","0","0","chair","furniture","1","0","","bad","[-3]"
"html-keyboard-response","164","592001","0.0-9.0-2.0-0.45","6217","1","10","Male","approach_avoid_spark_v1","""event"",""trial"",""time""
""fullscreenenter"",""1"",""4644""
","
","
","""event"",""trial"",""time""
""fullscreenenter"",""1"",""4644""
","
","","","","","","null","<div style=""font-size:60px;"">+</div>","null","","fixation","","","","","","","","","","",""
"aa-learning-trial","165","595009","0.0-9.0-2.0-1.45","6217","1","10","Male","approach_avoid_spark_v1","""event"",""trial"",""time""
""fullscreenenter"",""1"",""4644""
","
","
","""event"",""trial"",""time""
""fullscreenenter"",""1"",""4644""
","
","","","","","","671","images/chair6.png","","","learning","-3","0","0","0","chair","furniture","1","0","","bad","[-3]"
"html-keyboard-response","166","595513","0.0-9.0-2.0-0.46","6217","1","10","Male","approach_avoid_spark_v1","""event"",""trial"",""time""
""fullscreenenter"",""1"",""4644""
","
","
","""event"",""trial"",""time""
""fullscreenenter"",""1"",""4644""
","
","","","","","","null","<div style=""font-size:60px;"">+</div>","null","","fixation","","","","","","","","","","",""
"aa-learning-trial","167","598521","0.0-9.0-2.0-1.46","6217","1","10","Male","approach_avoid_spark_v1","""event"",""trial"",""time""
""fullscreenenter"",""1"",""4644""
","
","
","""event"",""trial"",""time""
""fullscreenenter"",""1"",""4644""
","
","","","","","","591.5","images/bed8.png","","","learning","4","4","1","1","bed","furniture","1","0","","good","[5]"
"html-keyboard-response","168","599025","0.0-9.0-2.0-0.47","6217","1","10","Male","approach_avoid_spark_v1","""event"",""trial"",""time""
""fullscreenenter"",""1"",""4644""
","
","
","""event"",""trial"",""time""
""fullscreenenter"",""1"",""4644""
","
","","","","","","null","<div style=""font-size:60px;"">+</div>","null","","fixation","","","","","","","","","","",""
"aa-learning-trial","169","602033","0.0-9.0-2.0-1.47","6217","1","10","Male","approach_avoid_spark_v1","""event"",""trial"",""time""
""fullscreenenter"",""1"",""4644""
","
","
","""event"",""trial"",""time""
""fullscreenenter"",""1"",""4644""
","
","","","","","","639.7999999523163","images/chair6.png","","","learning","-1","0","0","0","chair","furniture","1","0","","bad","[-3]"
"html-keyboard-response","170","602537","0.0-9.0-2.0-0.48","6217","1","10","Male","approach_avoid_spark_v1","""event"",""trial"",""time""
""fullscreenenter"",""1"",""4644""
","
","
","""event"",""trial"",""time""
""fullscreenenter"",""1"",""4644""
","
","","","","","","null","<div style=""font-size:60px;"">+</div>","null","","fixation","","","","","","","","","","",""
"aa-learning-trial","171","605545","0.0-9.0-2.0-1.48","6217","1","10","Male","approach_avoid_spark_v1","""event"",""trial"",""time""
""fullscreenenter"",""1"",""4644""
","
","
","""event"",""trial"",""time""
""fullscreenenter"",""1"",""4644""
","
","","","","","","998.7000000476837","images/table1.png","","","learning","[-1]","0","0","0","table","furniture","1","0","","neutral","0"
"html-keyboard-response","172","606049","0.0-9.0-2.0-0.49","6217","1","10","Male","approach_avoid_spark_v1","""event"",""trial"",""time""
""fullscreenenter"",""1"",""4644""
","
","
","""event"",""trial"",""time""
""fullscreenenter"",""1"",""4644""
","
","","","","","","null","<div style=""font-size:60px;"">+</div>","null","","fixation","","","","","","","","","","",""
"aa-learning-trial","173","609057","0.0-9.0-2.0-1.49","6217","1","10","Male","approach_avoid_spark_v1","""event"",""trial"",""time""
""fullscreenenter"",""1"",""4644""
","
","
","""event"",""trial"",""time""
""fullscreenenter"",""1"",""4644""
","
","","","","","","1255.9000000953674","images/table3.png","","","learning","-1","0","0","0","table","furniture","1","0","","neutral","0"
"html-keyboard-response","174","609561","0.0-9.0-2.0-0.50","6217","1","10","Male","approach_avoid_spark_v1","""event"",""trial"",""time""
""fullscreenenter"",""1"",""4644""
","
","
","""event"",""trial"",""time""
""fullscreenenter"",""1"",""4644""
","
","","","","","","null","<div style=""font-size:60px;"">+</div>","null","","fixation","","","","","","","","","","",""
"aa-learning-trial","175","612570","0.0-9.0-2.0-1.50","6217","1","10","Male","approach_avoid_spark_v1","""event"",""trial"",""time""
""fullscreenenter"",""1"",""4644""
","
","
","""event"",""trial"",""time""
""fullscreenenter"",""1"",""4644""
","
","","","","","","1254.8000001907349","images/chair2.png","","","learning","-4","0","0","0","chair","furniture","1","0","","bad","[-3]"
"html-button-response","176","615921","0.0-9.0-3.0","6217","1","10","Male","approach_avoid_spark_v1","""event"",""trial"",""time""
""fullscreenenter"",""1"",""4644""
","
","
","""event"",""trial"",""time""
""fullscreenenter"",""1"",""4644""
","
","","","","","","3349.7000000476837","<p> You have completed the round! <p> In this round, you earned 69 points! </p>","0","","break","","","","","","","","","","",""
"html-button-response","177","616798","0.0-10.0","6217","1","10","Male","approach_avoid_spark_v1","""event"",""trial"",""time""
""fullscreenenter"",""1"",""4644""
","
","
","""event"",""trial"",""time""
""fullscreenenter"",""1"",""4644""
","
","","","","","","876.3999998569489","<p> Now it's time to play another round. </p>","0","","transition_screen","","","","","","","","","","",""
"preload","178","616914","0.0-11.0-0.0","6217","1","10","Male","approach_avoid_spark_v1","""event"",""trial"",""time""
""fullscreenenter"",""1"",""4644""
","
","
","""event"",""trial"",""time""
""fullscreenenter"",""1"",""4644""
","
","true","false","[]","[]","[]","","","","","","","","","","","","","","","",""
"learning-instructions","179","624454","0.0-11.0-1.0-0.0","6217","1","10","Male","approach_avoid_spark_v1","""event"",""trial"",""time""
""fullscreenenter"",""1"",""4644""
","
","
","""event"",""trial"",""time""
""fullscreenenter"",""1"",""4644""
","
","","","","","","1288.7000000476837","<p> Your goal in this round is to sell different plants to a picky customer. </p></div>","","0","instructions","","","","","","","","","","",""
"learning-instructions","180","634302","0.0-11.0-1.0-0.1","6217","1","10","Male","approach_avoid_spark_v1","""event"",""trial"",""time""
""fullscreenenter"",""1"",""4644""
","
","
","""event"",""trial"",""time""
""fullscreenenter"",""1"",""4644""
","
","","","","","","446.90000009536743","<p> The customer likes some plants and dislikes others.  </p><p> On each turn, you will see a plant.   </p><p> You need to decide whether to offer it to the customer or not.  </p>","","0","instructions","","","","","","","","","","",""
"learning-instructions","181","640622","0.0-11.0-1.0-0.2","6217","1","10","Male","approach_avoid_spark_v1","""event"",""trial"",""time""
""fullscreenenter"",""1"",""4644""
","
","
","""event"",""trial"",""time""
""fullscreenenter"",""1"",""4644""
","
","","","","","","626.1000001430511","<p> You can offer the plant by pressing 1 and decide to not offer it by pressing 0. </p><br><div class=""choice-instructions-grid""> <div class=""choice-option""><img src=""images/approach.png"" class=""choice-option-img"" stage=""instructions"" position=""0"" ><div class=""choice-option-text""> Press ""1."" </div></div><div class=""choice-option""><img src=""images/avoid.png"" class=""choice-option-img"" stage=""instructions"" position=""1"" ><div class=""choice-option-text""> Press ""0."" </div></div>","","0","instructions","","","","","","","","","","",""
"learning-instructions","182","650273","0.0-11.0-1.0-0.3","6217","1","10","Male","approach_avoid_spark_v1","""event"",""trial"",""time""
""fullscreenenter"",""1"",""4644""
","
","
","""event"",""trial"",""time""
""fullscreenenter"",""1"",""4644""
","
","","","","","","607.7999999523163","<p> If you offer a plant to the customer that she likes, she will be very pleased! </p><p> But if you offer a plant that she does NOT like, she will be annoyed. </p>","","0","instructions","","","","","","","","","","",""
"learning-instructions","183","664766","0.0-11.0-1.0-0.4","6217","1","10","Male","approach_avoid_spark_v1","""event"",""trial"",""time""
""fullscreenenter"",""1"",""4644""
","
","
","""event"",""trial"",""time""
""fullscreenenter"",""1"",""4644""
","
","","","","","","1989.8999998569489","<p> You will earn points based on how you made the customer feel. </p><p> If you made her pleased, you will WIN anywhere from 1 - 9 points, </p><p> but if you made her annoyed, you will LOSE anywhere from 1 - 9 points. </p>","","0","instructions","","","","","","","","","","",""
"learning-instructions","184","671872","0.0-11.0-1.0-0.5","6217","1","10","Male","approach_avoid_spark_v1","""event"",""trial"",""time""
""fullscreenenter"",""1"",""4644""
","
","
","""event"",""trial"",""time""
""fullscreenenter"",""1"",""4644""
","
","","","","","","456.60000014305115","<p> You will see how many points you won or lost in the center of the screen. </p><p> Here is what you would see if you won 5 points: </p><p style=""color:green;font-size:50px;font-weight:bolder"">5</p>","","0","instructions","","","","","","","","","","",""
"learning-instructions","185","675210","0.0-11.0-1.0-0.6","6217","1","10","Male","approach_avoid_spark_v1","""event"",""trial"",""time""
""fullscreenenter"",""1"",""4644""
","
","
","""event"",""trial"",""time""
""fullscreenenter"",""1"",""4644""
","
","","","","","","505.39999985694885","<p> And here is what you would see if you lost 3 points: </p><p style=""color:red;font-size:50px;font-weight:bolder"">-3</p>","","0","instructions","","","","","","","","","","",""
"learning-instructions","186","690860","0.0-11.0-1.0-0.7","6217","1","10","Male","approach_avoid_spark_v1","""event"",""trial"",""time""
""fullscreenenter"",""1"",""4644""
","
","
","""event"",""trial"",""time""
""fullscreenenter"",""1"",""4644""
","
","","","","","","863.9000000953674","<p> Some plants will make the customer VERY pleased or annoyed. </p><p> These plants will make you win or lose LOTS of points. </p><p> The customer will have less strong feelings about other plants. </p><p> These plants will make you win or lose small amounts of points. </p>","","0","instructions","","","","","","","","","","",""
"learning-instructions","187","703750","0.0-11.0-1.0-0.8","6217","1","10","Male","approach_avoid_spark_v1","""event"",""trial"",""time""
""fullscreenenter"",""1"",""4644""
","
","
","""event"",""trial"",""time""
""fullscreenenter"",""1"",""4644""
","
","","","","","","304.2999999523163","<p> If you choose to not offer the plant to the customer, you will not win or lose any points. </p><p>  However, in the center of the screen, you will see the number of points you WOULD HAVE won or lost if you had offered the plant. </p>","","0","instructions","","","","","","","","","","",""
"learning-instructions","188","715709","0.0-11.0-1.0-0.9","6217","1","10","Male","approach_avoid_spark_v1","""event"",""trial"",""time""
""fullscreenenter"",""1"",""4644""
","
","
","""event"",""trial"",""time""
""fullscreenenter"",""1"",""4644""
","
","","","","","","294.2999999523163","<p> Here is what you might see if you did not offer the plant but the customer would have liked it: </p><p style=""color:grey; font-size:50px; display: inline-block; border-spacing: 15px; border-width:3px; border-style:solid; border-color:red"">  &nbsp; 6 &nbsp; </p><p> Remember, in this case, you would not win or lose ANY points because you did not offer the plant.  </p>","","0","instructions","","","","","","","","","","",""
"learning-instructions","189","723797","0.0-11.0-1.0-0.10","6217","1","10","Male","approach_avoid_spark_v1","""event"",""trial"",""time""
""fullscreenenter"",""1"",""4644""
","
","
","""event"",""trial"",""time""
""fullscreenenter"",""1"",""4644""
","
","","","","","","252.09999990463257","<p> Try to make the best choice for each plant because </p><p> at the end of the game, you will earn bonus money based on how many points you earned. </p>","","0","instructions","","","","","","","","","","",""
"learning-instructions","190","732182","0.0-11.0-1.0-0.11","6217","1","10","Male","approach_avoid_spark_v1","""event"",""trial"",""time""
""fullscreenenter"",""1"",""4644""
","
","
","""event"",""trial"",""time""
""fullscreenenter"",""1"",""4644""
","
","","","","","","186.30000019073486","<p> You will have 3 seconds to make each choice. Try to respond before time runs out! </p><p> You will lose 5 points each time you do not make a response. </p>","","0","instructions","","","","","","","","","","",""
"html-keyboard-response","191","732813","0.0-11.0-2.0-0.0","6217","1","10","Male","approach_avoid_spark_v1","""event"",""trial"",""time""
""fullscreenenter"",""1"",""4644""
","
","
","""event"",""trial"",""time""
""fullscreenenter"",""1"",""4644""
","
","","","","","","null","<div style=""font-size:60px;"">+</div>","null","","fixation","","","","","","","","","","",""
"aa-learning-trial","192","735821","0.0-11.0-2.0-1.0","6217","1","10","Male","approach_avoid_spark_v1","""event"",""trial"",""time""
""fullscreenenter"",""1"",""4644""
","
","
","""event"",""trial"",""time""
""fullscreenenter"",""1"",""4644""
","
","","","","","","2529.7000000476837","images/bush6.png","","","learning","-5","-5","1","1","bush","plants","2","1","","bad","[-4]"
"html-keyboard-response","193","736335","0.0-11.0-2.0-0.1","6217","1","10","Male","approach_avoid_spark_v1","""event"",""trial"",""time""
""fullscreenenter"",""1"",""4644""
","
","
","""event"",""trial"",""time""
""fullscreenenter"",""1"",""4644""
","
","","","","","","null","<div style=""font-size:60px;"">+</div>","null","","fixation","","","","","","","","","","",""
"aa-learning-trial","194","739353","0.0-11.0-2.0-1.1","6217","1","10","Male","approach_avoid_spark_v1","""event"",""trial"",""time""
""fullscreenenter"",""1"",""4644""
","
","
","""event"",""trial"",""time""
""fullscreenenter"",""1"",""4644""
","
","","","","","","1545","images/cactus4.png","","","learning","5","0","0","0","cactus","plants","2","1","","neutral","0"
"html-keyboard-response","195","739858","0.0-11.0-2.0-0.2","6217","1","10","Male","approach_avoid_spark_v1","""event"",""trial"",""time""
""fullscreenenter"",""1"",""4644""
","
","
","""event"",""trial"",""time""
""fullscreenenter"",""1"",""4644""
","
","","","","","","null","<div style=""font-size:60px;"">+</div>","null","","fixation","","","","","","","","","","",""
"aa-learning-trial","196","742860","0.0-11.0-2.0-1.2","6217","1","10","Male","approach_avoid_spark_v1","""event"",""trial"",""time""
""fullscreenenter"",""1"",""4644""
","
","
","""event"",""trial"",""time""
""fullscreenenter"",""1"",""4644""
","
","","","","","","941.4000000953674","images/cactus4.png","","","learning","5","5","1","1","cactus","plants","2","1","","neutral","0"
"html-keyboard-response","197","743378","0.0-11.0-2.0-0.3","6217","1","10","Male","approach_avoid_spark_v1","""event"",""trial"",""time""
""fullscreenenter"",""1"",""4644""
","
","
","""event"",""trial"",""time""
""fullscreenenter"",""1"",""4644""
","
","","","","","","null","<div style=""font-size:60px;"">+</div>","null","","fixation","","","","","","","","","","",""
"aa-learning-trial","198","746385","0.0-11.0-2.0-1.3","6217","1","10","Male","approach_avoid_spark_v1","""event"",""trial"",""time""
""fullscreenenter"",""1"",""4644""
","
","
","""event"",""trial"",""time""
""fullscreenenter"",""1"",""4644""
","
","","","","","","1309.9000000953674","images/flower6.png","","","learning","-4","0","0","0","flower","plants","2","1","","good","[3]"
"html-keyboard-response","199","746895","0.0-11.0-2.0-0.4","6217","1","10","Male","approach_avoid_spark_v1","""event"",""trial"",""time""
""fullscreenenter"",""1"",""4644""
","
","
","""event"",""trial"",""time""
""fullscreenenter"",""1"",""4644""
","
","","","","","","null","<div style=""font-size:60px;"">+</div>","null","","fixation","","","","","","","","","","",""
"aa-learning-trial","200","749919","0.0-11.0-2.0-1.4","6217","1","10","Male","approach_avoid_spark_v1","""event"",""trial"",""time""
""fullscreenenter"",""1"",""4644""
","
","
","""event"",""trial"",""time""
""fullscreenenter"",""1"",""4644""
","
","","","","","","1064.7999999523163","images/cactus7.png","","","learning","8","8","1","1","cactus","plants","2","1","","neutral","0"
"html-keyboard-response","201","750435","0.0-11.0-2.0-0.5","6217","1","10","Male","approach_avoid_spark_v1","""event"",""trial"",""time""
""fullscreenenter"",""1"",""4644""
","
","
","""event"",""trial"",""time""
""fullscreenenter"",""1"",""4644""
","
","","","","","","null","<div style=""font-size:60px;"">+</div>","null","","fixation","","","","","","","","","","",""
"aa-learning-trial","202","753445","0.0-11.0-2.0-1.5","6217","1","10","Male","approach_avoid_spark_v1","""event"",""trial"",""time""
""fullscreenenter"",""1"",""4644""
","
","
","""event"",""trial"",""time""
""fullscreenenter"",""1"",""4644""
","
","","","","","","2196.399999856949","images/bush1.png","","","learning","-2","0","0","0","bush","plants","2","1","","bad","[-4]"
"html-keyboard-response","203","753955","0.0-11.0-2.0-0.6","6217","1","10","Male","approach_avoid_spark_v1","""event"",""trial"",""time""
""fullscreenenter"",""1"",""4644""
","
","
","""event"",""trial"",""time""
""fullscreenenter"",""1"",""4644""
","
","","","","","","null","<div style=""font-size:60px;"">+</div>","null","","fixation","","","","","","","","","","",""
"aa-learning-trial","204","756972","0.0-11.0-2.0-1.6","6217","1","10","Male","approach_avoid_spark_v1","""event"",""trial"",""time""
""fullscreenenter"",""1"",""4644""
","
","
","""event"",""trial"",""time""
""fullscreenenter"",""1"",""4644""
","
","","","","","","764.5","images/bush6.png","","","learning","-5","0","0","0","bush","plants","2","1","","bad","[-4]"
"html-keyboard-response","205","757491","0.0-11.0-2.0-0.7","6217","1","10","Male","approach_avoid_spark_v1","""event"",""trial"",""time""
""fullscreenenter"",""1"",""4644""
","
","
","""event"",""trial"",""time""
""fullscreenenter"",""1"",""4644""
","
","","","","","","null","<div style=""font-size:60px;"">+</div>","null","","fixation","","","","","","","","","","",""
"aa-learning-trial","206","760498","0.0-11.0-2.0-1.7","6217","1","10","Male","approach_avoid_spark_v1","""event"",""trial"",""time""
""fullscreenenter"",""1"",""4644""
","
","
","""event"",""trial"",""time""
""fullscreenenter"",""1"",""4644""
","
","","","","","","811.6999998092651","images/bush1.png","","","learning","-2","0","0","0","bush","plants","2","1","","bad","[-4]"
"html-keyboard-response","207","761012","0.0-11.0-2.0-0.8","6217","1","10","Male","approach_avoid_spark_v1","""event"",""trial"",""time""
""fullscreenenter"",""1"",""4644""
","
","
","""event"",""trial"",""time""
""fullscreenenter"",""1"",""4644""
","
","","","","","","null","<div style=""font-size:60px;"">+</div>","null","","fixation","","","","","","","","","","",""
"aa-learning-trial","208","764017","0.0-11.0-2.0-1.8","6217","1","10","Male","approach_avoid_spark_v1","""event"",""trial"",""time""
""fullscreenenter"",""1"",""4644""
","
","
","""event"",""trial"",""time""
""fullscreenenter"",""1"",""4644""
","
","","","","","","1964","images/flower3.png","","","learning","-9","0","0","0","flower","plants","2","1","","good","[3]"
"html-keyboard-response","209","764521","0.0-11.0-2.0-0.9","6217","1","10","Male","approach_avoid_spark_v1","""event"",""trial"",""time""
""fullscreenenter"",""1"",""4644""
","
","
","""event"",""trial"",""time""
""fullscreenenter"",""1"",""4644""
","
","","","","","","null","<div style=""font-size:60px;"">+</div>","null","","fixation","","","","","","","","","","",""
"aa-learning-trial","210","767530","0.0-11.0-2.0-1.9","6217","1","10","Male","approach_avoid_spark_v1","""event"",""trial"",""time""
""fullscreenenter"",""1"",""4644""
","
","
","""event"",""trial"",""time""
""fullscreenenter"",""1"",""4644""
","
","","","","","","798.6000001430511","images/cactus5.png","","","learning","-6","-6","1","1","cactus","plants","2","1","","neutral","0"
"html-keyboard-response","211","768033","0.0-11.0-2.0-0.10","6217","1","10","Male","approach_avoid_spark_v1","""event"",""trial"",""time""
""fullscreenenter"",""1"",""4644""
","
","
","""event"",""trial"",""time""
""fullscreenenter"",""1"",""4644""
","
","","","","","","null","<div style=""font-size:60px;"">+</div>","null","","fixation","","","","","","","","","","",""
"aa-learning-trial","212","771042","0.0-11.0-2.0-1.10","6217","1","10","Male","approach_avoid_spark_v1","""event"",""trial"",""time""
""fullscreenenter"",""1"",""4644""
","
","
","""event"",""trial"",""time""
""fullscreenenter"",""1"",""4644""
","
","","","","","","862.5999999046326","images/flower7.png","","","learning","2","0","0","0","flower","plants","2","1","","good","[3]"
"html-keyboard-response","213","771545","0.0-11.0-2.0-0.11","6217","1","10","Male","approach_avoid_spark_v1","""event"",""trial"",""time""
""fullscreenenter"",""1"",""4644""
","
","
","""event"",""trial"",""time""
""fullscreenenter"",""1"",""4644""
","
","","","","","","null","<div style=""font-size:60px;"">+</div>","null","","fixation","","","","","","","","","","",""
"aa-learning-trial","214","774557","0.0-11.0-2.0-1.11","6217","1","10","Male","approach_avoid_spark_v1","""event"",""trial"",""time""
""fullscreenenter"",""1"",""4644""
","
","
","""event"",""trial"",""time""
""fullscreenenter"",""1"",""4644""
","
","","","","","","1022.3000001907349","images/bush7.png","","","learning","-8","0","0","0","bush","plants","2","1","","bad","[-4]"
"html-keyboard-response","215","775065","0.0-11.0-2.0-0.12","6217","1","10","Male","approach_avoid_spark_v1","""event"",""trial"",""time""
""fullscreenenter"",""1"",""4644""
","
","
","""event"",""trial"",""time""
""fullscreenenter"",""1"",""4644""
","
","","","","","","null","<div style=""font-size:60px;"">+</div>","null","","fixation","","","","","","","","","","",""
"aa-learning-trial","216","778073","0.0-11.0-2.0-1.12","6217","1","10","Male","approach_avoid_spark_v1","""event"",""trial"",""time""
""fullscreenenter"",""1"",""4644""
","
","
","""event"",""trial"",""time""
""fullscreenenter"",""1"",""4644""
","
","","","","","","1310.2000000476837","images/flower6.png","","","learning","-4","0","0","0","flower","plants","2","1","","good","[3]"
"html-keyboard-response","217","778577","0.0-11.0-2.0-0.13","6217","1","10","Male","approach_avoid_spark_v1","""event"",""trial"",""time""
""fullscreenenter"",""1"",""4644""
","
","
","""event"",""trial"",""time""
""fullscreenenter"",""1"",""4644""
","
","","","","","","null","<div style=""font-size:60px;"">+</div>","null","","fixation","","","","","","","","","","",""
"aa-learning-trial","218","781585","0.0-11.0-2.0-1.13","6217","1","10","Male","approach_avoid_spark_v1","""event"",""trial"",""time""
""fullscreenenter"",""1"",""4644""
","
","
","""event"",""trial"",""time""
""fullscreenenter"",""1"",""4644""
","
","","","","","","743.5999999046326","images/flower7.png","","","learning","2","2","1","1","flower","plants","2","1","","good","[3]"
"html-keyboard-response","219","782089","0.0-11.0-2.0-0.14","6217","1","10","Male","approach_avoid_spark_v1","""event"",""trial"",""time""
""fullscreenenter"",""1"",""4644""
","
","
","""event"",""trial"",""time""
""fullscreenenter"",""1"",""4644""
","
","","","","","","null","<div style=""font-size:60px;"">+</div>","null","","fixation","","","","","","","","","","",""
"aa-learning-trial","220","785098","0.0-11.0-2.0-1.14","6217","1","10","Male","approach_avoid_spark_v1","""event"",""trial"",""time""
""fullscreenenter"",""1"",""4644""
","
","
","""event"",""trial"",""time""
""fullscreenenter"",""1"",""4644""
","
","","","","","","782.6000001430511","images/cactus7.png","","","learning","8","8","1","1","cactus","plants","2","1","","neutral","0"
"html-keyboard-response","221","785601","0.0-11.0-2.0-0.15","6217","1","10","Male","approach_avoid_spark_v1","""event"",""trial"",""time""
""fullscreenenter"",""1"",""4644""
","
","
","""event"",""trial"",""time""
""fullscreenenter"",""1"",""4644""
","
","","","","","","null","<div style=""font-size:60px;"">+</div>","null","","fixation","","","","","","","","","","",""
"aa-learning-trial","222","788610","0.0-11.0-2.0-1.15","6217","1","10","Male","approach_avoid_spark_v1","""event"",""trial"",""time""
""fullscreenenter"",""1"",""4644""
","
","
","""event"",""trial"",""time""
""fullscreenenter"",""1"",""4644""
","
","","","","","","1094.0999999046326","images/flower8.png","","","learning","4","0","0","0","flower","plants","2","1","","good","[3]"
"html-keyboard-response","223","789114","0.0-11.0-2.0-0.16","6217","1","10","Male","approach_avoid_spark_v1","""event"",""trial"",""time""
""fullscreenenter"",""1"",""4644""
","
","
","""event"",""trial"",""time""
""fullscreenenter"",""1"",""4644""
","
","","","","","","null","<div style=""font-size:60px;"">+</div>","null","","fixation","","","","","","","","","","",""
"aa-learning-trial","224","792122","0.0-11.0-2.0-1.16","6217","1","10","Male","approach_avoid_spark_v1","""event"",""trial"",""time""
""fullscreenenter"",""1"",""4644""
","
","
","""event"",""trial"",""time""
""fullscreenenter"",""1"",""4644""
","
","","","","","","638.4000000953674","images/flower7.png","","","learning","2","2","1","1","flower","plants","2","1","","good","[3]"
"html-keyboard-response","225","792625","0.0-11.0-2.0-0.17","6217","1","10","Male","approach_avoid_spark_v1","""event"",""trial"",""time""
""fullscreenenter"",""1"",""4644""
","
","
","""event"",""trial"",""time""
""fullscreenenter"",""1"",""4644""
","
","","","","","","null","<div style=""font-size:60px;"">+</div>","null","","fixation","","","","","","","","","","",""
"aa-learning-trial","226","795633","0.0-11.0-2.0-1.17","6217","1","10","Male","approach_avoid_spark_v1","""event"",""trial"",""time""
""fullscreenenter"",""1"",""4644""
","
","
","""event"",""trial"",""time""
""fullscreenenter"",""1"",""4644""
","
","","","","","","911.0999999046326","images/cactus7.png","","","learning","8","8","1","1","cactus","plants","2","1","","neutral","0"
"html-keyboard-response","227","796137","0.0-11.0-2.0-0.18","6217","1","10","Male","approach_avoid_spark_v1","""event"",""trial"",""time""
""fullscreenenter"",""1"",""4644""
","
","
","""event"",""trial"",""time""
""fullscreenenter"",""1"",""4644""
","
","","","","","","null","<div style=""font-size:60px;"">+</div>","null","","fixation","","","","","","","","","","",""
"aa-learning-trial","228","799145","0.0-11.0-2.0-1.18","6217","1","10","Male","approach_avoid_spark_v1","""event"",""trial"",""time""
""fullscreenenter"",""1"",""4644""
","
","
","""event"",""trial"",""time""
""fullscreenenter"",""1"",""4644""
","
","","","","","","1350.7999999523163","images/cactus2.png","","","learning","1","1","1","1","cactus","plants","2","1","","neutral","0"
"html-keyboard-response","229","799650","0.0-11.0-2.0-0.19","6217","1","10","Male","approach_avoid_spark_v1","""event"",""trial"",""time""
""fullscreenenter"",""1"",""4644""
","
","
","""event"",""trial"",""time""
""fullscreenenter"",""1"",""4644""
","
","","","","","","null","<div style=""font-size:60px;"">+</div>","null","","fixation","","","","","","","","","","",""
"aa-learning-trial","230","802658","0.0-11.0-2.0-1.19","6217","1","10","Male","approach_avoid_spark_v1","""event"",""trial"",""time""
""fullscreenenter"",""1"",""4644""
","
","
","""event"",""trial"",""time""
""fullscreenenter"",""1"",""4644""
","
","","","","","","742.1000001430511","images/flower7.png","","","learning","2","2","1","1","flower","plants","2","1","","good","[3]"
"html-keyboard-response","231","803162","0.0-11.0-2.0-0.20","6217","1","10","Male","approach_avoid_spark_v1","""event"",""trial"",""time""
""fullscreenenter"",""1"",""4644""
","
","
","""event"",""trial"",""time""
""fullscreenenter"",""1"",""4644""
","
","","","","","","null","<div style=""font-size:60px;"">+</div>","null","","fixation","","","","","","","","","","",""
"aa-learning-trial","232","806170","0.0-11.0-2.0-1.20","6217","1","10","Male","approach_avoid_spark_v1","""event"",""trial"",""time""
""fullscreenenter"",""1"",""4644""
","
","
","""event"",""trial"",""time""
""fullscreenenter"",""1"",""4644""
","
","","","","","","718.2000000476837","images/cactus7.png","","","learning","8","8","1","1","cactus","plants","2","1","","neutral","0"
"html-keyboard-response","233","806687","0.0-11.0-2.0-0.21","6217","1","10","Male","approach_avoid_spark_v1","""event"",""trial"",""time""
""fullscreenenter"",""1"",""4644""
","
","
","""event"",""trial"",""time""
""fullscreenenter"",""1"",""4644""
","
","","","","","","null","<div style=""font-size:60px;"">+</div>","null","","fixation","","","","","","","","","","",""
"aa-learning-trial","234","809689","0.0-11.0-2.0-1.21","6217","1","10","Male","approach_avoid_spark_v1","""event"",""trial"",""time""
""fullscreenenter"",""1"",""4644""
","
","
","""event"",""trial"",""time""
""fullscreenenter"",""1"",""4644""
","
","","","","","","881","images/cactus4.png","","","learning","5","0","0","0","cactus","plants","2","1","","neutral","0"
"html-keyboard-response","235","810194","0.0-11.0-2.0-0.22","6217","1","10","Male","approach_avoid_spark_v1","""event"",""trial"",""time""
""fullscreenenter"",""1"",""4644""
","
","
","""event"",""trial"",""time""
""fullscreenenter"",""1"",""4644""
","
","","","","","","null","<div style=""font-size:60px;"">+</div>","null","","fixation","","","","","","","","","","",""
"aa-learning-trial","236","813201","0.0-11.0-2.0-1.22","6217","1","10","Male","approach_avoid_spark_v1","""event"",""trial"",""time""
""fullscreenenter"",""1"",""4644""
","
","
","""event"",""trial"",""time""
""fullscreenenter"",""1"",""4644""
","
