"trial_type","trial_index","time_elapsed","internal_node_id","subject_id","task_condition","age","gender","task_version","interactions","blur_events","focus_events","fullscreenenter_events","fullscreenexit_events","success","timeout","failed_images","failed_audio","failed_video","rt","stimulus","response","button_pressed","task_part","approach_reward","points","key_press","option_selected","stim_cat","task_block","block_condition","block_number","correct","cat_type","mean_cat_reward"
"pavlovia","0","3","0.0-0.0","5430","1","21","Female","approach_avoid_spark_v1","""event"",""trial"",""time""
""fullscreenenter"",""1"",""135575""
","
","
","""event"",""trial"",""time""
""fullscreenenter"",""1"",""135575""
","
","","","","","","","","","","","","","","","","","","","","",""
"fullscreen","1","136565","0.0-1.0","5430","1","21","Female","approach_avoid_spark_v1","""event"",""trial"",""time""
""fullscreenenter"",""1"",""135575""
""blur"",""2"",""140795""
""focus"",""2"",""143575""
""blur"",""2"",""145472""
""focus"",""2"",""151710""
","""event"",""trial"",""time""
""blur"",""2"",""140795""
""blur"",""2"",""145472""
","""event"",""trial"",""time""
""focus"",""2"",""143575""
""focus"",""2"",""151710""
","""event"",""trial"",""time""
""fullscreenenter"",""1"",""135575""
","
","true","","","","","","","","","","","","","","","","","","","",""
"preload","2","159149","0.0-2.0","5430","1","21","Female","approach_avoid_spark_v1","""event"",""trial"",""time""
""fullscreenenter"",""1"",""135575""
""blur"",""2"",""140795""
""focus"",""2"",""143575""
""blur"",""2"",""145472""
""focus"",""2"",""151710""
","""event"",""trial"",""time""
""blur"",""2"",""140795""
""blur"",""2"",""145472""
","""event"",""trial"",""time""
""focus"",""2"",""143575""
""focus"",""2"",""151710""
","""event"",""trial"",""time""
""fullscreenenter"",""1"",""135575""
","
","true","false","[]","[]","[]","","","","","","","","","","","","","","","",""
"audio-keyboard-response","3","166888","0.0-3.0","5430","1","21","Female","approach_avoid_spark_v1","""event"",""trial"",""time""
""fullscreenenter"",""1"",""135575""
""blur"",""2"",""140795""
""focus"",""2"",""143575""
""blur"",""2"",""145472""
""focus"",""2"",""151710""
","""event"",""trial"",""time""
""blur"",""2"",""140795""
""blur"",""2"",""145472""
","""event"",""trial"",""time""
""focus"",""2"",""143575""
""focus"",""2"",""151710""
","""event"",""trial"",""time""
""fullscreenenter"",""1"",""135575""
","
","","","","","","7738.049886621316","audio/beep_loop.wav"," ","","","","","","","","","","","","",""
"audio-button-response","4","169089","0.0-4.0","5430","1","21","Female","approach_avoid_spark_v1","""event"",""trial"",""time""
""fullscreenenter"",""1"",""135575""
""blur"",""2"",""140795""
""focus"",""2"",""143575""
""blur"",""2"",""145472""
""focus"",""2"",""151710""
","""event"",""trial"",""time""
""blur"",""2"",""140795""
""blur"",""2"",""145472""
","""event"",""trial"",""time""
""focus"",""2"",""143575""
""focus"",""2"",""151710""
","""event"",""trial"",""time""
""fullscreenenter"",""1"",""135575""
","
","","","","","","2200","audio/shark.wav","4","","","","","","","","","","","","",""
"audio-button-response","5","171051","0.0-5.0","5430","1","21","Female","approach_avoid_spark_v1","""event"",""trial"",""time""
""fullscreenenter"",""1"",""135575""
""blur"",""2"",""140795""
""focus"",""2"",""143575""
""blur"",""2"",""145472""
""focus"",""2"",""151710""
","""event"",""trial"",""time""
""blur"",""2"",""140795""
""blur"",""2"",""145472""
","""event"",""trial"",""time""
""focus"",""2"",""143575""
""focus"",""2"",""151710""
","""event"",""trial"",""time""
""fullscreenenter"",""1"",""135575""
","
","","","","","","952","audio/turtle.wav","1","","","","","","","","","","","","",""
"preload","6","174440","0.0-6.0","5430","1","21","Female","approach_avoid_spark_v1","""event"",""trial"",""time""
""fullscreenenter"",""1"",""135575""
""blur"",""2"",""140795""
""focus"",""2"",""143575""
""blur"",""2"",""145472""
""focus"",""2"",""151710""
","""event"",""trial"",""time""
""blur"",""2"",""140795""
""blur"",""2"",""145472""
","""event"",""trial"",""time""
""focus"",""2"",""143575""
""focus"",""2"",""151710""
","""event"",""trial"",""time""
""fullscreenenter"",""1"",""135575""
","
","true","false","[]","[]","[]","","","","","","","","","","","","","","","",""
"html-keyboard-response","7","201819","0.0-7.0","5430","1","21","Female","approach_avoid_spark_v1","""event"",""trial"",""time""
""fullscreenenter"",""1"",""135575""
""blur"",""2"",""140795""
""focus"",""2"",""143575""
""blur"",""2"",""145472""
""focus"",""2"",""151710""
","""event"",""trial"",""time""
""blur"",""2"",""140795""
""blur"",""2"",""145472""
","""event"",""trial"",""time""
""focus"",""2"",""143575""
""focus"",""2"",""151710""
","""event"",""trial"",""time""
""fullscreenenter"",""1"",""135575""
","
","","","","","","27379.19999998808","Welcome to the experiment. Press any key to begin and to advance the instructions."," ","","","","","","","","","","","","",""
"learning-instructions","8","209996","0.0-8.0-0.0-0.0","5430","1","21","Female","approach_avoid_spark_v1","""event"",""trial"",""time""
""fullscreenenter"",""1"",""135575""
""blur"",""2"",""140795""
""focus"",""2"",""143575""
""blur"",""2"",""145472""
""focus"",""2"",""151710""
","""event"",""trial"",""time""
""blur"",""2"",""140795""
""blur"",""2"",""145472""
","""event"",""trial"",""time""
""focus"",""2"",""143575""
""focus"",""2"",""151710""
","""event"",""trial"",""time""
""fullscreenenter"",""1"",""135575""
","
","","","","","","1205.7000000476837","<p> Welcome! Today you are going to play 6 different rounds of a decision-making game. </p><p> Use the mouse to click next to continue. </p>","","0","instructions","","","","","","","","","","",""
"learning-instructions","9","213372","0.0-8.0-0.0-0.1","5430","1","21","Female","approach_avoid_spark_v1","""event"",""trial"",""time""
""fullscreenenter"",""1"",""135575""
""blur"",""2"",""140795""
""focus"",""2"",""143575""
""blur"",""2"",""145472""
""focus"",""2"",""151710""
","""event"",""trial"",""time""
""blur"",""2"",""140795""
""blur"",""2"",""145472""
","""event"",""trial"",""time""
""focus"",""2"",""143575""
""focus"",""2"",""151710""
","""event"",""trial"",""time""
""fullscreenenter"",""1"",""135575""
","
","","","","","","646.2000000476837","<p> You will start with a practice round to learn the rules. </p>","","0","instructions","","","","","","","","","","",""
"learning-instructions","10","217410","0.0-8.0-0.0-0.2","5430","1","21","Female","approach_avoid_spark_v1","""event"",""trial"",""time""
""fullscreenenter"",""1"",""135575""
""blur"",""2"",""140795""
""focus"",""2"",""143575""
""blur"",""2"",""145472""
""focus"",""2"",""151710""
","""event"",""trial"",""time""
""blur"",""2"",""140795""
""blur"",""2"",""145472""
","""event"",""trial"",""time""
""focus"",""2"",""143575""
""focus"",""2"",""151710""
","""event"",""trial"",""time""
""fullscreenenter"",""1"",""135575""
","
","","","","","","591.8000000119209","<p> Your goal in this round is to give out sports equipment to kids. </p></div>","","0","instructions","","","","","","","","","","",""
"learning-instructions","11","226211","0.0-8.0-0.0-0.3","5430","1","21","Female","approach_avoid_spark_v1","""event"",""trial"",""time""
""fullscreenenter"",""1"",""135575""
""blur"",""2"",""140795""
""focus"",""2"",""143575""
""blur"",""2"",""145472""
""focus"",""2"",""151710""
","""event"",""trial"",""time""
""blur"",""2"",""140795""
""blur"",""2"",""145472""
","""event"",""trial"",""time""
""focus"",""2"",""143575""
""focus"",""2"",""151710""
","""event"",""trial"",""time""
""fullscreenenter"",""1"",""135575""
","
","","","","","","1253.3999999761581","<p> The kids only like some of the equipment.  </p><p> On each turn, you will see a piece of sports equipment.   </p><p> You need to decide whether to give it to the kids or not.  </p>","","0","instructions","","","","","","","","","","",""
"learning-instructions","12","231590","0.0-8.0-0.0-0.4","5430","1","21","Female","approach_avoid_spark_v1","""event"",""trial"",""time""
""fullscreenenter"",""1"",""135575""
""blur"",""2"",""140795""
""focus"",""2"",""143575""
""blur"",""2"",""145472""
""focus"",""2"",""151710""
","""event"",""trial"",""time""
""blur"",""2"",""140795""
""blur"",""2"",""145472""
","""event"",""trial"",""time""
""focus"",""2"",""143575""
""focus"",""2"",""151710""
","""event"",""trial"",""time""
""fullscreenenter"",""1"",""135575""
","
","","","","","","631.3999999761581","<p> You can give them the equipment by pressing 1 and choose not to give it to them by pressing 0. </p><br><div class=""choice-instructions-grid""> <div class=""choice-option""><img src=""images/approach.png"" class=""choice-option-img"" stage=""instructions"" position=""0"" ><div class=""choice-option-text""> Press ""1."" </div></div><div class=""choice-option""><img src=""images/avoid.png"" class=""choice-option-img"" stage=""instructions"" position=""1"" ><div class=""choice-option-text""> Press ""0."" </div></div>","","0","instructions","","","","","","","","","","",""
"learning-instructions","13","240694","0.0-8.0-0.0-0.5","5430","1","21","Female","approach_avoid_spark_v1","""event"",""trial"",""time""
""fullscreenenter"",""1"",""135575""
""blur"",""2"",""140795""
""focus"",""2"",""143575""
""blur"",""2"",""145472""
""focus"",""2"",""151710""
","""event"",""trial"",""time""
""blur"",""2"",""140795""
""blur"",""2"",""145472""
","""event"",""trial"",""time""
""focus"",""2"",""143575""
""focus"",""2"",""151710""
","""event"",""trial"",""time""
""fullscreenenter"",""1"",""135575""
","
","","","","","","1719.199999988079","<p> If you give them a piece of equipment they like, they will be happy! </p><p> But if you give them a piece of equipment they do not like, they will be sad. </p>","","0","instructions","","","","","","","","","","",""
"learning-instructions","14","252452","0.0-8.0-0.0-0.6","5430","1","21","Female","approach_avoid_spark_v1","""event"",""trial"",""time""
""fullscreenenter"",""1"",""135575""
""blur"",""2"",""140795""
""focus"",""2"",""143575""
""blur"",""2"",""145472""
""focus"",""2"",""151710""
","""event"",""trial"",""time""
""blur"",""2"",""140795""
""blur"",""2"",""145472""
","""event"",""trial"",""time""
""focus"",""2"",""143575""
""focus"",""2"",""151710""
","""event"",""trial"",""time""
""fullscreenenter"",""1"",""135575""
","
","","","","","","1252.5","<p> You will earn points based on how you make kids feel. </p><p> If you make them happy, you will WIN anywhere from 1 - 9 points, </p><p> but if you make them sad, you will LOSE anywhere from 1 - 9 points. </p>","","0","instructions","","","","","","","","","","",""
"learning-instructions","15","262557","0.0-8.0-0.0-0.7","5430","1","21","Female","approach_avoid_spark_v1","""event"",""trial"",""time""
""fullscreenenter"",""1"",""135575""
""blur"",""2"",""140795""
""focus"",""2"",""143575""
""blur"",""2"",""145472""
""focus"",""2"",""151710""
","""event"",""trial"",""time""
""blur"",""2"",""140795""
""blur"",""2"",""145472""
","""event"",""trial"",""time""
""focus"",""2"",""143575""
""focus"",""2"",""151710""
","""event"",""trial"",""time""
""fullscreenenter"",""1"",""135575""
","
","","","","","","555","<p> You will see how many points you won or lost in the center of the screen. </p><p> Here is what you would see if you won 6 points: </p><p style=""color:green;font-size:50px;font-weight:bolder"">6</p><p style=""color:green"">The text is GREEN because you WON points.</p>","","0","instructions","","","","","","","","","","",""
"learning-instructions","16","271054","0.0-8.0-0.0-0.8","5430","1","21","Female","approach_avoid_spark_v1","""event"",""trial"",""time""
""fullscreenenter"",""1"",""135575""
""blur"",""2"",""140795""
""focus"",""2"",""143575""
""blur"",""2"",""145472""
""focus"",""2"",""151710""
","""event"",""trial"",""time""
""blur"",""2"",""140795""
""blur"",""2"",""145472""
","""event"",""trial"",""time""
""focus"",""2"",""143575""
""focus"",""2"",""151710""
","""event"",""trial"",""time""
""fullscreenenter"",""1"",""135575""
","
","","","","","","2996.899999976158","<p> And here is what you would see if you lost 4 points: </p><p style=""color:red;font-size:50px;font-weight:bolder"">-4</p><p style=""color:red"">The text is RED because you LOST points. </p>","","0","instructions","","","","","","","","","","",""
"learning-instructions","17","294769","0.0-8.0-0.0-0.9","5430","1","21","Female","approach_avoid_spark_v1","""event"",""trial"",""time""
""fullscreenenter"",""1"",""135575""
""blur"",""2"",""140795""
""focus"",""2"",""143575""
""blur"",""2"",""145472""
""focus"",""2"",""151710""
","""event"",""trial"",""time""
""blur"",""2"",""140795""
""blur"",""2"",""145472""
","""event"",""trial"",""time""
""focus"",""2"",""143575""
""focus"",""2"",""151710""
","""event"",""trial"",""time""
""fullscreenenter"",""1"",""135575""
","
","","","","","","9006.699999988079","<p> Some of the equipment will make the kids VERY happy or sad. </p><p> These pieces of equipment will make you win or lose LOTS of points. </p><p> Other pieces of equipment will only make the kids a little happy or sad. </p><p> These pieces of equipment will make you win or lose small amounts of points. </p>","","0","instructions","","","","","","","","","","",""
"learning-instructions","18","317418","0.0-8.0-0.0-0.10","5430","1","21","Female","approach_avoid_spark_v1","""event"",""trial"",""time""
""fullscreenenter"",""1"",""135575""
""blur"",""2"",""140795""
""focus"",""2"",""143575""
""blur"",""2"",""145472""
""focus"",""2"",""151710""
","""event"",""trial"",""time""
""blur"",""2"",""140795""
""blur"",""2"",""145472""
","""event"",""trial"",""time""
""focus"",""2"",""143575""
""focus"",""2"",""151710""
","""event"",""trial"",""time""
""fullscreenenter"",""1"",""135575""
","
","","","","","","12026.5","<p> If you choose not to give them the equipment, you will not win or lose any points. </p><p>  However, in the center of the screen, you will see the number of points you WOULD HAVE won or lost if you had given them the equipment. </p>","","0","instructions","","","","","","","","","","",""
"learning-instructions","19","341944","0.0-8.0-0.0-0.11","5430","1","21","Female","approach_avoid_spark_v1","""event"",""trial"",""time""
""fullscreenenter"",""1"",""135575""
""blur"",""2"",""140795""
""focus"",""2"",""143575""
""blur"",""2"",""145472""
""focus"",""2"",""151710""
","""event"",""trial"",""time""
""blur"",""2"",""140795""
""blur"",""2"",""145472""
","""event"",""trial"",""time""
""focus"",""2"",""143575""
""focus"",""2"",""151710""
","""event"",""trial"",""time""
""fullscreenenter"",""1"",""135575""
","
","","","","","","3005.399999976158","<p> Here is what you might see if you did not give the equipment to the kids but it would have made them happy: </p><p style=""color:grey; font-size:50px; display: inline-block; border-spacing: 15px; border-width:3px; border-style:solid; border-color:red"">  &nbsp; 7 &nbsp; </p><p> Remember, in this case, you would not win or lose ANY points because you did not give them the equipment.  </p><p style=""color:grey"">The text is GREY because you earned ZERO points. </p><p style=""color:red"">However, choosing to give the kids the equipment would have made you win points. The box around the text is RED because you chose the worse option. </p>","","0","instructions","","","","","","","","","","",""
"learning-instructions","20","363713","0.0-8.0-0.0-0.12","5430","1","21","Female","approach_avoid_spark_v1","""event"",""trial"",""time""
""fullscreenenter"",""1"",""135575""
""blur"",""2"",""140795""
""focus"",""2"",""143575""
""blur"",""2"",""145472""
""focus"",""2"",""151710""
","""event"",""trial"",""time""
""blur"",""2"",""140795""
""blur"",""2"",""145472""
","""event"",""trial"",""time""
""focus"",""2"",""143575""
""focus"",""2"",""151710""
","""event"",""trial"",""time""
""fullscreenenter"",""1"",""135575""
","
","","","","","","698.1000000238419","<p> Here is what you might see if you did not give the equipment to the kids but it would have made them sad: </p><p style=""color:grey;font-size:50px; display: inline-block; border-spacing: 15px; border-width:3px; border-style:solid; border-color:green"">  &nbsp; -8 &nbsp; </p><p> Remember, in this case, you would not win or lose ANY points because you did not give them the equipment.  </p><p style=""color:grey"">The text is GREY because you earned ZERO points. </p><p  style=""color:green""> Choosing to give the kids the equipment would have made you lose points. The box around the text is GREEN because you chose the better option.</p>","","0","instructions","","","","","","","","","","",""
"learning-instructions","21","375740","0.0-8.0-0.0-0.13","5430","1","21","Female","approach_avoid_spark_v1","""event"",""trial"",""time""
""fullscreenenter"",""1"",""135575""
""blur"",""2"",""140795""
""focus"",""2"",""143575""
""blur"",""2"",""145472""
""focus"",""2"",""151710""
","""event"",""trial"",""time""
""blur"",""2"",""140795""
""blur"",""2"",""145472""
","""event"",""trial"",""time""
""focus"",""2"",""143575""
""focus"",""2"",""151710""
","""event"",""trial"",""time""
""fullscreenenter"",""1"",""135575""
","
","","","","","","1766.300000011921","<p> You will have 3 seconds to make each choice. Try to respond before time runs out! </p><p> You will lose 5 points each time you do not make a response. </p>","","0","instructions","","","","","","","","","","",""
"learning-instructions","22","381814","0.0-8.0-0.0-0.14","5430","1","21","Female","approach_avoid_spark_v1","""event"",""trial"",""time""
""fullscreenenter"",""1"",""135575""
""blur"",""2"",""140795""
""focus"",""2"",""143575""
""blur"",""2"",""145472""
""focus"",""2"",""151710""
","""event"",""trial"",""time""
""blur"",""2"",""140795""
""blur"",""2"",""145472""
","""event"",""trial"",""time""
""focus"",""2"",""143575""
""focus"",""2"",""151710""
","""event"",""trial"",""time""
""fullscreenenter"",""1"",""135575""
","
","","","","","","665.5","<p> This is just a practice round, but in the real game, your bonus payment will depend on your total number of points.","","0","instructions","","","","","","","","","","",""
"learning-instructions","23","388530","0.0-8.0-0.0-0.15","5430","1","21","Female","approach_avoid_spark_v1","""event"",""trial"",""time""
""fullscreenenter"",""1"",""135575""
""blur"",""2"",""140795""
""focus"",""2"",""143575""
""blur"",""2"",""145472""
""focus"",""2"",""151710""
","""event"",""trial"",""time""
""blur"",""2"",""140795""
""blur"",""2"",""145472""
","""event"",""trial"",""time""
""focus"",""2"",""143575""
""focus"",""2"",""151710""
","""event"",""trial"",""time""
""fullscreenenter"",""1"",""135575""
","
","","","","","","960.6000000238419","<p> Remember, you can give them the equipment by pressing 1 and choose not to give it to them by pressing 0. </p><br><div class=""choice-instructions-grid""> <div class=""choice-option""><img src=""images/approach.png"" class=""choice-option-img"" stage=""instructions"" position=""0"" ><div class=""choice-option-text""> Press ""1."" </div></div><div class=""choice-option""><img src=""images/avoid.png"" class=""choice-option-img"" stage=""instructions"" position=""1"" ><div class=""choice-option-text""> Press ""0."" </div></div>","","0","instructions","","","","","","","","","","",""
"html-button-response","24","390107","0.0-8.0-1.0","5430","1","21","Female","approach_avoid_spark_v1","""event"",""trial"",""time""
""fullscreenenter"",""1"",""135575""
""blur"",""2"",""140795""
""focus"",""2"",""143575""
""blur"",""2"",""145472""
""focus"",""2"",""151710""
","""event"",""trial"",""time""
""blur"",""2"",""140795""
""blur"",""2"",""145472""
","""event"",""trial"",""time""
""focus"",""2"",""143575""
""focus"",""2"",""151710""
","""event"",""trial"",""time""
""fullscreenenter"",""1"",""135575""
","
","","","","","","1467.4000000357628","<p> Ready to practice? </p>","0","","","","","","","","","","","","",""
"html-keyboard-response","25","390714","0.0-8.0-2.0-0.0","5430","1","21","Female","approach_avoid_spark_v1","""event"",""trial"",""time""
""fullscreenenter"",""1"",""135575""
""blur"",""2"",""140795""
""focus"",""2"",""143575""
""blur"",""2"",""145472""
""focus"",""2"",""151710""
","""event"",""trial"",""time""
""blur"",""2"",""140795""
""blur"",""2"",""145472""
","""event"",""trial"",""time""
""focus"",""2"",""143575""
""focus"",""2"",""151710""
","""event"",""trial"",""time""
""fullscreenenter"",""1"",""135575""
","
","","","","","","null","<div style=""font-size:60px;"">+</div>","null","","fixation","","","","","","","","","","",""
"aa-learning-trial","26","393722","0.0-8.0-2.0-1.0","5430","1","21","Female","approach_avoid_spark_v1","""event"",""trial"",""time""
""fullscreenenter"",""1"",""135575""
""blur"",""2"",""140795""
""focus"",""2"",""143575""
""blur"",""2"",""145472""
""focus"",""2"",""151710""
","""event"",""trial"",""time""
""blur"",""2"",""140795""
""blur"",""2"",""145472""
","""event"",""trial"",""time""
""focus"",""2"",""143575""
""focus"",""2"",""151710""
","""event"",""trial"",""time""
""fullscreenenter"",""1"",""135575""
","
","","","","","","1275.699999988079","images/ball1.png","","","learning","7","7","1","1","practice","practice","practice","-1","","",""
"html-keyboard-response","27","394227","0.0-8.0-2.0-0.1","5430","1","21","Female","approach_avoid_spark_v1","""event"",""trial"",""time""
""fullscreenenter"",""1"",""135575""
""blur"",""2"",""140795""
""focus"",""2"",""143575""
""blur"",""2"",""145472""
""focus"",""2"",""151710""
","""event"",""trial"",""time""
""blur"",""2"",""140795""
""blur"",""2"",""145472""
","""event"",""trial"",""time""
""focus"",""2"",""143575""
""focus"",""2"",""151710""
","""event"",""trial"",""time""
""fullscreenenter"",""1"",""135575""
","
","","","","","","null","<div style=""font-size:60px;"">+</div>","null","","fixation","","","","","","","","","","",""
"aa-learning-trial","28","397237","0.0-8.0-2.0-1.1","5430","1","21","Female","approach_avoid_spark_v1","""event"",""trial"",""time""
""fullscreenenter"",""1"",""135575""
""blur"",""2"",""140795""
""focus"",""2"",""143575""
""blur"",""2"",""145472""
""focus"",""2"",""151710""
","""event"",""trial"",""time""
""blur"",""2"",""140795""
""blur"",""2"",""145472""
","""event"",""trial"",""time""
""focus"",""2"",""143575""
""focus"",""2"",""151710""
","""event"",""trial"",""time""
""fullscreenenter"",""1"",""135575""
","
","","","","","","1550.6000000238419","images/ball3.png","","","learning","-1","-1","1","1","practice","practice","practice","-1","","",""
"html-keyboard-response","29","397743","0.0-8.0-2.0-0.2","5430","1","21","Female","approach_avoid_spark_v1","""event"",""trial"",""time""
""fullscreenenter"",""1"",""135575""
""blur"",""2"",""140795""
""focus"",""2"",""143575""
""blur"",""2"",""145472""
""focus"",""2"",""151710""
","""event"",""trial"",""time""
""blur"",""2"",""140795""
""blur"",""2"",""145472""
","""event"",""trial"",""time""
""focus"",""2"",""143575""
""focus"",""2"",""151710""
","""event"",""trial"",""time""
""fullscreenenter"",""1"",""135575""
","
","","","","","","null","<div style=""font-size:60px;"">+</div>","null","","fixation","","","","","","","","","","",""
"aa-learning-trial","30","400751","0.0-8.0-2.0-1.2","5430","1","21","Female","approach_avoid_spark_v1","""event"",""trial"",""time""
""fullscreenenter"",""1"",""135575""
""blur"",""2"",""140795""
""focus"",""2"",""143575""
""blur"",""2"",""145472""
""focus"",""2"",""151710""
","""event"",""trial"",""time""
""blur"",""2"",""140795""
""blur"",""2"",""145472""
","""event"",""trial"",""time""
""focus"",""2"",""143575""
""focus"",""2"",""151710""
","""event"",""trial"",""time""
""fullscreenenter"",""1"",""135575""
","
","","","","","","1035.5999999642372","images/racket3.png","","","learning","8","8","1","1","practice","practice","practice","-1","","",""
"html-keyboard-response","31","401255","0.0-8.0-2.0-0.3","5430","1","21","Female","approach_avoid_spark_v1","""event"",""trial"",""time""
""fullscreenenter"",""1"",""135575""
""blur"",""2"",""140795""
""focus"",""2"",""143575""
""blur"",""2"",""145472""
""focus"",""2"",""151710""
","""event"",""trial"",""time""
""blur"",""2"",""140795""
""blur"",""2"",""145472""
","""event"",""trial"",""time""
""focus"",""2"",""143575""
""focus"",""2"",""151710""
","""event"",""trial"",""time""
""fullscreenenter"",""1"",""135575""
","
","","","","","","null","<div style=""font-size:60px;"">+</div>","null","","fixation","","","","","","","","","","",""
"aa-learning-trial","32","404263","0.0-8.0-2.0-1.3","5430","1","21","Female","approach_avoid_spark_v1","""event"",""trial"",""time""
""fullscreenenter"",""1"",""135575""
""blur"",""2"",""140795""
""focus"",""2"",""143575""
""blur"",""2"",""145472""
""focus"",""2"",""151710""
","""event"",""trial"",""time""
""blur"",""2"",""140795""
""blur"",""2"",""145472""
","""event"",""trial"",""time""
""focus"",""2"",""143575""
""focus"",""2"",""151710""
","""event"",""trial"",""time""
""fullscreenenter"",""1"",""135575""
","
","","","","","","763.4000000357628","images/racket4.png","","","learning","2","0","0","0","practice","practice","practice","-1","","",""
"html-keyboard-response","33","404769","0.0-8.0-2.0-0.4","5430","1","21","Female","approach_avoid_spark_v1","""event"",""trial"",""time""
""fullscreenenter"",""1"",""135575""
""blur"",""2"",""140795""
""focus"",""2"",""143575""
""blur"",""2"",""145472""
""focus"",""2"",""151710""
","""event"",""trial"",""time""
""blur"",""2"",""140795""
""blur"",""2"",""145472""
","""event"",""trial"",""time""
""focus"",""2"",""143575""
""focus"",""2"",""151710""
","""event"",""trial"",""time""
""fullscreenenter"",""1"",""135575""
","
","","","","","","null","<div style=""font-size:60px;"">+</div>","null","","fixation","","","","","","","","","","",""
"aa-learning-trial","34","407779","0.0-8.0-2.0-1.4","5430","1","21","Female","approach_avoid_spark_v1","""event"",""trial"",""time""
""fullscreenenter"",""1"",""135575""
""blur"",""2"",""140795""
""focus"",""2"",""143575""
""blur"",""2"",""145472""
""focus"",""2"",""151710""
","""event"",""trial"",""time""
""blur"",""2"",""140795""
""blur"",""2"",""145472""
","""event"",""trial"",""time""
""focus"",""2"",""143575""
""focus"",""2"",""151710""
","""event"",""trial"",""time""
""fullscreenenter"",""1"",""135575""
","
","","","","","","1433.6000000238419","images/racket1.png","","","learning","9","9","1","1","practice","practice","practice","-1","","",""
"html-keyboard-response","35","408282","0.0-8.0-2.0-0.5","5430","1","21","Female","approach_avoid_spark_v1","""event"",""trial"",""time""
""fullscreenenter"",""1"",""135575""
""blur"",""2"",""140795""
""focus"",""2"",""143575""
""blur"",""2"",""145472""
""focus"",""2"",""151710""
","""event"",""trial"",""time""
""blur"",""2"",""140795""
""blur"",""2"",""145472""
","""event"",""trial"",""time""
""focus"",""2"",""143575""
""focus"",""2"",""151710""
","""event"",""trial"",""time""
""fullscreenenter"",""1"",""135575""
","
","","","","","","null","<div style=""font-size:60px;"">+</div>","null","","fixation","","","","","","","","","","",""
"aa-learning-trial","36","411289","0.0-8.0-2.0-1.5","5430","1","21","Female","approach_avoid_spark_v1","""event"",""trial"",""time""
""fullscreenenter"",""1"",""135575""
""blur"",""2"",""140795""
""focus"",""2"",""143575""
""blur"",""2"",""145472""
""focus"",""2"",""151710""
","""event"",""trial"",""time""
""blur"",""2"",""140795""
""blur"",""2"",""145472""
","""event"",""trial"",""time""
""focus"",""2"",""143575""
""focus"",""2"",""151710""
","""event"",""trial"",""time""
""fullscreenenter"",""1"",""135575""
","
","","","","","","964.6999999880791","images/ball3.png","","","learning","-2","-2","1","1","practice","practice","practice","-1","","",""
"html-keyboard-response","37","411796","0.0-8.0-2.0-0.6","5430","1","21","Female","approach_avoid_spark_v1","""event"",""trial"",""time""
""fullscreenenter"",""1"",""135575""
""blur"",""2"",""140795""
""focus"",""2"",""143575""
""blur"",""2"",""145472""
""focus"",""2"",""151710""
","""event"",""trial"",""time""
""blur"",""2"",""140795""
""blur"",""2"",""145472""
","""event"",""trial"",""time""
""focus"",""2"",""143575""
""focus"",""2"",""151710""
","""event"",""trial"",""time""
""fullscreenenter"",""1"",""135575""
","
","","","","","","null","<div style=""font-size:60px;"">+</div>","null","","fixation","","","","","","","","","","",""
"aa-learning-trial","38","414804","0.0-8.0-2.0-1.6","5430","1","21","Female","approach_avoid_spark_v1","""event"",""trial"",""time""
""fullscreenenter"",""1"",""135575""
""blur"",""2"",""140795""
""focus"",""2"",""143575""
""blur"",""2"",""145472""
""focus"",""2"",""151710""
","""event"",""trial"",""time""
""blur"",""2"",""140795""
""blur"",""2"",""145472""
","""event"",""trial"",""time""
""focus"",""2"",""143575""
""focus"",""2"",""151710""
","""event"",""trial"",""time""
""fullscreenenter"",""1"",""135575""
","
","","","","","","588.2000000476837","images/ball4.png","","","learning","-3","-3","1","1","practice","practice","practice","-1","","",""
"html-keyboard-response","39","415305","0.0-8.0-2.0-0.7","5430","1","21","Female","approach_avoid_spark_v1","""event"",""trial"",""time""
""fullscreenenter"",""1"",""135575""
""blur"",""2"",""140795""
""focus"",""2"",""143575""
""blur"",""2"",""145472""
""focus"",""2"",""151710""
","""event"",""trial"",""time""
""blur"",""2"",""140795""
""blur"",""2"",""145472""
","""event"",""trial"",""time""
""focus"",""2"",""143575""
""focus"",""2"",""151710""
","""event"",""trial"",""time""
""fullscreenenter"",""1"",""135575""
","
","","","","","","null","<div style=""font-size:60px;"">+</div>","null","","fixation","","","","","","","","","","",""
"aa-learning-trial","40","418311","0.0-8.0-2.0-1.7","5430","1","21","Female","approach_avoid_spark_v1","""event"",""trial"",""time""
""fullscreenenter"",""1"",""135575""
""blur"",""2"",""140795""
""focus"",""2"",""143575""
""blur"",""2"",""145472""
""focus"",""2"",""151710""
","""event"",""trial"",""time""
""blur"",""2"",""140795""
""blur"",""2"",""145472""
","""event"",""trial"",""time""
""focus"",""2"",""143575""
""focus"",""2"",""151710""
","""event"",""trial"",""time""
""fullscreenenter"",""1"",""135575""
","
","","","","","","1024.199999988079","images/racket3.png","","","learning","8","8","1","1","practice","practice","practice","-1","","",""
"html-keyboard-response","41","418818","0.0-8.0-2.0-0.8","5430","1","21","Female","approach_avoid_spark_v1","""event"",""trial"",""time""
""fullscreenenter"",""1"",""135575""
""blur"",""2"",""140795""
""focus"",""2"",""143575""
""blur"",""2"",""145472""
""focus"",""2"",""151710""
","""event"",""trial"",""time""
""blur"",""2"",""140795""
""blur"",""2"",""145472""
","""event"",""trial"",""time""
""focus"",""2"",""143575""
""focus"",""2"",""151710""
","""event"",""trial"",""time""
""fullscreenenter"",""1"",""135575""
","
","","","","","","null","<div style=""font-size:60px;"">+</div>","null","","fixation","","","","","","","","","","",""
"aa-learning-trial","42","421823","0.0-8.0-2.0-1.8","5430","1","21","Female","approach_avoid_spark_v1","""event"",""trial"",""time""
""fullscreenenter"",""1"",""135575""
""blur"",""2"",""140795""
""focus"",""2"",""143575""
""blur"",""2"",""145472""
""focus"",""2"",""151710""
","""event"",""trial"",""time""
""blur"",""2"",""140795""
""blur"",""2"",""145472""
","""event"",""trial"",""time""
""focus"",""2"",""143575""
""focus"",""2"",""151710""
","""event"",""trial"",""time""
""fullscreenenter"",""1"",""135575""
","
","","","","","","873.6000000238419","images/racket1.png","","","learning","-2","0","0","0","practice","practice","practice","-1","","",""
"html-keyboard-response","43","422328","0.0-8.0-2.0-0.9","5430","1","21","Female","approach_avoid_spark_v1","""event"",""trial"",""time""
""fullscreenenter"",""1"",""135575""
""blur"",""2"",""140795""
""focus"",""2"",""143575""
""blur"",""2"",""145472""
""focus"",""2"",""151710""
","""event"",""trial"",""time""
""blur"",""2"",""140795""
""blur"",""2"",""145472""
","""event"",""trial"",""time""
""focus"",""2"",""143575""
""focus"",""2"",""151710""
","""event"",""trial"",""time""
""fullscreenenter"",""1"",""135575""
","
","","","","","","null","<div style=""font-size:60px;"">+</div>","null","","fixation","","","","","","","","","","",""
"aa-learning-trial","44","425335","0.0-8.0-2.0-1.9","5430","1","21","Female","approach_avoid_spark_v1","""event"",""trial"",""time""
""fullscreenenter"",""1"",""135575""
""blur"",""2"",""140795""
""focus"",""2"",""143575""
""blur"",""2"",""145472""
""focus"",""2"",""151710""
","""event"",""trial"",""time""
""blur"",""2"",""140795""
""blur"",""2"",""145472""
","""event"",""trial"",""time""
""focus"",""2"",""143575""
""focus"",""2"",""151710""
","""event"",""trial"",""time""
""fullscreenenter"",""1"",""135575""
","
","","","","","","1435.5999999642372","images/racket2.png","","","learning","-4","-4","1","1","practice","practice","practice","-1","","",""
"html-keyboard-response","45","425842","0.0-8.0-2.0-0.10","5430","1","21","Female","approach_avoid_spark_v1","""event"",""trial"",""time""
""fullscreenenter"",""1"",""135575""
""blur"",""2"",""140795""
""focus"",""2"",""143575""
""blur"",""2"",""145472""
""focus"",""2"",""151710""
","""event"",""trial"",""time""
""blur"",""2"",""140795""
""blur"",""2"",""145472""
","""event"",""trial"",""time""
""focus"",""2"",""143575""
""focus"",""2"",""151710""
","""event"",""trial"",""time""
""fullscreenenter"",""1"",""135575""
","
","","","","","","null","<div style=""font-size:60px;"">+</div>","null","","fixation","","","","","","","","","","",""
"aa-learning-trial","46","428846","0.0-8.0-2.0-1.10","5430","1","21","Female","approach_avoid_spark_v1","""event"",""trial"",""time""
""fullscreenenter"",""1"",""135575""
""blur"",""2"",""140795""
""focus"",""2"",""143575""
""blur"",""2"",""145472""
""focus"",""2"",""151710""
","""event"",""trial"",""time""
""blur"",""2"",""140795""
""blur"",""2"",""145472""
","""event"",""trial"",""time""
""focus"",""2"",""143575""
""focus"",""2"",""151710""
","""event"",""trial"",""time""
""fullscreenenter"",""1"",""135575""
","
","","","","","","1633.3999999761581","images/racket4.png","","","learning","-1","-1","1","1","practice","practice","practice","-1","","",""
"html-keyboard-response","47","429351","0.0-8.0-2.0-0.11","5430","1","21","Female","approach_avoid_spark_v1","""event"",""trial"",""time""
""fullscreenenter"",""1"",""135575""
""blur"",""2"",""140795""
""focus"",""2"",""143575""
""blur"",""2"",""145472""
""focus"",""2"",""151710""
","""event"",""trial"",""time""
""blur"",""2"",""140795""
""blur"",""2"",""145472""
","""event"",""trial"",""time""
""focus"",""2"",""143575""
""focus"",""2"",""151710""
","""event"",""trial"",""time""
""fullscreenenter"",""1"",""135575""
","
","","","","","","null","<div style=""font-size:60px;"">+</div>","null","","fixation","","","","","","","","","","",""
"aa-learning-trial","48","432359","0.0-8.0-2.0-1.11","5430","1","21","Female","approach_avoid_spark_v1","""event"",""trial"",""time""
""fullscreenenter"",""1"",""135575""
""blur"",""2"",""140795""
""focus"",""2"",""143575""
""blur"",""2"",""145472""
""focus"",""2"",""151710""
","""event"",""trial"",""time""
""blur"",""2"",""140795""
""blur"",""2"",""145472""
","""event"",""trial"",""time""
""focus"",""2"",""143575""
""focus"",""2"",""151710""
","""event"",""trial"",""time""
""fullscreenenter"",""1"",""135575""
","
","","","","","","1299.5999999642372","images/ball2.png","","","learning","-6","0","0","0","practice","practice","practice","-1","","",""
"html-button-response","49","434061","0.0-8.0-3.0","5430","1","21","Female","approach_avoid_spark_v1","""event"",""trial"",""time""
""fullscreenenter"",""1"",""135575""
""blur"",""2"",""140795""
""focus"",""2"",""143575""
""blur"",""2"",""145472""
""focus"",""2"",""151710""
","""event"",""trial"",""time""
""blur"",""2"",""140795""
""blur"",""2"",""145472""
","""event"",""trial"",""time""
""focus"",""2"",""143575""
""focus"",""2"",""151710""
","""event"",""trial"",""time""
""fullscreenenter"",""1"",""135575""
","
","","","","","","1698.5","<p> You earned 21 points in the practice round! </p>","0","","break","","","","","","","","","","",""
"learning-instructions","50","441156","0.0-8.0-4.0-0.0","5430","1","21","Female","approach_avoid_spark_v1","""event"",""trial"",""time""
""fullscreenenter"",""1"",""135575""
""blur"",""2"",""140795""
""focus"",""2"",""143575""
""blur"",""2"",""145472""
""focus"",""2"",""151710""
","""event"",""trial"",""time""
""blur"",""2"",""140795""
""blur"",""2"",""145472""
","""event"",""trial"",""time""
""focus"",""2"",""143575""
""focus"",""2"",""151710""
","""event"",""trial"",""time""
""fullscreenenter"",""1"",""135575""
","
","","","","","","1118.5","<p> It's almost time to start the real game. </p><p> Before you start, we're going to ask you a few questions about how the game works. </p>","","0","instructions","","","","","","","","","","",""
"preload","51","447914","0.0-8.0-5.0","5430","1","21","Female","approach_avoid_spark_v1","""event"",""trial"",""time""
""fullscreenenter"",""1"",""135575""
""blur"",""2"",""140795""
""focus"",""2"",""143575""
""blur"",""2"",""145472""
""focus"",""2"",""151710""
","""event"",""trial"",""time""
""blur"",""2"",""140795""
""blur"",""2"",""145472""
","""event"",""trial"",""time""
""focus"",""2"",""143575""
""focus"",""2"",""151710""
","""event"",""trial"",""time""
""fullscreenenter"",""1"",""135575""
","
","true","false","[]","[]","[]","","","","","","","","","","","","","","","",""
"comp-q","52","457344","0.0-8.0-6.0-0.0","5430","1","21","Female","approach_avoid_spark_v1","""event"",""trial"",""time""
""fullscreenenter"",""1"",""135575""
""blur"",""2"",""140795""
""focus"",""2"",""143575""
""blur"",""2"",""145472""
""focus"",""2"",""151710""
","""event"",""trial"",""time""
""blur"",""2"",""140795""
""blur"",""2"",""145472""
","""event"",""trial"",""time""
""focus"",""2"",""143575""
""focus"",""2"",""151710""
","""event"",""trial"",""time""
""fullscreenenter"",""1"",""135575""
","
","","","","","","4437.100000023842","<p> <b> True or False? </b> </p><p> If you see a number in GREY, that means you earned that many points. </p>","","1","comp_question","","","","","","","","","true","",""
"comp-q","53","466841","0.0-8.0-6.0-1.0","5430","1","21","Female","approach_avoid_spark_v1","""event"",""trial"",""time""
""fullscreenenter"",""1"",""135575""
""blur"",""2"",""140795""
""focus"",""2"",""143575""
""blur"",""2"",""145472""
""focus"",""2"",""151710""
""blur"",""54"",""473312""
""focus"",""54"",""474953""
","""event"",""trial"",""time""
""blur"",""2"",""140795""
""blur"",""2"",""145472""
""blur"",""54"",""473312""
","""event"",""trial"",""time""
""focus"",""2"",""143575""
""focus"",""2"",""151710""
""focus"",""54"",""474953""
","""event"",""trial"",""time""
""fullscreenenter"",""1"",""135575""
","
","","","","","","1140.800000011921","<p><b> That's right! </b> If you see a grey number, it means you earned ZERO points. <br> The grey numbers show the points you WOULD HAVE earned if you had made the other choice. </p>","","0","comp_answer","","","","","","","","","","",""
"comp-q","54","476720","0.0-8.0-7.0-0.0","5430","1","21","Female","approach_avoid_spark_v1","""event"",""trial"",""time""
""fullscreenenter"",""1"",""135575""
""blur"",""2"",""140795""
""focus"",""2"",""143575""
""blur"",""2"",""145472""
""focus"",""2"",""151710""
""blur"",""54"",""473312""
""focus"",""54"",""474953""
","""event"",""trial"",""time""
""blur"",""2"",""140795""
""blur"",""2"",""145472""
""blur"",""54"",""473312""
","""event"",""trial"",""time""
""focus"",""2"",""143575""
""focus"",""2"",""151710""
""focus"",""54"",""474953""
","""event"",""trial"",""time""
""fullscreenenter"",""1"",""135575""
","
","","","","","","5185.899999976158","<p> <b> True or False? </b> </p><p> You will have as much time as you want to make each choice. </p>","","1","comp_question","","","","","","","","","true","",""
"comp-q","55","481718","0.0-8.0-7.0-1.0","5430","1","21","Female","approach_avoid_spark_v1","""event"",""trial"",""time""
""fullscreenenter"",""1"",""135575""
""blur"",""2"",""140795""
""focus"",""2"",""143575""
""blur"",""2"",""145472""
""focus"",""2"",""151710""
""blur"",""54"",""473312""
""focus"",""54"",""474953""
","""event"",""trial"",""time""
""blur"",""2"",""140795""
""blur"",""2"",""145472""
""blur"",""54"",""473312""
","""event"",""trial"",""time""
""focus"",""2"",""143575""
""focus"",""2"",""151710""
""focus"",""54"",""474953""
","""event"",""trial"",""time""
""fullscreenenter"",""1"",""135575""
","
","","","","","","961.0999999642372","<p> <b> That's right! </b> You will only have 3 seconds to make each choice. </p>","","0","comp_answer","","","","","","","","","","",""
"comp-q","56","487046","0.0-8.0-8.0-0.0","5430","1","21","Female","approach_avoid_spark_v1","""event"",""trial"",""time""
""fullscreenenter"",""1"",""135575""
""blur"",""2"",""140795""
""focus"",""2"",""143575""
""blur"",""2"",""145472""
""focus"",""2"",""151710""
""blur"",""54"",""473312""
""focus"",""54"",""474953""
","""event"",""trial"",""time""
""blur"",""2"",""140795""
""blur"",""2"",""145472""
""blur"",""54"",""473312""
","""event"",""trial"",""time""
""focus"",""2"",""143575""
""focus"",""2"",""151710""
""focus"",""54"",""474953""
","""event"",""trial"",""time""
""fullscreenenter"",""1"",""135575""
","
","","","","","","675.1999999880791","<p> <b> True or False? </b> </p><p> You should use the '1' and '0' keys to make your choices. </p>","","0","comp_question","","","","","","","","","true","",""
"comp-q","57","492678","0.0-8.0-8.0-1.0","5430","1","21","Female","approach_avoid_spark_v1","""event"",""trial"",""time""
""fullscreenenter"",""1"",""135575""
""blur"",""2"",""140795""
""focus"",""2"",""143575""
""blur"",""2"",""145472""
""focus"",""2"",""151710""
""blur"",""54"",""473312""
""focus"",""54"",""474953""
","""event"",""trial"",""time""
""blur"",""2"",""140795""
""blur"",""2"",""145472""
""blur"",""54"",""473312""
","""event"",""trial"",""time""
""focus"",""2"",""143575""
""focus"",""2"",""151710""
""focus"",""54"",""474953""
","""event"",""trial"",""time""
""fullscreenenter"",""1"",""135575""
","
","","","","","","1025.699999988079","<p> <b> That's right! </b> You should use the '1' and '0' keys to make each choice. </p>","","0","comp_answer","","","","","","","","","","",""
"learning-instructions","58","500694","0.0-8.0-9.0-0.0","5430","1","21","Female","approach_avoid_spark_v1","""event"",""trial"",""time""
""fullscreenenter"",""1"",""135575""
""blur"",""2"",""140795""
""focus"",""2"",""143575""
""blur"",""2"",""145472""
""focus"",""2"",""151710""
""blur"",""54"",""473312""
""focus"",""54"",""474953""
","""event"",""trial"",""time""
""blur"",""2"",""140795""
""blur"",""2"",""145472""
""blur"",""54"",""473312""
","""event"",""trial"",""time""
""focus"",""2"",""143575""
""focus"",""2"",""151710""
""focus"",""54"",""474953""
","""event"",""trial"",""time""
""fullscreenenter"",""1"",""135575""
","
","","","","","","1745.4000000357628","<p> It's now time to start the real game. </p>Do your best, because the points you earn in the next rounds will influence your bonus payment. </p>","","0","instructions","","","","","","","","","","",""
"preload","59","500818","0.0-9.0-0.0","5430","1","21","Female","approach_avoid_spark_v1","""event"",""trial"",""time""
""fullscreenenter"",""1"",""135575""
""blur"",""2"",""140795""
""focus"",""2"",""143575""
""blur"",""2"",""145472""
""focus"",""2"",""151710""
""blur"",""54"",""473312""
""focus"",""54"",""474953""
","""event"",""trial"",""time""
""blur"",""2"",""140795""
""blur"",""2"",""145472""
""blur"",""54"",""473312""
","""event"",""trial"",""time""
""focus"",""2"",""143575""
""focus"",""2"",""151710""
""focus"",""54"",""474953""
","""event"",""trial"",""time""
""fullscreenenter"",""1"",""135575""
","
","true","false","[]","[]","[]","","","","","","","","","","","","","","","",""
"learning-instructions","60","506076","0.0-9.0-1.0-0.0","5430","1","21","Female","approach_avoid_spark_v1","""event"",""trial"",""time""
""fullscreenenter"",""1"",""135575""
""blur"",""2"",""140795""
""focus"",""2"",""143575""
""blur"",""2"",""145472""
""focus"",""2"",""151710""
""blur"",""54"",""473312""
""focus"",""54"",""474953""
","""event"",""trial"",""time""
""blur"",""2"",""140795""
""blur"",""2"",""145472""
""blur"",""54"",""473312""
","""event"",""trial"",""time""
""focus"",""2"",""143575""
""focus"",""2"",""151710""
""focus"",""54"",""474953""
","""event"",""trial"",""time""
""fullscreenenter"",""1"",""135575""
","
","","","","","","864.5","<p> Your goal in this round is to take care of lots of farm animals. </p></div>","","0","instructions","","","","","","","","","","",""
"learning-instructions","61","517329","0.0-9.0-1.0-0.1","5430","1","21","Female","approach_avoid_spark_v1","""event"",""trial"",""time""
""fullscreenenter"",""1"",""135575""
""blur"",""2"",""140795""
""focus"",""2"",""143575""
""blur"",""2"",""145472""
""focus"",""2"",""151710""
""blur"",""54"",""473312""
""focus"",""54"",""474953""
","""event"",""trial"",""time""
""blur"",""2"",""140795""
""blur"",""2"",""145472""
""blur"",""54"",""473312""
","""event"",""trial"",""time""
""focus"",""2"",""143575""
""focus"",""2"",""151710""
""focus"",""54"",""474953""
","""event"",""trial"",""time""
""fullscreenenter"",""1"",""135575""
","
","","","","","","745.8000000119209","<p> Some farm animals are hungry, while other farm animals are already full.  </p><p> On each turn, you will see a farm animal.   </p><p> You need to decide whether to feed it or not.  </p>","","0","instructions","","","","","","","","","","",""
"learning-instructions","62","524490","0.0-9.0-1.0-0.2","5430","1","21","Female","approach_avoid_spark_v1","""event"",""trial"",""time""
""fullscreenenter"",""1"",""135575""
""blur"",""2"",""140795""
""focus"",""2"",""143575""
""blur"",""2"",""145472""
""focus"",""2"",""151710""
""blur"",""54"",""473312""
""focus"",""54"",""474953""
","""event"",""trial"",""time""
""blur"",""2"",""140795""
""blur"",""2"",""145472""
""blur"",""54"",""473312""
","""event"",""trial"",""time""
""focus"",""2"",""143575""
""focus"",""2"",""151710""
""focus"",""54"",""474953""
","""event"",""trial"",""time""
""fullscreenenter"",""1"",""135575""
","
","","","","","","964","<p> You can feed the farm animal by pressing 1 and leave the farm animal alone by pressing 0. </p><br><div class=""choice-instructions-grid""> <div class=""choice-option""><img src=""images/approach.png"" class=""choice-option-img"" stage=""instructions"" position=""0"" ><div class=""choice-option-text""> Press ""1."" </div></div><div class=""choice-option""><img src=""images/avoid.png"" class=""choice-option-img"" stage=""instructions"" position=""1"" ><div class=""choice-option-text""> Press ""0."" </div></div>","","0","instructions","","","","","","","","","","",""
"learning-instructions","63","535567","0.0-9.0-1.0-0.3","5430","1","21","Female","approach_avoid_spark_v1","""event"",""trial"",""time""
""fullscreenenter"",""1"",""135575""
""blur"",""2"",""140795""
""focus"",""2"",""143575""
""blur"",""2"",""145472""
""focus"",""2"",""151710""
""blur"",""54"",""473312""
""focus"",""54"",""474953""
","""event"",""trial"",""time""
""blur"",""2"",""140795""
""blur"",""2"",""145472""
""blur"",""54"",""473312""
","""event"",""trial"",""time""
""focus"",""2"",""143575""
""focus"",""2"",""151710""
""focus"",""54"",""474953""
","""event"",""trial"",""time""
""fullscreenenter"",""1"",""135575""
","
","","","","","","1064.300000011921","<p> If you feed a hungry farm animal, you will make it feel satisfied! </p><p> But if you feed the farm animal and it was already full, you will make it feel sick. </p>","","0","instructions","","","","","","","","","","",""
"learning-instructions","64","550501","0.0-9.0-1.0-0.4","5430","1","21","Female","approach_avoid_spark_v1","""event"",""trial"",""time""
""fullscreenenter"",""1"",""135575""
""blur"",""2"",""140795""
""focus"",""2"",""143575""
""blur"",""2"",""145472""
""focus"",""2"",""151710""
""blur"",""54"",""473312""
""focus"",""54"",""474953""
","""event"",""trial"",""time""
""blur"",""2"",""140795""
""blur"",""2"",""145472""
""blur"",""54"",""473312""
","""event"",""trial"",""time""
""focus"",""2"",""143575""
""focus"",""2"",""151710""
""focus"",""54"",""474953""
","""event"",""trial"",""time""
""fullscreenenter"",""1"",""135575""
","
","","","","","","1934.0999999642372","<p> You will earn points based on how you made the farm animal feel. </p><p> If you made it satisfied, you will WIN anywhere from 1 - 9 points, </p><p> but if you made it sick, you will LOSE anywhere from 1 - 9 points. </p>","","0","instructions","","","","","","","","","","",""
"learning-instructions","65","558863","0.0-9.0-1.0-0.5","5430","1","21","Female","approach_avoid_spark_v1","""event"",""trial"",""time""
""fullscreenenter"",""1"",""135575""
""blur"",""2"",""140795""
""focus"",""2"",""143575""
""blur"",""2"",""145472""
""focus"",""2"",""151710""
""blur"",""54"",""473312""
""focus"",""54"",""474953""
""blur"",""66"",""561134""
""focus"",""66"",""566629""
","""event"",""trial"",""time""
""blur"",""2"",""140795""
""blur"",""2"",""145472""
""blur"",""54"",""473312""
""blur"",""66"",""561134""
","""event"",""trial"",""time""
""focus"",""2"",""143575""
""focus"",""2"",""151710""
""focus"",""54"",""474953""
""focus"",""66"",""566629""
","""event"",""trial"",""time""
""fullscreenenter"",""1"",""135575""
","
","","","","","","671.6000000238419","<p> You will see how many points you won or lost in the center of the screen. </p><p> Here is what you would see if you won 5 points: </p><p style=""color:green;font-size:50px;font-weight:bolder"">5</p>","","0","instructions","","","","","","","","","","",""
"learning-instructions","66","567226","0.0-9.0-1.0-0.6","5430","1","21","Female","approach_avoid_spark_v1","""event"",""trial"",""time""
""fullscreenenter"",""1"",""135575""
""blur"",""2"",""140795""
""focus"",""2"",""143575""
""blur"",""2"",""145472""
""focus"",""2"",""151710""
""blur"",""54"",""473312""
""focus"",""54"",""474953""
""blur"",""66"",""561134""
""focus"",""66"",""566629""
","""event"",""trial"",""time""
""blur"",""2"",""140795""
""blur"",""2"",""145472""
""blur"",""54"",""473312""
""blur"",""66"",""561134""
","""event"",""trial"",""time""
""focus"",""2"",""143575""
""focus"",""2"",""151710""
""focus"",""54"",""474953""
""focus"",""66"",""566629""
","""event"",""trial"",""time""
""fullscreenenter"",""1"",""135575""
","
","","","","","","4820.899999976158","<p> And here is what you would see if you lost 3 points: </p><p style=""color:red;font-size:50px;font-weight:bolder"">-3</p>","","0","instructions","","","","","","","","","","",""
"learning-instructions","67","584527","0.0-9.0-1.0-0.7","5430","1","21","Female","approach_avoid_spark_v1","""event"",""trial"",""time""
""fullscreenenter"",""1"",""135575""
""blur"",""2"",""140795""
""focus"",""2"",""143575""
""blur"",""2"",""145472""
""focus"",""2"",""151710""
""blur"",""54"",""473312""
""focus"",""54"",""474953""
""blur"",""66"",""561134""
""focus"",""66"",""566629""
","""event"",""trial"",""time""
""blur"",""2"",""140795""
""blur"",""2"",""145472""
""blur"",""54"",""473312""
""blur"",""66"",""561134""
","""event"",""trial"",""time""
""focus"",""2"",""143575""
""focus"",""2"",""151710""
""focus"",""54"",""474953""
""focus"",""66"",""566629""
","""event"",""trial"",""time""
""fullscreenenter"",""1"",""135575""
","
","","","","","","876.3999999761581","<p> Some farm animals will become very satisfied or very sick. </p><p> These farm animals will make you win or lose LOTS of points. </p><p> Other farm animals have less strong feelings. </p><p> These farm animals will make you win or lose small amounts of points. </p>","","0","instructions","","","","","","","","","","",""
"learning-instructions","68","598939","0.0-9.0-1.0-0.8","5430","1","21","Female","approach_avoid_spark_v1","""event"",""trial"",""time""
""fullscreenenter"",""1"",""135575""
""blur"",""2"",""140795""
""focus"",""2"",""143575""
""blur"",""2"",""145472""
""focus"",""2"",""151710""
""blur"",""54"",""473312""
""focus"",""54"",""474953""
""blur"",""66"",""561134""
""focus"",""66"",""566629""
","""event"",""trial"",""time""
""blur"",""2"",""140795""
""blur"",""2"",""145472""
""blur"",""54"",""473312""
""blur"",""66"",""561134""
","""event"",""trial"",""time""
""focus"",""2"",""143575""
""focus"",""2"",""151710""
""focus"",""54"",""474953""
""focus"",""66"",""566629""
","""event"",""trial"",""time""
""fullscreenenter"",""1"",""135575""
","
","","","","","","898.8000000119209","<p> If you choose to leave the farm animal alone, you will not win or lose any points. </p><p>  However, in the center of the screen, you will see the number of points you WOULD HAVE won or lost if you had fed the farm animal. </p>","","0","instructions","","","","","","","","","","",""
"learning-instructions","69","611968","0.0-9.0-1.0-0.9","5430","1","21","Female","approach_avoid_spark_v1","""event"",""trial"",""time""
""fullscreenenter"",""1"",""135575""
""blur"",""2"",""140795""
""focus"",""2"",""143575""
""blur"",""2"",""145472""
""focus"",""2"",""151710""
""blur"",""54"",""473312""
""focus"",""54"",""474953""
""blur"",""66"",""561134""
""focus"",""66"",""566629""
","""event"",""trial"",""time""
""blur"",""2"",""140795""
""blur"",""2"",""145472""
""blur"",""54"",""473312""
""blur"",""66"",""561134""
","""event"",""trial"",""time""
""focus"",""2"",""143575""
""focus"",""2"",""151710""
""focus"",""54"",""474953""
""focus"",""66"",""566629""
","""event"",""trial"",""time""
""fullscreenenter"",""1"",""135575""
","
","","","","","","750.7999999523163","<p> Here is what you might see if you did not feed the farm animal but the animal was hungry: </p><p style=""color:grey; font-size:50px; display: inline-block; border-spacing: 15px; border-width:3px; border-style:solid; border-color:red"">  &nbsp; 6 &nbsp; </p><p> Remember, in this case, you would not win or lose ANY points because you did not feed the farm animal.  </p>","","0","instructions","","","","","","","","","","",""
"learning-instructions","70","621152","0.0-9.0-1.0-0.10","5430","1","21","Female","approach_avoid_spark_v1","""event"",""trial"",""time""
""fullscreenenter"",""1"",""135575""
""blur"",""2"",""140795""
""focus"",""2"",""143575""
""blur"",""2"",""145472""
""focus"",""2"",""151710""
""blur"",""54"",""473312""
""focus"",""54"",""474953""
""blur"",""66"",""561134""
""focus"",""66"",""566629""
","""event"",""trial"",""time""
""blur"",""2"",""140795""
""blur"",""2"",""145472""
""blur"",""54"",""473312""
""blur"",""66"",""561134""
","""event"",""trial"",""time""
""focus"",""2"",""143575""
""focus"",""2"",""151710""
""focus"",""54"",""474953""
""focus"",""66"",""566629""
","""event"",""trial"",""time""
""fullscreenenter"",""1"",""135575""
","
","","","","","","694.5","<p> Try to make the best choice for each farm animal because </p><p> at the end of the game, you will earn bonus money based on how many points you earned. </p>","","0","instructions","","","","","","","","","","",""
"learning-instructions","71","630949","0.0-9.0-1.0-0.11","5430","1","21","Female","approach_avoid_spark_v1","""event"",""trial"",""time""
""fullscreenenter"",""1"",""135575""
""blur"",""2"",""140795""
""focus"",""2"",""143575""
""blur"",""2"",""145472""
""focus"",""2"",""151710""
""blur"",""54"",""473312""
""focus"",""54"",""474953""
""blur"",""66"",""561134""
""focus"",""66"",""566629""
","""event"",""trial"",""time""
""blur"",""2"",""140795""
""blur"",""2"",""145472""
""blur"",""54"",""473312""
""blur"",""66"",""561134""
","""event"",""trial"",""time""
""focus"",""2"",""143575""
""focus"",""2"",""151710""
""focus"",""54"",""474953""
""focus"",""66"",""566629""
","""event"",""trial"",""time""
""fullscreenenter"",""1"",""135575""
","
","","","","","","1615.5999999642372","<p> You will have 3 seconds to make each choice. Try to respond before time runs out! </p><p> You will lose 5 points each time you do not make a response. </p>","","0","instructions","","","","","","","","","","",""
"html-keyboard-response","72","631556","0.0-9.0-2.0-0.0","5430","1","21","Female","approach_avoid_spark_v1","""event"",""trial"",""time""
""fullscreenenter"",""1"",""135575""
""blur"",""2"",""140795""
""focus"",""2"",""143575""
""blur"",""2"",""145472""
""focus"",""2"",""151710""
""blur"",""54"",""473312""
""focus"",""54"",""474953""
""blur"",""66"",""561134""
""focus"",""66"",""566629""
","""event"",""trial"",""time""
""blur"",""2"",""140795""
""blur"",""2"",""145472""
""blur"",""54"",""473312""
""blur"",""66"",""561134""
","""event"",""trial"",""time""
""focus"",""2"",""143575""
""focus"",""2"",""151710""
""focus"",""54"",""474953""
""focus"",""66"",""566629""
","""event"",""trial"",""time""
""fullscreenenter"",""1"",""135575""
","
","","","","","","null","<div style=""font-size:60px;"">+</div>","null","","fixation","","","","","","","","","","",""
"aa-learning-trial","73","634561","0.0-9.0-2.0-1.0","5430","1","21","Female","approach_avoid_spark_v1","""event"",""trial"",""time""
""fullscreenenter"",""1"",""135575""
""blur"",""2"",""140795""
""focus"",""2"",""143575""
""blur"",""2"",""145472""
""focus"",""2"",""151710""
""blur"",""54"",""473312""
""focus"",""54"",""474953""
""blur"",""66"",""561134""
""focus"",""66"",""566629""
","""event"",""trial"",""time""
""blur"",""2"",""140795""
""blur"",""2"",""145472""
""blur"",""54"",""473312""
""blur"",""66"",""561134""
","""event"",""trial"",""time""
""focus"",""2"",""143575""
""focus"",""2"",""151710""
""focus"",""54"",""474953""
""focus"",""66"",""566629""
","""event"",""trial"",""time""
""fullscreenenter"",""1"",""135575""
","
","","","","","","2242.600000023842","images/sheep3.png","","","learning","5","5","1","1","sheep","animals","1","0","","good","[5]"
"html-keyboard-response","74","635068","0.0-9.0-2.0-0.1","5430","1","21","Female","approach_avoid_spark_v1","""event"",""trial"",""time""
""fullscreenenter"",""1"",""135575""
""blur"",""2"",""140795""
""focus"",""2"",""143575""
""blur"",""2"",""145472""
""focus"",""2"",""151710""
""blur"",""54"",""473312""
""focus"",""54"",""474953""
""blur"",""66"",""561134""
""focus"",""66"",""566629""
","""event"",""trial"",""time""
""blur"",""2"",""140795""
""blur"",""2"",""145472""
""blur"",""54"",""473312""
""blur"",""66"",""561134""
","""event"",""trial"",""time""
""focus"",""2"",""143575""
""focus"",""2"",""151710""
""focus"",""54"",""474953""
""focus"",""66"",""566629""
","""event"",""trial"",""time""
""fullscreenenter"",""1"",""135575""
","
","","","","","","null","<div style=""font-size:60px;"">+</div>","null","","fixation","","","","","","","","","","",""
"aa-learning-trial","75","638076","0.0-9.0-2.0-1.1","5430","1","21","Female","approach_avoid_spark_v1","""event"",""trial"",""time""
""fullscreenenter"",""1"",""135575""
""blur"",""2"",""140795""
""focus"",""2"",""143575""
""blur"",""2"",""145472""
""focus"",""2"",""151710""
""blur"",""54"",""473312""
""focus"",""54"",""474953""
""blur"",""66"",""561134""
""focus"",""66"",""566629""
","""event"",""trial"",""time""
""blur"",""2"",""140795""
""blur"",""2"",""145472""
""blur"",""54"",""473312""
""blur"",""66"",""561134""
","""event"",""trial"",""time""
""focus"",""2"",""143575""
""focus"",""2"",""151710""
""focus"",""54"",""474953""
""focus"",""66"",""566629""
","""event"",""trial"",""time""
""fullscreenenter"",""1"",""135575""
","
","","","","","","1866.9000000357628","images/sheep3.png","","","learning","9","0","0","0","sheep","animals","1","0","","good","[5]"
"html-keyboard-response","76","638579","0.0-9.0-2.0-0.2","5430","1","21","Female","approach_avoid_spark_v1","""event"",""trial"",""time""
""fullscreenenter"",""1"",""135575""
""blur"",""2"",""140795""
""focus"",""2"",""143575""
""blur"",""2"",""145472""
""focus"",""2"",""151710""
""blur"",""54"",""473312""
""focus"",""54"",""474953""
""blur"",""66"",""561134""
""focus"",""66"",""566629""
","""event"",""trial"",""time""
""blur"",""2"",""140795""
""blur"",""2"",""145472""
""blur"",""54"",""473312""
""blur"",""66"",""561134""
","""event"",""trial"",""time""
""focus"",""2"",""143575""
""focus"",""2"",""151710""
""focus"",""54"",""474953""
""focus"",""66"",""566629""
","""event"",""trial"",""time""
""fullscreenenter"",""1"",""135575""
","
","","","","","","null","<div style=""font-size:60px;"">+</div>","null","","fixation","","","","","","","","","","",""
"aa-learning-trial","77","641583","0.0-9.0-2.0-1.2","5430","1","21","Female","approach_avoid_spark_v1","""event"",""trial"",""time""
""fullscreenenter"",""1"",""135575""
""blur"",""2"",""140795""
""focus"",""2"",""143575""
""blur"",""2"",""145472""
""focus"",""2"",""151710""
""blur"",""54"",""473312""
""focus"",""54"",""474953""
""blur"",""66"",""561134""
""focus"",""66"",""566629""
","""event"",""trial"",""time""
""blur"",""2"",""140795""
""blur"",""2"",""145472""
""blur"",""54"",""473312""
""blur"",""66"",""561134""
","""event"",""trial"",""time""
""focus"",""2"",""143575""
""focus"",""2"",""151710""
""focus"",""54"",""474953""
""focus"",""66"",""566629""
","""event"",""trial"",""time""
""fullscreenenter"",""1"",""135575""
","
","","","","","","2409.199999988079","images/sheep5.png","","","learning","2","0","0","0","sheep","animals","1","0","","good","[5]"
"html-keyboard-response","78","642088","0.0-9.0-2.0-0.3","5430","1","21","Female","approach_avoid_spark_v1","""event"",""trial"",""time""
""fullscreenenter"",""1"",""135575""
""blur"",""2"",""140795""
""focus"",""2"",""143575""
""blur"",""2"",""145472""
""focus"",""2"",""151710""
""blur"",""54"",""473312""
""focus"",""54"",""474953""
""blur"",""66"",""561134""
""focus"",""66"",""566629""
","""event"",""trial"",""time""
""blur"",""2"",""140795""
""blur"",""2"",""145472""
""blur"",""54"",""473312""
""blur"",""66"",""561134""
","""event"",""trial"",""time""
""focus"",""2"",""143575""
""focus"",""2"",""151710""
""focus"",""54"",""474953""
""focus"",""66"",""566629""
","""event"",""trial"",""time""
""fullscreenenter"",""1"",""135575""
","
","","","","","","null","<div style=""font-size:60px;"">+</div>","null","","fixation","","","","","","","","","","",""
"aa-learning-trial","79","645093","0.0-9.0-2.0-1.3","5430","1","21","Female","approach_avoid_spark_v1","""event"",""trial"",""time""
""fullscreenenter"",""1"",""135575""
""blur"",""2"",""140795""
""focus"",""2"",""143575""
""blur"",""2"",""145472""
""focus"",""2"",""151710""
""blur"",""54"",""473312""
""focus"",""54"",""474953""
""blur"",""66"",""561134""
""focus"",""66"",""566629""
","""event"",""trial"",""time""
""blur"",""2"",""140795""
""blur"",""2"",""145472""
""blur"",""54"",""473312""
""blur"",""66"",""561134""
","""event"",""trial"",""time""
""focus"",""2"",""143575""
""focus"",""2"",""151710""
""focus"",""54"",""474953""
""focus"",""66"",""566629""
","""event"",""trial"",""time""
""fullscreenenter"",""1"",""135575""
","
","","","","","","1557.199999988079","images/horse2.png","","","learning","[-1]","-1","1","1","horse","animals","1","0","","neutral","0"
"html-keyboard-response","80","645599","0.0-9.0-2.0-0.4","5430","1","21","Female","approach_avoid_spark_v1","""event"",""trial"",""time""
""fullscreenenter"",""1"",""135575""
""blur"",""2"",""140795""
""focus"",""2"",""143575""
""blur"",""2"",""145472""
""focus"",""2"",""151710""
""blur"",""54"",""473312""
""focus"",""54"",""474953""
""blur"",""66"",""561134""
""focus"",""66"",""566629""
","""event"",""trial"",""time""
""blur"",""2"",""140795""
""blur"",""2"",""145472""
""blur"",""54"",""473312""
""blur"",""66"",""561134""
","""event"",""trial"",""time""
""focus"",""2"",""143575""
""focus"",""2"",""151710""
""focus"",""54"",""474953""
""focus"",""66"",""566629""
","""event"",""trial"",""time""
""fullscreenenter"",""1"",""135575""
","
","","","","","","null","<div style=""font-size:60px;"">+</div>","null","","fixation","","","","","","","","","","",""
"aa-learning-trial","81","648606","0.0-9.0-2.0-1.4","5430","1","21","Female","approach_avoid_spark_v1","""event"",""trial"",""time""
""fullscreenenter"",""1"",""135575""
""blur"",""2"",""140795""
""focus"",""2"",""143575""
""blur"",""2"",""145472""
""focus"",""2"",""151710""
""blur"",""54"",""473312""
""focus"",""54"",""474953""
""blur"",""66"",""561134""
""focus"",""66"",""566629""
","""event"",""trial"",""time""
""blur"",""2"",""140795""
""blur"",""2"",""145472""
""blur"",""54"",""473312""
""blur"",""66"",""561134""
","""event"",""trial"",""time""
""focus"",""2"",""143575""
""focus"",""2"",""151710""
""focus"",""54"",""474953""
""focus"",""66"",""566629""
","""event"",""trial"",""time""
""fullscreenenter"",""1"",""135575""
","
","","","","","","975.9000000357628","images/cow1.png","","","learning","-4","-4","1","1","cow","animals","1","0","","bad","[-4]"
"html-keyboard-response","82","649109","0.0-9.0-2.0-0.5","5430","1","21","Female","approach_avoid_spark_v1","""event"",""trial"",""time""
""fullscreenenter"",""1"",""135575""
""blur"",""2"",""140795""
""focus"",""2"",""143575""
""blur"",""2"",""145472""
""focus"",""2"",""151710""
""blur"",""54"",""473312""
""focus"",""54"",""474953""
""blur"",""66"",""561134""
""focus"",""66"",""566629""
","""event"",""trial"",""time""
""blur"",""2"",""140795""
""blur"",""2"",""145472""
""blur"",""54"",""473312""
""blur"",""66"",""561134""
","""event"",""trial"",""time""
""focus"",""2"",""143575""
""focus"",""2"",""151710""
""focus"",""54"",""474953""
""focus"",""66"",""566629""
","""event"",""trial"",""time""
""fullscreenenter"",""1"",""135575""
","
","","","","","","null","<div style=""font-size:60px;"">+</div>","null","","fixation","","","","","","","","","","",""
"aa-learning-trial","83","652116","0.0-9.0-2.0-1.5","5430","1","21","Female","approach_avoid_spark_v1","""event"",""trial"",""time""
""fullscreenenter"",""1"",""135575""
""blur"",""2"",""140795""
""focus"",""2"",""143575""
""blur"",""2"",""145472""
""focus"",""2"",""151710""
""blur"",""54"",""473312""
""focus"",""54"",""474953""
""blur"",""66"",""561134""
""focus"",""66"",""566629""
","""event"",""trial"",""time""
""blur"",""2"",""140795""
""blur"",""2"",""145472""
""blur"",""54"",""473312""
""blur"",""66"",""561134""
","""event"",""trial"",""time""
""focus"",""2"",""143575""
""focus"",""2"",""151710""
""focus"",""54"",""474953""
""focus"",""66"",""566629""
","""event"",""trial"",""time""
""fullscreenenter"",""1"",""135575""
","
","","","","","","957.1999999880791","images/cow3.png","","","learning","-5","-5","1","1","cow","animals","1","0","","bad","[-4]"
"html-keyboard-response","84","652623","0.0-9.0-2.0-0.6","5430","1","21","Female","approach_avoid_spark_v1","""event"",""trial"",""time""
""fullscreenenter"",""1"",""135575""
""blur"",""2"",""140795""
""focus"",""2"",""143575""
""blur"",""2"",""145472""
""focus"",""2"",""151710""
""blur"",""54"",""473312""
""focus"",""54"",""474953""
""blur"",""66"",""561134""
""focus"",""66"",""566629""
","""event"",""trial"",""time""
""blur"",""2"",""140795""
""blur"",""2"",""145472""
""blur"",""54"",""473312""
""blur"",""66"",""561134""
","""event"",""trial"",""time""
""focus"",""2"",""143575""
""focus"",""2"",""151710""
""focus"",""54"",""474953""
""focus"",""66"",""566629""
","""event"",""trial"",""time""
""fullscreenenter"",""1"",""135575""
","
","","","","","","null","<div style=""font-size:60px;"">+</div>","null","","fixation","","","","","","","","","","",""
"aa-learning-trial","85","655632","0.0-9.0-2.0-1.6","5430","1","21","Female","approach_avoid_spark_v1","""event"",""trial"",""time""
""fullscreenenter"",""1"",""135575""
""blur"",""2"",""140795""
""focus"",""2"",""143575""
""blur"",""2"",""145472""
""focus"",""2"",""151710""
""blur"",""54"",""473312""
""focus"",""54"",""474953""
""blur"",""66"",""561134""
""focus"",""66"",""566629""
","""event"",""trial"",""time""
""blur"",""2"",""140795""
""blur"",""2"",""145472""
""blur"",""54"",""473312""
""blur"",""66"",""561134""
","""event"",""trial"",""time""
""focus"",""2"",""143575""
""focus"",""2"",""151710""
""focus"",""54"",""474953""
""focus"",""66"",""566629""
","""event"",""trial"",""time""
""fullscreenenter"",""1"",""135575""
","
","","","","","","1160.699999988079","images/cow1.png","","","learning","-4","0","0","0","cow","animals","1","0","","bad","[-4]"
"html-keyboard-response","86","656139","0.0-9.0-2.0-0.7","5430","1","21","Female","approach_avoid_spark_v1","""event"",""trial"",""time""
""fullscreenenter"",""1"",""135575""
""blur"",""2"",""140795""
""focus"",""2"",""143575""
""blur"",""2"",""145472""
""focus"",""2"",""151710""
""blur"",""54"",""473312""
""focus"",""54"",""474953""
""blur"",""66"",""561134""
""focus"",""66"",""566629""
","""event"",""trial"",""time""
""blur"",""2"",""140795""
""blur"",""2"",""145472""
""blur"",""54"",""473312""
""blur"",""66"",""561134""
","""event"",""trial"",""time""
""focus"",""2"",""143575""
""focus"",""2"",""151710""
""focus"",""54"",""474953""
""focus"",""66"",""566629""
","""event"",""trial"",""time""
""fullscreenenter"",""1"",""135575""
","
","","","","","","null","<div style=""font-size:60px;"">+</div>","null","","fixation","","","","","","","","","","",""
"aa-learning-trial","87","659144","0.0-9.0-2.0-1.7","5430","1","21","Female","approach_avoid_spark_v1","""event"",""trial"",""time""
""fullscreenenter"",""1"",""135575""
""blur"",""2"",""140795""
""focus"",""2"",""143575""
""blur"",""2"",""145472""
""focus"",""2"",""151710""
""blur"",""54"",""473312""
""focus"",""54"",""474953""
""blur"",""66"",""561134""
""focus"",""66"",""566629""
","""event"",""trial"",""time""
""blur"",""2"",""140795""
""blur"",""2"",""145472""
""blur"",""54"",""473312""
""blur"",""66"",""561134""
","""event"",""trial"",""time""
""focus"",""2"",""143575""
""focus"",""2"",""151710""
""focus"",""54"",""474953""
""focus"",""66"",""566629""
","""event"",""trial"",""time""
""fullscreenenter"",""1"",""135575""
","
","","","","","","1112.8999999761581","images/horse5.png","","","learning","3","3","1","1","horse","animals","1","0","","neutral","0"
"html-keyboard-response","88","659648","0.0-9.0-2.0-0.8","5430","1","21","Female","approach_avoid_spark_v1","""event"",""trial"",""time""
""fullscreenenter"",""1"",""135575""
""blur"",""2"",""140795""
""focus"",""2"",""143575""
""blur"",""2"",""145472""
""focus"",""2"",""151710""
""blur"",""54"",""473312""
""focus"",""54"",""474953""
""blur"",""66"",""561134""
""focus"",""66"",""566629""
","""event"",""trial"",""time""
""blur"",""2"",""140795""
""blur"",""2"",""145472""
""blur"",""54"",""473312""
""blur"",""66"",""561134""
","""event"",""trial"",""time""
""focus"",""2"",""143575""
""focus"",""2"",""151710""
""focus"",""54"",""474953""
""focus"",""66"",""566629""
","""event"",""trial"",""time""
""fullscreenenter"",""1"",""135575""
","
","","","","","","null","<div style=""font-size:60px;"">+</div>","null","","fixation","","","","","","","","","","",""
"aa-learning-trial","89","662655","0.0-9.0-2.0-1.8","5430","1","21","Female","approach_avoid_spark_v1","""event"",""trial"",""time""
""fullscreenenter"",""1"",""135575""
""blur"",""2"",""140795""
""focus"",""2"",""143575""
""blur"",""2"",""145472""
""focus"",""2"",""151710""
""blur"",""54"",""473312""
""focus"",""54"",""474953""
""blur"",""66"",""561134""
""focus"",""66"",""566629""
","""event"",""trial"",""time""
""blur"",""2"",""140795""
""blur"",""2"",""145472""
""blur"",""54"",""473312""
""blur"",""66"",""561134""
","""event"",""trial"",""time""
""focus"",""2"",""143575""
""focus"",""2"",""151710""
""focus"",""54"",""474953""
""focus"",""66"",""566629""
","""event"",""trial"",""time""
""fullscreenenter"",""1"",""135575""
","
","","","","","","1279.4000000357628","images/cow3.png","","","learning","-4","0","0","0","cow","animals","1","0","","bad","[-4]"
"html-keyboard-response","90","663158","0.0-9.0-2.0-0.9","5430","1","21","Female","approach_avoid_spark_v1","""event"",""trial"",""time""
""fullscreenenter"",""1"",""135575""
""blur"",""2"",""140795""
""focus"",""2"",""143575""
""blur"",""2"",""145472""
""focus"",""2"",""151710""
""blur"",""54"",""473312""
""focus"",""54"",""474953""
""blur"",""66"",""561134""
""focus"",""66"",""566629""
","""event"",""trial"",""time""
""blur"",""2"",""140795""
""blur"",""2"",""145472""
""blur"",""54"",""473312""
""blur"",""66"",""561134""
","""event"",""trial"",""time""
""focus"",""2"",""143575""
""focus"",""2"",""151710""
""focus"",""54"",""474953""
""focus"",""66"",""566629""
","""event"",""trial"",""time""
""fullscreenenter"",""1"",""135575""
","
","","","","","","null","<div style=""font-size:60px;"">+</div>","null","","fixation","","","","","","","","","","",""
"aa-learning-trial","91","666161","0.0-9.0-2.0-1.9","5430","1","21","Female","approach_avoid_spark_v1","""event"",""trial"",""time""
""fullscreenenter"",""1"",""135575""
""blur"",""2"",""140795""
""focus"",""2"",""143575""
""blur"",""2"",""145472""
""focus"",""2"",""151710""
""blur"",""54"",""473312""
""focus"",""54"",""474953""
""blur"",""66"",""561134""
""focus"",""66"",""566629""
","""event"",""trial"",""time""
""blur"",""2"",""140795""
""blur"",""2"",""145472""
""blur"",""54"",""473312""
""blur"",""66"",""561134""
","""event"",""trial"",""time""
""focus"",""2"",""143575""
""focus"",""2"",""151710""
""focus"",""54"",""474953""
""focus"",""66"",""566629""
","""event"",""trial"",""time""
""fullscreenenter"",""1"",""135575""
","
","","","","","","2438.400000035763","images/horse6.png","","","learning","[1]","1","1","1","horse","animals","1","0","","neutral","0"
"html-keyboard-response","92","666664","0.0-9.0-2.0-0.10","5430","1","21","Female","approach_avoid_spark_v1","""event"",""trial"",""time""
""fullscreenenter"",""1"",""135575""
""blur"",""2"",""140795""
""focus"",""2"",""143575""
""blur"",""2"",""145472""
""focus"",""2"",""151710""
""blur"",""54"",""473312""
""focus"",""54"",""474953""
""blur"",""66"",""561134""
""focus"",""66"",""566629""
","""event"",""trial"",""time""
""blur"",""2"",""140795""
""blur"",""2"",""145472""
""blur"",""54"",""473312""
""blur"",""66"",""561134""
","""event"",""trial"",""time""
""focus"",""2"",""143575""
""focus"",""2"",""151710""
""focus"",""54"",""474953""
""focus"",""66"",""566629""
","""event"",""trial"",""time""
""fullscreenenter"",""1"",""135575""
","
","","","","","","null","<div style=""font-size:60px;"">+</div>","null","","fixation","","","","","","","","","","",""
"aa-learning-trial","93","669671","0.0-9.0-2.0-1.10","5430","1","21","Female","approach_avoid_spark_v1","""event"",""trial"",""time""
""fullscreenenter"",""1"",""135575""
""blur"",""2"",""140795""
""focus"",""2"",""143575""
""blur"",""2"",""145472""
""focus"",""2"",""151710""
""blur"",""54"",""473312""
""focus"",""54"",""474953""
""blur"",""66"",""561134""
""focus"",""66"",""566629""
","""event"",""trial"",""time""
""blur"",""2"",""140795""
""blur"",""2"",""145472""
""blur"",""54"",""473312""
""blur"",""66"",""561134""
","""event"",""trial"",""time""
""focus"",""2"",""143575""
""focus"",""2"",""151710""
""focus"",""54"",""474953""
""focus"",""66"",""566629""
","""event"",""trial"",""time""
""fullscreenenter"",""1"",""135575""
","
","","","","","","1244","images/sheep6.png","","","learning","5","5","1","1","sheep","animals","1","0","","good","[5]"
"html-keyboard-response","94","670176","0.0-9.0-2.0-0.11","5430","1","21","Female","approach_avoid_spark_v1","""event"",""trial"",""time""
""fullscreenenter"",""1"",""135575""
""blur"",""2"",""140795""
""focus"",""2"",""143575""
""blur"",""2"",""145472""
""focus"",""2"",""151710""
""blur"",""54"",""473312""
""focus"",""54"",""474953""
""blur"",""66"",""561134""
""focus"",""66"",""566629""
","""event"",""trial"",""time""
""blur"",""2"",""140795""
""blur"",""2"",""145472""
""blur"",""54"",""473312""
""blur"",""66"",""561134""
","""event"",""trial"",""time""
""focus"",""2"",""143575""
""focus"",""2"",""151710""
""focus"",""54"",""474953""
""focus"",""66"",""566629""
","""event"",""trial"",""time""
""fullscreenenter"",""1"",""135575""
","
","","","","","","null","<div style=""font-size:60px;"">+</div>","null","","fixation","","","","","","","","","","",""
"aa-learning-trial","95","673183","0.0-9.0-2.0-1.11","5430","1","21","Female","approach_avoid_spark_v1","""event"",""trial"",""time""
""fullscreenenter"",""1"",""135575""
""blur"",""2"",""140795""
""focus"",""2"",""143575""
""blur"",""2"",""145472""
""focus"",""2"",""151710""
""blur"",""54"",""473312""
""focus"",""54"",""474953""
""blur"",""66"",""561134""
""focus"",""66"",""566629""
","""event"",""trial"",""time""
""blur"",""2"",""140795""
""blur"",""2"",""145472""
""blur"",""54"",""473312""
""blur"",""66"",""561134""
","""event"",""trial"",""time""
""focus"",""2"",""143575""
""focus"",""2"",""151710""
""focus"",""54"",""474953""
""focus"",""66"",""566629""
","""event"",""trial"",""time""
""fullscreenenter"",""1"",""135575""
","
","","","","","","1187.800000011921","images/cow2.png","","","learning","-4","-4","1","1","cow","animals","1","0","","bad","[-4]"
"html-keyboard-response","96","673690","0.0-9.0-2.0-0.12","5430","1","21","Female","approach_avoid_spark_v1","""event"",""trial"",""time""
""fullscreenenter"",""1"",""135575""
""blur"",""2"",""140795""
""focus"",""2"",""143575""
""blur"",""2"",""145472""
""focus"",""2"",""151710""
""blur"",""54"",""473312""
""focus"",""54"",""474953""
""blur"",""66"",""561134""
""focus"",""66"",""566629""
","""event"",""trial"",""time""
""blur"",""2"",""140795""
""blur"",""2"",""145472""
""blur"",""54"",""473312""
""blur"",""66"",""561134""
","""event"",""trial"",""time""
""focus"",""2"",""143575""
""focus"",""2"",""151710""
""focus"",""54"",""474953""
""focus"",""66"",""566629""
","""event"",""trial"",""time""
""fullscreenenter"",""1"",""135575""
","
","","","","","","null","<div style=""font-size:60px;"">+</div>","null","","fixation","","","","","","","","","","",""
"aa-learning-trial","97","676694","0.0-9.0-2.0-1.12","5430","1","21","Female","approach_avoid_spark_v1","""event"",""trial"",""time""
""fullscreenenter"",""1"",""135575""
""blur"",""2"",""140795""
""focus"",""2"",""143575""
""blur"",""2"",""145472""
""focus"",""2"",""151710""
""blur"",""54"",""473312""
""focus"",""54"",""474953""
""blur"",""66"",""561134""
""focus"",""66"",""566629""
","""event"",""trial"",""time""
""blur"",""2"",""140795""
""blur"",""2"",""145472""
""blur"",""54"",""473312""
""blur"",""66"",""561134""
","""event"",""trial"",""time""
""focus"",""2"",""143575""
""focus"",""2"",""151710""
""focus"",""54"",""474953""
""focus"",""66"",""566629""
","""event"",""trial"",""time""
""fullscreenenter"",""1"",""135575""
","
","","","","","","1317","images/sheep5.png","","","learning","5","0","0","0","sheep","animals","1","0","","good","[5]"
"html-keyboard-response","98","677199","0.0-9.0-2.0-0.13","5430","1","21","Female","approach_avoid_spark_v1","""event"",""trial"",""time""
""fullscreenenter"",""1"",""135575""
""blur"",""2"",""140795""
""focus"",""2"",""143575""
""blur"",""2"",""145472""
""focus"",""2"",""151710""
""blur"",""54"",""473312""
""focus"",""54"",""474953""
""blur"",""66"",""561134""
""focus"",""66"",""566629""
","""event"",""trial"",""time""
""blur"",""2"",""140795""
""blur"",""2"",""145472""
""blur"",""54"",""473312""
""blur"",""66"",""561134""
","""event"",""trial"",""time""
""focus"",""2"",""143575""
""focus"",""2"",""151710""
""focus"",""54"",""474953""
""focus"",""66"",""566629""
","""event"",""trial"",""time""
""fullscreenenter"",""1"",""135575""
","
","","","","","","null","<div style=""font-size:60px;"">+</div>","null","","fixation","","","","","","","","","","",""
"aa-learning-trial","99","680206","0.0-9.0-2.0-1.13","5430","1","21","Female","approach_avoid_spark_v1","""event"",""trial"",""time""
""fullscreenenter"",""1"",""135575""
""blur"",""2"",""140795""
""focus"",""2"",""143575""
""blur"",""2"",""145472""
""focus"",""2"",""151710""
""blur"",""54"",""473312""
""focus"",""54"",""474953""
""blur"",""66"",""561134""
""focus"",""66"",""566629""
","""event"",""trial"",""time""
""blur"",""2"",""140795""
""blur"",""2"",""145472""
""blur"",""54"",""473312""
""blur"",""66"",""561134""
","""event"",""trial"",""time""
""focus"",""2"",""143575""
""focus"",""2"",""151710""
""focus"",""54"",""474953""
""focus"",""66"",""566629""
","""event"",""trial"",""time""
""fullscreenenter"",""1"",""135575""
","
","","","","","","1805.199999988079","images/horse6.png","","","learning","[-1]","0","0","0","horse","animals","1","0","","neutral","0"
"html-keyboard-response","100","680711","0.0-9.0-2.0-0.14","5430","1","21","Female","approach_avoid_spark_v1","""event"",""trial"",""time""
""fullscreenenter"",""1"",""135575""
""blur"",""2"",""140795""
""focus"",""2"",""143575""
""blur"",""2"",""145472""
""focus"",""2"",""151710""
""blur"",""54"",""473312""
""focus"",""54"",""474953""
""blur"",""66"",""561134""
""focus"",""66"",""566629""
","""event"",""trial"",""time""
""blur"",""2"",""140795""
""blur"",""2"",""145472""
""blur"",""54"",""473312""
""blur"",""66"",""561134""
","""event"",""trial"",""time""
""focus"",""2"",""143575""
""focus"",""2"",""151710""
""focus"",""54"",""474953""
""focus"",""66"",""566629""
","""event"",""trial"",""time""
""fullscreenenter"",""1"",""135575""
","
","","","","","","null","<div style=""font-size:60px;"">+</div>","null","","fixation","","","","","","","","","","",""
"aa-learning-trial","101","683718","0.0-9.0-2.0-1.14","5430","1","21","Female","approach_avoid_spark_v1","""event"",""trial"",""time""
""fullscreenenter"",""1"",""135575""
""blur"",""2"",""140795""
""focus"",""2"",""143575""
""blur"",""2"",""145472""
""focus"",""2"",""151710""
""blur"",""54"",""473312""
""focus"",""54"",""474953""
""blur"",""66"",""561134""
""focus"",""66"",""566629""
","""event"",""trial"",""time""
""blur"",""2"",""140795""
""blur"",""2"",""145472""
""blur"",""54"",""473312""
""blur"",""66"",""561134""
","""event"",""trial"",""time""
""focus"",""2"",""143575""
""focus"",""2"",""151710""
""focus"",""54"",""474953""
""focus"",""66"",""566629""
","""event"",""trial"",""time""
""fullscreenenter"",""1"",""135575""
","
","","","","","","1888.9000000357628","images/horse5.png","","","learning","1","1","1","1","horse","animals","1","0","","neutral","0"
"html-keyboard-response","102","684223","0.0-9.0-2.0-0.15","5430","1","21","Female","approach_avoid_spark_v1","""event"",""trial"",""time""
""fullscreenenter"",""1"",""135575""
""blur"",""2"",""140795""
""focus"",""2"",""143575""
""blur"",""2"",""145472""
""focus"",""2"",""151710""
""blur"",""54"",""473312""
""focus"",""54"",""474953""
""blur"",""66"",""561134""
""focus"",""66"",""566629""
","""event"",""trial"",""time""
""blur"",""2"",""140795""
""blur"",""2"",""145472""
""blur"",""54"",""473312""
""blur"",""66"",""561134""
","""event"",""trial"",""time""
""focus"",""2"",""143575""
""focus"",""2"",""151710""
""focus"",""54"",""474953""
""focus"",""66"",""566629""
","""event"",""trial"",""time""
""fullscreenenter"",""1"",""135575""
","
","","","","","","null","<div style=""font-size:60px;"">+</div>","null","","fixation","","","","","","","","","","",""
"aa-learning-trial","103","687230","0.0-9.0-2.0-1.15","5430","1","21","Female","approach_avoid_spark_v1","""event"",""trial"",""time""
""fullscreenenter"",""1"",""135575""
""blur"",""2"",""140795""
""focus"",""2"",""143575""
""blur"",""2"",""145472""
""focus"",""2"",""151710""
""blur"",""54"",""473312""
""focus"",""54"",""474953""
""blur"",""66"",""561134""
""focus"",""66"",""566629""
","""event"",""trial"",""time""
""blur"",""2"",""140795""
""blur"",""2"",""145472""
""blur"",""54"",""473312""
""blur"",""66"",""561134""
","""event"",""trial"",""time""
""focus"",""2"",""143575""
""focus"",""2"",""151710""
""focus"",""54"",""474953""
""focus"",""66"",""566629""
","""event"",""trial"",""time""
""fullscreenenter"",""1"",""135575""
","
","","","","","","2031.6000000238419","images/cow1.png","","","learning","-7","0","0","0","cow","animals","1","0","","bad","[-4]"
"html-keyboard-response","104","687737","0.0-9.0-2.0-0.16","5430","1","21","Female","approach_avoid_spark_v1","""event"",""trial"",""time""
""fullscreenenter"",""1"",""135575""
""blur"",""2"",""140795""
""focus"",""2"",""143575""
""blur"",""2"",""145472""
""focus"",""2"",""151710""
""blur"",""54"",""473312""
""focus"",""54"",""474953""
""blur"",""66"",""561134""
""focus"",""66"",""566629""
","""event"",""trial"",""time""
""blur"",""2"",""140795""
""blur"",""2"",""145472""
""blur"",""54"",""473312""
""blur"",""66"",""561134""
","""event"",""trial"",""time""
""focus"",""2"",""143575""
""focus"",""2"",""151710""
""focus"",""54"",""474953""
""focus"",""66"",""566629""
","""event"",""trial"",""time""
""fullscreenenter"",""1"",""135575""
","
","","","","","","null","<div style=""font-size:60px;"">+</div>","null","","fixation","","","","","","","","","","",""
"aa-learning-trial","105","690744","0.0-9.0-2.0-1.16","5430","1","21","Female","approach_avoid_spark_v1","""event"",""trial"",""time""
""fullscreenenter"",""1"",""135575""
""blur"",""2"",""140795""
""focus"",""2"",""143575""
""blur"",""2"",""145472""
""focus"",""2"",""151710""
""blur"",""54"",""473312""
""focus"",""54"",""474953""
""blur"",""66"",""561134""
""focus"",""66"",""566629""
","""event"",""trial"",""time""
""blur"",""2"",""140795""
""blur"",""2"",""145472""
""blur"",""54"",""473312""
""blur"",""66"",""561134""
","""event"",""trial"",""time""
""focus"",""2"",""143575""
""focus"",""2"",""151710""
""focus"",""54"",""474953""
""focus"",""66"",""566629""
","""event"",""trial"",""time""
""fullscreenenter"",""1"",""135575""
","
","","","","","","1054.2000000476837","images/sheep3.png","","","learning","4","4","1","1","sheep","animals","1","0","","good","[5]"
"html-keyboard-response","106","691247","0.0-9.0-2.0-0.17","5430","1","21","Female","approach_avoid_spark_v1","""event"",""trial"",""time""
""fullscreenenter"",""1"",""135575""
""blur"",""2"",""140795""
""focus"",""2"",""143575""
""blur"",""2"",""145472""
""focus"",""2"",""151710""
""blur"",""54"",""473312""
""focus"",""54"",""474953""
""blur"",""66"",""561134""
""focus"",""66"",""566629""
","""event"",""trial"",""time""
""blur"",""2"",""140795""
""blur"",""2"",""145472""
""blur"",""54"",""473312""
""blur"",""66"",""561134""
","""event"",""trial"",""time""
""focus"",""2"",""143575""
""focus"",""2"",""151710""
""focus"",""54"",""474953""
""focus"",""66"",""566629""
","""event"",""trial"",""time""
""fullscreenenter"",""1"",""135575""
","
","","","","","","null","<div style=""font-size:60px;"">+</div>","null","","fixation","","","","","","","","","","",""
"aa-learning-trial","107","694254","0.0-9.0-2.0-1.17","5430","1","21","Female","approach_avoid_spark_v1","""event"",""trial"",""time""
""fullscreenenter"",""1"",""135575""
""blur"",""2"",""140795""
""focus"",""2"",""143575""
""blur"",""2"",""145472""
""focus"",""2"",""151710""
""blur"",""54"",""473312""
""focus"",""54"",""474953""
""blur"",""66"",""561134""
""focus"",""66"",""566629""
","""event"",""trial"",""time""
""blur"",""2"",""140795""
""blur"",""2"",""145472""
""blur"",""54"",""473312""
""blur"",""66"",""561134""
","""event"",""trial"",""time""
""focus"",""2"",""143575""
""focus"",""2"",""151710""
""focus"",""54"",""474953""
""focus"",""66"",""566629""
","""event"",""trial"",""time""
""fullscreenenter"",""1"",""135575""
","
","","","","","","1280.800000011921","images/horse5.png","","","learning","-2","0","0","0","horse","animals","1","0","","neutral","0"
"html-keyboard-response","108","694759","0.0-9.0-2.0-0.18","5430","1","21","Female","approach_avoid_spark_v1","""event"",""trial"",""time""
""fullscreenenter"",""1"",""135575""
""blur"",""2"",""140795""
""focus"",""2"",""143575""
""blur"",""2"",""145472""
""focus"",""2"",""151710""
""blur"",""54"",""473312""
""focus"",""54"",""474953""
""blur"",""66"",""561134""
""focus"",""66"",""566629""
","""event"",""trial"",""time""
""blur"",""2"",""140795""
""blur"",""2"",""145472""
""blur"",""54"",""473312""
""blur"",""66"",""561134""
","""event"",""trial"",""time""
""focus"",""2"",""143575""
""focus"",""2"",""151710""
""focus"",""54"",""474953""
""focus"",""66"",""566629""
","""event"",""trial"",""time""
""fullscreenenter"",""1"",""135575""
","
","","","","","","null","<div style=""font-size:60px;"">+</div>","null","","fixation","","","","","","","","","","",""
"aa-learning-trial","109","697767","0.0-9.0-2.0-1.18","5430","1","21","Female","approach_avoid_spark_v1","""event"",""trial"",""time""
""fullscreenenter"",""1"",""135575""
""blur"",""2"",""140795""
""focus"",""2"",""143575""
""blur"",""2"",""145472""
""focus"",""2"",""151710""
""blur"",""54"",""473312""
""focus"",""54"",""474953""
""blur"",""66"",""561134""
""focus"",""66"",""566629""
","""event"",""trial"",""time""
""blur"",""2"",""140795""
""blur"",""2"",""145472""
""blur"",""54"",""473312""
""blur"",""66"",""561134""
","""event"",""trial"",""time""
""focus"",""2"",""143575""
""focus"",""2"",""151710""
""focus"",""54"",""474953""
""focus"",""66"",""566629""
","""event"",""trial"",""time""
""fullscreenenter"",""1"",""135575""
","
","","","","","","1112.699999988079","images/cow8.png","","","learning","-2","-2","1","1","cow","animals","1","0","","bad","[-4]"
"html-keyboard-response","110","698271","0.0-9.0-2.0-0.19","5430","1","21","Female","approach_avoid_spark_v1","""event"",""trial"",""time""
""fullscreenenter"",""1"",""135575""
""blur"",""2"",""140795""
""focus"",""2"",""143575""
""blur"",""2"",""145472""
""focus"",""2"",""151710""
""blur"",""54"",""473312""
""focus"",""54"",""474953""
""blur"",""66"",""561134""
""focus"",""66"",""566629""
","""event"",""trial"",""time""
""blur"",""2"",""140795""
""blur"",""2"",""145472""
""blur"",""54"",""473312""
""blur"",""66"",""561134""
","""event"",""trial"",""time""
""focus"",""2"",""143575""
""focus"",""2"",""151710""
""focus"",""54"",""474953""
""focus"",""66"",""566629""
","""event"",""trial"",""time""
""fullscreenenter"",""1"",""135575""
","
","","","","","","null","<div style=""font-size:60px;"">+</div>","null","","fixation","","","","","","","","","","",""
"aa-learning-trial","111","701278","0.0-9.0-2.0-1.19","5430","1","21","Female","approach_avoid_spark_v1","""event"",""trial"",""time""
""fullscreenenter"",""1"",""135575""
""blur"",""2"",""140795""
""focus"",""2"",""143575""
""blur"",""2"",""145472""
""focus"",""2"",""151710""
""blur"",""54"",""473312""
""focus"",""54"",""474953""
""blur"",""66"",""561134""
""focus"",""66"",""566629""
","""event"",""trial"",""time""
""blur"",""2"",""140795""
""blur"",""2"",""145472""
""blur"",""54"",""473312""
""blur"",""66"",""561134""
","""event"",""trial"",""time""
""focus"",""2"",""143575""
""focus"",""2"",""151710""
""focus"",""54"",""474953""
""focus"",""66"",""566629""
","""event"",""trial"",""time""
""fullscreenenter"",""1"",""135575""
","
","","","","","","1132.2000000476837","images/horse2.png","","","learning","[-1]","0","0","0","horse","animals","1","0","","neutral","0"
"html-keyboard-response","112","701785","0.0-9.0-2.0-0.20","5430","1","21","Female","approach_avoid_spark_v1","""event"",""trial"",""time""
""fullscreenenter"",""1"",""135575""
""blur"",""2"",""140795""
""focus"",""2"",""143575""
""blur"",""2"",""145472""
""focus"",""2"",""151710""
""blur"",""54"",""473312""
""focus"",""54"",""474953""
""blur"",""66"",""561134""
""focus"",""66"",""566629""
","""event"",""trial"",""time""
""blur"",""2"",""140795""
""blur"",""2"",""145472""
""blur"",""54"",""473312""
""blur"",""66"",""561134""
","""event"",""trial"",""time""
""focus"",""2"",""143575""
""focus"",""2"",""151710""
""focus"",""54"",""474953""
""focus"",""66"",""566629""
","""event"",""trial"",""time""
""fullscreenenter"",""1"",""135575""
","
","","","","","","null","<div style=""font-size:60px;"">+</div>","null","","fixation","","","","","","","","","","",""
"aa-learning-trial","113","704790","0.0-9.0-2.0-1.20","5430","1","21","Female","approach_avoid_spark_v1","""event"",""trial"",""time""
""fullscreenenter"",""1"",""135575""
""blur"",""2"",""140795""
""focus"",""2"",""143575""
""blur"",""2"",""145472""
""focus"",""2"",""151710""
""blur"",""54"",""473312""
""focus"",""54"",""474953""
""blur"",""66"",""561134""
""focus"",""66"",""566629""
","""event"",""trial"",""time""
""blur"",""2"",""140795""
""blur"",""2"",""145472""
""blur"",""54"",""473312""
""blur"",""66"",""561134""
","""event"",""trial"",""time""
""focus"",""2"",""143575""
""focus"",""2"",""151710""
""focus"",""54"",""474953""
""focus"",""66"",""566629""
","""event"",""trial"",""time""
""fullscreenenter"",""1"",""135575""
","
","","","","","","1372.9000000357628","images/sheep3.png","","","learning","6","6","1","1","sheep","animals","1","0","","good","[5]"
"html-keyboard-response","114","705294","0.0-9.0-2.0-0.21","5430","1","21","Female","approach_avoid_spark_v1","""event"",""trial"",""time""
""fullscreenenter"",""1"",""135575""
""blur"",""2"",""140795""
""focus"",""2"",""143575""
""blur"",""2"",""145472""
""focus"",""2"",""151710""
""blur"",""54"",""473312""
""focus"",""54"",""474953""
""blur"",""66"",""561134""
""focus"",""66"",""566629""
","""event"",""trial"",""time""
""blur"",""2"",""140795""
""blur"",""2"",""145472""
""blur"",""54"",""473312""
""blur"",""66"",""561134""
","""event"",""trial"",""time""
""focus"",""2"",""143575""
""focus"",""2"",""151710""
""focus"",""54"",""474953""
""focus"",""66"",""566629""
","""event"",""trial"",""time""
""fullscreenenter"",""1"",""135575""
","
","","","","","","null","<div style=""font-size:60px;"">+</div>","null","","fixation","","","","","","","","","","",""
"aa-learning-trial","115","708303","0.0-9.0-2.0-1.21","5430","1","21","Female","approach_avoid_spark_v1","""event"",""trial"",""time""
""fullscreenenter"",""1"",""135575""
""blur"",""2"",""140795""
""focus"",""2"",""143575""
""blur"",""2"",""145472""
""focus"",""2"",""151710""
""blur"",""54"",""473312""
""focus"",""54"",""474953""
""blur"",""66"",""561134""
""focus"",""66"",""566629""
","""event"",""trial"",""time""
""blur"",""2"",""140795""
""blur"",""2"",""145472""
""blur"",""54"",""473312""
""blur"",""66"",""561134""
","""event"",""trial"",""time""
""focus"",""2"",""143575""
""focus"",""2"",""151710""
""focus"",""54"",""474953""
""focus"",""66"",""566629""
","""event"",""trial"",""time""
""fullscreenenter"",""1"",""135575""
","
","","","","","","1333","images/horse6.png","","","learning","1","1","1","1","horse","animals","1","0","","neutral","0"
"html-keyboard-response","116","708809","0.0-9.0-2.0-0.22","5430","1","21","Female","approach_avoid_spark_v1","""event"",""trial"",""time""
""fullscreenenter"",""1"",""135575""
""blur"",""2"",""140795""
""focus"",""2"",""143575""
""blur"",""2"",""145472""
""focus"",""2"",""151710""
""blur"",""54"",""473312""
""focus"",""54"",""474953""
""blur"",""66"",""561134""
""focus"",""66"",""566629""
","""event"",""trial"",""time""
""blur"",""2"",""140795""
""blur"",""2"",""145472""
""blur"",""54"",""473312""
""blur"",""66"",""561134""
","""event"",""trial"",""time""
""focus"",""2"",""143575""
""focus"",""2"",""151710""
""focus"",""54"",""474953""
""focus"",""66"",""566629""
","""event"",""trial"",""time""
""fullscreenenter"",""1"",""135575""
","
","","","","","","null","<div style=""font-size:60px;"">+</div>","null","","fixation","","","","","","","","","","",""
"aa-learning-trial","117","711814","0.0-9.0-2.0-1.22","5430","1","21","Female","approach_avoid_spark_v1","""event"",""trial"",""time""
""fullscreenenter"",""1"",""135575""
""blur"",""2"",""140795""
""focus"",""2"",""143575""
""blur"",""2"",""145472""
""focus"",""2"",""151710""
""blur"",""54"",""473312""
""focus"",""54"",""474953""
""blur"",""66"",""561134""
""focus"",""66"",""566629""
","""event"",""trial"",""time""
""blur"",""2"",""140795""
""blur"",""2"",""145472""
""blur"",""54"",""473312""
""blur"",""66"",""561134""
","""event"",""trial"",""time""
""focus"",""2"",""143575""
""focus"",""2"",""151710""
""focus"",""54"",""474953""
""focus"",""66"",""566629""
","""event"",""trial"",""time""
""fullscreenenter"",""1"",""135575""
","
","","","","","","1663.6000000238419","images/horse5.png","","","learning","[-1]","0","0","0","horse","animals","1","0","","neutral","0"
"html-keyboard-response","118","712318","0.0-9.0-2.0-0.23","5430","1","21","Female","approach_avoid_spark_v1","""event"",""trial"",""time""
""fullscreenenter"",""1"",""135575""
""blur"",""2"",""140795""
""focus"",""2"",""143575""
""blur"",""2"",""145472""
""focus"",""2"",""151710""
""blur"",""54"",""473312""
""focus"",""54"",""474953""
""blur"",""66"",""561134""
""focus"",""66"",""566629""
","""event"",""trial"",""time""
""blur"",""2"",""140795""
""blur"",""2"",""145472""
""blur"",""54"",""473312""
""blur"",""66"",""561134""
","""event"",""trial"",""time""
""focus"",""2"",""143575""
""focus"",""2"",""151710""
""focus"",""54"",""474953""
""focus"",""66"",""566629""
","""event"",""trial"",""time""
""fullscreenenter"",""1"",""135575""
","
","","","","","","null","<div style=""font-size:60px;"">+</div>","null","","fixation","","","","","","","","","","",""
"aa-learning-trial","119","715322","0.0-9.0-2.0-1.23","5430","1","21","Female","approach_avoid_spark_v1","""event"",""trial"",""time""
""fullscreenenter"",""1"",""135575""
""blur"",""2"",""140795""
""focus"",""2"",""143575""
""blur"",""2"",""145472""
""focus"",""2"",""151710""
""blur"",""54"",""473312""
""focus"",""54"",""474953""
""blur"",""66"",""561134""
""focus"",""66"",""566629""
","""event"",""trial"",""time""
""blur"",""2"",""140795""
""blur"",""2"",""145472""
""blur"",""54"",""473312""
""blur"",""66"",""561134""
","""event"",""trial"",""time""
""focus"",""2"",""143575""
""focus"",""2"",""151710""
""focus"",""54"",""474953""
""focus"",""66"",""566629""
","""event"",""trial"",""time""
