"trial_type","trial_index","time_elapsed","internal_node_id","subject_id","task_condition","age","gender","task_version","interactions","blur_events","focus_events","fullscreenenter_events","fullscreenexit_events","success","timeout","failed_images","failed_audio","failed_video","rt","stimulus","response","button_pressed","task_part","approach_reward","points","key_press","option_selected","stim_cat","task_block","block_condition","block_number","correct","cat_type","mean_cat_reward"
"pavlovia","0","4","0.0-0.0","3915","1","24","Female","approach_avoid_spark_v1","""event"",""trial"",""time""
""fullscreenenter"",""1"",""3916""
","
","
","""event"",""trial"",""time""
""fullscreenenter"",""1"",""3916""
","
","","","","","","","","","","","","","","","","","","","","",""
"fullscreen","1","4916","0.0-1.0","3915","1","24","Female","approach_avoid_spark_v1","""event"",""trial"",""time""
""fullscreenenter"",""1"",""3916""
","
","
","""event"",""trial"",""time""
""fullscreenenter"",""1"",""3916""
","
","true","","","","","","","","","","","","","","","","","","","",""
"preload","2","7873","0.0-2.0","3915","1","24","Female","approach_avoid_spark_v1","""event"",""trial"",""time""
""fullscreenenter"",""1"",""3916""
","
","
","""event"",""trial"",""time""
""fullscreenenter"",""1"",""3916""
","
","true","false","[]","[]","[]","","","","","","","","","","","","","","","",""
"audio-keyboard-response","3","12334","0.0-3.0","3915","1","24","Female","approach_avoid_spark_v1","""event"",""trial"",""time""
""fullscreenenter"",""1"",""3916""
","
","
","""event"",""trial"",""time""
""fullscreenenter"",""1"",""3916""
","
","","","","","","4464","audio/beep_loop.wav"," ","","","","","","","","","","","","",""
"audio-button-response","4","14283","0.0-4.0","3915","1","24","Female","approach_avoid_spark_v1","""event"",""trial"",""time""
""fullscreenenter"",""1"",""3916""
","
","
","""event"",""trial"",""time""
""fullscreenenter"",""1"",""3916""
","
","","","","","","1947","audio/shark.wav","4","","","","","","","","","","","","",""
"audio-button-response","5","16684","0.0-5.0","3915","1","24","Female","approach_avoid_spark_v1","""event"",""trial"",""time""
""fullscreenenter"",""1"",""3916""
","
","
","""event"",""trial"",""time""
""fullscreenenter"",""1"",""3916""
","
","","","","","","1392","audio/turtle.wav","1","","","","","","","","","","","","",""
"preload","6","19046","0.0-6.0","3915","1","24","Female","approach_avoid_spark_v1","""event"",""trial"",""time""
""fullscreenenter"",""1"",""3916""
","
","
","""event"",""trial"",""time""
""fullscreenenter"",""1"",""3916""
","
","true","false","[]","[]","[]","","","","","","","","","","","","","","","",""
"html-keyboard-response","7","22504","0.0-7.0","3915","1","24","Female","approach_avoid_spark_v1","""event"",""trial"",""time""
""fullscreenenter"",""1"",""3916""
","
","
","""event"",""trial"",""time""
""fullscreenenter"",""1"",""3916""
","
","","","","","","3456.400000035763","Welcome to the experiment. Press any key to begin and to advance the instructions.","enter","","","","","","","","","","","","",""
"learning-instructions","8","31559","0.0-8.0-0.0-0.0","3915","1","24","Female","approach_avoid_spark_v1","""event"",""trial"",""time""
""fullscreenenter"",""1"",""3916""
","
","
","""event"",""trial"",""time""
""fullscreenenter"",""1"",""3916""
","
","","","","","","2099","<p> Welcome! Today you are going to play 6 different rounds of a decision-making game. </p><p> Use the mouse to click next to continue. </p>","","0","instructions","","","","","","","","","","",""
"learning-instructions","9","35319","0.0-8.0-0.0-0.1","3915","1","24","Female","approach_avoid_spark_v1","""event"",""trial"",""time""
""fullscreenenter"",""1"",""3916""
","
","
","""event"",""trial"",""time""
""fullscreenenter"",""1"",""3916""
","
","","","","","","1033.1000000238419","<p> You will start with a practice round to learn the rules. </p>","","0","instructions","","","","","","","","","","",""
"learning-instructions","10","39535","0.0-8.0-0.0-0.2","3915","1","24","Female","approach_avoid_spark_v1","""event"",""trial"",""time""
""fullscreenenter"",""1"",""3916""
","
","
","""event"",""trial"",""time""
""fullscreenenter"",""1"",""3916""
","
","","","","","","769.5","<p> Your goal in this round is to give out sports equipment to kids. </p></div>","","0","instructions","","","","","","","","","","",""
"learning-instructions","11","48324","0.0-8.0-0.0-0.3","3915","1","24","Female","approach_avoid_spark_v1","""event"",""trial"",""time""
""fullscreenenter"",""1"",""3916""
","
","
","""event"",""trial"",""time""
""fullscreenenter"",""1"",""3916""
","
","","","","","","1238.5","<p> The kids only like some of the equipment.  </p><p> On each turn, you will see a piece of sports equipment.   </p><p> You need to decide whether to give it to the kids or not.  </p>","","0","instructions","","","","","","","","","","",""
"learning-instructions","12","54043","0.0-8.0-0.0-0.4","3915","1","24","Female","approach_avoid_spark_v1","""event"",""trial"",""time""
""fullscreenenter"",""1"",""3916""
","
","
","""event"",""trial"",""time""
""fullscreenenter"",""1"",""3916""
","
","","","","","","973.2999999523163","<p> You can give them the equipment by pressing 1 and choose not to give it to them by pressing 0. </p><br><div class=""choice-instructions-grid""> <div class=""choice-option""><img src=""images/approach.png"" class=""choice-option-img"" stage=""instructions"" position=""0"" ><div class=""choice-option-text""> Press ""1."" </div></div><div class=""choice-option""><img src=""images/avoid.png"" class=""choice-option-img"" stage=""instructions"" position=""1"" ><div class=""choice-option-text""> Press ""0."" </div></div>","","0","instructions","","","","","","","","","","",""
"learning-instructions","13","62567","0.0-8.0-0.0-0.5","3915","1","24","Female","approach_avoid_spark_v1","""event"",""trial"",""time""
""fullscreenenter"",""1"",""3916""
","
","
","""event"",""trial"",""time""
""fullscreenenter"",""1"",""3916""
","
","","","","","","1140.3999999761581","<p> If you give them a piece of equipment they like, they will be happy! </p><p> But if you give them a piece of equipment they do not like, they will be sad. </p>","","0","instructions","","","","","","","","","","",""
"learning-instructions","14","74059","0.0-8.0-0.0-0.6","3915","1","24","Female","approach_avoid_spark_v1","""event"",""trial"",""time""
""fullscreenenter"",""1"",""3916""
","
","
","""event"",""trial"",""time""
""fullscreenenter"",""1"",""3916""
","
","","","","","","984.0999999642372","<p> You will earn points based on how you make kids feel. </p><p> If you make them happy, you will WIN anywhere from 1 - 9 points, </p><p> but if you make them sad, you will LOSE anywhere from 1 - 9 points. </p>","","0","instructions","","","","","","","","","","",""
"learning-instructions","15","84668","0.0-8.0-0.0-0.7","3915","1","24","Female","approach_avoid_spark_v1","""event"",""trial"",""time""
""fullscreenenter"",""1"",""3916""
","
","
","""event"",""trial"",""time""
""fullscreenenter"",""1"",""3916""
","
","","","","","","1054.8999999761581","<p> You will see how many points you won or lost in the center of the screen. </p><p> Here is what you would see if you won 6 points: </p><p style=""color:green;font-size:50px;font-weight:bolder"">6</p><p style=""color:green"">The text is GREEN because you WON points.</p>","","0","instructions","","","","","","","","","","",""
"learning-instructions","16","90929","0.0-8.0-0.0-0.8","3915","1","24","Female","approach_avoid_spark_v1","""event"",""trial"",""time""
""fullscreenenter"",""1"",""3916""
","
","
","""event"",""trial"",""time""
""fullscreenenter"",""1"",""3916""
","
","","","","","","755.5","<p> And here is what you would see if you lost 4 points: </p><p style=""color:red;font-size:50px;font-weight:bolder"">-4</p><p style=""color:red"">The text is RED because you LOST points. </p>","","0","instructions","","","","","","","","","","",""
"learning-instructions","17","106447","0.0-8.0-0.0-0.9","3915","1","24","Female","approach_avoid_spark_v1","""event"",""trial"",""time""
""fullscreenenter"",""1"",""3916""
","
","
","""event"",""trial"",""time""
""fullscreenenter"",""1"",""3916""
","
","","","","","","807.8999999761581","<p> Some of the equipment will make the kids VERY happy or sad. </p><p> These pieces of equipment will make you win or lose LOTS of points. </p><p> Other pieces of equipment will only make the kids a little happy or sad. </p><p> These pieces of equipment will make you win or lose small amounts of points. </p>","","0","instructions","","","","","","","","","","",""
"learning-instructions","18","118828","0.0-8.0-0.0-0.10","3915","1","24","Female","approach_avoid_spark_v1","""event"",""trial"",""time""
""fullscreenenter"",""1"",""3916""
","
","
","""event"",""trial"",""time""
""fullscreenenter"",""1"",""3916""
","
","","","","","","1754.5","<p> If you choose not to give them the equipment, you will not win or lose any points. </p><p>  However, in the center of the screen, you will see the number of points you WOULD HAVE won or lost if you had given them the equipment. </p>","","0","instructions","","","","","","","","","","",""
"learning-instructions","19","141764","0.0-8.0-0.0-0.11","3915","1","24","Female","approach_avoid_spark_v1","""event"",""trial"",""time""
""fullscreenenter"",""1"",""3916""
","
","
","""event"",""trial"",""time""
""fullscreenenter"",""1"",""3916""
","
","","","","","","1405","<p> Here is what you might see if you did not give the equipment to the kids but it would have made them happy: </p><p style=""color:grey; font-size:50px; display: inline-block; border-spacing: 15px; border-width:3px; border-style:solid; border-color:red"">  &nbsp; 7 &nbsp; </p><p> Remember, in this case, you would not win or lose ANY points because you did not give them the equipment.  </p><p style=""color:grey"">The text is GREY because you earned ZERO points. </p><p style=""color:red"">However, choosing to give the kids the equipment would have made you win points. The box around the text is RED because you chose the worse option. </p>","","0","instructions","","","","","","","","","","",""
"learning-instructions","20","163796","0.0-8.0-0.0-0.12","3915","1","24","Female","approach_avoid_spark_v1","""event"",""trial"",""time""
""fullscreenenter"",""1"",""3916""
","
","
","""event"",""trial"",""time""
""fullscreenenter"",""1"",""3916""
","
","","","","","","957","<p> Here is what you might see if you did not give the equipment to the kids but it would have made them sad: </p><p style=""color:grey;font-size:50px; display: inline-block; border-spacing: 15px; border-width:3px; border-style:solid; border-color:green"">  &nbsp; -8 &nbsp; </p><p> Remember, in this case, you would not win or lose ANY points because you did not give them the equipment.  </p><p style=""color:grey"">The text is GREY because you earned ZERO points. </p><p  style=""color:green""> Choosing to give the kids the equipment would have made you lose points. The box around the text is GREEN because you chose the better option.</p>","","0","instructions","","","","","","","","","","",""
"learning-instructions","21","174021","0.0-8.0-0.0-0.13","3915","1","24","Female","approach_avoid_spark_v1","""event"",""trial"",""time""
""fullscreenenter"",""1"",""3916""
","
","
","""event"",""trial"",""time""
""fullscreenenter"",""1"",""3916""
","
","","","","","","1348.699999988079","<p> You will have 3 seconds to make each choice. Try to respond before time runs out! </p><p> You will lose 5 points each time you do not make a response. </p>","","0","instructions","","","","","","","","","","",""
"learning-instructions","22","180297","0.0-8.0-0.0-0.14","3915","1","24","Female","approach_avoid_spark_v1","""event"",""trial"",""time""
""fullscreenenter"",""1"",""3916""
","
","
","""event"",""trial"",""time""
""fullscreenenter"",""1"",""3916""
","
","","","","","","866.8000000119209","<p> This is just a practice round, but in the real game, your bonus payment will depend on your total number of points.","","0","instructions","","","","","","","","","","",""
"learning-instructions","23","186792","0.0-8.0-0.0-0.15","3915","1","24","Female","approach_avoid_spark_v1","""event"",""trial"",""time""
""fullscreenenter"",""1"",""3916""
","
","
","""event"",""trial"",""time""
""fullscreenenter"",""1"",""3916""
","
","","","","","","732.3999999761581","<p> Remember, you can give them the equipment by pressing 1 and choose not to give it to them by pressing 0. </p><br><div class=""choice-instructions-grid""> <div class=""choice-option""><img src=""images/approach.png"" class=""choice-option-img"" stage=""instructions"" position=""0"" ><div class=""choice-option-text""> Press ""1."" </div></div><div class=""choice-option""><img src=""images/avoid.png"" class=""choice-option-img"" stage=""instructions"" position=""1"" ><div class=""choice-option-text""> Press ""0."" </div></div>","","0","instructions","","","","","","","","","","",""
"html-button-response","24","188213","0.0-8.0-1.0","3915","1","24","Female","approach_avoid_spark_v1","""event"",""trial"",""time""
""fullscreenenter"",""1"",""3916""
","
","
","""event"",""trial"",""time""
""fullscreenenter"",""1"",""3916""
","
","","","","","","1317.2000000476837","<p> Ready to practice? </p>","0","","","","","","","","","","","","",""
"html-keyboard-response","25","188817","0.0-8.0-2.0-0.0","3915","1","24","Female","approach_avoid_spark_v1","""event"",""trial"",""time""
""fullscreenenter"",""1"",""3916""
","
","
","""event"",""trial"",""time""
""fullscreenenter"",""1"",""3916""
","
","","","","","","null","<div style=""font-size:60px;"">+</div>","null","","fixation","","","","","","","","","","",""
"aa-learning-trial","26","191826","0.0-8.0-2.0-1.0","3915","1","24","Female","approach_avoid_spark_v1","""event"",""trial"",""time""
""fullscreenenter"",""1"",""3916""
","
","
","""event"",""trial"",""time""
""fullscreenenter"",""1"",""3916""
","
","","","","","","null","images/ball4.png","","","learning","7","-5","","null","practice","practice","practice","-1","","",""
"html-keyboard-response","27","192331","0.0-8.0-2.0-0.1","3915","1","24","Female","approach_avoid_spark_v1","""event"",""trial"",""time""
""fullscreenenter"",""1"",""3916""
","
","
","""event"",""trial"",""time""
""fullscreenenter"",""1"",""3916""
","
","","","","","","null","<div style=""font-size:60px;"">+</div>","null","","fixation","","","","","","","","","","",""
"aa-learning-trial","28","195333","0.0-8.0-2.0-1.1","3915","1","24","Female","approach_avoid_spark_v1","""event"",""trial"",""time""
""fullscreenenter"",""1"",""3916""
","
","
","""event"",""trial"",""time""
""fullscreenenter"",""1"",""3916""
","
","","","","","","null","images/ball4.png","","","learning","-1","-5","","null","practice","practice","practice","-1","","",""
"html-keyboard-response","29","195835","0.0-8.0-2.0-0.2","3915","1","24","Female","approach_avoid_spark_v1","""event"",""trial"",""time""
""fullscreenenter"",""1"",""3916""
","
","
","""event"",""trial"",""time""
""fullscreenenter"",""1"",""3916""
","
","","","","","","null","<div style=""font-size:60px;"">+</div>","null","","fixation","","","","","","","","","","",""
"aa-learning-trial","30","198837","0.0-8.0-2.0-1.2","3915","1","24","Female","approach_avoid_spark_v1","""event"",""trial"",""time""
""fullscreenenter"",""1"",""3916""
","
","
","""event"",""trial"",""time""
""fullscreenenter"",""1"",""3916""
","
","","","","","","null","images/racket4.png","","","learning","-4","-5","","null","practice","practice","practice","-1","","",""
"html-keyboard-response","31","199343","0.0-8.0-2.0-0.3","3915","1","24","Female","approach_avoid_spark_v1","""event"",""trial"",""time""
""fullscreenenter"",""1"",""3916""
","
","
","""event"",""trial"",""time""
""fullscreenenter"",""1"",""3916""
","
","","","","","","null","<div style=""font-size:60px;"">+</div>","null","","fixation","","","","","","","","","","",""
"aa-learning-trial","32","202347","0.0-8.0-2.0-1.3","3915","1","24","Female","approach_avoid_spark_v1","""event"",""trial"",""time""
""fullscreenenter"",""1"",""3916""
","
","
","""event"",""trial"",""time""
""fullscreenenter"",""1"",""3916""
","
","","","","","","null","images/ball4.png","","","learning","5","-5","","null","practice","practice","practice","-1","","",""
"html-keyboard-response","33","202848","0.0-8.0-2.0-0.4","3915","1","24","Female","approach_avoid_spark_v1","""event"",""trial"",""time""
""fullscreenenter"",""1"",""3916""
","
","
","""event"",""trial"",""time""
""fullscreenenter"",""1"",""3916""
","
","","","","","","null","<div style=""font-size:60px;"">+</div>","null","","fixation","","","","","","","","","","",""
"aa-learning-trial","34","205853","0.0-8.0-2.0-1.4","3915","1","24","Female","approach_avoid_spark_v1","""event"",""trial"",""time""
""fullscreenenter"",""1"",""3916""
","
","
","""event"",""trial"",""time""
""fullscreenenter"",""1"",""3916""
","
","","","","","","null","images/ball2.png","","","learning","-8","-5","","null","practice","practice","practice","-1","","",""
"html-keyboard-response","35","206355","0.0-8.0-2.0-0.5","3915","1","24","Female","approach_avoid_spark_v1","""event"",""trial"",""time""
""fullscreenenter"",""1"",""3916""
","
","
","""event"",""trial"",""time""
""fullscreenenter"",""1"",""3916""
","
","","","","","","null","<div style=""font-size:60px;"">+</div>","null","","fixation","","","","","","","","","","",""
"aa-learning-trial","36","209360","0.0-8.0-2.0-1.5","3915","1","24","Female","approach_avoid_spark_v1","""event"",""trial"",""time""
""fullscreenenter"",""1"",""3916""
","
","
","""event"",""trial"",""time""
""fullscreenenter"",""1"",""3916""
","
","","","","","","null","images/racket3.png","","","learning","1","-5","","null","practice","practice","practice","-1","","",""
"html-keyboard-response","37","209862","0.0-8.0-2.0-0.6","3915","1","24","Female","approach_avoid_spark_v1","""event"",""trial"",""time""
""fullscreenenter"",""1"",""3916""
","
","
","""event"",""trial"",""time""
""fullscreenenter"",""1"",""3916""
","
","","","","","","null","<div style=""font-size:60px;"">+</div>","null","","fixation","","","","","","","","","","",""
"aa-learning-trial","38","212865","0.0-8.0-2.0-1.6","3915","1","24","Female","approach_avoid_spark_v1","""event"",""trial"",""time""
""fullscreenenter"",""1"",""3916""
","
","
","""event"",""trial"",""time""
""fullscreenenter"",""1"",""3916""
","
","","","","","","null","images/racket3.png","","","learning","-2","-5","","null","practice","practice","practice","-1","","",""
"html-keyboard-response","39","213370","0.0-8.0-2.0-0.7","3915","1","24","Female","approach_avoid_spark_v1","""event"",""trial"",""time""
""fullscreenenter"",""1"",""3916""
","
","
","""event"",""trial"",""time""
""fullscreenenter"",""1"",""3916""
","
","","","","","","null","<div style=""font-size:60px;"">+</div>","null","","fixation","","","","","","","","","","",""
"aa-learning-trial","40","216378","0.0-8.0-2.0-1.7","3915","1","24","Female","approach_avoid_spark_v1","""event"",""trial"",""time""
""fullscreenenter"",""1"",""3916""
","
","
","""event"",""trial"",""time""
""fullscreenenter"",""1"",""3916""
","
","","","","","","null","images/ball1.png","","","learning","6","-5","","null","practice","practice","practice","-1","","",""
"html-keyboard-response","41","216881","0.0-8.0-2.0-0.8","3915","1","24","Female","approach_avoid_spark_v1","""event"",""trial"",""time""
""fullscreenenter"",""1"",""3916""
","
","
","""event"",""trial"",""time""
""fullscreenenter"",""1"",""3916""
","
","","","","","","null","<div style=""font-size:60px;"">+</div>","null","","fixation","","","","","","","","","","",""
"aa-learning-trial","42","219883","0.0-8.0-2.0-1.8","3915","1","24","Female","approach_avoid_spark_v1","""event"",""trial"",""time""
""fullscreenenter"",""1"",""3916""
","
","
","""event"",""trial"",""time""
""fullscreenenter"",""1"",""3916""
","
","","","","","","null","images/racket2.png","","","learning","7","-5","","null","practice","practice","practice","-1","","",""
"html-keyboard-response","43","220385","0.0-8.0-2.0-0.9","3915","1","24","Female","approach_avoid_spark_v1","""event"",""trial"",""time""
""fullscreenenter"",""1"",""3916""
","
","
","""event"",""trial"",""time""
""fullscreenenter"",""1"",""3916""
","
","","","","","","null","<div style=""font-size:60px;"">+</div>","null","","fixation","","","","","","","","","","",""
"aa-learning-trial","44","223387","0.0-8.0-2.0-1.9","3915","1","24","Female","approach_avoid_spark_v1","""event"",""trial"",""time""
""fullscreenenter"",""1"",""3916""
","
","
","""event"",""trial"",""time""
""fullscreenenter"",""1"",""3916""
","
","","","","","","null","images/racket1.png","","","learning","3","-5","","null","practice","practice","practice","-1","","",""
"html-keyboard-response","45","223889","0.0-8.0-2.0-0.10","3915","1","24","Female","approach_avoid_spark_v1","""event"",""trial"",""time""
""fullscreenenter"",""1"",""3916""
","
","
","""event"",""trial"",""time""
""fullscreenenter"",""1"",""3916""
","
","","","","","","null","<div style=""font-size:60px;"">+</div>","null","","fixation","","","","","","","","","","",""
"aa-learning-trial","46","226891","0.0-8.0-2.0-1.10","3915","1","24","Female","approach_avoid_spark_v1","""event"",""trial"",""time""
""fullscreenenter"",""1"",""3916""
","
","
","""event"",""trial"",""time""
""fullscreenenter"",""1"",""3916""
","
","","","","","","null","images/racket3.png","","","learning","-1","-5","","null","practice","practice","practice","-1","","",""
"html-keyboard-response","47","227393","0.0-8.0-2.0-0.11","3915","1","24","Female","approach_avoid_spark_v1","""event"",""trial"",""time""
""fullscreenenter"",""1"",""3916""
","
","
","""event"",""trial"",""time""
""fullscreenenter"",""1"",""3916""
","
","","","","","","null","<div style=""font-size:60px;"">+</div>","null","","fixation","","","","","","","","","","",""
"aa-learning-trial","48","230395","0.0-8.0-2.0-1.11","3915","1","24","Female","approach_avoid_spark_v1","""event"",""trial"",""time""
""fullscreenenter"",""1"",""3916""
","
","
","""event"",""trial"",""time""
""fullscreenenter"",""1"",""3916""
","
","","","","","","null","images/racket1.png","","","learning","9","-5","","null","practice","practice","practice","-1","","",""
"html-button-response","49","235377","0.0-8.0-3.0","3915","1","24","Female","approach_avoid_spark_v1","""event"",""trial"",""time""
""fullscreenenter"",""1"",""3916""
","
","
","""event"",""trial"",""time""
""fullscreenenter"",""1"",""3916""
","
","","","","","","4980","<p> You earned -60 points in the practice round! </p>","0","","break","","","","","","","","","","",""
"learning-instructions","50","242899","0.0-8.0-4.0-0.0","3915","1","24","Female","approach_avoid_spark_v1","""event"",""trial"",""time""
""fullscreenenter"",""1"",""3916""
","
","
","""event"",""trial"",""time""
""fullscreenenter"",""1"",""3916""
","
","","","","","","1530.2000000476837","<p> It's almost time to start the real game. </p><p> Before you start, we're going to ask you a few questions about how the game works. </p>","","0","instructions","","","","","","","","","","",""
"preload","51","243983","0.0-8.0-5.0","3915","1","24","Female","approach_avoid_spark_v1","""event"",""trial"",""time""
""fullscreenenter"",""1"",""3916""
","
","
","""event"",""trial"",""time""
""fullscreenenter"",""1"",""3916""
","
","true","false","[]","[]","[]","","","","","","","","","","","","","","","",""
"comp-q","52","253584","0.0-8.0-6.0-0.0","3915","1","24","Female","approach_avoid_spark_v1","""event"",""trial"",""time""
""fullscreenenter"",""1"",""3916""
","
","
","""event"",""trial"",""time""
""fullscreenenter"",""1"",""3916""
","
","","","","","","4603.900000035763","<p> <b> True or False? </b> </p><p> If you see a number in GREY, that means you earned that many points. </p>","","1","comp_question","","","","","","","","","true","",""
"comp-q","53","272715","0.0-8.0-6.0-1.0","3915","1","24","Female","approach_avoid_spark_v1","""event"",""trial"",""time""
""fullscreenenter"",""1"",""3916""
","
","
","""event"",""trial"",""time""
""fullscreenenter"",""1"",""3916""
","
","","","","","","10770.799999952316","<p><b> That's right! </b> If you see a grey number, it means you earned ZERO points. <br> The grey numbers show the points you WOULD HAVE earned if you had made the other choice. </p>","","0","comp_answer","","","","","","","","","","",""
"comp-q","54","278053","0.0-8.0-7.0-0.0","3915","1","24","Female","approach_avoid_spark_v1","""event"",""trial"",""time""
""fullscreenenter"",""1"",""3916""
","
","
","""event"",""trial"",""time""
""fullscreenenter"",""1"",""3916""
","
","","","","","","647.1000000238419","<p> <b> True or False? </b> </p><p> You will have as much time as you want to make each choice. </p>","","1","comp_question","","","","","","","","","true","",""
"comp-q","55","283303","0.0-8.0-7.0-1.0","3915","1","24","Female","approach_avoid_spark_v1","""event"",""trial"",""time""
""fullscreenenter"",""1"",""3916""
","
","
","""event"",""trial"",""time""
""fullscreenenter"",""1"",""3916""
","
","","","","","","1214.5","<p> <b> That's right! </b> You will only have 3 seconds to make each choice. </p>","","0","comp_answer","","","","","","","","","","",""
"comp-q","56","290566","0.0-8.0-8.0-0.0","3915","1","24","Female","approach_avoid_spark_v1","""event"",""trial"",""time""
""fullscreenenter"",""1"",""3916""
","
","
","""event"",""trial"",""time""
""fullscreenenter"",""1"",""3916""
","
","","","","","","2606.199999988079","<p> <b> True or False? </b> </p><p> You should use the '1' and '0' keys to make your choices. </p>","","1","comp_question","","","","","","","","","false","",""
"comp-q","57","300618","0.0-8.0-8.0-1.0","3915","1","24","Female","approach_avoid_spark_v1","""event"",""trial"",""time""
""fullscreenenter"",""1"",""3916""
","
","
","""event"",""trial"",""time""
""fullscreenenter"",""1"",""3916""
","
","","","","","","5500.800000011921","<p> <b>Incorrect.</b> You <i>should</i> use the '1' and '0' keys to make each choice. </p>","","0","comp_answer","","","","","","","","","","",""
"comp-q","58","306488","0.0-8.0-8.1-0.1","3915","1","24","Female","approach_avoid_spark_v1","""event"",""trial"",""time""
""fullscreenenter"",""1"",""3916""
","
","
","""event"",""trial"",""time""
""fullscreenenter"",""1"",""3916""
","
","","","","","","1216.199999988079","<p> <b> True or False? </b> </p><p> You should use the '1' and '0' keys to make your choices. </p>","","0","comp_question","","","","","","","","","true","",""
"comp-q","59","313498","0.0-8.0-8.1-1.1","3915","1","24","Female","approach_avoid_spark_v1","""event"",""trial"",""time""
""fullscreenenter"",""1"",""3916""
","
","
","""event"",""trial"",""time""
""fullscreenenter"",""1"",""3916""
","
","","","","","","2397.100000023842","<p> <b> That's right! </b> You should use the '1' and '0' keys to make each choice. </p>","","0","comp_answer","","","","","","","","","","",""
"learning-instructions","60","320924","0.0-8.0-9.0-0.0","3915","1","24","Female","approach_avoid_spark_v1","""event"",""trial"",""time""
""fullscreenenter"",""1"",""3916""
","
","
","""event"",""trial"",""time""
""fullscreenenter"",""1"",""3916""
","
","","","","","","1156.5","<p> It's now time to start the real game. </p>Do your best, because the points you earn in the next rounds will influence your bonus payment. </p>","","0","instructions","","","","","","","","","","",""
"preload","61","321045","0.0-9.0-0.0","3915","1","24","Female","approach_avoid_spark_v1","""event"",""trial"",""time""
""fullscreenenter"",""1"",""3916""
","
","
","""event"",""trial"",""time""
""fullscreenenter"",""1"",""3916""
","
","true","false","[]","[]","[]","","","","","","","","","","","","","","","",""
"learning-instructions","62","328445","0.0-9.0-1.0-0.0","3915","1","24","Female","approach_avoid_spark_v1","""event"",""trial"",""time""
""fullscreenenter"",""1"",""3916""
","
","
","""event"",""trial"",""time""
""fullscreenenter"",""1"",""3916""
","
","","","","","","3317.399999976158","<p> Your goal in this round is to take care of lots of farm animals. </p></div>","","0","instructions","","","","","","","","","","",""
"learning-instructions","63","350406","0.0-9.0-1.0-0.1","3915","1","24","Female","approach_avoid_spark_v1","""event"",""trial"",""time""
""fullscreenenter"",""1"",""3916""
","
","
","""event"",""trial"",""time""
""fullscreenenter"",""1"",""3916""
","
","","","","","","10313.799999952316","<p> Some farm animals are hungry, while other farm animals are already full.  </p><p> On each turn, you will see a farm animal.   </p><p> You need to decide whether to feed it or not.  </p>","","0","instructions","","","","","","","","","","",""
"learning-instructions","64","357725","0.0-9.0-1.0-0.2","3915","1","24","Female","approach_avoid_spark_v1","""event"",""trial"",""time""
""fullscreenenter"",""1"",""3916""
","
","
","""event"",""trial"",""time""
""fullscreenenter"",""1"",""3916""
","
","","","","","","928.6000000238419","<p> You can feed the farm animal by pressing 1 and leave the farm animal alone by pressing 0. </p><br><div class=""choice-instructions-grid""> <div class=""choice-option""><img src=""images/approach.png"" class=""choice-option-img"" stage=""instructions"" position=""0"" ><div class=""choice-option-text""> Press ""1."" </div></div><div class=""choice-option""><img src=""images/avoid.png"" class=""choice-option-img"" stage=""instructions"" position=""1"" ><div class=""choice-option-text""> Press ""0."" </div></div>","","0","instructions","","","","","","","","","","",""
"learning-instructions","65","369518","0.0-9.0-1.0-0.3","3915","1","24","Female","approach_avoid_spark_v1","""event"",""trial"",""time""
""fullscreenenter"",""1"",""3916""
","
","
","""event"",""trial"",""time""
""fullscreenenter"",""1"",""3916""
","
","","","","","","658.6000000238419","<p> If you feed a hungry farm animal, you will make it feel satisfied! </p><p> But if you feed the farm animal and it was already full, you will make it feel sick. </p>","","0","instructions","","","","","","","","","","",""
"learning-instructions","66","384392","0.0-9.0-1.0-0.4","3915","1","24","Female","approach_avoid_spark_v1","""event"",""trial"",""time""
""fullscreenenter"",""1"",""3916""
","
","
","""event"",""trial"",""time""
""fullscreenenter"",""1"",""3916""
","
","","","","","","1068.300000011921","<p> You will earn points based on how you made the farm animal feel. </p><p> If you made it satisfied, you will WIN anywhere from 1 - 9 points, </p><p> but if you made it sick, you will LOSE anywhere from 1 - 9 points. </p>","","0","instructions","","","","","","","","","","",""
"learning-instructions","67","393598","0.0-9.0-1.0-0.5","3915","1","24","Female","approach_avoid_spark_v1","""event"",""trial"",""time""
""fullscreenenter"",""1"",""3916""
","
","
","""event"",""trial"",""time""
""fullscreenenter"",""1"",""3916""
","
","","","","","","1267","<p> You will see how many points you won or lost in the center of the screen. </p><p> Here is what you would see if you won 5 points: </p><p style=""color:green;font-size:50px;font-weight:bolder"">5</p>","","0","instructions","","","","","","","","","","",""
"learning-instructions","68","397558","0.0-9.0-1.0-0.6","3915","1","24","Female","approach_avoid_spark_v1","""event"",""trial"",""time""
""fullscreenenter"",""1"",""3916""
","
","
","""event"",""trial"",""time""
""fullscreenenter"",""1"",""3916""
","
","","","","","","474.39999997615814","<p> And here is what you would see if you lost 3 points: </p><p style=""color:red;font-size:50px;font-weight:bolder"">-3</p>","","0","instructions","","","","","","","","","","",""
"learning-instructions","69","414373","0.0-9.0-1.0-0.7","3915","1","24","Female","approach_avoid_spark_v1","""event"",""trial"",""time""
""fullscreenenter"",""1"",""3916""
","
","
","""event"",""trial"",""time""
""fullscreenenter"",""1"",""3916""
","
","","","","","","708.1000000238419","<p> Some farm animals will become very satisfied or very sick. </p><p> These farm animals will make you win or lose LOTS of points. </p><p> Other farm animals have less strong feelings. </p><p> These farm animals will make you win or lose small amounts of points. </p>","","0","instructions","","","","","","","","","","",""
"learning-instructions","70","427224","0.0-9.0-1.0-0.8","3915","1","24","Female","approach_avoid_spark_v1","""event"",""trial"",""time""
""fullscreenenter"",""1"",""3916""
","
","
","""event"",""trial"",""time""
""fullscreenenter"",""1"",""3916""
","
","","","","","","765","<p> If you choose to leave the farm animal alone, you will not win or lose any points. </p><p>  However, in the center of the screen, you will see the number of points you WOULD HAVE won or lost if you had fed the farm animal. </p>","","0","instructions","","","","","","","","","","",""
"learning-instructions","71","440684","0.0-9.0-1.0-0.9","3915","1","24","Female","approach_avoid_spark_v1","""event"",""trial"",""time""
""fullscreenenter"",""1"",""3916""
","
","
","""event"",""trial"",""time""
""fullscreenenter"",""1"",""3916""
","
","","","","","","2135.2000000476837","<p> Here is what you might see if you did not feed the farm animal but the animal was hungry: </p><p style=""color:grey; font-size:50px; display: inline-block; border-spacing: 15px; border-width:3px; border-style:solid; border-color:red"">  &nbsp; 6 &nbsp; </p><p> Remember, in this case, you would not win or lose ANY points because you did not feed the farm animal.  </p>","","0","instructions","","","","","","","","","","",""
"learning-instructions","72","448930","0.0-9.0-1.0-0.10","3915","1","24","Female","approach_avoid_spark_v1","""event"",""trial"",""time""
""fullscreenenter"",""1"",""3916""
","
","
","""event"",""trial"",""time""
""fullscreenenter"",""1"",""3916""
","
","","","","","","642.1000000238419","<p> Try to make the best choice for each farm animal because </p><p> at the end of the game, you will earn bonus money based on how many points you earned. </p>","","0","instructions","","","","","","","","","","",""
"learning-instructions","73","457681","0.0-9.0-1.0-0.11","3915","1","24","Female","approach_avoid_spark_v1","""event"",""trial"",""time""
""fullscreenenter"",""1"",""3916""
","
","
","""event"",""trial"",""time""
""fullscreenenter"",""1"",""3916""
","
","","","","","","560.5999999642372","<p> You will have 3 seconds to make each choice. Try to respond before time runs out! </p><p> You will lose 5 points each time you do not make a response. </p>","","0","instructions","","","","","","","","","","",""
"html-keyboard-response","74","458282","0.0-9.0-2.0-0.0","3915","1","24","Female","approach_avoid_spark_v1","""event"",""trial"",""time""
""fullscreenenter"",""1"",""3916""
","
","
","""event"",""trial"",""time""
""fullscreenenter"",""1"",""3916""
","
","","","","","","null","<div style=""font-size:60px;"">+</div>","null","","fixation","","","","","","","","","","",""
"aa-learning-trial","75","461287","0.0-9.0-2.0-1.0","3915","1","24","Female","approach_avoid_spark_v1","""event"",""trial"",""time""
""fullscreenenter"",""1"",""3916""
","
","
","""event"",""trial"",""time""
""fullscreenenter"",""1"",""3916""
","
","","","","","","null","images/sheep5.png","","","learning","3","-5","","null","sheep","animals","1","0","","good","[4]"
"html-keyboard-response","76","461791","0.0-9.0-2.0-0.1","3915","1","24","Female","approach_avoid_spark_v1","""event"",""trial"",""time""
""fullscreenenter"",""1"",""3916""
","
","
","""event"",""trial"",""time""
""fullscreenenter"",""1"",""3916""
","
","","","","","","null","<div style=""font-size:60px;"">+</div>","null","","fixation","","","","","","","","","","",""
"aa-learning-trial","77","464794","0.0-9.0-2.0-1.1","3915","1","24","Female","approach_avoid_spark_v1","""event"",""trial"",""time""
""fullscreenenter"",""1"",""3916""
","
","
","""event"",""trial"",""time""
""fullscreenenter"",""1"",""3916""
","
","","","","","","null","images/goat8.png","","","learning","-7","-5","","null","goat","animals","1","0","","bad","[-5]"
"html-keyboard-response","78","465295","0.0-9.0-2.0-0.2","3915","1","24","Female","approach_avoid_spark_v1","""event"",""trial"",""time""
""fullscreenenter"",""1"",""3916""
","
","
","""event"",""trial"",""time""
""fullscreenenter"",""1"",""3916""
","
","","","","","","null","<div style=""font-size:60px;"">+</div>","null","","fixation","","","","","","","","","","",""
"aa-learning-trial","79","468302","0.0-9.0-2.0-1.2","3915","1","24","Female","approach_avoid_spark_v1","""event"",""trial"",""time""
""fullscreenenter"",""1"",""3916""
","
","
","""event"",""trial"",""time""
""fullscreenenter"",""1"",""3916""
","
","","","","","","null","images/goat7.png","","","learning","-6","-5","","null","goat","animals","1","0","","bad","[-5]"
"html-keyboard-response","80","468804","0.0-9.0-2.0-0.3","3915","1","24","Female","approach_avoid_spark_v1","""event"",""trial"",""time""
""fullscreenenter"",""1"",""3916""
","
","
","""event"",""trial"",""time""
""fullscreenenter"",""1"",""3916""
","
","","","","","","null","<div style=""font-size:60px;"">+</div>","null","","fixation","","","","","","","","","","",""
"aa-learning-trial","81","471807","0.0-9.0-2.0-1.3","3915","1","24","Female","approach_avoid_spark_v1","""event"",""trial"",""time""
""fullscreenenter"",""1"",""3916""
","
","
","""event"",""trial"",""time""
""fullscreenenter"",""1"",""3916""
","
","","","","","","null","images/goat7.png","","","learning","-5","-5","","null","goat","animals","1","0","","bad","[-5]"
"html-keyboard-response","82","472308","0.0-9.0-2.0-0.4","3915","1","24","Female","approach_avoid_spark_v1","""event"",""trial"",""time""
""fullscreenenter"",""1"",""3916""
","
","
","""event"",""trial"",""time""
""fullscreenenter"",""1"",""3916""
","
","","","","","","null","<div style=""font-size:60px;"">+</div>","null","","fixation","","","","","","","","","","",""
"aa-learning-trial","83","475311","0.0-9.0-2.0-1.4","3915","1","24","Female","approach_avoid_spark_v1","""event"",""trial"",""time""
""fullscreenenter"",""1"",""3916""
","
","
","""event"",""trial"",""time""
""fullscreenenter"",""1"",""3916""
","
","","","","","","null","images/cow2.png","","","learning","1","-5","","null","cow","animals","1","0","","neutral","0"
"html-keyboard-response","84","475814","0.0-9.0-2.0-0.5","3915","1","24","Female","approach_avoid_spark_v1","""event"",""trial"",""time""
""fullscreenenter"",""1"",""3916""
","
","
","""event"",""trial"",""time""
""fullscreenenter"",""1"",""3916""
","
","","","","","","null","<div style=""font-size:60px;"">+</div>","null","","fixation","","","","","","","","","","",""
"aa-learning-trial","85","478820","0.0-9.0-2.0-1.5","3915","1","24","Female","approach_avoid_spark_v1","""event"",""trial"",""time""
""fullscreenenter"",""1"",""3916""
","
","
","""event"",""trial"",""time""
""fullscreenenter"",""1"",""3916""
","
","","","","","","null","images/goat5.png","","","learning","-5","-5","","null","goat","animals","1","0","","bad","[-5]"
"html-keyboard-response","86","479322","0.0-9.0-2.0-0.6","3915","1","24","Female","approach_avoid_spark_v1","""event"",""trial"",""time""
""fullscreenenter"",""1"",""3916""
","
","
","""event"",""trial"",""time""
""fullscreenenter"",""1"",""3916""
","
","","","","","","null","<div style=""font-size:60px;"">+</div>","null","","fixation","","","","","","","","","","",""
"aa-learning-trial","87","482325","0.0-9.0-2.0-1.6","3915","1","24","Female","approach_avoid_spark_v1","""event"",""trial"",""time""
""fullscreenenter"",""1"",""3916""
","
","
","""event"",""trial"",""time""
""fullscreenenter"",""1"",""3916""
","
","","","","","","null","images/goat5.png","","","learning","-6","-5","","null","goat","animals","1","0","","bad","[-5]"
"html-keyboard-response","88","482827","0.0-9.0-2.0-0.7","3915","1","24","Female","approach_avoid_spark_v1","""event"",""trial"",""time""
""fullscreenenter"",""1"",""3916""
","
","
","""event"",""trial"",""time""
""fullscreenenter"",""1"",""3916""
","
","","","","","","null","<div style=""font-size:60px;"">+</div>","null","","fixation","","","","","","","","","","",""
"aa-learning-trial","89","485834","0.0-9.0-2.0-1.7","3915","1","24","Female","approach_avoid_spark_v1","""event"",""trial"",""time""
""fullscreenenter"",""1"",""3916""
","
","
","""event"",""trial"",""time""
""fullscreenenter"",""1"",""3916""
","
","","","","","","null","images/cow1.png","","","learning","[1]","-5","","null","cow","animals","1","0","","neutral","0"
"html-keyboard-response","90","486337","0.0-9.0-2.0-0.8","3915","1","24","Female","approach_avoid_spark_v1","""event"",""trial"",""time""
""fullscreenenter"",""1"",""3916""
","
","
","""event"",""trial"",""time""
""fullscreenenter"",""1"",""3916""
","
","","","","","","null","<div style=""font-size:60px;"">+</div>","null","","fixation","","","","","","","","","","",""
"aa-learning-trial","91","489344","0.0-9.0-2.0-1.8","3915","1","24","Female","approach_avoid_spark_v1","""event"",""trial"",""time""
""fullscreenenter"",""1"",""3916""
","
","
","""event"",""trial"",""time""
""fullscreenenter"",""1"",""3916""
","
","","","","","","null","images/sheep6.png","","","learning","4","-5","","null","sheep","animals","1","0","","good","[4]"
"html-keyboard-response","92","489850","0.0-9.0-2.0-0.9","3915","1","24","Female","approach_avoid_spark_v1","""event"",""trial"",""time""
""fullscreenenter"",""1"",""3916""
","
","
","""event"",""trial"",""time""
""fullscreenenter"",""1"",""3916""
","
","","","","","","null","<div style=""font-size:60px;"">+</div>","null","","fixation","","","","","","","","","","",""
"aa-learning-trial","93","492853","0.0-9.0-2.0-1.9","3915","1","24","Female","approach_avoid_spark_v1","""event"",""trial"",""time""
""fullscreenenter"",""1"",""3916""
","
","
","""event"",""trial"",""time""
""fullscreenenter"",""1"",""3916""
","
","","","","","","null","images/sheep4.png","","","learning","3","-5","","null","sheep","animals","1","0","","good","[4]"
"html-keyboard-response","94","493354","0.0-9.0-2.0-0.10","3915","1","24","Female","approach_avoid_spark_v1","""event"",""trial"",""time""
""fullscreenenter"",""1"",""3916""
","
","
","""event"",""trial"",""time""
""fullscreenenter"",""1"",""3916""
","
","","","","","","null","<div style=""font-size:60px;"">+</div>","null","","fixation","","","","","","","","","","",""
"aa-learning-trial","95","496361","0.0-9.0-2.0-1.10","3915","1","24","Female","approach_avoid_spark_v1","""event"",""trial"",""time""
""fullscreenenter"",""1"",""3916""
","
","
","""event"",""trial"",""time""
""fullscreenenter"",""1"",""3916""
","
","","","","","","null","images/cow7.png","","","learning","-1","-5","","null","cow","animals","1","0","","neutral","0"
"html-keyboard-response","96","496864","0.0-9.0-2.0-0.11","3915","1","24","Female","approach_avoid_spark_v1","""event"",""trial"",""time""
""fullscreenenter"",""1"",""3916""
","
","
","""event"",""trial"",""time""
""fullscreenenter"",""1"",""3916""
","
","","","","","","null","<div style=""font-size:60px;"">+</div>","null","","fixation","","","","","","","","","","",""
"aa-learning-trial","97","499870","0.0-9.0-2.0-1.11","3915","1","24","Female","approach_avoid_spark_v1","""event"",""trial"",""time""
""fullscreenenter"",""1"",""3916""
","
","
","""event"",""trial"",""time""
""fullscreenenter"",""1"",""3916""
","
","","","","","","null","images/cow7.png","","","learning","1","-5","","null","cow","animals","1","0","","neutral","0"
"html-keyboard-response","98","500373","0.0-9.0-2.0-0.12","3915","1","24","Female","approach_avoid_spark_v1","""event"",""trial"",""time""
""fullscreenenter"",""1"",""3916""
","
","
","""event"",""trial"",""time""
""fullscreenenter"",""1"",""3916""
","
","","","","","","null","<div style=""font-size:60px;"">+</div>","null","","fixation","","","","","","","","","","",""
"aa-learning-trial","99","503381","0.0-9.0-2.0-1.12","3915","1","24","Female","approach_avoid_spark_v1","""event"",""trial"",""time""
""fullscreenenter"",""1"",""3916""
","
","
","""event"",""trial"",""time""
""fullscreenenter"",""1"",""3916""
","
","","","","","","null","images/cow2.png","","","learning","-1","-5","","null","cow","animals","1","0","","neutral","0"
"html-keyboard-response","100","503882","0.0-9.0-2.0-0.13","3915","1","24","Female","approach_avoid_spark_v1","""event"",""trial"",""time""
""fullscreenenter"",""1"",""3916""
","
","
","""event"",""trial"",""time""
""fullscreenenter"",""1"",""3916""
","
","","","","","","null","<div style=""font-size:60px;"">+</div>","null","","fixation","","","","","","","","","","",""
"aa-learning-trial","101","506885","0.0-9.0-2.0-1.13","3915","1","24","Female","approach_avoid_spark_v1","""event"",""trial"",""time""
""fullscreenenter"",""1"",""3916""
","
","
","""event"",""trial"",""time""
""fullscreenenter"",""1"",""3916""
","
","","","","","","null","images/sheep4.png","","","learning","1","-5","","null","sheep","animals","1","0","","good","[4]"
"html-keyboard-response","102","507386","0.0-9.0-2.0-0.14","3915","1","24","Female","approach_avoid_spark_v1","""event"",""trial"",""time""
""fullscreenenter"",""1"",""3916""
","
","
","""event"",""trial"",""time""
""fullscreenenter"",""1"",""3916""
","
","","","","","","null","<div style=""font-size:60px;"">+</div>","null","","fixation","","","","","","","","","","",""
"aa-learning-trial","103","510390","0.0-9.0-2.0-1.14","3915","1","24","Female","approach_avoid_spark_v1","""event"",""trial"",""time""
""fullscreenenter"",""1"",""3916""
","
","
","""event"",""trial"",""time""
""fullscreenenter"",""1"",""3916""
","
","","","","","","null","images/sheep5.png","","","learning","3","-5","","null","sheep","animals","1","0","","good","[4]"
"html-keyboard-response","104","510896","0.0-9.0-2.0-0.15","3915","1","24","Female","approach_avoid_spark_v1","""event"",""trial"",""time""
""fullscreenenter"",""1"",""3916""
","
","
","""event"",""trial"",""time""
""fullscreenenter"",""1"",""3916""
","
","","","","","","null","<div style=""font-size:60px;"">+</div>","null","","fixation","","","","","","","","","","",""
"aa-learning-trial","105","513904","0.0-9.0-2.0-1.15","3915","1","24","Female","approach_avoid_spark_v1","""event"",""trial"",""time""
""fullscreenenter"",""1"",""3916""
","
","
","""event"",""trial"",""time""
""fullscreenenter"",""1"",""3916""
","
","","","","","","null","images/sheep4.png","","","learning","6","-5","","null","sheep","animals","1","0","","good","[4]"
"html-keyboard-response","106","514405","0.0-9.0-2.0-0.16","3915","1","24","Female","approach_avoid_spark_v1","""event"",""trial"",""time""
""fullscreenenter"",""1"",""3916""
","
","
","""event"",""trial"",""time""
""fullscreenenter"",""1"",""3916""
","
","","","","","","null","<div style=""font-size:60px;"">+</div>","null","","fixation","","","","","","","","","","",""
"aa-learning-trial","107","517413","0.0-9.0-2.0-1.16","3915","1","24","Female","approach_avoid_spark_v1","""event"",""trial"",""time""
""fullscreenenter"",""1"",""3916""
","
","
","""event"",""trial"",""time""
""fullscreenenter"",""1"",""3916""
","
","","","","","","null","images/goat5.png","","","learning","-6","-5","","null","goat","animals","1","0","","bad","[-5]"
"html-keyboard-response","108","517915","0.0-9.0-2.0-0.17","3915","1","24","Female","approach_avoid_spark_v1","""event"",""trial"",""time""
""fullscreenenter"",""1"",""3916""
","
","
","""event"",""trial"",""time""
""fullscreenenter"",""1"",""3916""
","
","","","","","","null","<div style=""font-size:60px;"">+</div>","null","","fixation","","","","","","","","","","",""
"aa-learning-trial","109","520923","0.0-9.0-2.0-1.17","3915","1","24","Female","approach_avoid_spark_v1","""event"",""trial"",""time""
""fullscreenenter"",""1"",""3916""
","
","
","""event"",""trial"",""time""
""fullscreenenter"",""1"",""3916""
","
","","","","","","null","images/cow7.png","","","learning","[-1]","-5","","null","cow","animals","1","0","","neutral","0"
"html-keyboard-response","110","521426","0.0-9.0-2.0-0.18","3915","1","24","Female","approach_avoid_spark_v1","""event"",""trial"",""time""
""fullscreenenter"",""1"",""3916""
","
","
","""event"",""trial"",""time""
""fullscreenenter"",""1"",""3916""
","
","","","","","","null","<div style=""font-size:60px;"">+</div>","null","","fixation","","","","","","","","","","",""
"aa-learning-trial","111","524432","0.0-9.0-2.0-1.18","3915","1","24","Female","approach_avoid_spark_v1","""event"",""trial"",""time""
""fullscreenenter"",""1"",""3916""
","
","
","""event"",""trial"",""time""
""fullscreenenter"",""1"",""3916""
","
","","","","","","null","images/cow2.png","","","learning","-2","-5","","null","cow","animals","1","0","","neutral","0"
"html-keyboard-response","112","524938","0.0-9.0-2.0-0.19","3915","1","24","Female","approach_avoid_spark_v1","""event"",""trial"",""time""
""fullscreenenter"",""1"",""3916""
","
","
","""event"",""trial"",""time""
""fullscreenenter"",""1"",""3916""
","
","","","","","","null","<div style=""font-size:60px;"">+</div>","null","","fixation","","","","","","","","","","",""
"aa-learning-trial","113","527946","0.0-9.0-2.0-1.19","3915","1","24","Female","approach_avoid_spark_v1","""event"",""trial"",""time""
""fullscreenenter"",""1"",""3916""
","
","
","""event"",""trial"",""time""
""fullscreenenter"",""1"",""3916""
","
","","","","","","null","images/sheep8.png","","","learning","3","-5","","null","sheep","animals","1","0","","good","[4]"
"html-keyboard-response","114","528449","0.0-9.0-2.0-0.20","3915","1","24","Female","approach_avoid_spark_v1","""event"",""trial"",""time""
""fullscreenenter"",""1"",""3916""
","
","
","""event"",""trial"",""time""
""fullscreenenter"",""1"",""3916""
","
","","","","","","null","<div style=""font-size:60px;"">+</div>","null","","fixation","","","","","","","","","","",""
"aa-learning-trial","115","531456","0.0-9.0-2.0-1.20","3915","1","24","Female","approach_avoid_spark_v1","""event"",""trial"",""time""
""fullscreenenter"",""1"",""3916""
","
","
","""event"",""trial"",""time""
""fullscreenenter"",""1"",""3916""
","
","","","","","","1356.5999999642372","images/goat8.png","","","learning","-1","0","0","0","goat","animals","1","0","","bad","[-5]"
"html-keyboard-response","116","531957","0.0-9.0-2.0-0.21","3915","1","24","Female","approach_avoid_spark_v1","""event"",""trial"",""time""
""fullscreenenter"",""1"",""3916""
","
","
","""event"",""trial"",""time""
""fullscreenenter"",""1"",""3916""
","
","","","","","","null","<div style=""font-size:60px;"">+</div>","null","","fixation","","","","","","","","","","",""
"aa-learning-trial","117","534961","0.0-9.0-2.0-1.21","3915","1","24","Female","approach_avoid_spark_v1","""event"",""trial"",""time""
""fullscreenenter"",""1"",""3916""
","
","
","""event"",""trial"",""time""
""fullscreenenter"",""1"",""3916""
","
","","","","","","1260.699999988079","images/cow2.png","","","learning","1","1","1","1","cow","animals","1","0","","neutral","0"
"html-keyboard-response","118","535466","0.0-9.0-2.0-0.22","3915","1","24","Female","approach_avoid_spark_v1","""event"",""trial"",""time""
""fullscreenenter"",""1"",""3916""
","
","
","""event"",""trial"",""time""
""fullscreenenter"",""1"",""3916""
","
","","","","","","null","<div style=""font-size:60px;"">+</div>","null","","fixation","","","","","","","","","","",""
"aa-learning-trial","119","538469","0.0-9.0-2.0-1.22","3915","1","24","Female","approach_avoid_spark_v1","""event"",""trial"",""time""
""fullscreenenter"",""1"",""3916""
","
","
","""event"",""trial"",""time""
""fullscreenenter"",""1"",""3916""
","
","","","","","","551.8999999761581","images/cow1.png","","","learning","-1","-1","1","1","cow","animals","1","0","","neutral","0"
"html-keyboard-response","120","538970","0.0-9.0-2.0-0.23","3915","1","24","Female","approach_avoid_spark_v1","""event"",""trial"",""time""
""fullscreenenter"",""1"",""3916""
","
","
","""event"",""trial"",""time""
""fullscreenenter"",""1"",""3916""
","
","","","","","","null","<div style=""font-size:60px;"">+</div>","null","","fixation","","","","","","","","","","",""
"aa-learning-trial","121","541976","0.0-9.0-2.0-1.23","3915","1","24","Female","approach_avoid_spark_v1","""event"",""trial"",""time""
""fullscreenenter"",""1"",""3916""
","
","
","""event"",""trial"",""time""
""fullscreenenter"",""1"",""3916""
","
","","","","","","1966","images/sheep4.png","","","learning","6","0","0","0","sheep","animals","1","0","","good","[4]"
"html-keyboard-response","122","542482","0.0-9.0-2.0-0.24","3915","1","24","Female","approach_avoid_spark_v1","""event"",""trial"",""time""
""fullscreenenter"",""1"",""3916""
","
","
","""event"",""trial"",""time""
""fullscreenenter"",""1"",""3916""
","
","","","","","","null","<div style=""font-size:60px;"">+</div>","null","","fixation","","","","","","","","","","",""
"aa-learning-trial","123","545488","0.0-9.0-2.0-1.24","3915","1","24","Female","approach_avoid_spark_v1","""event"",""trial"",""time""
""fullscreenenter"",""1"",""3916""
","
","
","""event"",""trial"",""time""
""fullscreenenter"",""1"",""3916""
","
","","","","","","563.6999999880791","images/goat6.png","","","learning","-5","-5","1","1","goat","animals","1","0","","bad","[-5]"
"html-keyboard-response","124","545989","0.0-9.0-2.0-0.25","3915","1","24","Female","approach_avoid_spark_v1","""event"",""trial"",""time""
""fullscreenenter"",""1"",""3916""
","
","
","""event"",""trial"",""time""
""fullscreenenter"",""1"",""3916""
","
","","","","","","null","<div style=""font-size:60px;"">+</div>","null","","fixation","","","","","","","","","","",""
"aa-learning-trial","125","548992","0.0-9.0-2.0-1.25","3915","1","24","Female","approach_avoid_spark_v1","""event"",""trial"",""time""
""fullscreenenter"",""1"",""3916""
","
","
","""event"",""trial"",""time""
""fullscreenenter"",""1"",""3916""
","
","","","","","","994.2000000476837","images/sheep4.png","","","learning","4","4","1","1","sheep","animals","1","0","","good","[4]"
"html-keyboard-response","126","549493","0.0-9.0-2.0-0.26","3915","1","24","Female","approach_avoid_spark_v1","""event"",""trial"",""time""
""fullscreenenter"",""1"",""3916""
","
","
","""event"",""trial"",""time""
""fullscreenenter"",""1"",""3916""
","
","","","","","","null","<div style=""font-size:60px;"">+</div>","null","","fixation","","","","","","","","","","",""
"aa-learning-trial","127","552496","0.0-9.0-2.0-1.26","3915","1","24","Female","approach_avoid_spark_v1","""event"",""trial"",""time""
""fullscreenenter"",""1"",""3916""
","
","
","""event"",""trial"",""time""
""fullscreenenter"",""1"",""3916""
","
","","","","","","769.1000000238419","images/goat7.png","","","learning","-7","-7","1","1","goat","animals","1","0","","bad","[-5]"
"html-keyboard-response","128","552997","0.0-9.0-2.0-0.27","3915","1","24","Female","approach_avoid_spark_v1","""event"",""trial"",""time""
""fullscreenenter"",""1"",""3916""
","
","
","""event"",""trial"",""time""
""fullscreenenter"",""1"",""3916""
","
","","","","","","null","<div style=""font-size:60px;"">+</div>","null","","fixation","","","","","","","","","","",""
"aa-learning-trial","129","556002","0.0-9.0-2.0-1.27","3915","1","24","Female","approach_avoid_spark_v1","""event"",""trial"",""time""
""fullscreenenter"",""1"",""3916""
","
","
","""event"",""trial"",""time""
""fullscreenenter"",""1"",""3916""
","
","","","","","","1070.2999999523163","images/goat7.png","","","learning","-3","0","0","0","goat","animals","1","0","","bad","[-5]"
"html-keyboard-response","130","556506","0.0-9.0-2.0-0.28","3915","1","24","Female","approach_avoid_spark_v1","""event"",""trial"",""time""
""fullscreenenter"",""1"",""3916""
","
","
","""event"",""trial"",""time""
""fullscreenenter"",""1"",""3916""
","
","","","","","","null","<div style=""font-size:60px;"">+</div>","null","","fixation","","","","","","","","","","",""
"aa-learning-trial","131","559509","0.0-9.0-2.0-1.28","3915","1","24","Female","approach_avoid_spark_v1","""event"",""trial"",""time""
""fullscreenenter"",""1"",""3916""
","
","
","""event"",""trial"",""time""
""fullscreenenter"",""1"",""3916""
","
","","","","","","649.5999999642372","images/sheep5.png","","","learning","4","4","1","1","sheep","animals","1","0","","good","[4]"
"html-keyboard-response","132","560010","0.0-9.0-2.0-0.29","3915","1","24","Female","approach_avoid_spark_v1","""event"",""trial"",""time""
""fullscreenenter"",""1"",""3916""
","
","
","""event"",""trial"",""time""
""fullscreenenter"",""1"",""3916""
","
","","","","","","null","<div style=""font-size:60px;"">+</div>","null","","fixation","","","","","","","","","","",""
"aa-learning-trial","133","563013","0.0-9.0-2.0-1.29","3915","1","24","Female","approach_avoid_spark_v1","""event"",""trial"",""time""
""fullscreenenter"",""1"",""3916""
","
","
","""event"",""trial"",""time""
""fullscreenenter"",""1"",""3916""
","
","","","","","","604.8000000119209","images/sheep5.png","","","learning","4","4","1","1","sheep","animals","1","0","","good","[4]"
"html-keyboard-response","134","563514","0.0-9.0-2.0-0.30","3915","1","24","Female","approach_avoid_spark_v1","""event"",""trial"",""time""
""fullscreenenter"",""1"",""3916""
","
","
","""event"",""trial"",""time""
""fullscreenenter"",""1"",""3916""
","
","","","","","","null","<div style=""font-size:60px;"">+</div>","null","","fixation","","","","","","","","","","",""
"aa-learning-trial","135","566517","0.0-9.0-2.0-1.30","3915","1","24","Female","approach_avoid_spark_v1","""event"",""trial"",""time""
""fullscreenenter"",""1"",""3916""
","
","
","""event"",""trial"",""time""
""fullscreenenter"",""1"",""3916""
","
","","","","","","497.5","images/sheep5.png","","","learning","3","3","1","1","sheep","animals","1","0","","good","[4]"
"html-keyboard-response","136","567018","0.0-9.0-2.0-0.31","3915","1","24","Female","approach_avoid_spark_v1","""event"",""trial"",""time""
""fullscreenenter"",""1"",""3916""
","
","
","""event"",""trial"",""time""
""fullscreenenter"",""1"",""3916""
","
","","","","","","null","<div style=""font-size:60px;"">+</div>","null","","fixation","","","","","","","","","","",""
"aa-learning-trial","137","570021","0.0-9.0-2.0-1.31","3915","1","24","Female","approach_avoid_spark_v1","""event"",""trial"",""time""
""fullscreenenter"",""1"",""3916""
","
","
","""event"",""trial"",""time""
""fullscreenenter"",""1"",""3916""
","
","","","","","","803.9000000357628","images/cow7.png","","","learning","[1]","1","1","1","cow","animals","1","0","","neutral","0"
"html-keyboard-response","138","570522","0.0-9.0-2.0-0.32","3915","1","24","Female","approach_avoid_spark_v1","""event"",""trial"",""time""
""fullscreenenter"",""1"",""3916""
","
","
","""event"",""trial"",""time""
""fullscreenenter"",""1"",""3916""
","
","","","","","","null","<div style=""font-size:60px;"">+</div>","null","","fixation","","","","","","","","","","",""
"aa-learning-trial","139","573525","0.0-9.0-2.0-1.32","3915","1","24","Female","approach_avoid_spark_v1","""event"",""trial"",""time""
""fullscreenenter"",""1"",""3916""
","
","
","""event"",""trial"",""time""
""fullscreenenter"",""1"",""3916""
","
","","","","","","862.1999999880791","images/goat5.png","","","learning","-5","-5","1","1","goat","animals","1","0","","bad","[-5]"
"html-keyboard-response","140","574026","0.0-9.0-2.0-0.33","3915","1","24","Female","approach_avoid_spark_v1","""event"",""trial"",""time""
""fullscreenenter"",""1"",""3916""
","
","
","""event"",""trial"",""time""
""fullscreenenter"",""1"",""3916""
","
","","","","","","null","<div style=""font-size:60px;"">+</div>","null","","fixation","","","","","","","","","","",""
"aa-learning-trial","141","577029","0.0-9.0-2.0-1.33","3915","1","24","Female","approach_avoid_spark_v1","""event"",""trial"",""time""
""fullscreenenter"",""1"",""3916""
","
","
","""event"",""trial"",""time""
""fullscreenenter"",""1"",""3916""
","
","","","","","","1728.8999999761581","images/sheep3.png","","","learning","5","5","1","1","sheep","animals","1","0","","good","[4]"
"html-keyboard-response","142","577530","0.0-9.0-2.0-0.34","3915","1","24","Female","approach_avoid_spark_v1","""event"",""trial"",""time""
""fullscreenenter"",""1"",""3916""
","
","
","""event"",""trial"",""time""
""fullscreenenter"",""1"",""3916""
","
","","","","","","null","<div style=""font-size:60px;"">+</div>","null","","fixation","","","","","","","","","","",""
"aa-learning-trial","143","580533","0.0-9.0-2.0-1.34","3915","1","24","Female","approach_avoid_spark_v1","""event"",""trial"",""time""
""fullscreenenter"",""1"",""3916""
","
","
","""event"",""trial"",""time""
""fullscreenenter"",""1"",""3916""
","
","","","","","","842.8000000119209","images/goat7.png","","","learning","-6","-6","1","1","goat","animals","1","0","","bad","[-5]"
"html-keyboard-response","144","581037","0.0-9.0-2.0-0.35","3915","1","24","Female","approach_avoid_spark_v1","""event"",""trial"",""time""
""fullscreenenter"",""1"",""3916""
","
","
","""event"",""trial"",""time""
""fullscreenenter"",""1"",""3916""
","
","","","","","","null","<div style=""font-size:60px;"">+</div>","null","","fixation","","","","","","","","","","",""
"aa-learning-trial","145","584042","0.0-9.0-2.0-1.35","3915","1","24","Female","approach_avoid_spark_v1","""event"",""trial"",""time""
""fullscreenenter"",""1"",""3916""
","
","
","""event"",""trial"",""time""
""fullscreenenter"",""1"",""3916""
","
","","","","","","942.6999999880791","images/cow7.png","","","learning","1","1","1","1","cow","animals","1","0","","neutral","0"
"html-keyboard-response","146","584543","0.0-9.0-2.0-0.36","3915","1","24","Female","approach_avoid_spark_v1","""event"",""trial"",""time""
""fullscreenenter"",""1"",""3916""
","
","
","""event"",""trial"",""time""
""fullscreenenter"",""1"",""3916""
","
","","","","","","null","<div style=""font-size:60px;"">+</div>","null","","fixation","","","","","","","","","","",""
"aa-learning-trial","147","587546","0.0-9.0-2.0-1.36","3915","1","24","Female","approach_avoid_spark_v1","""event"",""trial"",""time""
""fullscreenenter"",""1"",""3916""
","
","
","""event"",""trial"",""time""
""fullscreenenter"",""1"",""3916""
","
","","","","","","1194","images/goat5.png","","","learning","-4","0","0","0","goat","animals","1","0","","bad","[-5]"
"html-keyboard-response","148","588048","0.0-9.0-2.0-0.37","3915","1","24","Female","approach_avoid_spark_v1","""event"",""trial"",""time""
""fullscreenenter"",""1"",""3916""
","
","
","""event"",""trial"",""time""
""fullscreenenter"",""1"",""3916""
","
","","","","","","null","<div style=""font-size:60px;"">+</div>","null","","fixation","","","","","","","","","","",""
"aa-learning-trial","149","591050","0.0-9.0-2.0-1.37","3915","1","24","Female","approach_avoid_spark_v1","""event"",""trial"",""time""
""fullscreenenter"",""1"",""3916""
","
","
","""event"",""trial"",""time""
""fullscreenenter"",""1"",""3916""
","
","","","","","","944.5","images/sheep6.png","","","learning","5","5","1","1","sheep","animals","1","0","","good","[4]"
"html-keyboard-response","150","591555","0.0-9.0-2.0-0.38","3915","1","24","Female","approach_avoid_spark_v1","""event"",""trial"",""time""
""fullscreenenter"",""1"",""3916""
","
","
","""event"",""trial"",""time""
""fullscreenenter"",""1"",""3916""
","
","","","","","","null","<div style=""font-size:60px;"">+</div>","null","","fixation","","","","","","","","","","",""
"aa-learning-trial","151","594560","0.0-9.0-2.0-1.38","3915","1","24","Female","approach_avoid_spark_v1","""event"",""trial"",""time""
""fullscreenenter"",""1"",""3916""
","
","
","""event"",""trial"",""time""
""fullscreenenter"",""1"",""3916""
","
","","","","","","822.6999999880791","images/cow5.png","","","learning","-2","-2","1","1","cow","animals","1","0","","neutral","0"
"html-keyboard-response","152","595061","0.0-9.0-2.0-0.39","3915","1","24","Female","approach_avoid_spark_v1","""event"",""trial"",""time""
""fullscreenenter"",""1"",""3916""
","
","
","""event"",""trial"",""time""
""fullscreenenter"",""1"",""3916""
","
","","","","","","null","<div style=""font-size:60px;"">+</div>","null","","fixation","","","","","","","","","","",""
"aa-learning-trial","153","598064","0.0-9.0-2.0-1.39","3915","1","24","Female","approach_avoid_spark_v1","""event"",""trial"",""time""
""fullscreenenter"",""1"",""3916""
","
","
","""event"",""trial"",""time""
""fullscreenenter"",""1"",""3916""
","
","","","","","","884.4000000357628","images/cow1.png","","","learning","[1]","1","1","1","cow","animals","1","0","","neutral","0"
"html-keyboard-response","154","598565","0.0-9.0-2.0-0.40","3915","1","24","Female","approach_avoid_spark_v1","""event"",""trial"",""time""
""fullscreenenter"",""1"",""3916""
","
","
","""event"",""trial"",""time""
""fullscreenenter"",""1"",""3916""
","
","","","","","","null","<div style=""font-size:60px;"">+</div>","null","","fixation","","","","","","","","","","",""
"aa-learning-trial","155","601573","0.0-9.0-2.0-1.40","3915","1","24","Female","approach_avoid_spark_v1","""event"",""trial"",""time""
""fullscreenenter"",""1"",""3916""
","
","
","""event"",""trial"",""time""
""fullscreenenter"",""1"",""3916""
","
","","","","","","772.6000000238419","images/goat1.png","","","learning","-6","-6","1","1","goat","animals","1","0","","bad","[-5]"
"html-keyboard-response","156","602079","0.0-9.0-2.0-0.41","3915","1","24","Female","approach_avoid_spark_v1","""event"",""trial"",""time""
""fullscreenenter"",""1"",""3916""
","
","
","""event"",""trial"",""time""
""fullscreenenter"",""1"",""3916""
","
","","","","","","null","<div style=""font-size:60px;"">+</div>","null","","fixation","","","","","","","","","","",""
"aa-learning-trial","157","605082","0.0-9.0-2.0-1.41","3915","1","24","Female","approach_avoid_spark_v1","""event"",""trial"",""time""
""fullscreenenter"",""1"",""3916""
","
","
","""event"",""trial"",""time""
""fullscreenenter"",""1"",""3916""
","
","","","","","","687.6000000238419","images/cow2.png","","","learning","[1]","1","1","1","cow","animals","1","0","","neutral","0"
"html-keyboard-response","158","605583","0.0-9.0-2.0-0.42","3915","1","24","Female","approach_avoid_spark_v1","""event"",""trial"",""time""
""fullscreenenter"",""1"",""3916""
","
","
","""event"",""trial"",""time""
""fullscreenenter"",""1"",""3916""
","
","","","","","","null","<div style=""font-size:60px;"">+</div>","null","","fixation","","","","","","","","","","",""
"aa-learning-trial","159","608586","0.0-9.0-2.0-1.42","3915","1","24","Female","approach_avoid_spark_v1","""event"",""trial"",""time""
""fullscreenenter"",""1"",""3916""
","
","
","""event"",""trial"",""time""
""fullscreenenter"",""1"",""3916""
","
","","","","","","722.5","images/cow7.png","","","learning","[1]","1","1","1","cow","animals","1","0","","neutral","0"
"html-keyboard-response","160","609087","0.0-9.0-2.0-0.43","3915","1","24","Female","approach_avoid_spark_v1","""event"",""trial"",""time""
""fullscreenenter"",""1"",""3916""
","
","
","""event"",""trial"",""time""
""fullscreenenter"",""1"",""3916""
","
","","","","","","null","<div style=""font-size:60px;"">+</div>","null","","fixation","","","","","","","","","","",""
"aa-learning-trial","161","612090","0.0-9.0-2.0-1.43","3915","1","24","Female","approach_avoid_spark_v1","""event"",""trial"",""time""
""fullscreenenter"",""1"",""3916""
","
","
","""event"",""trial"",""time""
""fullscreenenter"",""1"",""3916""
","
","","","","","","658.5999999642372","images/goat5.png","","","learning","-6","-6","1","1","goat","animals","1","0","","bad","[-5]"
"html-keyboard-response","162","612592","0.0-9.0-2.0-0.44","3915","1","24","Female","approach_avoid_spark_v1","""event"",""trial"",""time""
""fullscreenenter"",""1"",""3916""
","
","
","""event"",""trial"",""time""
""fullscreenenter"",""1"",""3916""
","
","","","","","","null","<div style=""font-size:60px;"">+</div>","null","","fixation","","","","","","","","","","",""
"aa-learning-trial","163","615600","0.0-9.0-2.0-1.44","3915","1","24","Female","approach_avoid_spark_v1","""event"",""trial"",""time""
""fullscreenenter"",""1"",""3916""
","
","
","""event"",""trial"",""time""
""fullscreenenter"",""1"",""3916""
","
","","","","","","717.8000000119209","images/sheep6.png","","","learning","5","5","1","1","sheep","animals","1","0","","good","[4]"
"html-keyboard-response","164","616104","0.0-9.0-2.0-0.45","3915","1","24","Female","approach_avoid_spark_v1","""event"",""trial"",""time""
""fullscreenenter"",""1"",""3916""
","
","
","""event"",""trial"",""time""
""fullscreenenter"",""1"",""3916""
","
","","","","","","null","<div style=""font-size:60px;"">+</div>","null","","fixation","","","","","","","","","","",""
"aa-learning-trial","165","619109","0.0-9.0-2.0-1.45","3915","1","24","Female","approach_avoid_spark_v1","""event"",""trial"",""time""
""fullscreenenter"",""1"",""3916""
","
","
","""event"",""trial"",""time""
""fullscreenenter"",""1"",""3916""
","
","","","","","","622.3000000119209","images/sheep4.png","","","learning","3","3","1","1","sheep","animals","1","0","","good","[4]"
"html-keyboard-response","166","619612","0.0-9.0-2.0-0.46","3915","1","24","Female","approach_avoid_spark_v1","""event"",""trial"",""time""
""fullscreenenter"",""1"",""3916""
","
","
","""event"",""trial"",""time""
""fullscreenenter"",""1"",""3916""
","
","","","","","","null","<div style=""font-size:60px;"">+</div>","null","","fixation","","","","","","","","","","",""
"aa-learning-trial","167","622618","0.0-9.0-2.0-1.46","3915","1","24","Female","approach_avoid_spark_v1","""event"",""trial"",""time""
""fullscreenenter"",""1"",""3916""
","
","
","""event"",""trial"",""time""
""fullscreenenter"",""1"",""3916""
","
","","","","","","1061.6000000238419","images/goat8.png","","","learning","-5","-5","1","1","goat","animals","1","0","","bad","[-5]"
"html-keyboard-response","168","623122","0.0-9.0-2.0-0.47","3915","1","24","Female","approach_avoid_spark_v1","""event"",""trial"",""time""
""fullscreenenter"",""1"",""3916""
","
","
","""event"",""trial"",""time""
""fullscreenenter"",""1"",""3916""
","
","","","","","","null","<div style=""font-size:60px;"">+</div>","null","","fixation","","","","","","","","","","",""
"aa-learning-trial","169","626128","0.0-9.0-2.0-1.47","3915","1","24","Female","approach_avoid_spark_v1","""event"",""trial"",""time""
""fullscreenenter"",""1"",""3916""
","
","
","""event"",""trial"",""time""
""fullscreenenter"",""1"",""3916""
","
","","","","","","583.5","images/sheep5.png","","","learning","4","4","1","1","sheep","animals","1","0","","good","[4]"
"html-keyboard-response","170","626629","0.0-9.0-2.0-0.48","3915","1","24","Female","approach_avoid_spark_v1","""event"",""trial"",""time""
""fullscreenenter"",""1"",""3916""
","
","
","""event"",""trial"",""time""
""fullscreenenter"",""1"",""3916""
","
","","","","","","null","<div style=""font-size:60px;"">+</div>","null","","fixation","","","","","","","","","","",""
"aa-learning-trial","171","629637","0.0-9.0-2.0-1.48","3915","1","24","Female","approach_avoid_spark_v1","""event"",""trial"",""time""
""fullscreenenter"",""1"",""3916""
","
","
","""event"",""trial"",""time""
""fullscreenenter"",""1"",""3916""
","
","","","","","","605.3000000119209","images/cow8.png","","","learning","1","1","1","1","cow","animals","1","0","","neutral","0"
"html-keyboard-response","172","630138","0.0-9.0-2.0-0.49","3915","1","24","Female","approach_avoid_spark_v1","""event"",""trial"",""time""
""fullscreenenter"",""1"",""3916""
","
","
","""event"",""trial"",""time""
""fullscreenenter"",""1"",""3916""
","
","","","","","","null","<div style=""font-size:60px;"">+</div>","null","","fixation","","","","","","","","","","",""
"aa-learning-trial","173","633141","0.0-9.0-2.0-1.49","3915","1","24","Female","approach_avoid_spark_v1","""event"",""trial"",""time""
""fullscreenenter"",""1"",""3916""
","
","
","""event"",""trial"",""time""
""fullscreenenter"",""1"",""3916""
","
","","","","","","526.3000000119209","images/goat7.png","","","learning","-6","-6","1","1","goat","animals","1","0","","bad","[-5]"
"html-keyboard-response","174","633642","0.0-9.0-2.0-0.50","3915","1","24","Female","approach_avoid_spark_v1","""event"",""trial"",""time""
""fullscreenenter"",""1"",""3916""
","
","
","""event"",""trial"",""time""
""fullscreenenter"",""1"",""3916""
","
","","","","","","null","<div style=""font-size:60px;"">+</div>","null","","fixation","","","","","","","","","","",""
"aa-learning-trial","175","636650","0.0-9.0-2.0-1.50","3915","1","24","Female","approach_avoid_spark_v1","""event"",""trial"",""time""
""fullscreenenter"",""1"",""3916""
","
","
","""event"",""trial"",""time""
""fullscreenenter"",""1"",""3916""
","
","","","","","","1223.300000011921","images/cow2.png","","","learning","-1","0","0","0","cow","animals","1","0","","neutral","0"
"html-button-response","176","639136","0.0-9.0-3.0","3915","1","24","Female","approach_avoid_spark_v1","""event"",""trial"",""time""
""fullscreenenter"",""1"",""3916""
","
","
","""event"",""trial"",""time""
""fullscreenenter"",""1"",""3916""
","
","","","","","","2483.100000023842","<p> You have completed the round! <p> In this round, you earned -105 points! </p>","0","","break","","","","","","","","","","",""
"html-button-response","177","640245","0.0-10.0","3915","1","24","Female","approach_avoid_spark_v1","""event"",""trial"",""time""
""fullscreenenter"",""1"",""3916""
","
","
","""event"",""trial"",""time""
""fullscreenenter"",""1"",""3916""
","
","","","","","","1107.199999988079","<p> Now it's time to play another round. </p>","0","","transition_screen","","","","","","","","","","",""
"preload","178","640363","0.0-11.0-0.0","3915","1","24","Female","approach_avoid_spark_v1","""event"",""trial"",""time""
""fullscreenenter"",""1"",""3916""
","
","
","""event"",""trial"",""time""
""fullscreenenter"",""1"",""3916""
","
","true","false","[]","[]","[]","","","","","","","","","","","","","","","",""
"learning-instructions","179","645678","0.0-11.0-1.0-0.0","3915","1","24","Female","approach_avoid_spark_v1","""event"",""trial"",""time""
""fullscreenenter"",""1"",""3916""
","
","
","""event"",""trial"",""time""
""fullscreenenter"",""1"",""3916""
","
","","","","","","1278.6000000238419","<p> Your goal in this round is to take care of lots of animals. </p></div>","","0","instructions","","","","","","","","","","",""
"learning-instructions","180","658027","0.0-11.0-1.0-0.1","3915","1","24","Female","approach_avoid_spark_v1","""event"",""trial"",""time""
""fullscreenenter"",""1"",""3916""
","
","
","""event"",""trial"",""time""
""fullscreenenter"",""1"",""3916""
","
","","","","","","1488.5","<p> Some animals want to be pet, while other animals want to be left alone.  </p><p> On each turn, you will see an animal.   </p><p> You need to decide whether to pet it or not.  </p>","","0","instructions","","","","","","","","","","",""
"learning-instructions","181","664366","0.0-11.0-1.0-0.2","3915","1","24","Female","approach_avoid_spark_v1","""event"",""trial"",""time""
""fullscreenenter"",""1"",""3916""
","
","
","""event"",""trial"",""time""
""fullscreenenter"",""1"",""3916""
","
","","","","","","969.5","<p> You can pet the animal by pressing 1 and leave the animal alone by pressing 0. </p><br><div class=""choice-instructions-grid""> <div class=""choice-option""><img src=""images/approach.png"" class=""choice-option-img"" stage=""instructions"" position=""0"" ><div class=""choice-option-text""> Press ""1."" </div></div><div class=""choice-option""><img src=""images/avoid.png"" class=""choice-option-img"" stage=""instructions"" position=""1"" ><div class=""choice-option-text""> Press ""0."" </div></div>","","0","instructions","","","","","","","","","","",""
"learning-instructions","182","674287","0.0-11.0-1.0-0.3","3915","1","24","Female","approach_avoid_spark_v1","""event"",""trial"",""time""
""fullscreenenter"",""1"",""3916""
","
","
","""event"",""trial"",""time""
""fullscreenenter"",""1"",""3916""
","
","","","","","","602.6999999880791","<p> If you pet an animal that wants to be pet, you will make it feel happy! </p><p> But if you pet an animal that wants to be left alone, you will make it feel angry. </p>","","0","instructions","","","","","","","","","","",""
"learning-instructions","183","688155","0.0-11.0-1.0-0.4","3915","1","24","Female","approach_avoid_spark_v1","""event"",""trial"",""time""
""fullscreenenter"",""1"",""3916""
","
","
","""event"",""trial"",""time""
""fullscreenenter"",""1"",""3916""
","
","","","","","","673.9000000357628","<p> You will earn points based on how you made the animal feel. </p><p> If you made it feel happy, you will WIN anywhere from 1 - 9 points, </p><p> but if you made it feel angry, you will LOSE anywhere from 1 - 9 points. </p>","","0","instructions","","","","","","","","","","",""
"learning-instructions","184","697621","0.0-11.0-1.0-0.5","3915","1","24","Female","approach_avoid_spark_v1","""event"",""trial"",""time""
""fullscreenenter"",""1"",""3916""
","
","
","""event"",""trial"",""time""
""fullscreenenter"",""1"",""3916""
","
","","","","","","2816.699999988079","<p> You will see how many points you won or lost in the center of the screen. </p><p> Here is what you would see if you won 5 points: </p><p style=""color:green;font-size:50px;font-weight:bolder"">5</p>","","0","instructions","","","","","","","","","","",""
"learning-instructions","185","700941","0.0-11.0-1.0-0.6","3915","1","24","Female","approach_avoid_spark_v1","""event"",""trial"",""time""
""fullscreenenter"",""1"",""3916""
","
","
","""event"",""trial"",""time""
""fullscreenenter"",""1"",""3916""
","
","","","","","","489","<p> And here is what you would see if you lost 3 points: </p><p style=""color:red;font-size:50px;font-weight:bolder"">-3</p>","","0","instructions","","","","","","","","","","",""
"learning-instructions","186","715694","0.0-11.0-1.0-0.7","3915","1","24","Female","approach_avoid_spark_v1","""event"",""trial"",""time""
""fullscreenenter"",""1"",""3916""
","
","
","""event"",""trial"",""time""
""fullscreenenter"",""1"",""3916""
","
","","","","","","495.69999998807907","<p> Some animals will become very happy or very angry. </p><p> These animals will make you win or lose LOTS of points. </p><p> Other animals have less strong feelings. </p><p> These animals will make you win or lose small amounts of points. </p>","","0","instructions","","","","","","","","","","",""
"learning-instructions","187","727428","0.0-11.0-1.0-0.8","3915","1","24","Female","approach_avoid_spark_v1","""event"",""trial"",""time""
""fullscreenenter"",""1"",""3916""
","
","
","""event"",""trial"",""time""
""fullscreenenter"",""1"",""3916""
","
","","","","","","635.6999999880791","<p> If you choose to leave the animal alone, you will not win or lose any points. </p><p>  However, in the center of the screen, you will see the number of points you WOULD HAVE won or lost if you had pet the animal. </p>","","0","instructions","","","","","","","","","","",""
"learning-instructions","188","739549","0.0-11.0-1.0-0.9","3915","1","24","Female","approach_avoid_spark_v1","""event"",""trial"",""time""
""fullscreenenter"",""1"",""3916""
","
","
","""event"",""trial"",""time""
""fullscreenenter"",""1"",""3916""
","
","","","","","","725.0999999642372","<p> Here is what you might see if you did not pet the animal but the animal wanted to be pet: </p><p style=""color:grey; font-size:50px; display: inline-block; border-spacing: 15px; border-width:3px; border-style:solid; border-color:red"">  &nbsp; 6 &nbsp; </p><p> Remember, in this case, you would not win or lose ANY points because you did not pet the animal.  </p>","","0","instructions","","","","","","","","","","",""
"learning-instructions","189","746869","0.0-11.0-1.0-0.10","3915","1","24","Female","approach_avoid_spark_v1","""event"",""trial"",""time""
""fullscreenenter"",""1"",""3916""
","
","
","""event"",""trial"",""time""
""fullscreenenter"",""1"",""3916""
","
","","","","","","455.69999998807907","<p> Try to make the best choice for each animal because </p><p> at the end of the game, you will earn bonus money based on how many points you earned. </p>","","0","instructions","","","","","","","","","","",""
"learning-instructions","190","755583","0.0-11.0-1.0-0.11","3915","1","24","Female","approach_avoid_spark_v1","""event"",""trial"",""time""
""fullscreenenter"",""1"",""3916""
","
","
","""event"",""trial"",""time""
""fullscreenenter"",""1"",""3916""
","
","","","","","","529.5","<p> You will have 3 seconds to make each choice. Try to respond before time runs out! </p><p> You will lose 5 points each time you do not make a response. </p>","","0","instructions","","","","","","","","","","",""
"html-keyboard-response","191","756187","0.0-11.0-2.0-0.0","3915","1","24","Female","approach_avoid_spark_v1","""event"",""trial"",""time""
""fullscreenenter"",""1"",""3916""
","
","
","""event"",""trial"",""time""
""fullscreenenter"",""1"",""3916""
","
","","","","","","null","<div style=""font-size:60px;"">+</div>","null","","fixation","","","","","","","","","","",""
"aa-learning-trial","192","759192","0.0-11.0-2.0-1.0","3915","1","24","Female","approach_avoid_spark_v1","""event"",""trial"",""time""
""fullscreenenter"",""1"",""3916""
","
","
","""event"",""trial"",""time""
""fullscreenenter"",""1"",""3916""
","
","","","","","","973.1999999880791","images/dog4.png","","","learning","-3","0","0","0","dog","pets","2","1","","neutral","0"
"html-keyboard-response","193","759695","0.0-11.0-2.0-0.1","3915","1","24","Female","approach_avoid_spark_v1","""event"",""trial"",""time""
""fullscreenenter"",""1"",""3916""
","
","
","""event"",""trial"",""time""
""fullscreenenter"",""1"",""3916""
","
","","","","","","null","<div style=""font-size:60px;"">+</div>","null","","fixation","","","","","","","","","","",""
"aa-learning-trial","194","762701","0.0-11.0-2.0-1.1","3915","1","24","Female","approach_avoid_spark_v1","""event"",""trial"",""time""
""fullscreenenter"",""1"",""3916""
","
","
","""event"",""trial"",""time""
""fullscreenenter"",""1"",""3916""
","
","","","","","","849.3999999761581","images/dog5.png","","","learning","-2","0","0","0","dog","pets","2","1","","neutral","0"
"html-keyboard-response","195","763202","0.0-11.0-2.0-0.2","3915","1","24","Female","approach_avoid_spark_v1","""event"",""trial"",""time""
""fullscreenenter"",""1"",""3916""
","
","
","""event"",""trial"",""time""
""fullscreenenter"",""1"",""3916""
","
","","","","","","null","<div style=""font-size:60px;"">+</div>","null","","fixation","","","","","","","","","","",""
"aa-learning-trial","196","766206","0.0-11.0-2.0-1.2","3915","1","24","Female","approach_avoid_spark_v1","""event"",""trial"",""time""
""fullscreenenter"",""1"",""3916""
","
","
","""event"",""trial"",""time""
""fullscreenenter"",""1"",""3916""
","
","","","","","","677.6000000238419","images/dog4.png","","","learning","-3","0","0","0","dog","pets","2","1","","neutral","0"
"html-keyboard-response","197","766711","0.0-11.0-2.0-0.3","3915","1","24","Female","approach_avoid_spark_v1","""event"",""trial"",""time""
""fullscreenenter"",""1"",""3916""
","
","
","""event"",""trial"",""time""
""fullscreenenter"",""1"",""3916""
","
","","","","","","null","<div style=""font-size:60px;"">+</div>","null","","fixation","","","","","","","","","","",""
"aa-learning-trial","198","769719","0.0-11.0-2.0-1.3","3915","1","24","Female","approach_avoid_spark_v1","""event"",""trial"",""time""
""fullscreenenter"",""1"",""3916""
","
","
","""event"",""trial"",""time""
""fullscreenenter"",""1"",""3916""
","
","","","","","","792.8000000119209","images/rabbit5.png","","","learning","-4","0","0","0","rabbit","pets","2","1","","bad","[-4]"
"html-keyboard-response","199","770221","0.0-11.0-2.0-0.4","3915","1","24","Female","approach_avoid_spark_v1","""event"",""trial"",""time""
""fullscreenenter"",""1"",""3916""
","
","
","""event"",""trial"",""time""
""fullscreenenter"",""1"",""3916""
","
","","","","","","null","<div style=""font-size:60px;"">+</div>","null","","fixation","","","","","","","","","","",""
"aa-learning-trial","200","773225","0.0-11.0-2.0-1.4","3915","1","24","Female","approach_avoid_spark_v1","""event"",""trial"",""time""
""fullscreenenter"",""1"",""3916""
","
","
","""event"",""trial"",""time""
""fullscreenenter"",""1"",""3916""
","
","","","","","","1253.0999999642372","images/cat7.png","","","learning","-5","0","0","0","cat","pets","2","1","","good","[3]"
"html-keyboard-response","201","773728","0.0-11.0-2.0-0.5","3915","1","24","Female","approach_avoid_spark_v1","""event"",""trial"",""time""
""fullscreenenter"",""1"",""3916""
","
","
","""event"",""trial"",""time""
""fullscreenenter"",""1"",""3916""
","
","","","","","","null","<div style=""font-size:60px;"">+</div>","null","","fixation","","","","","","","","","","",""
"aa-learning-trial","202","776733","0.0-11.0-2.0-1.5","3915","1","24","Female","approach_avoid_spark_v1","""event"",""trial"",""time""
""fullscreenenter"",""1"",""3916""
","
","
","""event"",""trial"",""time""
""fullscreenenter"",""1"",""3916""
","
","","","","","","1075.699999988079","images/dog7.png","","","learning","4","0","0","0","dog","pets","2","1","","neutral","0"
"html-keyboard-response","203","777239","0.0-11.0-2.0-0.6","3915","1","24","Female","approach_avoid_spark_v1","""event"",""trial"",""time""
""fullscreenenter"",""1"",""3916""
","
","
","""event"",""trial"",""time""
""fullscreenenter"",""1"",""3916""
","
","","","","","","null","<div style=""font-size:60px;"">+</div>","null","","fixation","","","","","","","","","","",""
"aa-learning-trial","204","780155","0.0-11.0-2.0-1.6","3915","1","24","Female","approach_avoid_spark_v1","""event"",""trial"",""time""
""fullscreenenter"",""1"",""3916""
","
","
","""event"",""trial"",""time""
""fullscreenenter"",""1"",""3916""
","
","","","","","","1028.800000011921","images/cat8.png","","","learning","1","0","0","0","cat","pets","2","1","","good","[3]"
"html-keyboard-response","205","780658","0.0-11.0-2.0-0.7","3915","1","24","Female","approach_avoid_spark_v1","""event"",""trial"",""time""
""fullscreenenter"",""1"",""3916""
","
","
","""event"",""trial"",""time""
""fullscreenenter"",""1"",""3916""
","
","","","","","","null","<div style=""font-size:60px;"">+</div>","null","","fixation","","","","","","","","","","",""
"aa-learning-trial","206","783666","0.0-11.0-2.0-1.7","3915","1","24","Female","approach_avoid_spark_v1","""event"",""trial"",""time""
""fullscreenenter"",""1"",""3916""
","
","
","""event"",""trial"",""time""
""fullscreenenter"",""1"",""3916""
","
","","","","","","1154","images/rabbit2.png","","","learning","-6","0","0","0","rabbit","pets","2","1","","bad","[-4]"
"html-keyboard-response","207","784167","0.0-11.0-2.0-0.8","3915","1","24","Female","approach_avoid_spark_v1","""event"",""trial"",""time""
""fullscreenenter"",""1"",""3916""
","
","
","""event"",""trial"",""time""
""fullscreenenter"",""1"",""3916""
","
","","","","","","null","<div style=""font-size:60px;"">+</div>","null","","fixation","","","","","","","","","","",""
"aa-learning-trial","208","787171","0.0-11.0-2.0-1.8","3915","1","24","Female","approach_avoid_spark_v1","""event"",""trial"",""time""
""fullscreenenter"",""1"",""3916""
","
","
","""event"",""trial"",""time""
""fullscreenenter"",""1"",""3916""
","
","","","","","","705.6000000238419","images/cat4.png","","","learning","5","0","0","0","cat","pets","2","1","","good","[3]"
"html-keyboard-response","209","787672","0.0-11.0-2.0-0.9","3915","1","24","Female","approach_avoid_spark_v1","""event"",""trial"",""time""
""fullscreenenter"",""1"",""3916""
","
","
","""event"",""trial"",""time""
""fullscreenenter"",""1"",""3916""
","
","","","","","","null","<div style=""font-size:60px;"">+</div>","null","","fixation","","","","","","","","","","",""
"aa-learning-trial","210","790675","0.0-11.0-2.0-1.9","3915","1","24","Female","approach_avoid_spark_v1","""event"",""trial"",""time""
""fullscreenenter"",""1"",""3916""
","
","
","""event"",""trial"",""time""
""fullscreenenter"",""1"",""3916""
","
","","","","","","850.8999999761581","images/rabbit2.png","","","learning","-6","-6","1","1","rabbit","pets","2","1","","bad","[-4]"
"html-keyboard-response","211","791176","0.0-11.0-2.0-0.10","3915","1","24","Female","approach_avoid_spark_v1","""event"",""trial"",""time""
""fullscreenenter"",""1"",""3916""
","
","
","""event"",""trial"",""time""
""fullscreenenter"",""1"",""3916""
","
","","","","","","null","<div style=""font-size:60px;"">+</div>","null","","fixation","","","","","","","","","","",""
"aa-learning-trial","212","794184","0.0-11.0-2.0-1.10","3915","1","24","Female","approach_avoid_spark_v1","""event"",""trial"",""time""
""fullscreenenter"",""1"",""3916""
","
","
","""event"",""trial"",""time""
""fullscreenenter"",""1"",""3916""
","
","","","","","","1607.4000000357628","images/dog5.png","","","learning","-2","-2","1","1","dog","pets","2","1","","neutral","0"
"html-keyboard-response","213","794685","0.0-11.0-2.0-0.11","3915","1","24","Female","approach_avoid_spark_v1","""event"",""trial"",""time""
""fullscreenenter"",""1"",""3916""
","
","
","""event"",""trial"",""time""
""fullscreenenter"",""1"",""3916""
","
","","","","","","null","<div style=""font-size:60px;"">+</div>","null","","fixation","","","","","","","","","","",""
"aa-learning-trial","214","797688","0.0-11.0-2.0-1.11","3915","1","24","Female","approach_avoid_spark_v1","""event"",""trial"",""time""
""fullscreenenter"",""1"",""3916""
","
","
","""event"",""trial"",""time""
""fullscreenenter"",""1"",""3916""
","
","","","","","","1789.8999999761581","images/cat4.png","","","learning","5","0","0","0","cat","pets","2","1","","good","[3]"
"html-keyboard-response","215","798190","0.0-11.0-2.0-0.12","3915","1","24","Female","approach_avoid_spark_v1","""event"",""trial"",""time""
""fullscreenenter"",""1"",""3916""
","
","
","""event"",""trial"",""time""
""fullscreenenter"",""1"",""3916""
","
","","","","","","null","<div style=""font-size:60px;"">+</div>","null","","fixation","","","","","","","","","","",""
"aa-learning-trial","216","801196","0.0-11.0-2.0-1.12","3915","1","24","Female","approach_avoid_spark_v1","""event"",""trial"",""time""
""fullscreenenter"",""1"",""3916""
","
","
","""event"",""trial"",""time""
""fullscreenenter"",""1"",""3916""
","
","","","","","","1342.6000000238419","images/rabbit5.png","","","learning","-4","-4","1","1","rabbit","pets","2","1","","bad","[-4]"
"html-keyboard-response","217","801699","0.0-11.0-2.0-0.13","3915","1","24","Female","approach_avoid_spark_v1","""event"",""trial"",""time""
""fullscreenenter"",""1"",""3916""
","
","
","""event"",""trial"",""time""
""fullscreenenter"",""1"",""3916""
","
","","","","","","null","<div style=""font-size:60px;"">+</div>","null","","fixation","","","","","","","","","","",""
"aa-learning-trial","218","804702","0.0-11.0-2.0-1.13","3915","1","24","Female","approach_avoid_spark_v1","""event"",""trial"",""time""
""fullscreenenter"",""1"",""3916""
","
","
","""event"",""trial"",""time""
""fullscreenenter"",""1"",""3916""
","
","","","","","","1124.9000000357628","images/cat8.png","","","learning","1","1","1","1","cat","pets","2","1","","good","[3]"
"html-keyboard-response","219","805203","0.0-11.0-2.0-0.14","3915","1","24","Female","approach_avoid_spark_v1","""event"",""trial"",""time""
""fullscreenenter"",""1"",""3916""
","
","
","""event"",""trial"",""time""
""fullscreenenter"",""1"",""3916""
","
","","","","","","null","<div style=""font-size:60px;"">+</div>","null","","fixation","","","","","","","","","","",""
"aa-learning-trial","220","808211","0.0-11.0-2.0-1.14","3915","1","24","Female","approach_avoid_spark_v1","""event"",""trial"",""time""
""fullscreenenter"",""1"",""3916""
","
","
","""event"",""trial"",""time""
""fullscreenenter"",""1"",""3916""
","
","","","","","","819","images/rabbit8.png","","","learning","7","7","1","1","rabbit","pets","2","1","","bad","[-4]"
"html-keyboard-response","221","808712","0.0-11.0-2.0-0.15","3915","1","24","Female","approach_avoid_spark_v1","""event"",""trial"",""time""
""fullscreenenter"",""1"",""3916""
","
","
","""event"",""trial"",""time""
""fullscreenenter"",""1"",""3916""
","
","","","","","","null","<div style=""font-size:60px;"">+</div>","null","","fixation","","","","","","","","","","",""
"aa-learning-trial","222","811715","0.0-11.0-2.0-1.15","3915","1","24","Female","approach_avoid_spark_v1","""event"",""trial"",""time""
""fullscreenenter"",""1"",""3916""
","
","
","""event"",""trial"",""time""
""fullscreenenter"",""1"",""3916""
","
","","","","","","2119.599999964237","images/rabbit3.png","","","learning","3","3","1","1","rabbit","pets","2","1","","bad","[-4]"
"html-keyboard-response","223","812221","0.0-11.0-2.0-0.16","3915","1","24","Female","approach_avoid_spark_v1","""event"",""trial"",""time""
""fullscreenenter"",""1"",""3916""
","
","
","""event"",""trial"",""time""
""fullscreenenter"",""1"",""3916""
","
","","","","","","null","<div style=""font-size:60px;"">+</div>","null","","fixation","","","","","","","","","","",""
"aa-learning-trial","224","815224","0.0-11.0-2.0-1.16","3915","1","24","Female","approach_avoid_spark_v1","""event"",""trial"",""time""
""fullscreenenter"",""1"",""3916""
","
","
","""event"",""trial"",""time""
""fullscreenenter"",""1"",""3916""
","
","","","","","","1160.0999999642372","images/cat6.png","","","learning","6","6","1","1","cat","pets","2","1","","good","[3]"
"html-keyboard-response","225","815726","0.0-11.0-2.0-0.17","3915","1","24","Female","approach_avoid_spark_v1","""event"",""trial"",""time""
""fullscreenenter"",""1"",""3916""
","
","
","""event"",""trial"",""time""
""fullscreenenter"",""1"",""3916""
","
","","","","","","null","<div style=""font-size:60px;"">+</div>","null","","fixation","","","","","","","","","","",""
"aa-learning-trial","226","818728","0.0-11.0-2.0-1.17","3915","1","24","Female","approach_avoid_spark_v1","""event"",""trial"",""time""
""fullscreenenter"",""1"",""3916""
","
","
","""event"",""trial"",""time""
""fullscreenenter"",""1"",""3916""
","
","","","","","","954.6000000238419","images/dog5.png","","","learning","-2","0","0","0","dog","pets","2","1","","neutral","0"
"html-keyboard-response","227","819233","0.0-11.0-2.0-0.18","3915","1","24","Female","approach_avoid_spark_v1","""event"",""trial"",""time""
""fullscreenenter"",""1"",""3916""
","
","
","""event"",""trial"",""time""
""fullscreenenter"",""1"",""3916""
","
","","","","","","null","<div style=""font-size:60px;"">+</div>","null","","fixation","","","","","","","","","","",""
"aa-learning-trial","228","822237","0.0-11.0-2.0-1.18","3915","1","24","Female","approach_avoid_spark_v1","""event"",""trial"",""time""
""fullscreenenter"",""1"",""3916""
","
","
","""event"",""trial"",""time""
""fullscreenenter"",""1"",""3916""
","
","","","","","","1807.8999999761581","images/rabbit5.png","","","learning","-4","-4","1","1","rabbit","pets","2","1","","bad","[-4]"
"html-keyboard-response","229","822744","0.0-11.0-2.0-0.19","3915","1","24","Female","approach_avoid_spark_v1","""event"",""trial"",""time""
""fullscreenenter"",""1"",""3916""
","
","
","""event"",""trial"",""time""
""fullscreenenter"",""1"",""3916""
","
","","","","","","null","<div style=""font-size:60px;"">+</div>","null","","fixation","","","","","","","","","","",""
"aa-learning-trial","230","825752","0.0-11.0-2.0-1.19","3915","1","24","Female","approach_avoid_spark_v1","""event"",""trial"",""time""
""fullscreenenter"",""1"",""3916""
","
","
","""event"",""trial"",""time""
""fullscreenenter"",""1"",""3916""
","
","","","","","","1418.199999988079","images/dog5.png","","","learning","-2","0","0","0","dog","pets","2","1","","neutral","0"
"html-keyboard-response","231","826253","0.0-11.0-2.0-0.20","3915","1","24","Female","approach_avoid_spark_v1","""event"",""trial"",""time""
""fullscreenenter"",""1"",""3916""
","
","
","""event"",""trial"",""time""
""fullscreenenter"",""1"",""3916""
","
","","","","","","null","<div style=""font-size:60px;"">+</div>","null","","fixation","","","","","","","","","","",""
"aa-learning-trial","232","829261","0.0-11.0-2.0-1.20","3915","1","24","Female","approach_avoid_spark_v1","""event"",""trial"",""time""
""fullscreenenter"",""1"",""3916""
","
","
","""event"",""trial"",""time""
""fullscreenenter"",""1"",""3916""
","
","","","","","","1576.6000000238419","images/rabbit2.png","","","learning","-6","-6","1","1","rabbit","pets","2","1","","bad","[-4]"
"html-keyboard-response","233","829763","0.0-11.0-2.0-0.21","3915","1","24","Female","approach_avoid_spark_v1","""event"",""trial"",""time""
""fullscreenenter"",""1"",""3916""
","
","
","""event"",""trial"",""time""
""fullscreenenter"",""1"",""3916""
","
","","","","","","null","<div style=""font-size:60px;"">+</div>","null","","fixation","","","","","","","","","","",""
"aa-learning-trial","234","832765","0.0-11.0-2.0-1.21","3915","1","24","Female","approach_avoid_spark_v1","""event"",""trial"",""time""
""fullscreenenter"",""1"",""3916""
","
","
","""event"",""trial"",""time""
""fullscreenenter"",""1"",""3916""
","
","","","","","","842.3000000119209","images/rabbit1.png","","","learning","2","2","1","1","rabbit","pets","2","1","","bad","[-4]"
"html-keyboard-response","235","833270","0.0-11.0-2.0-0.22","3915","1","24","Female","approach_avoid_spark_v1","""event"",""trial"",""time""
""fullscreenenter"",""1"",""3916""
","
","
","""event"",""trial"",""time""
""fullscreenenter"",""1"",""3916""
","
","","","","","","null","<div style=""font-size:60px;"">+</div>","null","","fixation","","","","","","","","","","",""
"aa-learning-trial","236","836274","0.0-11.0-2.0-1.22","3915","1","24","Female","approach_avoid_spark_v1","""event"",""trial"",""time""
""fullscreenenter"",""1"",""3916""
","
","
","""event"",""trial"",""time""
""fullscreenenter"",""1"",""3916""
","
","","","","","","1410.800000011921","images/rabbit5.png","","","learning","-4","0","0","0","rabbit","pets","2","1","","bad","[-4]"
"html-keyboard-response","237","836776","0.0-11.0-2.0-0.23","3915","1","24","Female","approach_avoid_spark_v1","""event"",""trial"",""time""
""fullscreenenter"",""1"",""3916""
","
","
","""event"",""trial"",""time""
