"trial_type","trial_index","time_elapsed","internal_node_id","subject_id","task_condition","age","gender","task_version","interactions","blur_events","focus_events","fullscreenenter_events","fullscreenexit_events","success","timeout","failed_images","failed_audio","failed_video","rt","stimulus","response","button_pressed","task_part","approach_reward","points","key_press","option_selected","stim_cat","task_block","block_condition","block_number","correct","cat_type","mean_cat_reward"
"pavlovia","0","5","0.0-0.0","3994","2","10","Male","approach_avoid_spark_v1","""event"",""trial"",""time""
""fullscreenenter"",""1"",""5861""
","
","
","""event"",""trial"",""time""
""fullscreenenter"",""1"",""5861""
","
","","","","","","","","","","","","","","","","","","","","",""
"fullscreen","1","6827","0.0-1.0","3994","2","10","Male","approach_avoid_spark_v1","""event"",""trial"",""time""
""fullscreenenter"",""1"",""5861""
","
","
","""event"",""trial"",""time""
""fullscreenenter"",""1"",""5861""
","
","true","","","","","","","","","","","","","","","","","","","",""
"preload","2","11037","0.0-2.0","3994","2","10","Male","approach_avoid_spark_v1","""event"",""trial"",""time""
""fullscreenenter"",""1"",""5861""
","
","
","""event"",""trial"",""time""
""fullscreenenter"",""1"",""5861""
","
","true","false","[]","[]","[]","","","","","","","","","","","","","","","",""
"audio-keyboard-response","3","13716","0.0-3.0","3994","2","10","Male","approach_avoid_spark_v1","""event"",""trial"",""time""
""fullscreenenter"",""1"",""5861""
","
","
","""event"",""trial"",""time""
""fullscreenenter"",""1"",""5861""
","
","","","","","","2680.0000000000005","audio/beep_loop.wav","audiovolumeup","","","","","","","","","","","","",""
"audio-button-response","4","74942","0.0-4.0","3994","2","10","Male","approach_avoid_spark_v1","""event"",""trial"",""time""
""fullscreenenter"",""1"",""5861""
","
","
","""event"",""trial"",""time""
""fullscreenenter"",""1"",""5861""
","
","","","","","","53731","audio/shark.wav","0","","","","","","","","","","","","",""
"audio-button-response","5","79407","0.0-5.0","3994","2","10","Male","approach_avoid_spark_v1","""event"",""trial"",""time""
""fullscreenenter"",""1"",""5861""
","
","
","""event"",""trial"",""time""
""fullscreenenter"",""1"",""5861""
","
","","","","","","3019","audio/turtle.wav","1","","","","","","","","","","","","",""
"preload","6","83429","0.0-6.0","3994","2","10","Male","approach_avoid_spark_v1","""event"",""trial"",""time""
""fullscreenenter"",""1"",""5861""
","
","
","""event"",""trial"",""time""
""fullscreenenter"",""1"",""5861""
","
","true","false","[]","[]","[]","","","","","","","","","","","","","","","",""
"html-keyboard-response","7","87294","0.0-7.0","3994","2","10","Male","approach_avoid_spark_v1","""event"",""trial"",""time""
""fullscreenenter"",""1"",""5861""
","
","
","""event"",""trial"",""time""
""fullscreenenter"",""1"",""5861""
","
","","","","","","3863.100000023842","Welcome to the experiment. Press any key to begin and to advance the instructions.","t","","","","","","","","","","","","",""
"learning-instructions","8","95616","0.0-8.0-0.0-0.0","3994","2","10","Male","approach_avoid_spark_v1","""event"",""trial"",""time""
""fullscreenenter"",""1"",""5861""
","
","
","""event"",""trial"",""time""
""fullscreenenter"",""1"",""5861""
","
","","","","","","1367","<p> Welcome! Today you are going to play 6 different rounds of a decision-making game. </p><p> Use the mouse to click next to continue. </p>","","0","instructions","","","","","","","","","","",""
"learning-instructions","9","101652","0.0-8.0-0.0-0.1","3994","2","10","Male","approach_avoid_spark_v1","""event"",""trial"",""time""
""fullscreenenter"",""1"",""5861""
","
","
","""event"",""trial"",""time""
""fullscreenenter"",""1"",""5861""
","
","","","","","","3283.7999999523163","<p> You will start with a practice round to learn the rules. </p>","","0","instructions","","","","","","","","","","",""
"learning-instructions","10","108257","0.0-8.0-0.0-0.2","3994","2","10","Male","approach_avoid_spark_v1","""event"",""trial"",""time""
""fullscreenenter"",""1"",""5861""
","
","
","""event"",""trial"",""time""
""fullscreenenter"",""1"",""5861""
","
","","","","","","3149.0999999046326","<p> Your goal in this round is to give out sports equipment to kids. </p></div>","","0","instructions","","","","","","","","","","",""
"learning-instructions","11","116351","0.0-8.0-0.0-0.3","3994","2","10","Male","approach_avoid_spark_v1","""event"",""trial"",""time""
""fullscreenenter"",""1"",""5861""
","
","
","""event"",""trial"",""time""
""fullscreenenter"",""1"",""5861""
","
","","","","","","533.3999999761581","<p> The kids only like some of the equipment.  </p><p> On each turn, you will see a piece of sports equipment.   </p><p> You need to decide whether to give it to the kids or not.  </p>","","0","instructions","","","","","","","","","","",""
"learning-instructions","12","122147","0.0-8.0-0.0-0.4","3994","2","10","Male","approach_avoid_spark_v1","""event"",""trial"",""time""
""fullscreenenter"",""1"",""5861""
","
","
","""event"",""trial"",""time""
""fullscreenenter"",""1"",""5861""
","
","","","","","","1027.6000000238419","<p> You can give them the equipment by pressing 1 and choose not to give it to them by pressing 0. </p><br><div class=""choice-instructions-grid""> <div class=""choice-option""><img src=""images/approach.png"" class=""choice-option-img"" stage=""instructions"" position=""0"" ><div class=""choice-option-text""> Press ""1."" </div></div><div class=""choice-option""><img src=""images/avoid.png"" class=""choice-option-img"" stage=""instructions"" position=""1"" ><div class=""choice-option-text""> Press ""0."" </div></div>","","0","instructions","","","","","","","","","","",""
"learning-instructions","13","131219","0.0-8.0-0.0-0.5","3994","2","10","Male","approach_avoid_spark_v1","""event"",""trial"",""time""
""fullscreenenter"",""1"",""5861""
","
","
","""event"",""trial"",""time""
""fullscreenenter"",""1"",""5861""
","
","","","","","","1681.2999999523163","<p> If you give them a piece of equipment they like, they will be happy! </p><p> But if you give them a piece of equipment they do not like, they will be sad. </p>","","0","instructions","","","","","","","","","","",""
"learning-instructions","14","144134","0.0-8.0-0.0-0.6","3994","2","10","Male","approach_avoid_spark_v1","""event"",""trial"",""time""
""fullscreenenter"",""1"",""5861""
","
","
","""event"",""trial"",""time""
""fullscreenenter"",""1"",""5861""
","
","","","","","","2397","<p> You will earn points based on how you make kids feel. </p><p> If you make them happy, you will WIN anywhere from 1 - 9 points, </p><p> but if you make them sad, you will LOSE anywhere from 1 - 9 points. </p>","","0","instructions","","","","","","","","","","",""
"learning-instructions","15","155612","0.0-8.0-0.0-0.7","3994","2","10","Male","approach_avoid_spark_v1","""event"",""trial"",""time""
""fullscreenenter"",""1"",""5861""
","
","
","""event"",""trial"",""time""
""fullscreenenter"",""1"",""5861""
","
","","","","","","1923.8000000715256","<p> You will see how many points you won or lost in the center of the screen. </p><p> Here is what you would see if you won 6 points: </p><p style=""color:green;font-size:50px;font-weight:bolder"">6</p><p style=""color:green"">The text is GREEN because you WON points.</p>","","0","instructions","","","","","","","","","","",""
"learning-instructions","16","162416","0.0-8.0-0.0-0.8","3994","2","10","Male","approach_avoid_spark_v1","""event"",""trial"",""time""
""fullscreenenter"",""1"",""5861""
","
","
","""event"",""trial"",""time""
""fullscreenenter"",""1"",""5861""
","
","","","","","","1287.3999999761581","<p> And here is what you would see if you lost 4 points: </p><p style=""color:red;font-size:50px;font-weight:bolder"">-4</p><p style=""color:red"">The text is RED because you LOST points. </p>","","0","instructions","","","","","","","","","","",""
"learning-instructions","17","177657","0.0-8.0-0.0-0.9","3994","2","10","Male","approach_avoid_spark_v1","""event"",""trial"",""time""
""fullscreenenter"",""1"",""5861""
","
","
","""event"",""trial"",""time""
""fullscreenenter"",""1"",""5861""
","
","","","","","","528.7000000476837","<p> Some of the equipment will make the kids VERY happy or sad. </p><p> These pieces of equipment will make you win or lose LOTS of points. </p><p> Other pieces of equipment will only make the kids a little happy or sad. </p><p> These pieces of equipment will make you win or lose small amounts of points. </p>","","0","instructions","","","","","","","","","","",""
"learning-instructions","18","190499","0.0-8.0-0.0-0.10","3994","2","10","Male","approach_avoid_spark_v1","""event"",""trial"",""time""
""fullscreenenter"",""1"",""5861""
","
","
","""event"",""trial"",""time""
""fullscreenenter"",""1"",""5861""
","
","","","","","","2210.8000000715256","<p> If you choose not to give them the equipment, you will not win or lose any points. </p><p>  However, in the center of the screen, you will see the number of points you WOULD HAVE won or lost if you had given them the equipment. </p>","","0","instructions","","","","","","","","","","",""
"learning-instructions","19","213693","0.0-8.0-0.0-0.11","3994","2","10","Male","approach_avoid_spark_v1","""event"",""trial"",""time""
""fullscreenenter"",""1"",""5861""
","
","
","""event"",""trial"",""time""
""fullscreenenter"",""1"",""5861""
","
","","","","","","1664.1000000238419","<p> Here is what you might see if you did not give the equipment to the kids but it would have made them happy: </p><p style=""color:grey; font-size:50px; display: inline-block; border-spacing: 15px; border-width:3px; border-style:solid; border-color:red"">  &nbsp; 7 &nbsp; </p><p> Remember, in this case, you would not win or lose ANY points because you did not give them the equipment.  </p><p style=""color:grey"">The text is GREY because you earned ZERO points. </p><p style=""color:red"">However, choosing to give the kids the equipment would have made you win points. The box around the text is RED because you chose the worse option. </p>","","0","instructions","","","","","","","","","","",""
"learning-instructions","20","236199","0.0-8.0-0.0-0.12","3994","2","10","Male","approach_avoid_spark_v1","""event"",""trial"",""time""
""fullscreenenter"",""1"",""5861""
","
","
","""event"",""trial"",""time""
""fullscreenenter"",""1"",""5861""
","
","","","","","","1421.2000000476837","<p> Here is what you might see if you did not give the equipment to the kids but it would have made them sad: </p><p style=""color:grey;font-size:50px; display: inline-block; border-spacing: 15px; border-width:3px; border-style:solid; border-color:green"">  &nbsp; -8 &nbsp; </p><p> Remember, in this case, you would not win or lose ANY points because you did not give them the equipment.  </p><p style=""color:grey"">The text is GREY because you earned ZERO points. </p><p  style=""color:green""> Choosing to give the kids the equipment would have made you lose points. The box around the text is GREEN because you chose the better option.</p>","","0","instructions","","","","","","","","","","",""
"learning-instructions","21","247380","0.0-8.0-0.0-0.13","3994","2","10","Male","approach_avoid_spark_v1","""event"",""trial"",""time""
""fullscreenenter"",""1"",""5861""
","
","
","""event"",""trial"",""time""
""fullscreenenter"",""1"",""5861""
","
","","","","","","1641.3000000715256","<p> You will have 3 seconds to make each choice. Try to respond before time runs out! </p><p> You will lose 5 points each time you do not make a response. </p>","","0","instructions","","","","","","","","","","",""
"learning-instructions","22","254979","0.0-8.0-0.0-0.14","3994","2","10","Male","approach_avoid_spark_v1","""event"",""trial"",""time""
""fullscreenenter"",""1"",""5861""
","
","
","""event"",""trial"",""time""
""fullscreenenter"",""1"",""5861""
","
","","","","","","2180.6999999284744","<p> This is just a practice round, but in the real game, your bonus payment will depend on your total number of points.","","0","instructions","","","","","","","","","","",""
"learning-instructions","23","263247","0.0-8.0-0.0-0.15","3994","2","10","Male","approach_avoid_spark_v1","""event"",""trial"",""time""
""fullscreenenter"",""1"",""5861""
","
","
","""event"",""trial"",""time""
""fullscreenenter"",""1"",""5861""
","
","","","","","","2477.2999999523163","<p> Remember, you can give them the equipment by pressing 1 and choose not to give it to them by pressing 0. </p><br><div class=""choice-instructions-grid""> <div class=""choice-option""><img src=""images/approach.png"" class=""choice-option-img"" stage=""instructions"" position=""0"" ><div class=""choice-option-text""> Press ""1."" </div></div><div class=""choice-option""><img src=""images/avoid.png"" class=""choice-option-img"" stage=""instructions"" position=""1"" ><div class=""choice-option-text""> Press ""0."" </div></div>","","0","instructions","","","","","","","","","","",""
"html-button-response","24","266100","0.0-8.0-1.0","3994","2","10","Male","approach_avoid_spark_v1","""event"",""trial"",""time""
""fullscreenenter"",""1"",""5861""
","
","
","""event"",""trial"",""time""
""fullscreenenter"",""1"",""5861""
","
","","","","","","2749.600000023842","<p> Ready to practice? </p>","0","","","","","","","","","","","","",""
"html-keyboard-response","25","266727","0.0-8.0-2.0-0.0","3994","2","10","Male","approach_avoid_spark_v1","""event"",""trial"",""time""
""fullscreenenter"",""1"",""5861""
","
","
","""event"",""trial"",""time""
""fullscreenenter"",""1"",""5861""
","
","","","","","","null","<div style=""font-size:60px;"">+</div>","null","","fixation","","","","","","","","","","",""
"aa-learning-trial","26","269747","0.0-8.0-2.0-1.0","3994","2","10","Male","approach_avoid_spark_v1","""event"",""trial"",""time""
""fullscreenenter"",""1"",""5861""
","
","
","""event"",""trial"",""time""
""fullscreenenter"",""1"",""5861""
","
","","","","","","1138.1000000238419","images/ball1.png","","","learning","-2","-2","1","1","practice","practice","practice","-1","","",""
"html-keyboard-response","27","270254","0.0-8.0-2.0-0.1","3994","2","10","Male","approach_avoid_spark_v1","""event"",""trial"",""time""
""fullscreenenter"",""1"",""5861""
","
","
","""event"",""trial"",""time""
""fullscreenenter"",""1"",""5861""
","
","","","","","","null","<div style=""font-size:60px;"">+</div>","null","","fixation","","","","","","","","","","",""
"aa-learning-trial","28","273277","0.0-8.0-2.0-1.1","3994","2","10","Male","approach_avoid_spark_v1","""event"",""trial"",""time""
""fullscreenenter"",""1"",""5861""
","
","
","""event"",""trial"",""time""
""fullscreenenter"",""1"",""5861""
","
","","","","","","1697.5","images/racket1.png","","","learning","-4","0","0","0","practice","practice","practice","-1","","",""
"html-keyboard-response","29","273786","0.0-8.0-2.0-0.2","3994","2","10","Male","approach_avoid_spark_v1","""event"",""trial"",""time""
""fullscreenenter"",""1"",""5861""
","
","
","""event"",""trial"",""time""
""fullscreenenter"",""1"",""5861""
","
","","","","","","null","<div style=""font-size:60px;"">+</div>","null","","fixation","","","","","","","","","","",""
"aa-learning-trial","30","276797","0.0-8.0-2.0-1.2","3994","2","10","Male","approach_avoid_spark_v1","""event"",""trial"",""time""
""fullscreenenter"",""1"",""5861""
","
","
","""event"",""trial"",""time""
""fullscreenenter"",""1"",""5861""
","
","","","","","","1377.1000000238419","images/racket1.png","","","learning","5","0","0","0","practice","practice","practice","-1","","",""
"html-keyboard-response","31","277327","0.0-8.0-2.0-0.3","3994","2","10","Male","approach_avoid_spark_v1","""event"",""trial"",""time""
""fullscreenenter"",""1"",""5861""
","
","
","""event"",""trial"",""time""
""fullscreenenter"",""1"",""5861""
","
","","","","","","null","<div style=""font-size:60px;"">+</div>","null","","fixation","","","","","","","","","","",""
"aa-learning-trial","32","280357","0.0-8.0-2.0-1.3","3994","2","10","Male","approach_avoid_spark_v1","""event"",""trial"",""time""
""fullscreenenter"",""1"",""5861""
","
","
","""event"",""trial"",""time""
""fullscreenenter"",""1"",""5861""
","
","","","","","","1749.2999999523163","images/ball2.png","","","learning","-8","-8","1","1","practice","practice","practice","-1","","",""
"html-keyboard-response","33","280887","0.0-8.0-2.0-0.4","3994","2","10","Male","approach_avoid_spark_v1","""event"",""trial"",""time""
""fullscreenenter"",""1"",""5861""
","
","
","""event"",""trial"",""time""
""fullscreenenter"",""1"",""5861""
","
","","","","","","null","<div style=""font-size:60px;"">+</div>","null","","fixation","","","","","","","","","","",""
"aa-learning-trial","34","283908","0.0-8.0-2.0-1.4","3994","2","10","Male","approach_avoid_spark_v1","""event"",""trial"",""time""
""fullscreenenter"",""1"",""5861""
","
","
","""event"",""trial"",""time""
""fullscreenenter"",""1"",""5861""
","
","","","","","","1713.7999999523163","images/ball4.png","","","learning","6","0","0","0","practice","practice","practice","-1","","",""
"html-keyboard-response","35","284427","0.0-8.0-2.0-0.5","3994","2","10","Male","approach_avoid_spark_v1","""event"",""trial"",""time""
""fullscreenenter"",""1"",""5861""
","
","
","""event"",""trial"",""time""
""fullscreenenter"",""1"",""5861""
","
","","","","","","null","<div style=""font-size:60px;"">+</div>","null","","fixation","","","","","","","","","","",""
"aa-learning-trial","36","287437","0.0-8.0-2.0-1.5","3994","2","10","Male","approach_avoid_spark_v1","""event"",""trial"",""time""
""fullscreenenter"",""1"",""5861""
","
","
","""event"",""trial"",""time""
""fullscreenenter"",""1"",""5861""
","
","","","","","","1119.2999999523163","images/racket1.png","","","learning","9","9","1","1","practice","practice","practice","-1","","",""
"html-keyboard-response","37","287964","0.0-8.0-2.0-0.6","3994","2","10","Male","approach_avoid_spark_v1","""event"",""trial"",""time""
""fullscreenenter"",""1"",""5861""
","
","
","""event"",""trial"",""time""
""fullscreenenter"",""1"",""5861""
","
","","","","","","null","<div style=""font-size:60px;"">+</div>","null","","fixation","","","","","","","","","","",""
"aa-learning-trial","38","290976","0.0-8.0-2.0-1.6","3994","2","10","Male","approach_avoid_spark_v1","""event"",""trial"",""time""
""fullscreenenter"",""1"",""5861""
","
","
","""event"",""trial"",""time""
""fullscreenenter"",""1"",""5861""
","
","","","","","","973.3999999761581","images/ball4.png","","","learning","-8","-8","1","1","practice","practice","practice","-1","","",""
"html-keyboard-response","39","291486","0.0-8.0-2.0-0.7","3994","2","10","Male","approach_avoid_spark_v1","""event"",""trial"",""time""
""fullscreenenter"",""1"",""5861""
","
","
","""event"",""trial"",""time""
""fullscreenenter"",""1"",""5861""
","
","","","","","","null","<div style=""font-size:60px;"">+</div>","null","","fixation","","","","","","","","","","",""
"aa-learning-trial","40","294510","0.0-8.0-2.0-1.7","3994","2","10","Male","approach_avoid_spark_v1","""event"",""trial"",""time""
""fullscreenenter"",""1"",""5861""
","
","
","""event"",""trial"",""time""
""fullscreenenter"",""1"",""5861""
","
","","","","","","904.1999999284744","images/ball2.png","","","learning","-1","0","0","0","practice","practice","practice","-1","","",""
"html-keyboard-response","41","295024","0.0-8.0-2.0-0.8","3994","2","10","Male","approach_avoid_spark_v1","""event"",""trial"",""time""
""fullscreenenter"",""1"",""5861""
","
","
","""event"",""trial"",""time""
""fullscreenenter"",""1"",""5861""
","
","","","","","","null","<div style=""font-size:60px;"">+</div>","null","","fixation","","","","","","","","","","",""
"aa-learning-trial","42","298047","0.0-8.0-2.0-1.8","3994","2","10","Male","approach_avoid_spark_v1","""event"",""trial"",""time""
""fullscreenenter"",""1"",""5861""
","
","
","""event"",""trial"",""time""
""fullscreenenter"",""1"",""5861""
","
","","","","","","814.5","images/racket1.png","","","learning","-7","-7","1","1","practice","practice","practice","-1","","",""
"html-keyboard-response","43","298556","0.0-8.0-2.0-0.9","3994","2","10","Male","approach_avoid_spark_v1","""event"",""trial"",""time""
""fullscreenenter"",""1"",""5861""
","
","
","""event"",""trial"",""time""
""fullscreenenter"",""1"",""5861""
","
","","","","","","null","<div style=""font-size:60px;"">+</div>","null","","fixation","","","","","","","","","","",""
"aa-learning-trial","44","301563","0.0-8.0-2.0-1.9","3994","2","10","Male","approach_avoid_spark_v1","""event"",""trial"",""time""
""fullscreenenter"",""1"",""5861""
","
","
","""event"",""trial"",""time""
""fullscreenenter"",""1"",""5861""
","
","","","","","","1356.2000000476837","images/racket3.png","","","learning","-7","0","0","0","practice","practice","practice","-1","","",""
"html-keyboard-response","45","302068","0.0-8.0-2.0-0.10","3994","2","10","Male","approach_avoid_spark_v1","""event"",""trial"",""time""
""fullscreenenter"",""1"",""5861""
","
","
","""event"",""trial"",""time""
""fullscreenenter"",""1"",""5861""
","
","","","","","","null","<div style=""font-size:60px;"">+</div>","null","","fixation","","","","","","","","","","",""
"aa-learning-trial","46","305083","0.0-8.0-2.0-1.10","3994","2","10","Male","approach_avoid_spark_v1","""event"",""trial"",""time""
""fullscreenenter"",""1"",""5861""
","
","
","""event"",""trial"",""time""
""fullscreenenter"",""1"",""5861""
","
","","","","","","1067.2999999523163","images/racket4.png","","","learning","3","0","0","0","practice","practice","practice","-1","","",""
"html-keyboard-response","47","305595","0.0-8.0-2.0-0.11","3994","2","10","Male","approach_avoid_spark_v1","""event"",""trial"",""time""
""fullscreenenter"",""1"",""5861""
","
","
","""event"",""trial"",""time""
""fullscreenenter"",""1"",""5861""
","
","","","","","","null","<div style=""font-size:60px;"">+</div>","null","","fixation","","","","","","","","","","",""
"aa-learning-trial","48","308604","0.0-8.0-2.0-1.11","3994","2","10","Male","approach_avoid_spark_v1","""event"",""trial"",""time""
""fullscreenenter"",""1"",""5861""
","
","
","""event"",""trial"",""time""
""fullscreenenter"",""1"",""5861""
","
","","","","","","1056.2999999523163","images/ball2.png","","","learning","1","1","1","1","practice","practice","practice","-1","","",""
"html-button-response","49","312732","0.0-8.0-3.0","3994","2","10","Male","approach_avoid_spark_v1","""event"",""trial"",""time""
""fullscreenenter"",""1"",""5861""
","
","
","""event"",""trial"",""time""
""fullscreenenter"",""1"",""5861""
","
","","","","","","4124.899999976158","<p> You earned -15 points in the practice round! </p>","0","","break","","","","","","","","","","",""
"learning-instructions","50","320824","0.0-8.0-4.0-0.0","3994","2","10","Male","approach_avoid_spark_v1","""event"",""trial"",""time""
""fullscreenenter"",""1"",""5861""
","
","
","""event"",""trial"",""time""
""fullscreenenter"",""1"",""5861""
","
","","","","","","1687.7999999523163","<p> It's almost time to start the real game. </p><p> Before you start, we're going to ask you a few questions about how the game works. </p>","","0","instructions","","","","","","","","","","",""
"preload","51","322406","0.0-8.0-5.0","3994","2","10","Male","approach_avoid_spark_v1","""event"",""trial"",""time""
""fullscreenenter"",""1"",""5861""
","
","
","""event"",""trial"",""time""
""fullscreenenter"",""1"",""5861""
","
","true","false","[]","[]","[]","","","","","","","","","","","","","","","",""
"comp-q","52","329045","0.0-8.0-6.0-0.0","3994","2","10","Male","approach_avoid_spark_v1","""event"",""trial"",""time""
""fullscreenenter"",""1"",""5861""
","
","
","""event"",""trial"",""time""
""fullscreenenter"",""1"",""5861""
","
","","","","","","1638.2999999523163","<p> <b> True or False? </b> </p><p> If you see a number in GREY, that means you earned that many points. </p>","","1","comp_question","","","","","","","","","true","",""
"comp-q","53","339555","0.0-8.0-6.0-1.0","3994","2","10","Male","approach_avoid_spark_v1","""event"",""trial"",""time""
""fullscreenenter"",""1"",""5861""
","
","
","""event"",""trial"",""time""
""fullscreenenter"",""1"",""5861""
","
","","","","","","2128.600000023842","<p><b> That's right! </b> If you see a grey number, it means you earned ZERO points. <br> The grey numbers show the points you WOULD HAVE earned if you had made the other choice. </p>","","0","comp_answer","","","","","","","","","","",""
"comp-q","54","345380","0.0-8.0-7.0-0.0","3994","2","10","Male","approach_avoid_spark_v1","""event"",""trial"",""time""
""fullscreenenter"",""1"",""5861""
","
","
","""event"",""trial"",""time""
""fullscreenenter"",""1"",""5861""
","
","","","","","","1124.1999999284744","<p> <b> True or False? </b> </p><p> You will have as much time as you want to make each choice. </p>","","1","comp_question","","","","","","","","","true","",""
"comp-q","55","350934","0.0-8.0-7.0-1.0","3994","2","10","Male","approach_avoid_spark_v1","""event"",""trial"",""time""
""fullscreenenter"",""1"",""5861""
","
","
","""event"",""trial"",""time""
""fullscreenenter"",""1"",""5861""
","
","","","","","","1498.5","<p> <b> That's right! </b> You will only have 3 seconds to make each choice. </p>","","0","comp_answer","","","","","","","","","","",""
"comp-q","56","356664","0.0-8.0-8.0-0.0","3994","2","10","Male","approach_avoid_spark_v1","""event"",""trial"",""time""
""fullscreenenter"",""1"",""5861""
","
","
","""event"",""trial"",""time""
""fullscreenenter"",""1"",""5861""
","
","","","","","","1058.2999999523163","<p> <b> True or False? </b> </p><p> You should use the '1' and '0' keys to make your choices. </p>","","0","comp_question","","","","","","","","","true","",""
"comp-q","57","366689","0.0-8.0-8.0-1.0","3994","2","10","Male","approach_avoid_spark_v1","""event"",""trial"",""time""
""fullscreenenter"",""1"",""5861""
","
","
","""event"",""trial"",""time""
""fullscreenenter"",""1"",""5861""
","
","","","","","","5402.099999904633","<p> <b> That's right! </b> You should use the '1' and '0' keys to make each choice. </p>","","0","comp_answer","","","","","","","","","","",""
"learning-instructions","58","374528","0.0-8.0-9.0-0.0","3994","2","10","Male","approach_avoid_spark_v1","""event"",""trial"",""time""
""fullscreenenter"",""1"",""5861""
","
","
","""event"",""trial"",""time""
""fullscreenenter"",""1"",""5861""
","
","","","","","","1561.3999999761581","<p> It's now time to start the real game. </p>Do your best, because the points you earn in the next rounds will influence your bonus payment. </p>","","0","instructions","","","","","","","","","","",""
"preload","59","374691","0.0-9.0-0.0","3994","2","10","Male","approach_avoid_spark_v1","""event"",""trial"",""time""
""fullscreenenter"",""1"",""5861""
","
","
","""event"",""trial"",""time""
""fullscreenenter"",""1"",""5861""
","
","true","false","[]","[]","[]","","","","","","","","","","","","","","","",""
"learning-instructions","60","381820","0.0-9.0-1.0-0.0","3994","2","10","Male","approach_avoid_spark_v1","""event"",""trial"",""time""
""fullscreenenter"",""1"",""5861""
","
","
","""event"",""trial"",""time""
""fullscreenenter"",""1"",""5861""
","
","","","","","","1823.7999999523163","<p> Your goal in this round is to take care of lots of farm animals. </p></div>","","0","instructions","","","","","","","","","","",""
"learning-instructions","61","396632","0.0-9.0-1.0-0.1","3994","2","10","Male","approach_avoid_spark_v1","""event"",""trial"",""time""
""fullscreenenter"",""1"",""5861""
","
","
","""event"",""trial"",""time""
""fullscreenenter"",""1"",""5861""
","
","","","","","","3045.6999999284744","<p> Some farm animals are hungry, while other farm animals are already full.  </p><p> On each turn, you will see a farm animal.   </p><p> You need to decide whether to feed it or not.  </p>","","0","instructions","","","","","","","","","","",""
"learning-instructions","62","403254","0.0-9.0-1.0-0.2","3994","2","10","Male","approach_avoid_spark_v1","""event"",""trial"",""time""
""fullscreenenter"",""1"",""5861""
","
","
","""event"",""trial"",""time""
""fullscreenenter"",""1"",""5861""
","
","","","","","","477.2000000476837","<p> You can feed the farm animal by pressing 1 and leave the farm animal alone by pressing 0. </p><br><div class=""choice-instructions-grid""> <div class=""choice-option""><img src=""images/approach.png"" class=""choice-option-img"" stage=""instructions"" position=""0"" ><div class=""choice-option-text""> Press ""1."" </div></div><div class=""choice-option""><img src=""images/avoid.png"" class=""choice-option-img"" stage=""instructions"" position=""1"" ><div class=""choice-option-text""> Press ""0."" </div></div>","","0","instructions","","","","","","","","","","",""
"learning-instructions","63","417215","0.0-9.0-1.0-0.3","3994","2","10","Male","approach_avoid_spark_v1","""event"",""trial"",""time""
""fullscreenenter"",""1"",""5861""
","
","
","""event"",""trial"",""time""
""fullscreenenter"",""1"",""5861""
","
","","","","","","3758.2999999523163","<p> If you feed a hungry farm animal, you will make it feel satisfied! </p><p> But if you feed the farm animal and it was already full, you will make it feel sick. </p>","","0","instructions","","","","","","","","","","",""
"learning-instructions","64","431775","0.0-9.0-1.0-0.4","3994","2","10","Male","approach_avoid_spark_v1","""event"",""trial"",""time""
""fullscreenenter"",""1"",""5861""
","
","
","""event"",""trial"",""time""
""fullscreenenter"",""1"",""5861""
","
","","","","","","1148.7999999523163","<p> You will earn points based on how you made the farm animal feel. </p><p> If you made it satisfied, you will WIN anywhere from 1 - 9 points, </p><p> but if you made it sick, you will LOSE anywhere from 1 - 9 points. </p>","","0","instructions","","","","","","","","","","",""
"learning-instructions","65","441950","0.0-9.0-1.0-0.5","3994","2","10","Male","approach_avoid_spark_v1","""event"",""trial"",""time""
""fullscreenenter"",""1"",""5861""
","
","
","""event"",""trial"",""time""
""fullscreenenter"",""1"",""5861""
","
","","","","","","2242.899999976158","<p> You will see how many points you won or lost in the center of the screen. </p><p> Here is what you would see if you won 5 points: </p><p style=""color:green;font-size:50px;font-weight:bolder"">5</p>","","0","instructions","","","","","","","","","","",""
"learning-instructions","66","446253","0.0-9.0-1.0-0.6","3994","2","10","Male","approach_avoid_spark_v1","""event"",""trial"",""time""
""fullscreenenter"",""1"",""5861""
","
","
","""event"",""trial"",""time""
""fullscreenenter"",""1"",""5861""
","
","","","","","","496.39999997615814","<p> And here is what you would see if you lost 3 points: </p><p style=""color:red;font-size:50px;font-weight:bolder"">-3</p>","","0","instructions","","","","","","","","","","",""
"learning-instructions","67","463856","0.0-9.0-1.0-0.7","3994","2","10","Male","approach_avoid_spark_v1","""event"",""trial"",""time""
""fullscreenenter"",""1"",""5861""
","
","
","""event"",""trial"",""time""
""fullscreenenter"",""1"",""5861""
","
","","","","","","729.3999999761581","<p> Some farm animals will become very satisfied or very sick. </p><p> These farm animals will make you win or lose LOTS of points. </p><p> Other farm animals have less strong feelings. </p><p> These farm animals will make you win or lose small amounts of points. </p>","","0","instructions","","","","","","","","","","",""
"learning-instructions","68","478056","0.0-9.0-1.0-0.8","3994","2","10","Male","approach_avoid_spark_v1","""event"",""trial"",""time""
""fullscreenenter"",""1"",""5861""
","
","
","""event"",""trial"",""time""
""fullscreenenter"",""1"",""5861""
","
","","","","","","539.2999999523163","<p> If you choose to leave the farm animal alone, you will not win or lose any points. </p><p>  However, in the center of the screen, you will see the number of points you WOULD HAVE won or lost if you had fed the farm animal. </p>","","0","instructions","","","","","","","","","","",""
"learning-instructions","69","491095","0.0-9.0-1.0-0.9","3994","2","10","Male","approach_avoid_spark_v1","""event"",""trial"",""time""
""fullscreenenter"",""1"",""5861""
","
","
","""event"",""trial"",""time""
""fullscreenenter"",""1"",""5861""
","
","","","","","","907.6000000238419","<p> Here is what you might see if you did not feed the farm animal but the animal was hungry: </p><p style=""color:grey; font-size:50px; display: inline-block; border-spacing: 15px; border-width:3px; border-style:solid; border-color:red"">  &nbsp; 6 &nbsp; </p><p> Remember, in this case, you would not win or lose ANY points because you did not feed the farm animal.  </p>","","0","instructions","","","","","","","","","","",""
"learning-instructions","70","501769","0.0-9.0-1.0-0.10","3994","2","10","Male","approach_avoid_spark_v1","""event"",""trial"",""time""
""fullscreenenter"",""1"",""5861""
","
","
","""event"",""trial"",""time""
""fullscreenenter"",""1"",""5861""
","
","","","","","","2321.600000023842","<p> Try to make the best choice for each farm animal because </p><p> at the end of the game, you will earn bonus money based on how many points you earned. </p>","","0","instructions","","","","","","","","","","",""
"learning-instructions","71","511205","0.0-9.0-1.0-0.11","3994","2","10","Male","approach_avoid_spark_v1","""event"",""trial"",""time""
""fullscreenenter"",""1"",""5861""
","
","
","""event"",""trial"",""time""
""fullscreenenter"",""1"",""5861""
","
","","","","","","1228.6000000238419","<p> You will have 3 seconds to make each choice. Try to respond before time runs out! </p><p> You will lose 5 points each time you do not make a response. </p>","","0","instructions","","","","","","","","","","",""
"html-keyboard-response","72","511834","0.0-9.0-2.0-0.0","3994","2","10","Male","approach_avoid_spark_v1","""event"",""trial"",""time""
""fullscreenenter"",""1"",""5861""
","
","
","""event"",""trial"",""time""
""fullscreenenter"",""1"",""5861""
","
","","","","","","null","<div style=""font-size:60px;"">+</div>","null","","fixation","","","","","","","","","","",""
"aa-learning-trial","73","514845","0.0-9.0-2.0-1.0","3994","2","10","Male","approach_avoid_spark_v1","""event"",""trial"",""time""
""fullscreenenter"",""1"",""5861""
","
","
","""event"",""trial"",""time""
""fullscreenenter"",""1"",""5861""
","
","","","","","","1065","images/cow1.png","","","learning","6","-5","`","","cow","animals","2","0","","good","[3]"
"html-keyboard-response","74","515354","0.0-9.0-2.0-0.1","3994","2","10","Male","approach_avoid_spark_v1","""event"",""trial"",""time""
""fullscreenenter"",""1"",""5861""
","
","
","""event"",""trial"",""time""
""fullscreenenter"",""1"",""5861""
","
","","","","","","null","<div style=""font-size:60px;"">+</div>","null","","fixation","","","","","","","","","","",""
"aa-learning-trial","75","518365","0.0-9.0-2.0-1.1","3994","2","10","Male","approach_avoid_spark_v1","""event"",""trial"",""time""
""fullscreenenter"",""1"",""5861""
","
","
","""event"",""trial"",""time""
""fullscreenenter"",""1"",""5861""
","
","","","","","","1390.1000000238419","images/horse7.png","","","learning","-3","-3","1","1","horse","animals","2","0","","neutral","0"
"html-keyboard-response","76","518885","0.0-9.0-2.0-0.2","3994","2","10","Male","approach_avoid_spark_v1","""event"",""trial"",""time""
""fullscreenenter"",""1"",""5861""
","
","
","""event"",""trial"",""time""
""fullscreenenter"",""1"",""5861""
","
","","","","","","null","<div style=""font-size:60px;"">+</div>","null","","fixation","","","","","","","","","","",""
"aa-learning-trial","77","521895","0.0-9.0-2.0-1.2","3994","2","10","Male","approach_avoid_spark_v1","""event"",""trial"",""time""
""fullscreenenter"",""1"",""5861""
","
","
","""event"",""trial"",""time""
""fullscreenenter"",""1"",""5861""
","
","","","","","","1344.5","images/horse3.png","","","learning","9","0","0","0","horse","animals","2","0","","neutral","0"
"html-keyboard-response","78","522409","0.0-9.0-2.0-0.3","3994","2","10","Male","approach_avoid_spark_v1","""event"",""trial"",""time""
""fullscreenenter"",""1"",""5861""
","
","
","""event"",""trial"",""time""
""fullscreenenter"",""1"",""5861""
","
","","","","","","null","<div style=""font-size:60px;"">+</div>","null","","fixation","","","","","","","","","","",""
"aa-learning-trial","79","525419","0.0-9.0-2.0-1.3","3994","2","10","Male","approach_avoid_spark_v1","""event"",""trial"",""time""
""fullscreenenter"",""1"",""5861""
","
","
","""event"",""trial"",""time""
""fullscreenenter"",""1"",""5861""
","
","","","","","","1573.2999999523163","images/cow1.png","","","learning","6","6","1","1","cow","animals","2","0","","good","[3]"
"html-keyboard-response","80","525925","0.0-9.0-2.0-0.4","3994","2","10","Male","approach_avoid_spark_v1","""event"",""trial"",""time""
""fullscreenenter"",""1"",""5861""
","
","
","""event"",""trial"",""time""
""fullscreenenter"",""1"",""5861""
","
","","","","","","null","<div style=""font-size:60px;"">+</div>","null","","fixation","","","","","","","","","","",""
"aa-learning-trial","81","528935","0.0-9.0-2.0-1.4","3994","2","10","Male","approach_avoid_spark_v1","""event"",""trial"",""time""
""fullscreenenter"",""1"",""5861""
","
","
","""event"",""trial"",""time""
""fullscreenenter"",""1"",""5861""
","
","","","","","","949.8999999761581","images/sheep2.png","","","learning","-4","0","0","0","sheep","animals","2","0","","bad","[-6]"
"html-keyboard-response","82","529454","0.0-9.0-2.0-0.5","3994","2","10","Male","approach_avoid_spark_v1","""event"",""trial"",""time""
""fullscreenenter"",""1"",""5861""
","
","
","""event"",""trial"",""time""
""fullscreenenter"",""1"",""5861""
","
","","","","","","null","<div style=""font-size:60px;"">+</div>","null","","fixation","","","","","","","","","","",""
"aa-learning-trial","83","532465","0.0-9.0-2.0-1.5","3994","2","10","Male","approach_avoid_spark_v1","""event"",""trial"",""time""
""fullscreenenter"",""1"",""5861""
","
","
","""event"",""trial"",""time""
""fullscreenenter"",""1"",""5861""
","
","","","","","","1347.1000000238419","images/cow7.png","","","learning","3","0","0","0","cow","animals","2","0","","good","[3]"
"html-keyboard-response","84","532974","0.0-9.0-2.0-0.6","3994","2","10","Male","approach_avoid_spark_v1","""event"",""trial"",""time""
""fullscreenenter"",""1"",""5861""
","
","
","""event"",""trial"",""time""
""fullscreenenter"",""1"",""5861""
","
","","","","","","null","<div style=""font-size:60px;"">+</div>","null","","fixation","","","","","","","","","","",""
"aa-learning-trial","85","535989","0.0-9.0-2.0-1.6","3994","2","10","Male","approach_avoid_spark_v1","""event"",""trial"",""time""
""fullscreenenter"",""1"",""5861""
","
","
","""event"",""trial"",""time""
""fullscreenenter"",""1"",""5861""
","
","","","","","","1009.1000000238419","images/cow6.png","","","learning","-8","-8","1","1","cow","animals","2","0","","good","[3]"
"html-keyboard-response","86","536495","0.0-9.0-2.0-0.7","3994","2","10","Male","approach_avoid_spark_v1","""event"",""trial"",""time""
""fullscreenenter"",""1"",""5861""
","
","
","""event"",""trial"",""time""
""fullscreenenter"",""1"",""5861""
","
","","","","","","null","<div style=""font-size:60px;"">+</div>","null","","fixation","","","","","","","","","","",""
"aa-learning-trial","87","539524","0.0-9.0-2.0-1.7","3994","2","10","Male","approach_avoid_spark_v1","""event"",""trial"",""time""
""fullscreenenter"",""1"",""5861""
","
","
","""event"",""trial"",""time""
""fullscreenenter"",""1"",""5861""
","
","","","","","","1347.6000000238419","images/sheep5.png","","","learning","-7","-7","1","1","sheep","animals","2","0","","bad","[-6]"
"html-keyboard-response","88","540035","0.0-9.0-2.0-0.8","3994","2","10","Male","approach_avoid_spark_v1","""event"",""trial"",""time""
""fullscreenenter"",""1"",""5861""
","
","
","""event"",""trial"",""time""
""fullscreenenter"",""1"",""5861""
","
","","","","","","null","<div style=""font-size:60px;"">+</div>","null","","fixation","","","","","","","","","","",""
"aa-learning-trial","89","543045","0.0-9.0-2.0-1.8","3994","2","10","Male","approach_avoid_spark_v1","""event"",""trial"",""time""
""fullscreenenter"",""1"",""5861""
","
","
","""event"",""trial"",""time""
""fullscreenenter"",""1"",""5861""
","
","","","","","","1061.3999999761581","images/sheep3.png","","","learning","8","0","0","0","sheep","animals","2","0","","bad","[-6]"
"html-keyboard-response","90","543553","0.0-9.0-2.0-0.9","3994","2","10","Male","approach_avoid_spark_v1","""event"",""trial"",""time""
""fullscreenenter"",""1"",""5861""
","
","
","""event"",""trial"",""time""
""fullscreenenter"",""1"",""5861""
","
","","","","","","null","<div style=""font-size:60px;"">+</div>","null","","fixation","","","","","","","","","","",""
"aa-learning-trial","91","546564","0.0-9.0-2.0-1.9","3994","2","10","Male","approach_avoid_spark_v1","""event"",""trial"",""time""
""fullscreenenter"",""1"",""5861""
","
","
","""event"",""trial"",""time""
""fullscreenenter"",""1"",""5861""
","
","","","","","","1089.1000000238419","images/sheep3.png","","","learning","8","0","0","0","sheep","animals","2","0","","bad","[-6]"
"html-keyboard-response","92","547080","0.0-9.0-2.0-0.10","3994","2","10","Male","approach_avoid_spark_v1","""event"",""trial"",""time""
""fullscreenenter"",""1"",""5861""
","
","
","""event"",""trial"",""time""
""fullscreenenter"",""1"",""5861""
","
","","","","","","null","<div style=""font-size:60px;"">+</div>","null","","fixation","","","","","","","","","","",""
"aa-learning-trial","93","550098","0.0-9.0-2.0-1.10","3994","2","10","Male","approach_avoid_spark_v1","""event"",""trial"",""time""
""fullscreenenter"",""1"",""5861""
","
","
","""event"",""trial"",""time""
""fullscreenenter"",""1"",""5861""
","
","","","","","","1753.3999999761581","images/cow7.png","","","learning","3","0","0","0","cow","animals","2","0","","good","[3]"
"html-keyboard-response","94","550604","0.0-9.0-2.0-0.11","3994","2","10","Male","approach_avoid_spark_v1","""event"",""trial"",""time""
""fullscreenenter"",""1"",""5861""
","
","
","""event"",""trial"",""time""
""fullscreenenter"",""1"",""5861""
","
","","","","","","null","<div style=""font-size:60px;"">+</div>","null","","fixation","","","","","","","","","","",""
"aa-learning-trial","95","553617","0.0-9.0-2.0-1.11","3994","2","10","Male","approach_avoid_spark_v1","""event"",""trial"",""time""
""fullscreenenter"",""1"",""5861""
","
","
","""event"",""trial"",""time""
""fullscreenenter"",""1"",""5861""
","
","","","","","","825.8000000715256","images/horse5.png","","","learning","1","1","1","1","horse","animals","2","0","","neutral","0"
"html-keyboard-response","96","554139","0.0-9.0-2.0-0.12","3994","2","10","Male","approach_avoid_spark_v1","""event"",""trial"",""time""
""fullscreenenter"",""1"",""5861""
","
","
","""event"",""trial"",""time""
""fullscreenenter"",""1"",""5861""
","
","","","","","","null","<div style=""font-size:60px;"">+</div>","null","","fixation","","","","","","","","","","",""
"aa-learning-trial","97","557151","0.0-9.0-2.0-1.12","3994","2","10","Male","approach_avoid_spark_v1","""event"",""trial"",""time""
""fullscreenenter"",""1"",""5861""
","
","
","""event"",""trial"",""time""
""fullscreenenter"",""1"",""5861""
","
","","","","","","958","images/horse7.png","","","learning","-3","0","0","0","horse","animals","2","0","","neutral","0"
"html-keyboard-response","98","557659","0.0-9.0-2.0-0.13","3994","2","10","Male","approach_avoid_spark_v1","""event"",""trial"",""time""
""fullscreenenter"",""1"",""5861""
","
","
","""event"",""trial"",""time""
""fullscreenenter"",""1"",""5861""
","
","","","","","","null","<div style=""font-size:60px;"">+</div>","null","","fixation","","","","","","","","","","",""
"aa-learning-trial","99","560673","0.0-9.0-2.0-1.13","3994","2","10","Male","approach_avoid_spark_v1","""event"",""trial"",""time""
""fullscreenenter"",""1"",""5861""
","
","
","""event"",""trial"",""time""
""fullscreenenter"",""1"",""5861""
","
","","","","","","624.2999999523163","images/sheep2.png","","","learning","-4","0","0","0","sheep","animals","2","0","","bad","[-6]"
"html-keyboard-response","100","561179","0.0-9.0-2.0-0.14","3994","2","10","Male","approach_avoid_spark_v1","""event"",""trial"",""time""
""fullscreenenter"",""1"",""5861""
","
","
","""event"",""trial"",""time""
""fullscreenenter"",""1"",""5861""
","
","","","","","","null","<div style=""font-size:60px;"">+</div>","null","","fixation","","","","","","","","","","",""
"aa-learning-trial","101","564195","0.0-9.0-2.0-1.14","3994","2","10","Male","approach_avoid_spark_v1","""event"",""trial"",""time""
""fullscreenenter"",""1"",""5861""
","
","
","""event"",""trial"",""time""
""fullscreenenter"",""1"",""5861""
","
","","","","","","548.2000000476837","images/horse5.png","","","learning","1","1","1","1","horse","animals","2","0","","neutral","0"
"html-keyboard-response","102","564702","0.0-9.0-2.0-0.15","3994","2","10","Male","approach_avoid_spark_v1","""event"",""trial"",""time""
""fullscreenenter"",""1"",""5861""
","
","
","""event"",""trial"",""time""
""fullscreenenter"",""1"",""5861""
","
","","","","","","null","<div style=""font-size:60px;"">+</div>","null","","fixation","","","","","","","","","","",""
"aa-learning-trial","103","567712","0.0-9.0-2.0-1.15","3994","2","10","Male","approach_avoid_spark_v1","""event"",""trial"",""time""
""fullscreenenter"",""1"",""5861""
","
","
","""event"",""trial"",""time""
""fullscreenenter"",""1"",""5861""
","
","","","","","","1014.6000000238419","images/cow1.png","","","learning","6","6","1","1","cow","animals","2","0","","good","[3]"
"html-keyboard-response","104","568238","0.0-9.0-2.0-0.16","3994","2","10","Male","approach_avoid_spark_v1","""event"",""trial"",""time""
""fullscreenenter"",""1"",""5861""
","
","
","""event"",""trial"",""time""
""fullscreenenter"",""1"",""5861""
","
","","","","","","null","<div style=""font-size:60px;"">+</div>","null","","fixation","","","","","","","","","","",""
"aa-learning-trial","105","571253","0.0-9.0-2.0-1.16","3994","2","10","Male","approach_avoid_spark_v1","""event"",""trial"",""time""
""fullscreenenter"",""1"",""5861""
","
","
","""event"",""trial"",""time""
""fullscreenenter"",""1"",""5861""
","
","","","","","","1071.3000000715256","images/horse4.png","","","learning","-9","0","0","0","horse","animals","2","0","","neutral","0"
"html-keyboard-response","106","571775","0.0-9.0-2.0-0.17","3994","2","10","Male","approach_avoid_spark_v1","""event"",""trial"",""time""
""fullscreenenter"",""1"",""5861""
","
","
","""event"",""trial"",""time""
""fullscreenenter"",""1"",""5861""
","
","","","","","","null","<div style=""font-size:60px;"">+</div>","null","","fixation","","","","","","","","","","",""
"aa-learning-trial","107","574789","0.0-9.0-2.0-1.17","3994","2","10","Male","approach_avoid_spark_v1","""event"",""trial"",""time""
""fullscreenenter"",""1"",""5861""
","
","
","""event"",""trial"",""time""
""fullscreenenter"",""1"",""5861""
","
","","","","","","745.2999999523163","images/sheep3.png","","","learning","8","0","0","0","sheep","animals","2","0","","bad","[-6]"
"html-keyboard-response","108","575310","0.0-9.0-2.0-0.18","3994","2","10","Male","approach_avoid_spark_v1","""event"",""trial"",""time""
""fullscreenenter"",""1"",""5861""
","
","
","""event"",""trial"",""time""
""fullscreenenter"",""1"",""5861""
","
","","","","","","null","<div style=""font-size:60px;"">+</div>","null","","fixation","","","","","","","","","","",""
"aa-learning-trial","109","578319","0.0-9.0-2.0-1.18","3994","2","10","Male","approach_avoid_spark_v1","""event"",""trial"",""time""
""fullscreenenter"",""1"",""5861""
","
","
","""event"",""trial"",""time""
""fullscreenenter"",""1"",""5861""
","
","","","","","","1501.8000000715256","images/cow6.png","","","learning","-8","0","0","0","cow","animals","2","0","","good","[3]"
"html-keyboard-response","110","578832","0.0-9.0-2.0-0.19","3994","2","10","Male","approach_avoid_spark_v1","""event"",""trial"",""time""
""fullscreenenter"",""1"",""5861""
","
","
","""event"",""trial"",""time""
""fullscreenenter"",""1"",""5861""
","
","","","","","","null","<div style=""font-size:60px;"">+</div>","null","","fixation","","","","","","","","","","",""
"aa-learning-trial","111","581847","0.0-9.0-2.0-1.19","3994","2","10","Male","approach_avoid_spark_v1","""event"",""trial"",""time""
""fullscreenenter"",""1"",""5861""
","
","
","""event"",""trial"",""time""
""fullscreenenter"",""1"",""5861""
","
","","","","","","767.2000000476837","images/horse5.png","","","learning","1","1","1","1","horse","animals","2","0","","neutral","0"
"html-keyboard-response","112","582367","0.0-9.0-2.0-0.20","3994","2","10","Male","approach_avoid_spark_v1","""event"",""trial"",""time""
""fullscreenenter"",""1"",""5861""
","
","
","""event"",""trial"",""time""
""fullscreenenter"",""1"",""5861""
","
","","","","","","null","<div style=""font-size:60px;"">+</div>","null","","fixation","","","","","","","","","","",""
"aa-learning-trial","113","585381","0.0-9.0-2.0-1.20","3994","2","10","Male","approach_avoid_spark_v1","""event"",""trial"",""time""
""fullscreenenter"",""1"",""5861""
","
","
","""event"",""trial"",""time""
""fullscreenenter"",""1"",""5861""
","
","","","","","","1364.5","images/cow8.png","","","learning","-5","-5","1","1","cow","animals","2","0","","good","[3]"
"html-keyboard-response","114","585894","0.0-9.0-2.0-0.21","3994","2","10","Male","approach_avoid_spark_v1","""event"",""trial"",""time""
""fullscreenenter"",""1"",""5861""
","
","
","""event"",""trial"",""time""
""fullscreenenter"",""1"",""5861""
","
","","","","","","null","<div style=""font-size:60px;"">+</div>","null","","fixation","","","","","","","","","","",""
"aa-learning-trial","115","588913","0.0-9.0-2.0-1.21","3994","2","10","Male","approach_avoid_spark_v1","""event"",""trial"",""time""
""fullscreenenter"",""1"",""5861""
","
","
","""event"",""trial"",""time""
""fullscreenenter"",""1"",""5861""
","
","","","","","","1411.7000000476837","images/cow7.png","","","learning","3","0","0","0","cow","animals","2","0","","good","[3]"
"html-keyboard-response","116","589420","0.0-9.0-2.0-0.22","3994","2","10","Male","approach_avoid_spark_v1","""event"",""trial"",""time""
""fullscreenenter"",""1"",""5861""
","
","
","""event"",""trial"",""time""
""fullscreenenter"",""1"",""5861""
","
","","","","","","null","<div style=""font-size:60px;"">+</div>","null","","fixation","","","","","","","","","","",""
"aa-learning-trial","117","592442","0.0-9.0-2.0-1.22","3994","2","10","Male","approach_avoid_spark_v1","""event"",""trial"",""time""
""fullscreenenter"",""1"",""5861""
","
","
","""event"",""trial"",""time""
""fullscreenenter"",""1"",""5861""
","
","","","","","","717.5","images/horse5.png","","","learning","1","1","1","1","horse","animals","2","0","","neutral","0"
"html-keyboard-response","118","592960","0.0-9.0-2.0-0.23","3994","2","10","Male","approach_avoid_spark_v1","""event"",""trial"",""time""
""fullscreenenter"",""1"",""5861""
","
","
","""event"",""trial"",""time""
""fullscreenenter"",""1"",""5861""
","
","","","","","","null","<div style=""font-size:60px;"">+</div>","null","","fixation","","","","","","","","","","",""
"aa-learning-trial","119","595971","0.0-9.0-2.0-1.23","3994","2","10","Male","approach_avoid_spark_v1","""event"",""trial"",""time""
""fullscreenenter"",""1"",""5861""
","
","
","""event"",""trial"",""time""
""fullscreenenter"",""1"",""5861""
","
","","","","","","1361.5","images/cow7.png","","","learning","3","0","0","0","cow","animals","2","0","","good","[3]"
"html-keyboard-response","120","596483","0.0-9.0-2.0-0.24","3994","2","10","Male","approach_avoid_spark_v1","""event"",""trial"",""time""
""fullscreenenter"",""1"",""5861""
","
","
","""event"",""trial"",""time""
""fullscreenenter"",""1"",""5861""
","
","","","","","","null","<div style=""font-size:60px;"">+</div>","null","","fixation","","","","","","","","","","",""
"aa-learning-trial","121","599494","0.0-9.0-2.0-1.24","3994","2","10","Male","approach_avoid_spark_v1","""event"",""trial"",""time""
""fullscreenenter"",""1"",""5861""
","
","
","""event"",""trial"",""time""
""fullscreenenter"",""1"",""5861""
","
","","","","","","696.3000000715256","images/sheep5.png","","","learning","-7","-7","1","1","sheep","animals","2","0","","bad","[-6]"
"html-keyboard-response","122","600007","0.0-9.0-2.0-0.25","3994","2","10","Male","approach_avoid_spark_v1","""event"",""trial"",""time""
""fullscreenenter"",""1"",""5861""
","
","
","""event"",""trial"",""time""
""fullscreenenter"",""1"",""5861""
","
","","","","","","null","<div style=""font-size:60px;"">+</div>","null","","fixation","","","","","","","","","","",""
"aa-learning-trial","123","603025","0.0-9.0-2.0-1.25","3994","2","10","Male","approach_avoid_spark_v1","""event"",""trial"",""time""
""fullscreenenter"",""1"",""5861""
","
","
","""event"",""trial"",""time""
""fullscreenenter"",""1"",""5861""
","
","","","","","","1332.1000000238419","images/sheep2.png","","","learning","-4","0","0","0","sheep","animals","2","0","","bad","[-6]"
"html-keyboard-response","124","603539","0.0-9.0-2.0-0.26","3994","2","10","Male","approach_avoid_spark_v1","""event"",""trial"",""time""
""fullscreenenter"",""1"",""5861""
","
","
","""event"",""trial"",""time""
""fullscreenenter"",""1"",""5861""
","
","","","","","","null","<div style=""font-size:60px;"">+</div>","null","","fixation","","","","","","","","","","",""
"aa-learning-trial","125","606555","0.0-9.0-2.0-1.26","3994","2","10","Male","approach_avoid_spark_v1","""event"",""trial"",""time""
""fullscreenenter"",""1"",""5861""
","
","
","""event"",""trial"",""time""
""fullscreenenter"",""1"",""5861""
","
","","","","","","1215.7999999523163","images/horse3.png","","","learning","9","0","0","0","horse","animals","2","0","","neutral","0"
"html-keyboard-response","126","607060","0.0-9.0-2.0-0.27","3994","2","10","Male","approach_avoid_spark_v1","""event"",""trial"",""time""
""fullscreenenter"",""1"",""5861""
","
","
","""event"",""trial"",""time""
""fullscreenenter"",""1"",""5861""
","
","","","","","","null","<div style=""font-size:60px;"">+</div>","null","","fixation","","","","","","","","","","",""
"aa-learning-trial","127","610075","0.0-9.0-2.0-1.27","3994","2","10","Male","approach_avoid_spark_v1","""event"",""trial"",""time""
""fullscreenenter"",""1"",""5861""
","
","
","""event"",""trial"",""time""
""fullscreenenter"",""1"",""5861""
","
","","","","","","1424.7999999523163","images/horse5.png","","","learning","1","1","1","1","horse","animals","2","0","","neutral","0"
"html-keyboard-response","128","610583","0.0-9.0-2.0-0.28","3994","2","10","Male","approach_avoid_spark_v1","""event"",""trial"",""time""
""fullscreenenter"",""1"",""5861""
","
","
","""event"",""trial"",""time""
""fullscreenenter"",""1"",""5861""
","
","","","","","","null","<div style=""font-size:60px;"">+</div>","null","","fixation","","","","","","","","","","",""
"aa-learning-trial","129","613595","0.0-9.0-2.0-1.28","3994","2","10","Male","approach_avoid_spark_v1","""event"",""trial"",""time""
""fullscreenenter"",""1"",""5861""
","
","
","""event"",""trial"",""time""
""fullscreenenter"",""1"",""5861""
","
","","","","","","899","images/cow1.png","","","learning","6","6","1","1","cow","animals","2","0","","good","[3]"
"html-keyboard-response","130","614104","0.0-9.0-2.0-0.29","3994","2","10","Male","approach_avoid_spark_v1","""event"",""trial"",""time""
""fullscreenenter"",""1"",""5861""
","
","
","""event"",""trial"",""time""
""fullscreenenter"",""1"",""5861""
","
","","","","","","null","<div style=""font-size:60px;"">+</div>","null","","fixation","","","","","","","","","","",""
"aa-learning-trial","131","617118","0.0-9.0-2.0-1.29","3994","2","10","Male","approach_avoid_spark_v1","""event"",""trial"",""time""
""fullscreenenter"",""1"",""5861""
","
","
","""event"",""trial"",""time""
""fullscreenenter"",""1"",""5861""
","
","","","","","","1126","images/horse7.png","","","learning","-3","-3","1","1","horse","animals","2","0","","neutral","0"
"html-keyboard-response","132","617636","0.0-9.0-2.0-0.30","3994","2","10","Male","approach_avoid_spark_v1","""event"",""trial"",""time""
""fullscreenenter"",""1"",""5861""
","
","
","""event"",""trial"",""time""
""fullscreenenter"",""1"",""5861""
","
","","","","","","null","<div style=""font-size:60px;"">+</div>","null","","fixation","","","","","","","","","","",""
"aa-learning-trial","133","620650","0.0-9.0-2.0-1.30","3994","2","10","Male","approach_avoid_spark_v1","""event"",""trial"",""time""
""fullscreenenter"",""1"",""5861""
","
","
","""event"",""trial"",""time""
""fullscreenenter"",""1"",""5861""
","
","","","","","","993.7999999523163","images/horse7.png","","","learning","-3","0","0","0","horse","animals","2","0","","neutral","0"
"html-keyboard-response","134","621155","0.0-9.0-2.0-0.31","3994","2","10","Male","approach_avoid_spark_v1","""event"",""trial"",""time""
""fullscreenenter"",""1"",""5861""
","
","
","""event"",""trial"",""time""
""fullscreenenter"",""1"",""5861""
","
","","","","","","null","<div style=""font-size:60px;"">+</div>","null","","fixation","","","","","","","","","","",""
"aa-learning-trial","135","624170","0.0-9.0-2.0-1.31","3994","2","10","Male","approach_avoid_spark_v1","""event"",""trial"",""time""
""fullscreenenter"",""1"",""5861""
","
","
","""event"",""trial"",""time""
""fullscreenenter"",""1"",""5861""
","
","","","","","","754.5","images/horse7.png","","","learning","-3","0","0","0","horse","animals","2","0","","neutral","0"
"html-keyboard-response","136","624682","0.0-9.0-2.0-0.32","3994","2","10","Male","approach_avoid_spark_v1","""event"",""trial"",""time""
""fullscreenenter"",""1"",""5861""
","
","
","""event"",""trial"",""time""
""fullscreenenter"",""1"",""5861""
","
","","","","","","null","<div style=""font-size:60px;"">+</div>","null","","fixation","","","","","","","","","","",""
"aa-learning-trial","137","627691","0.0-9.0-2.0-1.32","3994","2","10","Male","approach_avoid_spark_v1","""event"",""trial"",""time""
""fullscreenenter"",""1"",""5861""
","
","
","""event"",""trial"",""time""
""fullscreenenter"",""1"",""5861""
","
","","","","","","1007.1999999284744","images/sheep8.png","","","learning","2","2","1","1","sheep","animals","2","0","","bad","[-6]"
"html-keyboard-response","138","628196","0.0-9.0-2.0-0.33","3994","2","10","Male","approach_avoid_spark_v1","""event"",""trial"",""time""
""fullscreenenter"",""1"",""5861""
","
","
","""event"",""trial"",""time""
""fullscreenenter"",""1"",""5861""
","
","","","","","","null","<div style=""font-size:60px;"">+</div>","null","","fixation","","","","","","","","","","",""
"aa-learning-trial","139","631212","0.0-9.0-2.0-1.33","3994","2","10","Male","approach_avoid_spark_v1","""event"",""trial"",""time""
""fullscreenenter"",""1"",""5861""
","
","
","""event"",""trial"",""time""
""fullscreenenter"",""1"",""5861""
","
","","","","","","674.2000000476837","images/sheep4.png","","","learning","5","5","1","1","sheep","animals","2","0","","bad","[-6]"
"html-keyboard-response","140","631717","0.0-9.0-2.0-0.34","3994","2","10","Male","approach_avoid_spark_v1","""event"",""trial"",""time""
""fullscreenenter"",""1"",""5861""
","
","
","""event"",""trial"",""time""
""fullscreenenter"",""1"",""5861""
","
","","","","","","null","<div style=""font-size:60px;"">+</div>","null","","fixation","","","","","","","","","","",""
"aa-learning-trial","141","634732","0.0-9.0-2.0-1.34","3994","2","10","Male","approach_avoid_spark_v1","""event"",""trial"",""time""
""fullscreenenter"",""1"",""5861""
","
","
","""event"",""trial"",""time""
""fullscreenenter"",""1"",""5861""
","
","","","","","","596.0999999046326","images/sheep2.png","","","learning","-4","-4","1","1","sheep","animals","2","0","","bad","[-6]"
"html-keyboard-response","142","635236","0.0-9.0-2.0-0.35","3994","2","10","Male","approach_avoid_spark_v1","""event"",""trial"",""time""
""fullscreenenter"",""1"",""5861""
","
","
","""event"",""trial"",""time""
""fullscreenenter"",""1"",""5861""
","
","","","","","","null","<div style=""font-size:60px;"">+</div>","null","","fixation","","","","","","","","","","",""
"aa-learning-trial","143","638253","0.0-9.0-2.0-1.35","3994","2","10","Male","approach_avoid_spark_v1","""event"",""trial"",""time""
""fullscreenenter"",""1"",""5861""
","
","
","""event"",""trial"",""time""
""fullscreenenter"",""1"",""5861""
","
","","","","","","722.5","images/horse5.png","","","learning","1","1","1","1","horse","animals","2","0","","neutral","0"
"html-keyboard-response","144","638766","0.0-9.0-2.0-0.36","3994","2","10","Male","approach_avoid_spark_v1","""event"",""trial"",""time""
""fullscreenenter"",""1"",""5861""
","
","
","""event"",""trial"",""time""
""fullscreenenter"",""1"",""5861""
","
","","","","","","null","<div style=""font-size:60px;"">+</div>","null","","fixation","","","","","","","","","","",""
"aa-learning-trial","145","641787","0.0-9.0-2.0-1.36","3994","2","10","Male","approach_avoid_spark_v1","""event"",""trial"",""time""
""fullscreenenter"",""1"",""5861""
","
","
","""event"",""trial"",""time""
""fullscreenenter"",""1"",""5861""
","
","","","","","","711.5","images/sheep3.png","","","learning","8","8","1","1","sheep","animals","2","0","","bad","[-6]"
"html-keyboard-response","146","642297","0.0-9.0-2.0-0.37","3994","2","10","Male","approach_avoid_spark_v1","""event"",""trial"",""time""
""fullscreenenter"",""1"",""5861""
","
","
","""event"",""trial"",""time""
""fullscreenenter"",""1"",""5861""
","
","","","","","","null","<div style=""font-size:60px;"">+</div>","null","","fixation","","","","","","","","","","",""
"aa-learning-trial","147","645309","0.0-9.0-2.0-1.37","3994","2","10","Male","approach_avoid_spark_v1","""event"",""trial"",""time""
""fullscreenenter"",""1"",""5861""
","
","
","""event"",""trial"",""time""
""fullscreenenter"",""1"",""5861""
","
","","","","","","980.3000000715256","images/cow4.png","","","learning","-2","0","0","0","cow","animals","2","0","","good","[3]"
"html-keyboard-response","148","645827","0.0-9.0-2.0-0.38","3994","2","10","Male","approach_avoid_spark_v1","""event"",""trial"",""time""
""fullscreenenter"",""1"",""5861""
","
","
","""event"",""trial"",""time""
""fullscreenenter"",""1"",""5861""
","
","","","","","","null","<div style=""font-size:60px;"">+</div>","null","","fixation","","","","","","","","","","",""
"aa-learning-trial","149","648839","0.0-9.0-2.0-1.38","3994","2","10","Male","approach_avoid_spark_v1","""event"",""trial"",""time""
""fullscreenenter"",""1"",""5861""
","
","
","""event"",""trial"",""time""
""fullscreenenter"",""1"",""5861""
","
","","","","","","640.8000000715256","images/cow1.png","","","learning","6","6","1","1","cow","animals","2","0","","good","[3]"
"html-keyboard-response","150","649349","0.0-9.0-2.0-0.39","3994","2","10","Male","approach_avoid_spark_v1","""event"",""trial"",""time""
""fullscreenenter"",""1"",""5861""
","
","
","""event"",""trial"",""time""
""fullscreenenter"",""1"",""5861""
","
","","","","","","null","<div style=""font-size:60px;"">+</div>","null","","fixation","","","","","","","","","","",""
"aa-learning-trial","151","652369","0.0-9.0-2.0-1.39","3994","2","10","Male","approach_avoid_spark_v1","""event"",""trial"",""time""
""fullscreenenter"",""1"",""5861""
","
","
","""event"",""trial"",""time""
""fullscreenenter"",""1"",""5861""
","
","","","","","","749.5","images/cow7.png","","","learning","3","0","0","0","cow","animals","2","0","","good","[3]"
"html-keyboard-response","152","652877","0.0-9.0-2.0-0.40","3994","2","10","Male","approach_avoid_spark_v1","""event"",""trial"",""time""
""fullscreenenter"",""1"",""5861""
","
","
","""event"",""trial"",""time""
""fullscreenenter"",""1"",""5861""
","
","","","","","","null","<div style=""font-size:60px;"">+</div>","null","","fixation","","","","","","","","","","",""
"aa-learning-trial","153","655885","0.0-9.0-2.0-1.40","3994","2","10","Male","approach_avoid_spark_v1","""event"",""trial"",""time""
""fullscreenenter"",""1"",""5861""
","
","
","""event"",""trial"",""time""
""fullscreenenter"",""1"",""5861""
","
","","","","","","911.2999999523163","images/horse6.png","","","learning","4","4","1","1","horse","animals","2","0","","neutral","0"
"html-keyboard-response","154","656397","0.0-9.0-2.0-0.41","3994","2","10","Male","approach_avoid_spark_v1","""event"",""trial"",""time""
""fullscreenenter"",""1"",""5861""
","
","
","""event"",""trial"",""time""
""fullscreenenter"",""1"",""5861""
","
","","","","","","null","<div style=""font-size:60px;"">+</div>","null","","fixation","","","","","","","","","","",""
"aa-learning-trial","155","659404","0.0-9.0-2.0-1.41","3994","2","10","Male","approach_avoid_spark_v1","""event"",""trial"",""time""
""fullscreenenter"",""1"",""5861""
","
","
","""event"",""trial"",""time""
""fullscreenenter"",""1"",""5861""
","
","","","","","","969.3999999761581","images/sheep5.png","","","learning","-7","-7","1","1","sheep","animals","2","0","","bad","[-6]"
"html-keyboard-response","156","659916","0.0-9.0-2.0-0.42","3994","2","10","Male","approach_avoid_spark_v1","""event"",""trial"",""time""
""fullscreenenter"",""1"",""5861""
","
","
","""event"",""trial"",""time""
""fullscreenenter"",""1"",""5861""
","
","","","","","","null","<div style=""font-size:60px;"">+</div>","null","","fixation","","","","","","","","","","",""
"aa-learning-trial","157","662929","0.0-9.0-2.0-1.42","3994","2","10","Male","approach_avoid_spark_v1","""event"",""trial"",""time""
""fullscreenenter"",""1"",""5861""
","
","
","""event"",""trial"",""time""
""fullscreenenter"",""1"",""5861""
","
","","","","","","711.2000000476837","images/cow1.png","","","learning","6","6","1","1","cow","animals","2","0","","good","[3]"
"html-keyboard-response","158","663438","0.0-9.0-2.0-0.43","3994","2","10","Male","approach_avoid_spark_v1","""event"",""trial"",""time""
""fullscreenenter"",""1"",""5861""
","
","
","""event"",""trial"",""time""
""fullscreenenter"",""1"",""5861""
","
","","","","","","null","<div style=""font-size:60px;"">+</div>","null","","fixation","","","","","","","","","","",""
"aa-learning-trial","159","666451","0.0-9.0-2.0-1.43","3994","2","10","Male","approach_avoid_spark_v1","""event"",""trial"",""time""
""fullscreenenter"",""1"",""5861""
","
","
","""event"",""trial"",""time""
""fullscreenenter"",""1"",""5861""
","
","","","","","","830.7000000476837","images/cow7.png","","","learning","3","0","0","0","cow","animals","2","0","","good","[3]"
"html-keyboard-response","160","666958","0.0-9.0-2.0-0.44","3994","2","10","Male","approach_avoid_spark_v1","""event"",""trial"",""time""
""fullscreenenter"",""1"",""5861""
","
","
","""event"",""trial"",""time""
""fullscreenenter"",""1"",""5861""
","
","","","","","","null","<div style=""font-size:60px;"">+</div>","null","","fixation","","","","","","","","","","",""
"aa-learning-trial","161","669983","0.0-9.0-2.0-1.44","3994","2","10","Male","approach_avoid_spark_v1","""event"",""trial"",""time""
""fullscreenenter"",""1"",""5861""
","
","
","""event"",""trial"",""time""
""fullscreenenter"",""1"",""5861""
","
","","","","","","1107.5","images/sheep2.png","","","learning","-4","-4","1","1","sheep","animals","2","0","","bad","[-6]"
"html-keyboard-response","162","670495","0.0-9.0-2.0-0.45","3994","2","10","Male","approach_avoid_spark_v1","""event"",""trial"",""time""
""fullscreenenter"",""1"",""5861""
","
","
","""event"",""trial"",""time""
""fullscreenenter"",""1"",""5861""
","
","","","","","","null","<div style=""font-size:60px;"">+</div>","null","","fixation","","","","","","","","","","",""
"aa-learning-trial","163","673513","0.0-9.0-2.0-1.45","3994","2","10","Male","approach_avoid_spark_v1","""event"",""trial"",""time""
""fullscreenenter"",""1"",""5861""
","
","
","""event"",""trial"",""time""
""fullscreenenter"",""1"",""5861""
","
","","","","","","828.2000000476837","images/sheep3.png","","","learning","8","8","1","1","sheep","animals","2","0","","bad","[-6]"
"html-keyboard-response","164","674024","0.0-9.0-2.0-0.46","3994","2","10","Male","approach_avoid_spark_v1","""event"",""trial"",""time""
""fullscreenenter"",""1"",""5861""
","
","
","""event"",""trial"",""time""
""fullscreenenter"",""1"",""5861""
","
","","","","","","null","<div style=""font-size:60px;"">+</div>","null","","fixation","","","","","","","","","","",""
"aa-learning-trial","165","677035","0.0-9.0-2.0-1.46","3994","2","10","Male","approach_avoid_spark_v1","""event"",""trial"",""time""
""fullscreenenter"",""1"",""5861""
","
","
","""event"",""trial"",""time""
""fullscreenenter"",""1"",""5861""
","
","","","","","","986.1999999284744","images/cow6.png","","","learning","-8","0","0","0","cow","animals","2","0","","good","[3]"
"html-keyboard-response","166","677540","0.0-9.0-2.0-0.47","3994","2","10","Male","approach_avoid_spark_v1","""event"",""trial"",""time""
""fullscreenenter"",""1"",""5861""
","
","
","""event"",""trial"",""time""
""fullscreenenter"",""1"",""5861""
","
","","","","","","null","<div style=""font-size:60px;"">+</div>","null","","fixation","","","","","","","","","","",""
"aa-learning-trial","167","680556","0.0-9.0-2.0-1.47","3994","2","10","Male","approach_avoid_spark_v1","""event"",""trial"",""time""
""fullscreenenter"",""1"",""5861""
","
","
","""event"",""trial"",""time""
""fullscreenenter"",""1"",""5861""
","
","","","","","","815.2999999523163","images/sheep3.png","","","learning","8","0","0","0","sheep","animals","2","0","","bad","[-6]"
"html-keyboard-response","168","681064","0.0-9.0-2.0-0.48","3994","2","10","Male","approach_avoid_spark_v1","""event"",""trial"",""time""
""fullscreenenter"",""1"",""5861""
","
","
","""event"",""trial"",""time""
""fullscreenenter"",""1"",""5861""
","
","","","","","","null","<div style=""font-size:60px;"">+</div>","null","","fixation","","","","","","","","","","",""
"aa-learning-trial","169","684076","0.0-9.0-2.0-1.48","3994","2","10","Male","approach_avoid_spark_v1","""event"",""trial"",""time""
""fullscreenenter"",""1"",""5861""
","
","
","""event"",""trial"",""time""
""fullscreenenter"",""1"",""5861""
","
","","","","","","940.3000000715256","images/sheep2.png","","","learning","-4","0","0","0","sheep","animals","2","0","","bad","[-6]"
"html-keyboard-response","170","684580","0.0-9.0-2.0-0.49","3994","2","10","Male","approach_avoid_spark_v1","""event"",""trial"",""time""
""fullscreenenter"",""1"",""5861""
","
","
","""event"",""trial"",""time""
""fullscreenenter"",""1"",""5861""
","
","","","","","","null","<div style=""font-size:60px;"">+</div>","null","","fixation","","","","","","","","","","",""
"aa-learning-trial","171","687594","0.0-9.0-2.0-1.49","3994","2","10","Male","approach_avoid_spark_v1","""event"",""trial"",""time""
""fullscreenenter"",""1"",""5861""
","
","
","""event"",""trial"",""time""
""fullscreenenter"",""1"",""5861""
","
","","","","","","1030.5","images/horse7.png","","","learning","-3","0","0","0","horse","animals","2","0","","neutral","0"
"html-keyboard-response","172","688114","0.0-9.0-2.0-0.50","3994","2","10","Male","approach_avoid_spark_v1","""event"",""trial"",""time""
""fullscreenenter"",""1"",""5861""
","
","
","""event"",""trial"",""time""
""fullscreenenter"",""1"",""5861""
","
","","","","","","null","<div style=""font-size:60px;"">+</div>","null","","fixation","","","","","","","","","","",""
"aa-learning-trial","173","691125","0.0-9.0-2.0-1.50","3994","2","10","Male","approach_avoid_spark_v1","""event"",""trial"",""time""
""fullscreenenter"",""1"",""5861""
","
","
","""event"",""trial"",""time""
""fullscreenenter"",""1"",""5861""
","
","","","","","","973.6000000238419","images/horse3.png","","","learning","9","0","0","0","horse","animals","2","0","","neutral","0"
"html-button-response","174","694673","0.0-9.0-3.0","3994","2","10","Male","approach_avoid_spark_v1","""event"",""trial"",""time""
""fullscreenenter"",""1"",""5861""
","
","
","""event"",""trial"",""time""
""fullscreenenter"",""1"",""5861""
","
","","","","","","3545.899999976158","<p> You have completed the round! <p> In this round, you earned 10 points! </p>","0","","break","","","","","","","","","","",""
"html-button-response","175","695970","0.0-10.0","3994","2","10","Male","approach_avoid_spark_v1","""event"",""trial"",""time""
""fullscreenenter"",""1"",""5861""
","
","
","""event"",""trial"",""time""
""fullscreenenter"",""1"",""5861""
","
","","","","","","1295.3999999761581","<p> Now it's time to play another round. </p>","0","","transition_screen","","","","","","","","","","",""
"preload","176","696120","0.0-11.0-0.0","3994","2","10","Male","approach_avoid_spark_v1","""event"",""trial"",""time""
""fullscreenenter"",""1"",""5861""
","
","
","""event"",""trial"",""time""
""fullscreenenter"",""1"",""5861""
","
","true","false","[]","[]","[]","","","","","","","","","","","","","","","",""
"learning-instructions","177","704227","0.0-11.0-1.0-0.0","3994","2","10","Male","approach_avoid_spark_v1","""event"",""trial"",""time""
""fullscreenenter"",""1"",""5861""
","
","
","""event"",""trial"",""time""
""fullscreenenter"",""1"",""5861""
","
","","","","","","1999.4000000953674","<p> Your goal in this round is to decorate your friend's new house with furniture. </p></div>","","0","instructions","","","","","","","","","","",""
"learning-instructions","178","716417","0.0-11.0-1.0-0.1","3994","2","10","Male","approach_avoid_spark_v1","""event"",""trial"",""time""
""fullscreenenter"",""1"",""5861""
","
","
","""event"",""trial"",""time""
""fullscreenenter"",""1"",""5861""
","
","","","","","","1709.3999999761581","<p> Your friend likes some pieces of furniture but not others.  </p><p> On each turn, you will see a piece of furniture.   </p><p> You need to decide whether to put it in your friend's house or not.  </p>","","0","instructions","","","","","","","","","","",""
"learning-instructions","179","724022","0.0-11.0-1.0-0.2","3994","2","10","Male","approach_avoid_spark_v1","""event"",""trial"",""time""
""fullscreenenter"",""1"",""5861""
","
","
","""event"",""trial"",""time""
""fullscreenenter"",""1"",""5861""
","
","","","","","","513.2000000476837","<p> You can put the furniture in her house by pressing 1 and deliver it elsewhere by pressing 0. </p><br><div class=""choice-instructions-grid""> <div class=""choice-option""><img src=""images/approach.png"" class=""choice-option-img"" stage=""instructions"" position=""0"" ><div class=""choice-option-text""> Press ""1."" </div></div><div class=""choice-option""><img src=""images/avoid.png"" class=""choice-option-img"" stage=""instructions"" position=""1"" ><div class=""choice-option-text""> Press ""0."" </div></div>","","0","instructions","","","","","","","","","","",""
"learning-instructions","180","733849","0.0-11.0-1.0-0.3","3994","2","10","Male","approach_avoid_spark_v1","""event"",""trial"",""time""
""fullscreenenter"",""1"",""5861""
","
","
","""event"",""trial"",""time""
""fullscreenenter"",""1"",""5861""
","
","","","","","","609.7000000476837","<p> If you decorate your friend's house with furniture she likes, she will be happy! </p><p> But if you give her furniture that she does not like, she will be annoyed. </p>","","0","instructions","","","","","","","","","","",""
"learning-instructions","181","746577","0.0-11.0-1.0-0.4","3994","2","10","Male","approach_avoid_spark_v1","""event"",""trial"",""time""
""fullscreenenter"",""1"",""5861""
","
","
","""event"",""trial"",""time""
""fullscreenenter"",""1"",""5861""
","
","","","","","","437.60000002384186","<p> You will earn points based on how you made your friend feel. </p><p> If you made her happy, you will WIN anywhere from 1 - 9 points, </p><p> but if you made her annoyed you will LOSE anywhere from 1 - 9 points. </p>","","0","instructions","","","","","","","","","","",""
"learning-instructions","182","753436","0.0-11.0-1.0-0.5","3994","2","10","Male","approach_avoid_spark_v1","""event"",""trial"",""time""
""fullscreenenter"",""1"",""5861""
","
","
","""event"",""trial"",""time""
""fullscreenenter"",""1"",""5861""
","
","","","","","","187.59999990463257","<p> You will see how many points you won or lost in the center of the screen. </p><p> Here is what you would see if you won 5 points: </p><p style=""color:green;font-size:50px;font-weight:bolder"">5</p>","","0","instructions","","","","","","","","","","",""
"learning-instructions","183","756477","0.0-11.0-1.0-0.6","3994","2","10","Male","approach_avoid_spark_v1","""event"",""trial"",""time""
""fullscreenenter"",""1"",""5861""
","
","
","""event"",""trial"",""time""
""fullscreenenter"",""1"",""5861""
","
","","","","","","198","<p> And here is what you would see if you lost 3 points: </p><p style=""color:red;font-size:50px;font-weight:bolder"">-3</p>","","0","instructions","","","","","","","","","","",""
"learning-instructions","184","775340","0.0-11.0-1.0-0.7","3994","2","10","Male","approach_avoid_spark_v1","""event"",""trial"",""time""
""fullscreenenter"",""1"",""5861""
","
","
","""event"",""trial"",""time""
""fullscreenenter"",""1"",""5861""
","
","","","","","","550.7000000476837","<p> Some pieces of furniture will make her feel very happy or very annoyed. </p><p> These pieces of furniture will make you win or lose LOTS of points. </p><p> Other pieces of furniture will only make her feel a little happy or a little annoyed. </p><p> These pieces of furniture will make you win or lose small amounts of points. </p>","","0","instructions","","","","","","","","","","",""
"learning-instructions","185","789057","0.0-11.0-1.0-0.8","3994","2","10","Male","approach_avoid_spark_v1","""event"",""trial"",""time""
""fullscreenenter"",""1"",""5861""
","
","
","""event"",""trial"",""time""
""fullscreenenter"",""1"",""5861""
","
","","","","","","527.8999999761581","<p> If you choose to deliver a piece of furniture elsewhere, you will not win or lose any points. </p><p>  However, in the center of the screen, you will see the number of points you WOULD HAVE won or lost if you had given the furniture to your friend. </p>","","0","instructions","","","","","","","","","","",""
"learning-instructions","186","801611","0.0-11.0-1.0-0.9","3994","2","10","Male","approach_avoid_spark_v1","""event"",""trial"",""time""
""fullscreenenter"",""1"",""5861""
","
","
","""event"",""trial"",""time""
""fullscreenenter"",""1"",""5861""
","
","","","","","","631.9000000953674","<p> Here is what you might see if you did not give a piece of furniture to your friend that would have made her happy: </p><p style=""color:grey; font-size:50px; display: inline-block; border-spacing: 15px; border-width:3px; border-style:solid; border-color:red"">  &nbsp; 6 &nbsp; </p><p> Remember, in this case, you would not win or lose ANY points because you did not give her the furniture.  </p>","","0","instructions","","","","","","","","","","",""
"learning-instructions","187","811230","0.0-11.0-1.0-0.10","3994","2","10","Male","approach_avoid_spark_v1","""event"",""trial"",""time""
""fullscreenenter"",""1"",""5861""
","
","
","""event"",""trial"",""time""
""fullscreenenter"",""1"",""5861""
","
","","","","","","541.1999999284744","<p> Try to make the best choice for each piece of furniture because </p><p> at the end of the game, you will earn bonus money based on how many points you earned. </p>","","0","instructions","","","","","","","","","","",""
"learning-instructions","188","819827","0.0-11.0-1.0-0.11","3994","2","10","Male","approach_avoid_spark_v1","""event"",""trial"",""time""
""fullscreenenter"",""1"",""5861""
","
","
","""event"",""trial"",""time""
""fullscreenenter"",""1"",""5861""
","
","","","","","","388.10000002384186","<p> You will have 3 seconds to make each choice. Try to respond before time runs out! </p><p> You will lose 5 points each time you do not make a response. </p>","","0","instructions","","","","","","","","","","",""
"html-keyboard-response","189","820446","0.0-11.0-2.0-0.0","3994","2","10","Male","approach_avoid_spark_v1","""event"",""trial"",""time""
""fullscreenenter"",""1"",""5861""
","
","
","""event"",""trial"",""time""
""fullscreenenter"",""1"",""5861""
","
","","","","","","null","<div style=""font-size:60px;"">+</div>","null","","fixation","","","","","","","","","","",""
"aa-learning-trial","190","823461","0.0-11.0-2.0-1.0","3994","2","10","Male","approach_avoid_spark_v1","""event"",""trial"",""time""
""fullscreenenter"",""1"",""5861""
","
","
","""event"",""trial"",""time""
""fullscreenenter"",""1"",""5861""
","
","","","","","","870.5","images/bed5.png","","","learning","-2","-2","1","1","bed","furniture","1","1","","neutral","0"
"html-keyboard-response","191","823965","0.0-11.0-2.0-0.1","3994","2","10","Male","approach_avoid_spark_v1","""event"",""trial"",""time""
""fullscreenenter"",""1"",""5861""
","
","
","""event"",""trial"",""time""
""fullscreenenter"",""1"",""5861""
","
","","","","","","null","<div style=""font-size:60px;"">+</div>","null","","fixation","","","","","","","","","","",""
"aa-learning-trial","192","826986","0.0-11.0-2.0-1.1","3994","2","10","Male","approach_avoid_spark_v1","""event"",""trial"",""time""
""fullscreenenter"",""1"",""5861""
","
","
","""event"",""trial"",""time""
""fullscreenenter"",""1"",""5861""
","
","","","","","","694","images/chair6.png","","","learning","-3","-3","1","1","chair","furniture","1","1","","bad","[-4]"
"html-keyboard-response","193","827497","0.0-11.0-2.0-0.2","3994","2","10","Male","approach_avoid_spark_v1","""event"",""trial"",""time""
""fullscreenenter"",""1"",""5861""
","
","
","""event"",""trial"",""time""
""fullscreenenter"",""1"",""5861""
","
","","","","","","null","<div style=""font-size:60px;"">+</div>","null","","fixation","","","","","","","","","","",""
"aa-learning-trial","194","830517","0.0-11.0-2.0-1.2","3994","2","10","Male","approach_avoid_spark_v1","""event"",""trial"",""time""
""fullscreenenter"",""1"",""5861""
","
","
","""event"",""trial"",""time""
""fullscreenenter"",""1"",""5861""
","
","","","","","","934.8999999761581","images/table4.png","","","learning","2","2","1","1","table","furniture","1","1","","good","[4]"
"html-keyboard-response","195","831037","0.0-11.0-2.0-0.3","3994","2","10","Male","approach_avoid_spark_v1","""event"",""trial"",""time""
""fullscreenenter"",""1"",""5861""
","
","
","""event"",""trial"",""time""
""fullscreenenter"",""1"",""5861""
","
","","","","","","null","<div style=""font-size:60px;"">+</div>","null","","fixation","","","","","","","","","","",""
"aa-learning-trial","196","834045","0.0-11.0-2.0-1.3","3994","2","10","Male","approach_avoid_spark_v1","""event"",""trial"",""time""
""fullscreenenter"",""1"",""5861""
","
","
","""event"",""trial"",""time""
""fullscreenenter"",""1"",""5861""
","
","","","","","","980.5","images/table5.png","","","learning","6","0","0","0","table","furniture","1","1","","good","[4]"
"html-keyboard-response","197","834546","0.0-11.0-2.0-0.4","3994","2","10","Male","approach_avoid_spark_v1","""event"",""trial"",""time""
""fullscreenenter"",""1"",""5861""
","
","
","""event"",""trial"",""time""
""fullscreenenter"",""1"",""5861""
","
","","","","","","null","<div style=""font-size:60px;"">+</div>","null","","fixation","","","","","","","","","","",""
"aa-learning-trial","198","837556","0.0-11.0-2.0-1.4","3994","2","10","Male","approach_avoid_spark_v1","""event"",""trial"",""time""
""fullscreenenter"",""1"",""5861""
","
","
","""event"",""trial"",""time""
""fullscreenenter"",""1"",""5861""
","
","","","","","","1089.2000000476837","images/bed5.png","","","learning","-2","0","0","0","bed","furniture","1","1","","neutral","0"
"html-keyboard-response","199","838061","0.0-11.0-2.0-0.5","3994","2","10","Male","approach_avoid_spark_v1","""event"",""trial"",""time""
""fullscreenenter"",""1"",""5861""
","
","
","""event"",""trial"",""time""
""fullscreenenter"",""1"",""5861""
","
","","","","","","null","<div style=""font-size:60px;"">+</div>","null","","fixation","","","","","","","","","","",""
"aa-learning-trial","200","841077","0.0-11.0-2.0-1.5","3994","2","10","Male","approach_avoid_spark_v1","""event"",""trial"",""time""
""fullscreenenter"",""1"",""5861""
","
","
","""event"",""trial"",""time""
""fullscreenenter"",""1"",""5861""
","
","","","","","","983.8999999761581","images/table7.png","","","learning","2","2","1","1","table","furniture","1","1","","good","[4]"
"html-keyboard-response","201","841582","0.0-11.0-2.0-0.6","3994","2","10","Male","approach_avoid_spark_v1","""event"",""trial"",""time""
""fullscreenenter"",""1"",""5861""
","
","
","""event"",""trial"",""time""
""fullscreenenter"",""1"",""5861""
","
","","","","","","null","<div style=""font-size:60px;"">+</div>","null","","fixation","","","","","","","","","","",""
"aa-learning-trial","202","844607","0.0-11.0-2.0-1.6","3994","2","10","Male","approach_avoid_spark_v1","""event"",""trial"",""time""
""fullscreenenter"",""1"",""5861""
","
","
","""event"",""trial"",""time""
""fullscreenenter"",""1"",""5861""
","
","","","","","","841.6000000238419","images/bed3.png","","","learning","1","1","1","1","bed","furniture","1","1","","neutral","0"
"html-keyboard-response","203","845126","0.0-11.0-2.0-0.7","3994","2","10","Male","approach_avoid_spark_v1","""event"",""trial"",""time""
""fullscreenenter"",""1"",""5861""
","
","
","""event"",""trial"",""time""
""fullscreenenter"",""1"",""5861""
","
","","","","","","null","<div style=""font-size:60px;"">+</div>","null","","fixation","","","","","","","","","","",""
"aa-learning-trial","204","848147","0.0-11.0-2.0-1.7","3994","2","10","Male","approach_avoid_spark_v1","""event"",""trial"",""time""
""fullscreenenter"",""1"",""5861""
","
","
","""event"",""trial"",""time""
""fullscreenenter"",""1"",""5861""
","
","","","","","","912","images/chair1.png","","","learning","-4","-4","1","1","chair","furniture","1","1","","bad","[-4]"
"html-keyboard-response","205","848657","0.0-11.0-2.0-0.8","3994","2","10","Male","approach_avoid_spark_v1","""event"",""trial"",""time""
""fullscreenenter"",""1"",""5861""
","
","
","""event"",""trial"",""time""
""fullscreenenter"",""1"",""5861""
","
","","","","","","null","<div style=""font-size:60px;"">+</div>","null","","fixation","","","","","","","","","","",""
"aa-learning-trial","206","851672","0.0-11.0-2.0-1.8","3994","2","10","Male","approach_avoid_spark_v1","""event"",""trial"",""time""
""fullscreenenter"",""1"",""5861""
","
","
","""event"",""trial"",""time""
""fullscreenenter"",""1"",""5861""
","
","","","","","","843.6999999284744","images/bed3.png","","","learning","[1]","0","0","0","bed","furniture","1","1","","neutral","0"
"html-keyboard-response","207","852182","0.0-11.0-2.0-0.9","3994","2","10","Male","approach_avoid_spark_v1","""event"",""trial"",""time""
""fullscreenenter"",""1"",""5861""
","
","
","""event"",""trial"",""time""
""fullscreenenter"",""1"",""5861""
","
","","","","","","null","<div style=""font-size:60px;"">+</div>","null","","fixation","","","","","","","","","","",""
"aa-learning-trial","208","855197","0.0-11.0-2.0-1.9","3994","2","10","Male","approach_avoid_spark_v1","""event"",""trial"",""time""
""fullscreenenter"",""1"",""5861""
","
","
","""event"",""trial"",""time""
""fullscreenenter"",""1"",""5861""
","
","","","","","","878.4000000953674","images/chair8.png","","","learning","-5","0","0","0","chair","furniture","1","1","","bad","[-4]"
"html-keyboard-response","209","855704","0.0-11.0-2.0-0.10","3994","2","10","Male","approach_avoid_spark_v1","""event"",""trial"",""time""
""fullscreenenter"",""1"",""5861""
","
","
","""event"",""trial"",""time""
""fullscreenenter"",""1"",""5861""
","
","","","","","","null","<div style=""font-size:60px;"">+</div>","null","","fixation","","","","","","","","","","",""
"aa-learning-trial","210","858732","0.0-11.0-2.0-1.10","3994","2","10","Male","approach_avoid_spark_v1","""event"",""trial"",""time""
""fullscreenenter"",""1"",""5861""
","
","
","""event"",""trial"",""time""
""fullscreenenter"",""1"",""5861""
","
","","","","","","1092.3999999761581","images/table4.png","","","learning","3","3","1","1","table","furniture","1","1","","good","[4]"
"html-keyboard-response","211","859237","0.0-11.0-2.0-0.11","3994","2","10","Male","approach_avoid_spark_v1","""event"",""trial"",""time""
""fullscreenenter"",""1"",""5861""
","
","
","""event"",""trial"",""time""
""fullscreenenter"",""1"",""5861""
","
","","","","","","null","<div style=""font-size:60px;"">+</div>","null","","fixation","","","","","","","","","","",""
"aa-learning-trial","212","862254","0.0-11.0-2.0-1.11","3994","2","10","Male","approach_avoid_spark_v1","""event"",""trial"",""time""
""fullscreenenter"",""1"",""5861""
","
","
","""event"",""trial"",""time""
""fullscreenenter"",""1"",""5861""
","
","","","","","","997.7999999523163","images/chair8.png","","","learning","-5","0","0","0","chair","furniture","1","1","","bad","[-4]"
"html-keyboard-response","213","862772","0.0-11.0-2.0-0.12","3994","2","10","Male","approach_avoid_spark_v1","""event"",""trial"",""time""
""fullscreenenter"",""1"",""5861""
","
","
","""event"",""trial"",""time""
""fullscreenenter"",""1"",""5861""
","
","","","","","","null","<div style=""font-size:60px;"">+</div>","null","","fixation","","","","","","","","","","",""
"aa-learning-trial","214","865785","0.0-11.0-2.0-1.12","3994","2","10","Male","approach_avoid_spark_v1","""event"",""trial"",""time""
""fullscreenenter"",""1"",""5861""
","
","
","""event"",""trial"",""time""
""fullscreenenter"",""1"",""5861""
","
","","","","","","760.8000000715256","images/table5.png","","","learning","1","1","1","1","table","furniture","1","1","","good","[4]"
"html-keyboard-response","215","866295","0.0-11.0-2.0-0.13","3994","2","10","Male","approach_avoid_spark_v1","""event"",""trial"",""time""
""fullscreenenter"",""1"",""5861""
","
","
","""event"",""trial"",""time""
""fullscreenenter"",""1"",""5861""
","
","","","","","","null","<div style=""font-size:60px;"">+</div>","null","","fixation","","","","","","","","","","",""
"aa-learning-trial","216","869308","0.0-11.0-2.0-1.13","3994","2","10","Male","approach_avoid_spark_v1","""event"",""trial"",""time""
""fullscreenenter"",""1"",""5861""
","
","
","""event"",""trial"",""time""
""fullscreenenter"",""1"",""5861""
","
","","","","","","930.1000000238419","images/bed2.png","","","learning","3","0","0","0","bed","furniture","1","1","","neutral","0"
"html-keyboard-response","217","869816","0.0-11.0-2.0-0.14","3994","2","10","Male","approach_avoid_spark_v1","""event"",""trial"",""time""
""fullscreenenter"",""1"",""5861""
","
","
","""event"",""trial"",""time""
""fullscreenenter"",""1"",""5861""
","
","","","","","","null","<div style=""font-size:60px;"">+</div>","null","","fixation","","","","","","","","","","",""
"aa-learning-trial","218","872833","0.0-11.0-2.0-1.14","3994","2","10","Male","approach_avoid_spark_v1","""event"",""trial"",""time""
""fullscreenenter"",""1"",""5861""
","
","
","""event"",""trial"",""time""
""fullscreenenter"",""1"",""5861""
","
","","","","","","858","images/chair1.png","","","learning","-4","0","0","0","chair","furniture","1","1","","bad","[-4]"
"html-keyboard-response","219","873348","0.0-11.0-2.0-0.15","3994","2","10","Male","approach_avoid_spark_v1","""event"",""trial"",""time""
""fullscreenenter"",""1"",""5861""
","
","
","""event"",""trial"",""time""
""fullscreenenter"",""1"",""5861""
","
","","","","","","null","<div style=""font-size:60px;"">+</div>","null","","fixation","","","","","","","","","","",""
"aa-learning-trial","220","876363","0.0-11.0-2.0-1.15","3994","2","10","Male","approach_avoid_spark_v1","""event"",""trial"",""time""
""fullscreenenter"",""1"",""5861""
","
","
","""event"",""trial"",""time""
""fullscreenenter"",""1"",""5861""
","
","","","","","","767.4000000953674","images/chair8.png","","","learning","-3","0","0","0","chair","furniture","1","1","","bad","[-4]"
"html-keyboard-response","221","876868","0.0-11.0-2.0-0.16","3994","2","10","Male","approach_avoid_spark_v1","""event"",""trial"",""time""
""fullscreenenter"",""1"",""5861""
","
","
","""event"",""trial"",""time""
""fullscreenenter"",""1"",""5861""
","
","","","","","","null","<div style=""font-size:60px;"">+</div>","null","","fixation","","","","","","","","","","",""
"aa-learning-trial","222","879893","0.0-11.0-2.0-1.16","3994","2","10","Male","approach_avoid_spark_v1","""event"",""trial"",""time""
""fullscreenenter"",""1"",""5861""
","
","
","""event"",""trial"",""time""
""fullscreenenter"",""1"",""5861""
","
","","","","","","1175.6000000238419","images/bed5.png","","","learning","-1","0","0","0","bed","furniture","1","1","","neutral","0"
"html-keyboard-response","223","880397","0.0-11.0-2.0-0.17","3994","2","10","Male","approach_avoid_spark_v1","""event"",""trial"",""time""
""fullscreenenter"",""1"",""5861""
","
","
","""event"",""trial"",""time""
""fullscreenenter"",""1"",""5861""
","
","","","","","","null","<div style=""font-size:60px;"">+</div>","null","","fixation","","","","","","","","","","",""
"aa-learning-trial","224","883404","0.0-11.0-2.0-1.17","3994","2","10","Male","approach_avoid_spark_v1","""event"",""trial"",""time""
""fullscreenenter"",""1"",""5861""
","
","
","""event"",""trial"",""time""
""fullscreenenter"",""1"",""5861""
","
","","","","","","1099.4000000953674","images/chair6.png","","","learning","-3","0","0","0","chair","furniture","1","1","","bad","[-4]"
"html-keyboard-response","225","883919","0.0-11.0-2.0-0.18","3994","2","10","Male","approach_avoid_spark_v1","""event"",""trial"",""time""
""fullscreenenter"",""1"",""5861""
","
","
","""event"",""trial"",""time""
""fullscreenenter"",""1"",""5861""
","
","","","","","","null","<div style=""font-size:60px;"">+</div>","null","","fixation","","","","","","","","","","",""
"aa-learning-trial","226","886923","0.0-11.0-2.0-1.18","3994","2","10","Male","approach_avoid_spark_v1","""event"",""trial"",""time""
""fullscreenenter"",""1"",""5861""
","
","
","""event"",""trial"",""time""
""fullscreenenter"",""1"",""5861""
","
","","","","","","715.5","images/chair8.png","","","learning","-5","0","0","0","chair","furniture","1","1","","bad","[-4]"
"html-keyboard-response","227","887429","0.0-11.0-2.0-0.19","3994","2","10","Male","approach_avoid_spark_v1","""event"",""trial"",""time""
""fullscreenenter"",""1"",""5861""
","
","
","""event"",""trial"",""time""
""fullscreenenter"",""1"",""5861""
","
","","","","","","null","<div style=""font-size:60px;"">+</div>","null","","fixation","","","","","","","","","","",""
"aa-learning-trial","228","890444","0.0-11.0-2.0-1.19","3994","2","10","Male","approach_avoid_spark_v1","""event"",""trial"",""time""
""fullscreenenter"",""1"",""5861""
","
","
","""event"",""trial"",""time""
""fullscreenenter"",""1"",""5861""
","
","","","","","","919.3999999761581","images/table4.png","","","learning","7","0","0","0","table","furniture","1","1","","good","[4]"
"html-keyboard-response","229","890949","0.0-11.0-2.0-0.20","3994","2","10","Male","approach_avoid_spark_v1","""event"",""trial"",""time""
""fullscreenenter"",""1"",""5861""
","
","
","""event"",""trial"",""time""
""fullscreenenter"",""1"",""5861""
","
","","","","","","null","<div style=""font-size:60px;"">+</div>","null","","fixation","","","","","","","","","","",""
"aa-learning-trial","230","893973","0.0-11.0-2.0-1.20","3994","2","10","Male","approach_avoid_spark_v1","""event"",""trial"",""time""
""fullscreenenter"",""1"",""5861""
","
","
","""event"",""trial"",""time""
""fullscreenenter"",""1"",""5861""
","
","","","","","","748.4000000953674","images/table4.png","","","learning","5","5","1","1","table","furniture","1","1","","good","[4]"
"html-keyboard-response","231","894499","0.0-11.0-2.0-0.21","3994","2","10","Male","approach_avoid_spark_v1","""event"",""trial"",""time""
""fullscreenenter"",""1"",""5861""
","
","
","""event"",""trial"",""time""
""fullscreenenter"",""1"",""5861""
","
","","","","","","null","<div style=""font-size:60px;"">+</div>","null","","fixation","","","","","","","","","","",""
"aa-learning-trial","232","897513","0.0-11.0-2.0-1.21","3994","2","10","Male","approach_avoid_spark_v1","""event"",""trial"",""time""
""fullscreenenter"",""1"",""5861""
","
","
","""event"",""trial"",""time""
""fullscreenenter"",""1"",""5861""
","
","","","","","","758.1000000238419","images/table7.png","","","learning","2","0","0","0","table","furniture","1","1","","good","[4]"
"html-keyboard-response","233","898027","0.0-11.0-2.0-0.22","3994","2","10","Male","approach_avoid_spark_v1","""event"",""trial"",""time""
""fullscreenenter"",""1"",""5861""
","
","
","""event"",""trial"",""time""
""fullscreenenter"",""1"",""5861""
","
","","","","","","null","<div style=""font-size:60px;"">+</div>","null","","fixation","","","","","","","","","","",""
"aa-learning-trial","234","901037","0.0-11.0-2.0-1.22","3994","2","10","Male","approach_avoid_spark_v1","""event"",""trial"",""time""
""fullscreenenter"",""1"",""5861""
","
","
","""event"",""trial"",""time""
""fullscreenenter"",""1"",""5861""
","
","","","","","","838.7000000476837","images/bed6.png","","","learning","1","1","1","1","bed","furniture","1","1","","neutral","0"
"html-keyboard-response","235","901547","0.0-11.0-2.0-0.23","3994","2","10","Male","approach_avoid_spark_v1","""event"",""trial"",""time""
""fullscreenenter"",""1"",""5861""
","
","
","""event"",""trial"",""time""
""fullscreenenter"",""1"",""5861""
","
","","","","","","null","<div style=""font-size:60px;"">+</div>","null","","fixation","","","","","","","","","","",""
"aa-learning-trial","236","904560","0.0-11.0-2.0-1.23","3994","2","10","Male","approach_avoid_spark_v1","""event"",""trial"",""time""
""fullscreenenter"",""1"",""5861""
","
","
","""event"",""trial"",""time""
""fullscreenenter"",""1"",""5861""
","
","","","","","","1222.3999999761581","images/bed2.png","","","learning","[1]","0","0","0","bed","furniture","1","1","","neutral","0"
