"trial_type","trial_index","time_elapsed","internal_node_id","subject_id","task_condition","age","gender","task_version","interactions","blur_events","focus_events","fullscreenenter_events","fullscreenexit_events","success","timeout","failed_images","failed_audio","failed_video","rt","stimulus","response","button_pressed","task_part","approach_reward","points","key_press","option_selected","stim_cat","task_block","block_condition","block_number","correct","cat_type","mean_cat_reward"
"pavlovia","0","4","0.0-0.0","4294","1","18","Female","approach_avoid_spark_v1","""event"",""trial"",""time""
""fullscreenenter"",""1"",""8205""
","
","
","""event"",""trial"",""time""
""fullscreenenter"",""1"",""8205""
","
","","","","","","","","","","","","","","","","","","","","",""
"fullscreen","1","9168","0.0-1.0","4294","1","18","Female","approach_avoid_spark_v1","""event"",""trial"",""time""
""fullscreenenter"",""1"",""8205""
","
","
","""event"",""trial"",""time""
""fullscreenenter"",""1"",""8205""
","
","true","","","","","","","","","","","","","","","","","","","",""
"preload","2","48295","0.0-2.0","4294","1","18","Female","approach_avoid_spark_v1","""event"",""trial"",""time""
""fullscreenenter"",""1"",""8205""
","
","
","""event"",""trial"",""time""
""fullscreenenter"",""1"",""8205""
","
","true","false","[]","[]","[]","","","","","","","","","","","","","","","",""
"audio-keyboard-response","3","52651","0.0-3.0","4294","1","18","Female","approach_avoid_spark_v1","""event"",""trial"",""time""
""fullscreenenter"",""1"",""8205""
","
","
","""event"",""trial"",""time""
""fullscreenenter"",""1"",""8205""
","
","","","","","","4288.000000000004","audio/beep_loop.wav"," ","","","","","","","","","","","","",""
"audio-button-response","4","54772","0.0-4.0","4294","1","18","Female","approach_avoid_spark_v1","""event"",""trial"",""time""
""fullscreenenter"",""1"",""8205""
","
","
","""event"",""trial"",""time""
""fullscreenenter"",""1"",""8205""
","
","","","","","","2117","audio/shark.wav","4","","","","","","","","","","","","",""
"audio-button-response","5","57066","0.0-5.0","4294","1","18","Female","approach_avoid_spark_v1","""event"",""trial"",""time""
""fullscreenenter"",""1"",""8205""
","
","
","""event"",""trial"",""time""
""fullscreenenter"",""1"",""8205""
","
","","","","","","1291","audio/turtle.wav","1","","","","","","","","","","","","",""
"preload","6","69291","0.0-6.0","4294","1","18","Female","approach_avoid_spark_v1","""event"",""trial"",""time""
""fullscreenenter"",""1"",""8205""
","
","
","""event"",""trial"",""time""
""fullscreenenter"",""1"",""8205""
","
","true","false","[]","[]","[]","","","","","","","","","","","","","","","",""
"html-keyboard-response","7","81356","0.0-7.0","4294","1","18","Female","approach_avoid_spark_v1","""event"",""trial"",""time""
""fullscreenenter"",""1"",""8205""
","
","
","""event"",""trial"",""time""
""fullscreenenter"",""1"",""8205""
","
","","","","","","12064.200000047684","Welcome to the experiment. Press any key to begin and to advance the instructions."," ","","","","","","","","","","","","",""
"learning-instructions","8","90097","0.0-8.0-0.0-0.0","4294","1","18","Female","approach_avoid_spark_v1","""event"",""trial"",""time""
""fullscreenenter"",""1"",""8205""
","
","
","""event"",""trial"",""time""
""fullscreenenter"",""1"",""8205""
","
","","","","","","1786.2999999523163","<p> Welcome! Today you are going to play 6 different rounds of a decision-making game. </p><p> Use the mouse to click next to continue. </p>","","0","instructions","","","","","","","","","","",""
"learning-instructions","9","94145","0.0-8.0-0.0-0.1","4294","1","18","Female","approach_avoid_spark_v1","""event"",""trial"",""time""
""fullscreenenter"",""1"",""8205""
","
","
","""event"",""trial"",""time""
""fullscreenenter"",""1"",""8205""
","
","","","","","","1322.5","<p> You will start with a practice round to learn the rules. </p>","","0","instructions","","","","","","","","","","",""
"learning-instructions","10","98522","0.0-8.0-0.0-0.2","4294","1","18","Female","approach_avoid_spark_v1","""event"",""trial"",""time""
""fullscreenenter"",""1"",""8205""
","
","
","""event"",""trial"",""time""
""fullscreenenter"",""1"",""8205""
","
","","","","","","932.4000000953674","<p> Your goal in this round is to give out sports equipment to kids. </p></div>","","0","instructions","","","","","","","","","","",""
"learning-instructions","11","106821","0.0-8.0-0.0-0.3","4294","1","18","Female","approach_avoid_spark_v1","""event"",""trial"",""time""
""fullscreenenter"",""1"",""8205""
","
","
","""event"",""trial"",""time""
""fullscreenenter"",""1"",""8205""
","
","","","","","","752","<p> The kids only like some of the equipment.  </p><p> On each turn, you will see a piece of sports equipment.   </p><p> You need to decide whether to give it to the kids or not.  </p>","","0","instructions","","","","","","","","","","",""
"learning-instructions","12","112454","0.0-8.0-0.0-0.4","4294","1","18","Female","approach_avoid_spark_v1","""event"",""trial"",""time""
""fullscreenenter"",""1"",""8205""
","
","
","""event"",""trial"",""time""
""fullscreenenter"",""1"",""8205""
","
","","","","","","885.3999998569489","<p> You can give them the equipment by pressing 1 and choose not to give it to them by pressing 0. </p><br><div class=""choice-instructions-grid""> <div class=""choice-option""><img src=""images/approach.png"" class=""choice-option-img"" stage=""instructions"" position=""0"" ><div class=""choice-option-text""> Press ""1."" </div></div><div class=""choice-option""><img src=""images/avoid.png"" class=""choice-option-img"" stage=""instructions"" position=""1"" ><div class=""choice-option-text""> Press ""0."" </div></div>","","0","instructions","","","","","","","","","","",""
"learning-instructions","13","122322","0.0-8.0-0.0-0.5","4294","1","18","Female","approach_avoid_spark_v1","""event"",""trial"",""time""
""fullscreenenter"",""1"",""8205""
","
","
","""event"",""trial"",""time""
""fullscreenenter"",""1"",""8205""
","
","","","","","","2487.7000000476837","<p> If you give them a piece of equipment they like, they will be happy! </p><p> But if you give them a piece of equipment they do not like, they will be sad. </p>","","0","instructions","","","","","","","","","","",""
"learning-instructions","14","133617","0.0-8.0-0.0-0.6","4294","1","18","Female","approach_avoid_spark_v1","""event"",""trial"",""time""
""fullscreenenter"",""1"",""8205""
","
","
","""event"",""trial"",""time""
""fullscreenenter"",""1"",""8205""
","
","","","","","","785.8999998569489","<p> You will earn points based on how you make kids feel. </p><p> If you make them happy, you will WIN anywhere from 1 - 9 points, </p><p> but if you make them sad, you will LOSE anywhere from 1 - 9 points. </p>","","0","instructions","","","","","","","","","","",""
"learning-instructions","15","144214","0.0-8.0-0.0-0.7","4294","1","18","Female","approach_avoid_spark_v1","""event"",""trial"",""time""
""fullscreenenter"",""1"",""8205""
","
","
","""event"",""trial"",""time""
""fullscreenenter"",""1"",""8205""
","
","","","","","","1041.9000000953674","<p> You will see how many points you won or lost in the center of the screen. </p><p> Here is what you would see if you won 6 points: </p><p style=""color:green;font-size:50px;font-weight:bolder"">6</p><p style=""color:green"">The text is GREEN because you WON points.</p>","","0","instructions","","","","","","","","","","",""
"learning-instructions","16","150365","0.0-8.0-0.0-0.8","4294","1","18","Female","approach_avoid_spark_v1","""event"",""trial"",""time""
""fullscreenenter"",""1"",""8205""
","
","
","""event"",""trial"",""time""
""fullscreenenter"",""1"",""8205""
","
","","","","","","643.6000001430511","<p> And here is what you would see if you lost 4 points: </p><p style=""color:red;font-size:50px;font-weight:bolder"">-4</p><p style=""color:red"">The text is RED because you LOST points. </p>","","0","instructions","","","","","","","","","","",""
"learning-instructions","17","165745","0.0-8.0-0.0-0.9","4294","1","18","Female","approach_avoid_spark_v1","""event"",""trial"",""time""
""fullscreenenter"",""1"",""8205""
","
","
","""event"",""trial"",""time""
""fullscreenenter"",""1"",""8205""
","
","","","","","","670.4000000953674","<p> Some of the equipment will make the kids VERY happy or sad. </p><p> These pieces of equipment will make you win or lose LOTS of points. </p><p> Other pieces of equipment will only make the kids a little happy or sad. </p><p> These pieces of equipment will make you win or lose small amounts of points. </p>","","0","instructions","","","","","","","","","","",""
"learning-instructions","18","177237","0.0-8.0-0.0-0.10","4294","1","18","Female","approach_avoid_spark_v1","""event"",""trial"",""time""
""fullscreenenter"",""1"",""8205""
","
","
","""event"",""trial"",""time""
""fullscreenenter"",""1"",""8205""
","
","","","","","","866.8000001907349","<p> If you choose not to give them the equipment, you will not win or lose any points. </p><p>  However, in the center of the screen, you will see the number of points you WOULD HAVE won or lost if you had given them the equipment. </p>","","0","instructions","","","","","","","","","","",""
"learning-instructions","19","199763","0.0-8.0-0.0-0.11","4294","1","18","Female","approach_avoid_spark_v1","""event"",""trial"",""time""
""fullscreenenter"",""1"",""8205""
","
","
","""event"",""trial"",""time""
""fullscreenenter"",""1"",""8205""
","
","","","","","","998.7999999523163","<p> Here is what you might see if you did not give the equipment to the kids but it would have made them happy: </p><p style=""color:grey; font-size:50px; display: inline-block; border-spacing: 15px; border-width:3px; border-style:solid; border-color:red"">  &nbsp; 7 &nbsp; </p><p> Remember, in this case, you would not win or lose ANY points because you did not give them the equipment.  </p><p style=""color:grey"">The text is GREY because you earned ZERO points. </p><p style=""color:red"">However, choosing to give the kids the equipment would have made you win points. The box around the text is RED because you chose the worse option. </p>","","0","instructions","","","","","","","","","","",""
"learning-instructions","20","221566","0.0-8.0-0.0-0.12","4294","1","18","Female","approach_avoid_spark_v1","""event"",""trial"",""time""
""fullscreenenter"",""1"",""8205""
","
","
","""event"",""trial"",""time""
""fullscreenenter"",""1"",""8205""
","
","","","","","","727.7999999523163","<p> Here is what you might see if you did not give the equipment to the kids but it would have made them sad: </p><p style=""color:grey;font-size:50px; display: inline-block; border-spacing: 15px; border-width:3px; border-style:solid; border-color:green"">  &nbsp; -8 &nbsp; </p><p> Remember, in this case, you would not win or lose ANY points because you did not give them the equipment.  </p><p style=""color:grey"">The text is GREY because you earned ZERO points. </p><p  style=""color:green""> Choosing to give the kids the equipment would have made you lose points. The box around the text is GREEN because you chose the better option.</p>","","0","instructions","","","","","","","","","","",""
"learning-instructions","21","231895","0.0-8.0-0.0-0.13","4294","1","18","Female","approach_avoid_spark_v1","""event"",""trial"",""time""
""fullscreenenter"",""1"",""8205""
","
","
","""event"",""trial"",""time""
""fullscreenenter"",""1"",""8205""
","
","","","","","","1398.7000000476837","<p> You will have 3 seconds to make each choice. Try to respond before time runs out! </p><p> You will lose 5 points each time you do not make a response. </p>","","0","instructions","","","","","","","","","","",""
"learning-instructions","22","238183","0.0-8.0-0.0-0.14","4294","1","18","Female","approach_avoid_spark_v1","""event"",""trial"",""time""
""fullscreenenter"",""1"",""8205""
","
","
","""event"",""trial"",""time""
""fullscreenenter"",""1"",""8205""
","
","","","","","","876.5999999046326","<p> This is just a practice round, but in the real game, your bonus payment will depend on your total number of points.","","0","instructions","","","","","","","","","","",""
"learning-instructions","23","245019","0.0-8.0-0.0-0.15","4294","1","18","Female","approach_avoid_spark_v1","""event"",""trial"",""time""
""fullscreenenter"",""1"",""8205""
","
","
","""event"",""trial"",""time""
""fullscreenenter"",""1"",""8205""
","
","","","","","","1072.1000001430511","<p> Remember, you can give them the equipment by pressing 1 and choose not to give it to them by pressing 0. </p><br><div class=""choice-instructions-grid""> <div class=""choice-option""><img src=""images/approach.png"" class=""choice-option-img"" stage=""instructions"" position=""0"" ><div class=""choice-option-text""> Press ""1."" </div></div><div class=""choice-option""><img src=""images/avoid.png"" class=""choice-option-img"" stage=""instructions"" position=""1"" ><div class=""choice-option-text""> Press ""0."" </div></div>","","0","instructions","","","","","","","","","","",""
"html-button-response","24","246759","0.0-8.0-1.0","4294","1","18","Female","approach_avoid_spark_v1","""event"",""trial"",""time""
""fullscreenenter"",""1"",""8205""
","
","
","""event"",""trial"",""time""
""fullscreenenter"",""1"",""8205""
","
","","","","","","1634.3000001907349","<p> Ready to practice? </p>","0","","","","","","","","","","","","",""
"html-keyboard-response","25","247366","0.0-8.0-2.0-0.0","4294","1","18","Female","approach_avoid_spark_v1","""event"",""trial"",""time""
""fullscreenenter"",""1"",""8205""
","
","
","""event"",""trial"",""time""
""fullscreenenter"",""1"",""8205""
","
","","","","","","null","<div style=""font-size:60px;"">+</div>","null","","fixation","","","","","","","","","","",""
"aa-learning-trial","26","250373","0.0-8.0-2.0-1.0","4294","1","18","Female","approach_avoid_spark_v1","""event"",""trial"",""time""
""fullscreenenter"",""1"",""8205""
","
","
","""event"",""trial"",""time""
""fullscreenenter"",""1"",""8205""
","
","","","","","","null","images/racket3.png","","","learning","-5","-5","","null","practice","practice","practice","-1","","",""
"html-keyboard-response","27","250879","0.0-8.0-2.0-0.1","4294","1","18","Female","approach_avoid_spark_v1","""event"",""trial"",""time""
""fullscreenenter"",""1"",""8205""
","
","
","""event"",""trial"",""time""
""fullscreenenter"",""1"",""8205""
","
","","","","","","null","<div style=""font-size:60px;"">+</div>","null","","fixation","","","","","","","","","","",""
"aa-learning-trial","28","253886","0.0-8.0-2.0-1.1","4294","1","18","Female","approach_avoid_spark_v1","""event"",""trial"",""time""
""fullscreenenter"",""1"",""8205""
","
","
","""event"",""trial"",""time""
""fullscreenenter"",""1"",""8205""
","
","","","","","","null","images/racket1.png","","","learning","-3","-5","","null","practice","practice","practice","-1","","",""
"html-keyboard-response","29","254388","0.0-8.0-2.0-0.2","4294","1","18","Female","approach_avoid_spark_v1","""event"",""trial"",""time""
""fullscreenenter"",""1"",""8205""
","
","
","""event"",""trial"",""time""
""fullscreenenter"",""1"",""8205""
","
","","","","","","null","<div style=""font-size:60px;"">+</div>","null","","fixation","","","","","","","","","","",""
"aa-learning-trial","30","257392","0.0-8.0-2.0-1.2","4294","1","18","Female","approach_avoid_spark_v1","""event"",""trial"",""time""
""fullscreenenter"",""1"",""8205""
","
","
","""event"",""trial"",""time""
""fullscreenenter"",""1"",""8205""
","
","","","","","","1589.0999999046326","images/racket2.png","","","learning","6","6","1","1","practice","practice","practice","-1","","",""
"html-keyboard-response","31","257899","0.0-8.0-2.0-0.3","4294","1","18","Female","approach_avoid_spark_v1","""event"",""trial"",""time""
""fullscreenenter"",""1"",""8205""
","
","
","""event"",""trial"",""time""
""fullscreenenter"",""1"",""8205""
","
","","","","","","null","<div style=""font-size:60px;"">+</div>","null","","fixation","","","","","","","","","","",""
"aa-learning-trial","32","260905","0.0-8.0-2.0-1.3","4294","1","18","Female","approach_avoid_spark_v1","""event"",""trial"",""time""
""fullscreenenter"",""1"",""8205""
","
","
","""event"",""trial"",""time""
""fullscreenenter"",""1"",""8205""
","
","","","","","","869.5","images/ball1.png","","","learning","9","9","1","1","practice","practice","practice","-1","","",""
"html-keyboard-response","33","261406","0.0-8.0-2.0-0.4","4294","1","18","Female","approach_avoid_spark_v1","""event"",""trial"",""time""
""fullscreenenter"",""1"",""8205""
","
","
","""event"",""trial"",""time""
""fullscreenenter"",""1"",""8205""
","
","","","","","","null","<div style=""font-size:60px;"">+</div>","null","","fixation","","","","","","","","","","",""
"aa-learning-trial","34","264409","0.0-8.0-2.0-1.4","4294","1","18","Female","approach_avoid_spark_v1","""event"",""trial"",""time""
""fullscreenenter"",""1"",""8205""
","
","
","""event"",""trial"",""time""
""fullscreenenter"",""1"",""8205""
","
","","","","","","1604.7999999523163","images/ball3.png","","","learning","-9","-9","1","1","practice","practice","practice","-1","","",""
"html-keyboard-response","35","264913","0.0-8.0-2.0-0.5","4294","1","18","Female","approach_avoid_spark_v1","""event"",""trial"",""time""
""fullscreenenter"",""1"",""8205""
","
","
","""event"",""trial"",""time""
""fullscreenenter"",""1"",""8205""
","
","","","","","","null","<div style=""font-size:60px;"">+</div>","null","","fixation","","","","","","","","","","",""
"aa-learning-trial","36","267918","0.0-8.0-2.0-1.5","4294","1","18","Female","approach_avoid_spark_v1","""event"",""trial"",""time""
""fullscreenenter"",""1"",""8205""
","
","
","""event"",""trial"",""time""
""fullscreenenter"",""1"",""8205""
","
","","","","","","null","images/racket4.png","","","learning","9","-5","","null","practice","practice","practice","-1","","",""
"html-keyboard-response","37","268421","0.0-8.0-2.0-0.6","4294","1","18","Female","approach_avoid_spark_v1","""event"",""trial"",""time""
""fullscreenenter"",""1"",""8205""
","
","
","""event"",""trial"",""time""
""fullscreenenter"",""1"",""8205""
","
","","","","","","null","<div style=""font-size:60px;"">+</div>","null","","fixation","","","","","","","","","","",""
"aa-learning-trial","38","271428","0.0-8.0-2.0-1.6","4294","1","18","Female","approach_avoid_spark_v1","""event"",""trial"",""time""
""fullscreenenter"",""1"",""8205""
","
","
","""event"",""trial"",""time""
""fullscreenenter"",""1"",""8205""
","
","","","","","","973.8000001907349","images/racket3.png","","","learning","-4","0","0","0","practice","practice","practice","-1","","",""
"html-keyboard-response","39","271929","0.0-8.0-2.0-0.7","4294","1","18","Female","approach_avoid_spark_v1","""event"",""trial"",""time""
""fullscreenenter"",""1"",""8205""
","
","
","""event"",""trial"",""time""
""fullscreenenter"",""1"",""8205""
","
","","","","","","null","<div style=""font-size:60px;"">+</div>","null","","fixation","","","","","","","","","","",""
"aa-learning-trial","40","274931","0.0-8.0-2.0-1.7","4294","1","18","Female","approach_avoid_spark_v1","""event"",""trial"",""time""
""fullscreenenter"",""1"",""8205""
","
","
","""event"",""trial"",""time""
""fullscreenenter"",""1"",""8205""
","
","","","","","","2103.100000143051","images/ball4.png","","","learning","-2","-2","1","1","practice","practice","practice","-1","","",""
"html-keyboard-response","41","275436","0.0-8.0-2.0-0.8","4294","1","18","Female","approach_avoid_spark_v1","""event"",""trial"",""time""
""fullscreenenter"",""1"",""8205""
","
","
","""event"",""trial"",""time""
""fullscreenenter"",""1"",""8205""
","
","","","","","","null","<div style=""font-size:60px;"">+</div>","null","","fixation","","","","","","","","","","",""
"aa-learning-trial","42","278443","0.0-8.0-2.0-1.8","4294","1","18","Female","approach_avoid_spark_v1","""event"",""trial"",""time""
""fullscreenenter"",""1"",""8205""
","
","
","""event"",""trial"",""time""
""fullscreenenter"",""1"",""8205""
","
","","","","","","1346.7000000476837","images/racket3.png","","","learning","-4","0","0","0","practice","practice","practice","-1","","",""
"html-keyboard-response","43","278948","0.0-8.0-2.0-0.9","4294","1","18","Female","approach_avoid_spark_v1","""event"",""trial"",""time""
""fullscreenenter"",""1"",""8205""
","
","
","""event"",""trial"",""time""
""fullscreenenter"",""1"",""8205""
","
","","","","","","null","<div style=""font-size:60px;"">+</div>","null","","fixation","","","","","","","","","","",""
"aa-learning-trial","44","281955","0.0-8.0-2.0-1.9","4294","1","18","Female","approach_avoid_spark_v1","""event"",""trial"",""time""
""fullscreenenter"",""1"",""8205""
","
","
","""event"",""trial"",""time""
""fullscreenenter"",""1"",""8205""
","
","","","","","","1839.4000000953674","images/racket4.png","","","learning","-4","-4","1","1","practice","practice","practice","-1","","",""
"html-keyboard-response","45","282458","0.0-8.0-2.0-0.10","4294","1","18","Female","approach_avoid_spark_v1","""event"",""trial"",""time""
""fullscreenenter"",""1"",""8205""
","
","
","""event"",""trial"",""time""
""fullscreenenter"",""1"",""8205""
","
","","","","","","null","<div style=""font-size:60px;"">+</div>","null","","fixation","","","","","","","","","","",""
"aa-learning-trial","46","285465","0.0-8.0-2.0-1.10","4294","1","18","Female","approach_avoid_spark_v1","""event"",""trial"",""time""
""fullscreenenter"",""1"",""8205""
","
","
","""event"",""trial"",""time""
""fullscreenenter"",""1"",""8205""
","
","","","","","","1413.3999998569489","images/ball3.png","","","learning","3","3","1","1","practice","practice","practice","-1","","",""
"html-keyboard-response","47","285967","0.0-8.0-2.0-0.11","4294","1","18","Female","approach_avoid_spark_v1","""event"",""trial"",""time""
""fullscreenenter"",""1"",""8205""
","
","
","""event"",""trial"",""time""
""fullscreenenter"",""1"",""8205""
","
","","","","","","null","<div style=""font-size:60px;"">+</div>","null","","fixation","","","","","","","","","","",""
"aa-learning-trial","48","288969","0.0-8.0-2.0-1.11","4294","1","18","Female","approach_avoid_spark_v1","""event"",""trial"",""time""
""fullscreenenter"",""1"",""8205""
","
","
","""event"",""trial"",""time""
""fullscreenenter"",""1"",""8205""
","
","","","","","","1724.2000000476837","images/racket4.png","","","learning","-3","0","0","0","practice","practice","practice","-1","","",""
"html-button-response","49","291908","0.0-8.0-3.0","4294","1","18","Female","approach_avoid_spark_v1","""event"",""trial"",""time""
""fullscreenenter"",""1"",""8205""
","
","
","""event"",""trial"",""time""
""fullscreenenter"",""1"",""8205""
","
","","","","","","2935.2000000476837","<p> You earned -12 points in the practice round! </p>","0","","break","","","","","","","","","","",""
"learning-instructions","50","299810","0.0-8.0-4.0-0.0","4294","1","18","Female","approach_avoid_spark_v1","""event"",""trial"",""time""
""fullscreenenter"",""1"",""8205""
","
","
","""event"",""trial"",""time""
""fullscreenenter"",""1"",""8205""
","
","","","","","","1884.2000000476837","<p> It's almost time to start the real game. </p><p> Before you start, we're going to ask you a few questions about how the game works. </p>","","0","instructions","","","","","","","","","","",""
"preload","51","303283","0.0-8.0-5.0","4294","1","18","Female","approach_avoid_spark_v1","""event"",""trial"",""time""
""fullscreenenter"",""1"",""8205""
","
","
","""event"",""trial"",""time""
""fullscreenenter"",""1"",""8205""
","
","true","false","[]","[]","[]","","","","","","","","","","","","","","","",""
"comp-q","52","309190","0.0-8.0-6.0-0.0","4294","1","18","Female","approach_avoid_spark_v1","""event"",""trial"",""time""
""fullscreenenter"",""1"",""8205""
","
","
","""event"",""trial"",""time""
""fullscreenenter"",""1"",""8205""
","
","","","","","","911.7999999523163","<p> <b> True or False? </b> </p><p> If you see a number in GREY, that means you earned that many points. </p>","","1","comp_question","","","","","","","","","true","",""
"comp-q","53","318847","0.0-8.0-6.0-1.0","4294","1","18","Female","approach_avoid_spark_v1","""event"",""trial"",""time""
""fullscreenenter"",""1"",""8205""
","
","
","""event"",""trial"",""time""
""fullscreenenter"",""1"",""8205""
","
","","","","","","1300.3999998569489","<p><b> That's right! </b> If you see a grey number, it means you earned ZERO points. <br> The grey numbers show the points you WOULD HAVE earned if you had made the other choice. </p>","","0","comp_answer","","","","","","","","","","",""
"comp-q","54","324137","0.0-8.0-7.0-0.0","4294","1","18","Female","approach_avoid_spark_v1","""event"",""trial"",""time""
""fullscreenenter"",""1"",""8205""
","
","
","""event"",""trial"",""time""
""fullscreenenter"",""1"",""8205""
","
","","","","","","601","<p> <b> True or False? </b> </p><p> You will have as much time as you want to make each choice. </p>","","1","comp_question","","","","","","","","","true","",""
"comp-q","55","329396","0.0-8.0-7.0-1.0","4294","1","18","Female","approach_avoid_spark_v1","""event"",""trial"",""time""
""fullscreenenter"",""1"",""8205""
","
","
","""event"",""trial"",""time""
""fullscreenenter"",""1"",""8205""
","
","","","","","","1220.1999998092651","<p> <b> That's right! </b> You will only have 3 seconds to make each choice. </p>","","0","comp_answer","","","","","","","","","","",""
"comp-q","56","334989","0.0-8.0-8.0-0.0","4294","1","18","Female","approach_avoid_spark_v1","""event"",""trial"",""time""
""fullscreenenter"",""1"",""8205""
","
","
","""event"",""trial"",""time""
""fullscreenenter"",""1"",""8205""
","
","","","","","","935.9000000953674","<p> <b> True or False? </b> </p><p> You should use the '1' and '0' keys to make your choices. </p>","","0","comp_question","","","","","","","","","true","",""
"comp-q","57","340546","0.0-8.0-8.0-1.0","4294","1","18","Female","approach_avoid_spark_v1","""event"",""trial"",""time""
""fullscreenenter"",""1"",""8205""
","
","
","""event"",""trial"",""time""
""fullscreenenter"",""1"",""8205""
","
","","","","","","951.6999998092651","<p> <b> That's right! </b> You should use the '1' and '0' keys to make each choice. </p>","","0","comp_answer","","","","","","","","","","",""
"learning-instructions","58","348273","0.0-8.0-9.0-0.0","4294","1","18","Female","approach_avoid_spark_v1","""event"",""trial"",""time""
""fullscreenenter"",""1"",""8205""
","
","
","""event"",""trial"",""time""
""fullscreenenter"",""1"",""8205""
","
","","","","","","1457.7999999523163","<p> It's now time to start the real game. </p>Do your best, because the points you earn in the next rounds will influence your bonus payment. </p>","","0","instructions","","","","","","","","","","",""
"preload","59","348394","0.0-9.0-0.0","4294","1","18","Female","approach_avoid_spark_v1","""event"",""trial"",""time""
""fullscreenenter"",""1"",""8205""
","
","
","""event"",""trial"",""time""
""fullscreenenter"",""1"",""8205""
","
","true","false","[]","[]","[]","","","","","","","","","","","","","","","",""
"learning-instructions","60","353360","0.0-9.0-1.0-0.0","4294","1","18","Female","approach_avoid_spark_v1","""event"",""trial"",""time""
""fullscreenenter"",""1"",""8205""
","
","
","""event"",""trial"",""time""
""fullscreenenter"",""1"",""8205""
","
","","","","","","918.5999999046326","<p> Your goal in this round is to take care of lots of farm animals. </p></div>","","0","instructions","","","","","","","","","","",""
"learning-instructions","61","364205","0.0-9.0-1.0-0.1","4294","1","18","Female","approach_avoid_spark_v1","""event"",""trial"",""time""
""fullscreenenter"",""1"",""8205""
","
","
","""event"",""trial"",""time""
""fullscreenenter"",""1"",""8205""
","
","","","","","","921.8000001907349","<p> Some farm animals are hungry, while other farm animals are already full.  </p><p> On each turn, you will see a farm animal.   </p><p> You need to decide whether to feed it or not.  </p>","","0","instructions","","","","","","","","","","",""
"learning-instructions","62","370623","0.0-9.0-1.0-0.2","4294","1","18","Female","approach_avoid_spark_v1","""event"",""trial"",""time""
""fullscreenenter"",""1"",""8205""
","
","
","""event"",""trial"",""time""
""fullscreenenter"",""1"",""8205""
","
","","","","","","635.2999999523163","<p> You can feed the farm animal by pressing 1 and leave the farm animal alone by pressing 0. </p><br><div class=""choice-instructions-grid""> <div class=""choice-option""><img src=""images/approach.png"" class=""choice-option-img"" stage=""instructions"" position=""0"" ><div class=""choice-option-text""> Press ""1."" </div></div><div class=""choice-option""><img src=""images/avoid.png"" class=""choice-option-img"" stage=""instructions"" position=""1"" ><div class=""choice-option-text""> Press ""0."" </div></div>","","0","instructions","","","","","","","","","","",""
"learning-instructions","63","380578","0.0-9.0-1.0-0.3","4294","1","18","Female","approach_avoid_spark_v1","""event"",""trial"",""time""
""fullscreenenter"",""1"",""8205""
","
","
","""event"",""trial"",""time""
""fullscreenenter"",""1"",""8205""
","
","","","","","","521.4000000953674","<p> If you feed a hungry farm animal, you will make it feel satisfied! </p><p> But if you feed the farm animal and it was already full, you will make it feel sick. </p>","","0","instructions","","","","","","","","","","",""
"learning-instructions","64","393639","0.0-9.0-1.0-0.4","4294","1","18","Female","approach_avoid_spark_v1","""event"",""trial"",""time""
""fullscreenenter"",""1"",""8205""
","
","
","""event"",""trial"",""time""
""fullscreenenter"",""1"",""8205""
","
","","","","","","644.2999999523163","<p> You will earn points based on how you made the farm animal feel. </p><p> If you made it satisfied, you will WIN anywhere from 1 - 9 points, </p><p> but if you made it sick, you will LOSE anywhere from 1 - 9 points. </p>","","0","instructions","","","","","","","","","","",""
"learning-instructions","65","401613","0.0-9.0-1.0-0.5","4294","1","18","Female","approach_avoid_spark_v1","""event"",""trial"",""time""
""fullscreenenter"",""1"",""8205""
","
","
","""event"",""trial"",""time""
""fullscreenenter"",""1"",""8205""
","
","","","","","","560.7999999523163","<p> You will see how many points you won or lost in the center of the screen. </p><p> Here is what you would see if you won 5 points: </p><p style=""color:green;font-size:50px;font-weight:bolder"">5</p>","","0","instructions","","","","","","","","","","",""
"learning-instructions","66","405445","0.0-9.0-1.0-0.6","4294","1","18","Female","approach_avoid_spark_v1","""event"",""trial"",""time""
""fullscreenenter"",""1"",""8205""
","
","
","""event"",""trial"",""time""
""fullscreenenter"",""1"",""8205""
","
","","","","","","498.60000014305115","<p> And here is what you would see if you lost 3 points: </p><p style=""color:red;font-size:50px;font-weight:bolder"">-3</p>","","0","instructions","","","","","","","","","","",""
"learning-instructions","67","422601","0.0-9.0-1.0-0.7","4294","1","18","Female","approach_avoid_spark_v1","""event"",""trial"",""time""
""fullscreenenter"",""1"",""8205""
","
","
","""event"",""trial"",""time""
""fullscreenenter"",""1"",""8205""
","
","","","","","","701.4000000953674","<p> Some farm animals will become very satisfied or very sick. </p><p> These farm animals will make you win or lose LOTS of points. </p><p> Other farm animals have less strong feelings. </p><p> These farm animals will make you win or lose small amounts of points. </p>","","0","instructions","","","","","","","","","","",""
"learning-instructions","68","435732","0.0-9.0-1.0-0.8","4294","1","18","Female","approach_avoid_spark_v1","""event"",""trial"",""time""
""fullscreenenter"",""1"",""8205""
","
","
","""event"",""trial"",""time""
""fullscreenenter"",""1"",""8205""
","
","","","","","","781.6000001430511","<p> If you choose to leave the farm animal alone, you will not win or lose any points. </p><p>  However, in the center of the screen, you will see the number of points you WOULD HAVE won or lost if you had fed the farm animal. </p>","","0","instructions","","","","","","","","","","",""
"learning-instructions","69","448229","0.0-9.0-1.0-0.9","4294","1","18","Female","approach_avoid_spark_v1","""event"",""trial"",""time""
""fullscreenenter"",""1"",""8205""
","
","
","""event"",""trial"",""time""
""fullscreenenter"",""1"",""8205""
","
","","","","","","937.5","<p> Here is what you might see if you did not feed the farm animal but the animal was hungry: </p><p style=""color:grey; font-size:50px; display: inline-block; border-spacing: 15px; border-width:3px; border-style:solid; border-color:red"">  &nbsp; 6 &nbsp; </p><p> Remember, in this case, you would not win or lose ANY points because you did not feed the farm animal.  </p>","","0","instructions","","","","","","","","","","",""
"learning-instructions","70","456741","0.0-9.0-1.0-0.10","4294","1","18","Female","approach_avoid_spark_v1","""event"",""trial"",""time""
""fullscreenenter"",""1"",""8205""
","
","
","""event"",""trial"",""time""
""fullscreenenter"",""1"",""8205""
","
","","","","","","537.7000000476837","<p> Try to make the best choice for each farm animal because </p><p> at the end of the game, you will earn bonus money based on how many points you earned. </p>","","0","instructions","","","","","","","","","","",""
"learning-instructions","71","465480","0.0-9.0-1.0-0.11","4294","1","18","Female","approach_avoid_spark_v1","""event"",""trial"",""time""
""fullscreenenter"",""1"",""8205""
","
","
","""event"",""trial"",""time""
""fullscreenenter"",""1"",""8205""
","
","","","","","","552.2999999523163","<p> You will have 3 seconds to make each choice. Try to respond before time runs out! </p><p> You will lose 5 points each time you do not make a response. </p>","","0","instructions","","","","","","","","","","",""
"html-keyboard-response","72","466089","0.0-9.0-2.0-0.0","4294","1","18","Female","approach_avoid_spark_v1","""event"",""trial"",""time""
""fullscreenenter"",""1"",""8205""
","
","
","""event"",""trial"",""time""
""fullscreenenter"",""1"",""8205""
","
","","","","","","null","<div style=""font-size:60px;"">+</div>","null","","fixation","","","","","","","","","","",""
"aa-learning-trial","73","469094","0.0-9.0-2.0-1.0","4294","1","18","Female","approach_avoid_spark_v1","""event"",""trial"",""time""
""fullscreenenter"",""1"",""8205""
","
","
","""event"",""trial"",""time""
""fullscreenenter"",""1"",""8205""
","
","","","","","","1111.8000001907349","images/goat6.png","","","learning","-1","-1","1","1","goat","animals","1","0","","neutral","0"
"html-keyboard-response","74","469599","0.0-9.0-2.0-0.1","4294","1","18","Female","approach_avoid_spark_v1","""event"",""trial"",""time""
""fullscreenenter"",""1"",""8205""
","
","
","""event"",""trial"",""time""
""fullscreenenter"",""1"",""8205""
","
","","","","","","null","<div style=""font-size:60px;"">+</div>","null","","fixation","","","","","","","","","","",""
"aa-learning-trial","75","472606","0.0-9.0-2.0-1.1","4294","1","18","Female","approach_avoid_spark_v1","""event"",""trial"",""time""
""fullscreenenter"",""1"",""8205""
","
","
","""event"",""trial"",""time""
""fullscreenenter"",""1"",""8205""
","
","","","","","","1293.7000000476837","images/horse2.png","","","learning","5","5","1","1","horse","animals","1","0","","good","[6]"
"html-keyboard-response","76","473110","0.0-9.0-2.0-0.2","4294","1","18","Female","approach_avoid_spark_v1","""event"",""trial"",""time""
""fullscreenenter"",""1"",""8205""
","
","
","""event"",""trial"",""time""
""fullscreenenter"",""1"",""8205""
","
","","","","","","null","<div style=""font-size:60px;"">+</div>","null","","fixation","","","","","","","","","","",""
"aa-learning-trial","77","476113","0.0-9.0-2.0-1.2","4294","1","18","Female","approach_avoid_spark_v1","""event"",""trial"",""time""
""fullscreenenter"",""1"",""8205""
","
","
","""event"",""trial"",""time""
""fullscreenenter"",""1"",""8205""
","
","","","","","","2169.300000190735","images/goat3.png","","","learning","-1","0","0","0","goat","animals","1","0","","neutral","0"
"html-keyboard-response","78","476619","0.0-9.0-2.0-0.3","4294","1","18","Female","approach_avoid_spark_v1","""event"",""trial"",""time""
""fullscreenenter"",""1"",""8205""
","
","
","""event"",""trial"",""time""
""fullscreenenter"",""1"",""8205""
","
","","","","","","null","<div style=""font-size:60px;"">+</div>","null","","fixation","","","","","","","","","","",""
"aa-learning-trial","79","479623","0.0-9.0-2.0-1.3","4294","1","18","Female","approach_avoid_spark_v1","""event"",""trial"",""time""
""fullscreenenter"",""1"",""8205""
","
","
","""event"",""trial"",""time""
""fullscreenenter"",""1"",""8205""
","
","","","","","","1431.4000000953674","images/horse4.png","","","learning","5","0","0","0","horse","animals","1","0","","good","[6]"
"html-keyboard-response","80","480127","0.0-9.0-2.0-0.4","4294","1","18","Female","approach_avoid_spark_v1","""event"",""trial"",""time""
""fullscreenenter"",""1"",""8205""
","
","
","""event"",""trial"",""time""
""fullscreenenter"",""1"",""8205""
","
","","","","","","null","<div style=""font-size:60px;"">+</div>","null","","fixation","","","","","","","","","","",""
"aa-learning-trial","81","483131","0.0-9.0-2.0-1.4","4294","1","18","Female","approach_avoid_spark_v1","""event"",""trial"",""time""
""fullscreenenter"",""1"",""8205""
","
","
","""event"",""trial"",""time""
""fullscreenenter"",""1"",""8205""
","
","","","","","","1510.1000001430511","images/cow4.png","","","learning","-4","-4","1","1","cow","animals","1","0","","bad","[-4]"
"html-keyboard-response","82","483635","0.0-9.0-2.0-0.5","4294","1","18","Female","approach_avoid_spark_v1","""event"",""trial"",""time""
""fullscreenenter"",""1"",""8205""
","
","
","""event"",""trial"",""time""
""fullscreenenter"",""1"",""8205""
","
","","","","","","null","<div style=""font-size:60px;"">+</div>","null","","fixation","","","","","","","","","","",""
"aa-learning-trial","83","486640","0.0-9.0-2.0-1.5","4294","1","18","Female","approach_avoid_spark_v1","""event"",""trial"",""time""
""fullscreenenter"",""1"",""8205""
","
","
","""event"",""trial"",""time""
""fullscreenenter"",""1"",""8205""
","
","","","","","","1428.7999999523163","images/cow2.png","","","learning","2","0","0","0","cow","animals","1","0","","bad","[-4]"
"html-keyboard-response","84","487145","0.0-9.0-2.0-0.6","4294","1","18","Female","approach_avoid_spark_v1","""event"",""trial"",""time""
""fullscreenenter"",""1"",""8205""
","
","
","""event"",""trial"",""time""
""fullscreenenter"",""1"",""8205""
","
","","","","","","null","<div style=""font-size:60px;"">+</div>","null","","fixation","","","","","","","","","","",""
"aa-learning-trial","85","490149","0.0-9.0-2.0-1.6","4294","1","18","Female","approach_avoid_spark_v1","""event"",""trial"",""time""
""fullscreenenter"",""1"",""8205""
","
","
","""event"",""trial"",""time""
""fullscreenenter"",""1"",""8205""
","
","","","","","","1260.7999999523163","images/horse5.png","","","learning","10","10","1","1","horse","animals","1","0","","good","[6]"
"html-keyboard-response","86","490650","0.0-9.0-2.0-0.7","4294","1","18","Female","approach_avoid_spark_v1","""event"",""trial"",""time""
""fullscreenenter"",""1"",""8205""
","
","
","""event"",""trial"",""time""
""fullscreenenter"",""1"",""8205""
","
","","","","","","null","<div style=""font-size:60px;"">+</div>","null","","fixation","","","","","","","","","","",""
"aa-learning-trial","87","493655","0.0-9.0-2.0-1.7","4294","1","18","Female","approach_avoid_spark_v1","""event"",""trial"",""time""
""fullscreenenter"",""1"",""8205""
","
","
","""event"",""trial"",""time""
""fullscreenenter"",""1"",""8205""
","
","","","","","","1560.2000000476837","images/horse4.png","","","learning","8","8","1","1","horse","animals","1","0","","good","[6]"
"html-keyboard-response","88","494160","0.0-9.0-2.0-0.8","4294","1","18","Female","approach_avoid_spark_v1","""event"",""trial"",""time""
""fullscreenenter"",""1"",""8205""
","
","
","""event"",""trial"",""time""
""fullscreenenter"",""1"",""8205""
","
","","","","","","null","<div style=""font-size:60px;"">+</div>","null","","fixation","","","","","","","","","","",""
"aa-learning-trial","89","497163","0.0-9.0-2.0-1.8","4294","1","18","Female","approach_avoid_spark_v1","""event"",""trial"",""time""
""fullscreenenter"",""1"",""8205""
","
","
","""event"",""trial"",""time""
""fullscreenenter"",""1"",""8205""
","
","","","","","","2555.899999856949","images/cow8.png","","","learning","-3","0","0","0","cow","animals","1","0","","bad","[-4]"
"html-keyboard-response","90","497668","0.0-9.0-2.0-0.9","4294","1","18","Female","approach_avoid_spark_v1","""event"",""trial"",""time""
""fullscreenenter"",""1"",""8205""
","
","
","""event"",""trial"",""time""
""fullscreenenter"",""1"",""8205""
","
","","","","","","null","<div style=""font-size:60px;"">+</div>","null","","fixation","","","","","","","","","","",""
"aa-learning-trial","91","500671","0.0-9.0-2.0-1.9","4294","1","18","Female","approach_avoid_spark_v1","""event"",""trial"",""time""
""fullscreenenter"",""1"",""8205""
","
","
","""event"",""trial"",""time""
""fullscreenenter"",""1"",""8205""
","
","","","","","","2136.9000000953674","images/goat6.png","","","learning","-1","-1","1","1","goat","animals","1","0","","neutral","0"
"html-keyboard-response","92","501172","0.0-9.0-2.0-0.10","4294","1","18","Female","approach_avoid_spark_v1","""event"",""trial"",""time""
""fullscreenenter"",""1"",""8205""
","
","
","""event"",""trial"",""time""
""fullscreenenter"",""1"",""8205""
","
","","","","","","null","<div style=""font-size:60px;"">+</div>","null","","fixation","","","","","","","","","","",""
"aa-learning-trial","93","504177","0.0-9.0-2.0-1.10","4294","1","18","Female","approach_avoid_spark_v1","""event"",""trial"",""time""
""fullscreenenter"",""1"",""8205""
","
","
","""event"",""trial"",""time""
""fullscreenenter"",""1"",""8205""
","
","","","","","","1407.1999998092651","images/goat3.png","","","learning","1","1","1","1","goat","animals","1","0","","neutral","0"
"html-keyboard-response","94","504681","0.0-9.0-2.0-0.11","4294","1","18","Female","approach_avoid_spark_v1","""event"",""trial"",""time""
""fullscreenenter"",""1"",""8205""
","
","
","""event"",""trial"",""time""
""fullscreenenter"",""1"",""8205""
","
","","","","","","null","<div style=""font-size:60px;"">+</div>","null","","fixation","","","","","","","","","","",""
"aa-learning-trial","95","507687","0.0-9.0-2.0-1.11","4294","1","18","Female","approach_avoid_spark_v1","""event"",""trial"",""time""
""fullscreenenter"",""1"",""8205""
","
","
","""event"",""trial"",""time""
""fullscreenenter"",""1"",""8205""
","
","","","","","","1487","images/cow4.png","","","learning","-4","-4","1","1","cow","animals","1","0","","bad","[-4]"
"html-keyboard-response","96","508191","0.0-9.0-2.0-0.12","4294","1","18","Female","approach_avoid_spark_v1","""event"",""trial"",""time""
""fullscreenenter"",""1"",""8205""
","
","
","""event"",""trial"",""time""
""fullscreenenter"",""1"",""8205""
","
","","","","","","null","<div style=""font-size:60px;"">+</div>","null","","fixation","","","","","","","","","","",""
"aa-learning-trial","97","511194","0.0-9.0-2.0-1.12","4294","1","18","Female","approach_avoid_spark_v1","""event"",""trial"",""time""
""fullscreenenter"",""1"",""8205""
","
","
","""event"",""trial"",""time""
""fullscreenenter"",""1"",""8205""
","
","","","","","","1195.2000000476837","images/goat5.png","","","learning","1","1","1","1","goat","animals","1","0","","neutral","0"
"html-keyboard-response","98","511700","0.0-9.0-2.0-0.13","4294","1","18","Female","approach_avoid_spark_v1","""event"",""trial"",""time""
""fullscreenenter"",""1"",""8205""
","
","
","""event"",""trial"",""time""
""fullscreenenter"",""1"",""8205""
","
","","","","","","null","<div style=""font-size:60px;"">+</div>","null","","fixation","","","","","","","","","","",""
"aa-learning-trial","99","514703","0.0-9.0-2.0-1.13","4294","1","18","Female","approach_avoid_spark_v1","""event"",""trial"",""time""
""fullscreenenter"",""1"",""8205""
","
","
","""event"",""trial"",""time""
""fullscreenenter"",""1"",""8205""
","
","","","","","","1488.0999999046326","images/cow8.png","","","learning","-3","0","0","0","cow","animals","1","0","","bad","[-4]"
"html-keyboard-response","100","515205","0.0-9.0-2.0-0.14","4294","1","18","Female","approach_avoid_spark_v1","""event"",""trial"",""time""
""fullscreenenter"",""1"",""8205""
","
","
","""event"",""trial"",""time""
""fullscreenenter"",""1"",""8205""
","
","","","","","","null","<div style=""font-size:60px;"">+</div>","null","","fixation","","","","","","","","","","",""
"aa-learning-trial","101","518207","0.0-9.0-2.0-1.14","4294","1","18","Female","approach_avoid_spark_v1","""event"",""trial"",""time""
""fullscreenenter"",""1"",""8205""
","
","
","""event"",""trial"",""time""
""fullscreenenter"",""1"",""8205""
","
","","","","","","1218.7999999523163","images/horse5.png","","","learning","6","6","1","1","horse","animals","1","0","","good","[6]"
"html-keyboard-response","102","518713","0.0-9.0-2.0-0.15","4294","1","18","Female","approach_avoid_spark_v1","""event"",""trial"",""time""
""fullscreenenter"",""1"",""8205""
","
","
","""event"",""trial"",""time""
""fullscreenenter"",""1"",""8205""
","
","","","","","","null","<div style=""font-size:60px;"">+</div>","null","","fixation","","","","","","","","","","",""
"aa-learning-trial","103","521717","0.0-9.0-2.0-1.15","4294","1","18","Female","approach_avoid_spark_v1","""event"",""trial"",""time""
""fullscreenenter"",""1"",""8205""
","
","
","""event"",""trial"",""time""
""fullscreenenter"",""1"",""8205""
","
","","","","","","1928.1000001430511","images/cow3.png","","","learning","-3","-3","1","1","cow","animals","1","0","","bad","[-4]"
"html-keyboard-response","104","522219","0.0-9.0-2.0-0.16","4294","1","18","Female","approach_avoid_spark_v1","""event"",""trial"",""time""
""fullscreenenter"",""1"",""8205""
","
","
","""event"",""trial"",""time""
""fullscreenenter"",""1"",""8205""
","
","","","","","","null","<div style=""font-size:60px;"">+</div>","null","","fixation","","","","","","","","","","",""
"aa-learning-trial","105","525220","0.0-9.0-2.0-1.16","4294","1","18","Female","approach_avoid_spark_v1","""event"",""trial"",""time""
""fullscreenenter"",""1"",""8205""
","
","
","""event"",""trial"",""time""
""fullscreenenter"",""1"",""8205""
","
","","","","","","1710.8999998569489","images/goat6.png","","","learning","-1","0","0","0","goat","animals","1","0","","neutral","0"
"html-keyboard-response","106","525721","0.0-9.0-2.0-0.17","4294","1","18","Female","approach_avoid_spark_v1","""event"",""trial"",""time""
""fullscreenenter"",""1"",""8205""
","
","
","""event"",""trial"",""time""
""fullscreenenter"",""1"",""8205""
","
","","","","","","null","<div style=""font-size:60px;"">+</div>","null","","fixation","","","","","","","","","","",""
"aa-learning-trial","107","528729","0.0-9.0-2.0-1.17","4294","1","18","Female","approach_avoid_spark_v1","""event"",""trial"",""time""
""fullscreenenter"",""1"",""8205""
","
","
","""event"",""trial"",""time""
""fullscreenenter"",""1"",""8205""
","
","","","","","","1622.6999998092651","images/cow4.png","","","learning","-6","-6","1","1","cow","animals","1","0","","bad","[-4]"
"html-keyboard-response","108","529233","0.0-9.0-2.0-0.18","4294","1","18","Female","approach_avoid_spark_v1","""event"",""trial"",""time""
""fullscreenenter"",""1"",""8205""
","
","
","""event"",""trial"",""time""
""fullscreenenter"",""1"",""8205""
","
","","","","","","null","<div style=""font-size:60px;"">+</div>","null","","fixation","","","","","","","","","","",""
"aa-learning-trial","109","532238","0.0-9.0-2.0-1.18","4294","1","18","Female","approach_avoid_spark_v1","""event"",""trial"",""time""
""fullscreenenter"",""1"",""8205""
","
","
","""event"",""trial"",""time""
""fullscreenenter"",""1"",""8205""
","
","","","","","","1313.5","images/horse7.png","","","learning","5","5","1","1","horse","animals","1","0","","good","[6]"
"html-keyboard-response","110","532740","0.0-9.0-2.0-0.19","4294","1","18","Female","approach_avoid_spark_v1","""event"",""trial"",""time""
""fullscreenenter"",""1"",""8205""
","
","
","""event"",""trial"",""time""
""fullscreenenter"",""1"",""8205""
","
","","","","","","null","<div style=""font-size:60px;"">+</div>","null","","fixation","","","","","","","","","","",""
"aa-learning-trial","111","535745","0.0-9.0-2.0-1.19","4294","1","18","Female","approach_avoid_spark_v1","""event"",""trial"",""time""
""fullscreenenter"",""1"",""8205""
","
","
","""event"",""trial"",""time""
""fullscreenenter"",""1"",""8205""
","
","","","","","","1654.6999998092651","images/cow8.png","","","learning","-4","0","0","0","cow","animals","1","0","","bad","[-4]"
"html-keyboard-response","112","536251","0.0-9.0-2.0-0.20","4294","1","18","Female","approach_avoid_spark_v1","""event"",""trial"",""time""
""fullscreenenter"",""1"",""8205""
","
","
","""event"",""trial"",""time""
""fullscreenenter"",""1"",""8205""
","
","","","","","","null","<div style=""font-size:60px;"">+</div>","null","","fixation","","","","","","","","","","",""
"aa-learning-trial","113","539253","0.0-9.0-2.0-1.20","4294","1","18","Female","approach_avoid_spark_v1","""event"",""trial"",""time""
""fullscreenenter"",""1"",""8205""
","
","
","""event"",""trial"",""time""
""fullscreenenter"",""1"",""8205""
","
","","","","","","2213.5999999046326","images/goat3.png","","","learning","-1","-1","1","1","goat","animals","1","0","","neutral","0"
"html-keyboard-response","114","539758","0.0-9.0-2.0-0.21","4294","1","18","Female","approach_avoid_spark_v1","""event"",""trial"",""time""
""fullscreenenter"",""1"",""8205""
","
","
","""event"",""trial"",""time""
""fullscreenenter"",""1"",""8205""
","
","","","","","","null","<div style=""font-size:60px;"">+</div>","null","","fixation","","","","","","","","","","",""
"aa-learning-trial","115","542763","0.0-9.0-2.0-1.21","4294","1","18","Female","approach_avoid_spark_v1","""event"",""trial"",""time""
""fullscreenenter"",""1"",""8205""
","
","
","""event"",""trial"",""time""
""fullscreenenter"",""1"",""8205""
","
","","","","","","1661.1999998092651","images/horse6.png","","","learning","4","4","1","1","horse","animals","1","0","","good","[6]"
"html-keyboard-response","116","543268","0.0-9.0-2.0-0.22","4294","1","18","Female","approach_avoid_spark_v1","""event"",""trial"",""time""
""fullscreenenter"",""1"",""8205""
","
","
","""event"",""trial"",""time""
""fullscreenenter"",""1"",""8205""
","
","","","","","","null","<div style=""font-size:60px;"">+</div>","null","","fixation","","","","","","","","","","",""
"aa-learning-trial","117","546276","0.0-9.0-2.0-1.22","4294","1","18","Female","approach_avoid_spark_v1","""event"",""trial"",""time""
""fullscreenenter"",""1"",""8205""
","
","
","""event"",""trial"",""time""
""fullscreenenter"",""1"",""8205""
","
","","","","","","1056.7999999523163","images/cow8.png","","","learning","-3","-3","1","1","cow","animals","1","0","","bad","[-4]"
"html-keyboard-response","118","546781","0.0-9.0-2.0-0.23","4294","1","18","Female","approach_avoid_spark_v1","""event"",""trial"",""time""
""fullscreenenter"",""1"",""8205""
","
","
","""event"",""trial"",""time""
""fullscreenenter"",""1"",""8205""
","
","","","","","","null","<div style=""font-size:60px;"">+</div>","null","","fixation","","","","","","","","","","",""
"aa-learning-trial","119","549786","0.0-9.0-2.0-1.23","4294","1","18","Female","approach_avoid_spark_v1","""event"",""trial"",""time""
""fullscreenenter"",""1"",""8205""
","
","
","""event"",""trial"",""time""
""fullscreenenter"",""1"",""8205""
","
","","","","","","1969.4000000953674","images/goat7.png","","","learning","[-1]","0","0","0","goat","animals","1","0","","neutral","0"
"html-keyboard-response","120","550291","0.0-9.0-2.0-0.24","4294","1","18","Female","approach_avoid_spark_v1","""event"",""trial"",""time""
""fullscreenenter"",""1"",""8205""
","
","
","""event"",""trial"",""time""
""fullscreenenter"",""1"",""8205""
","
","","","","","","null","<div style=""font-size:60px;"">+</div>","null","","fixation","","","","","","","","","","",""
"aa-learning-trial","121","553294","0.0-9.0-2.0-1.24","4294","1","18","Female","approach_avoid_spark_v1","""event"",""trial"",""time""
""fullscreenenter"",""1"",""8205""
","
","
","""event"",""trial"",""time""
""fullscreenenter"",""1"",""8205""
","
","","","","","","863.2000000476837","images/horse5.png","","","learning","5","5","1","1","horse","animals","1","0","","good","[6]"
"html-keyboard-response","122","553796","0.0-9.0-2.0-0.25","4294","1","18","Female","approach_avoid_spark_v1","""event"",""trial"",""time""
""fullscreenenter"",""1"",""8205""
","
","
","""event"",""trial"",""time""
""fullscreenenter"",""1"",""8205""
","
","","","","","","null","<div style=""font-size:60px;"">+</div>","null","","fixation","","","","","","","","","","",""
"aa-learning-trial","123","556804","0.0-9.0-2.0-1.25","4294","1","18","Female","approach_avoid_spark_v1","""event"",""trial"",""time""
""fullscreenenter"",""1"",""8205""
","
","
","""event"",""trial"",""time""
""fullscreenenter"",""1"",""8205""
","
","","","","","","2329.5","images/cow2.png","","","learning","-6","0","0","0","cow","animals","1","0","","bad","[-4]"
"html-keyboard-response","124","557306","0.0-9.0-2.0-0.26","4294","1","18","Female","approach_avoid_spark_v1","""event"",""trial"",""time""
""fullscreenenter"",""1"",""8205""
","
","
","""event"",""trial"",""time""
""fullscreenenter"",""1"",""8205""
","
","","","","","","null","<div style=""font-size:60px;"">+</div>","null","","fixation","","","","","","","","","","",""
"aa-learning-trial","125","560313","0.0-9.0-2.0-1.26","4294","1","18","Female","approach_avoid_spark_v1","""event"",""trial"",""time""
""fullscreenenter"",""1"",""8205""
","
","
","""event"",""trial"",""time""
""fullscreenenter"",""1"",""8205""
","
","","","","","","823.5","images/horse5.png","","","learning","5","5","1","1","horse","animals","1","0","","good","[6]"
"html-keyboard-response","126","560814","0.0-9.0-2.0-0.27","4294","1","18","Female","approach_avoid_spark_v1","""event"",""trial"",""time""
""fullscreenenter"",""1"",""8205""
","
","
","""event"",""trial"",""time""
""fullscreenenter"",""1"",""8205""
","
","","","","","","null","<div style=""font-size:60px;"">+</div>","null","","fixation","","","","","","","","","","",""
"aa-learning-trial","127","563821","0.0-9.0-2.0-1.27","4294","1","18","Female","approach_avoid_spark_v1","""event"",""trial"",""time""
""fullscreenenter"",""1"",""8205""
","
","
","""event"",""trial"",""time""
""fullscreenenter"",""1"",""8205""
","
","","","","","","994.0999999046326","images/cow4.png","","","learning","-3","-3","1","1","cow","animals","1","0","","bad","[-4]"
"html-keyboard-response","128","564324","0.0-9.0-2.0-0.28","4294","1","18","Female","approach_avoid_spark_v1","""event"",""trial"",""time""
""fullscreenenter"",""1"",""8205""
","
","
","""event"",""trial"",""time""
""fullscreenenter"",""1"",""8205""
","
","","","","","","null","<div style=""font-size:60px;"">+</div>","null","","fixation","","","","","","","","","","",""
"aa-learning-trial","129","567329","0.0-9.0-2.0-1.28","4294","1","18","Female","approach_avoid_spark_v1","""event"",""trial"",""time""
""fullscreenenter"",""1"",""8205""
","
","
","""event"",""trial"",""time""
""fullscreenenter"",""1"",""8205""
","
","","","","","","1702.5999999046326","images/horse4.png","","","learning","5","5","1","1","horse","animals","1","0","","good","[6]"
"html-keyboard-response","130","567834","0.0-9.0-2.0-0.29","4294","1","18","Female","approach_avoid_spark_v1","""event"",""trial"",""time""
""fullscreenenter"",""1"",""8205""
","
","
","""event"",""trial"",""time""
""fullscreenenter"",""1"",""8205""
","
","","","","","","null","<div style=""font-size:60px;"">+</div>","null","","fixation","","","","","","","","","","",""
"aa-learning-trial","131","570841","0.0-9.0-2.0-1.29","4294","1","18","Female","approach_avoid_spark_v1","""event"",""trial"",""time""
""fullscreenenter"",""1"",""8205""
","
","
","""event"",""trial"",""time""
""fullscreenenter"",""1"",""8205""
","
","","","","","","740.0999999046326","images/horse5.png","","","learning","7","7","1","1","horse","animals","1","0","","good","[6]"
"html-keyboard-response","132","571345","0.0-9.0-2.0-0.30","4294","1","18","Female","approach_avoid_spark_v1","""event"",""trial"",""time""
""fullscreenenter"",""1"",""8205""
","
","
","""event"",""trial"",""time""
""fullscreenenter"",""1"",""8205""
","
","","","","","","null","<div style=""font-size:60px;"">+</div>","null","","fixation","","","","","","","","","","",""
"aa-learning-trial","133","574350","0.0-9.0-2.0-1.30","4294","1","18","Female","approach_avoid_spark_v1","""event"",""trial"",""time""
""fullscreenenter"",""1"",""8205""
","
","
","""event"",""trial"",""time""
""fullscreenenter"",""1"",""8205""
","
","","","","","","1332.5","images/cow5.png","","","learning","-4","0","0","0","cow","animals","1","0","","bad","[-4]"
"html-keyboard-response","134","574852","0.0-9.0-2.0-0.31","4294","1","18","Female","approach_avoid_spark_v1","""event"",""trial"",""time""
""fullscreenenter"",""1"",""8205""
","
","
","""event"",""trial"",""time""
""fullscreenenter"",""1"",""8205""
","
","","","","","","null","<div style=""font-size:60px;"">+</div>","null","","fixation","","","","","","","","","","",""
"aa-learning-trial","135","577855","0.0-9.0-2.0-1.31","4294","1","18","Female","approach_avoid_spark_v1","""event"",""trial"",""time""
""fullscreenenter"",""1"",""8205""
","
","
","""event"",""trial"",""time""
""fullscreenenter"",""1"",""8205""
","
","","","","","","1659.9000000953674","images/horse5.png","","","learning","6","6","1","1","horse","animals","1","0","","good","[6]"
"html-keyboard-response","136","578360","0.0-9.0-2.0-0.32","4294","1","18","Female","approach_avoid_spark_v1","""event"",""trial"",""time""
""fullscreenenter"",""1"",""8205""
","
","
","""event"",""trial"",""time""
""fullscreenenter"",""1"",""8205""
","
","","","","","","null","<div style=""font-size:60px;"">+</div>","null","","fixation","","","","","","","","","","",""
"aa-learning-trial","137","581363","0.0-9.0-2.0-1.32","4294","1","18","Female","approach_avoid_spark_v1","""event"",""trial"",""time""
""fullscreenenter"",""1"",""8205""
","
","
","""event"",""trial"",""time""
""fullscreenenter"",""1"",""8205""
","
","","","","","","1499.4000000953674","images/goat3.png","","","learning","1","0","0","0","goat","animals","1","0","","neutral","0"
"html-keyboard-response","138","581867","0.0-9.0-2.0-0.33","4294","1","18","Female","approach_avoid_spark_v1","""event"",""trial"",""time""
""fullscreenenter"",""1"",""8205""
","
","
","""event"",""trial"",""time""
""fullscreenenter"",""1"",""8205""
","
","","","","","","null","<div style=""font-size:60px;"">+</div>","null","","fixation","","","","","","","","","","",""
"aa-learning-trial","139","584874","0.0-9.0-2.0-1.33","4294","1","18","Female","approach_avoid_spark_v1","""event"",""trial"",""time""
""fullscreenenter"",""1"",""8205""
","
","
","""event"",""trial"",""time""
""fullscreenenter"",""1"",""8205""
","
","","","","","","2168.2000000476837","images/cow8.png","","","learning","-6","0","0","0","cow","animals","1","0","","bad","[-4]"
"html-keyboard-response","140","585379","0.0-9.0-2.0-0.34","4294","1","18","Female","approach_avoid_spark_v1","""event"",""trial"",""time""
""fullscreenenter"",""1"",""8205""
","
","
","""event"",""trial"",""time""
""fullscreenenter"",""1"",""8205""
","
","","","","","","null","<div style=""font-size:60px;"">+</div>","null","","fixation","","","","","","","","","","",""
"aa-learning-trial","141","588386","0.0-9.0-2.0-1.34","4294","1","18","Female","approach_avoid_spark_v1","""event"",""trial"",""time""
""fullscreenenter"",""1"",""8205""
","
","
","""event"",""trial"",""time""
""fullscreenenter"",""1"",""8205""
","
","","","","","","1509","images/goat3.png","","","learning","1","0","0","0","goat","animals","1","0","","neutral","0"
"html-keyboard-response","142","588892","0.0-9.0-2.0-0.35","4294","1","18","Female","approach_avoid_spark_v1","""event"",""trial"",""time""
""fullscreenenter"",""1"",""8205""
","
","
","""event"",""trial"",""time""
""fullscreenenter"",""1"",""8205""
","
","","","","","","null","<div style=""font-size:60px;"">+</div>","null","","fixation","","","","","","","","","","",""
"aa-learning-trial","143","591896","0.0-9.0-2.0-1.35","4294","1","18","Female","approach_avoid_spark_v1","""event"",""trial"",""time""
""fullscreenenter"",""1"",""8205""
","
","
","""event"",""trial"",""time""
""fullscreenenter"",""1"",""8205""
","
","","","","","","2106.300000190735","images/goat1.png","","","learning","2","2","1","1","goat","animals","1","0","","neutral","0"
"html-keyboard-response","144","592398","0.0-9.0-2.0-0.36","4294","1","18","Female","approach_avoid_spark_v1","""event"",""trial"",""time""
""fullscreenenter"",""1"",""8205""
","
","
","""event"",""trial"",""time""
""fullscreenenter"",""1"",""8205""
","
","","","","","","null","<div style=""font-size:60px;"">+</div>","null","","fixation","","","","","","","","","","",""
"aa-learning-trial","145","595400","0.0-9.0-2.0-1.36","4294","1","18","Female","approach_avoid_spark_v1","""event"",""trial"",""time""
""fullscreenenter"",""1"",""8205""
","
","
","""event"",""trial"",""time""
""fullscreenenter"",""1"",""8205""
","
","","","","","","1221.8999998569489","images/goat5.png","","","learning","1","1","1","1","goat","animals","1","0","","neutral","0"
"html-keyboard-response","146","595902","0.0-9.0-2.0-0.37","4294","1","18","Female","approach_avoid_spark_v1","""event"",""trial"",""time""
""fullscreenenter"",""1"",""8205""
","
","
","""event"",""trial"",""time""
""fullscreenenter"",""1"",""8205""
","
","","","","","","null","<div style=""font-size:60px;"">+</div>","null","","fixation","","","","","","","","","","",""
"aa-learning-trial","147","598909","0.0-9.0-2.0-1.37","4294","1","18","Female","approach_avoid_spark_v1","""event"",""trial"",""time""
""fullscreenenter"",""1"",""8205""
","
","
","""event"",""trial"",""time""
""fullscreenenter"",""1"",""8205""
","
","","","","","","2311.2999999523163","images/goat3.png","","","learning","-2","0","0","0","goat","animals","1","0","","neutral","0"
"html-keyboard-response","148","599412","0.0-9.0-2.0-0.38","4294","1","18","Female","approach_avoid_spark_v1","""event"",""trial"",""time""
""fullscreenenter"",""1"",""8205""
","
","
","""event"",""trial"",""time""
""fullscreenenter"",""1"",""8205""
","
","","","","","","null","<div style=""font-size:60px;"">+</div>","null","","fixation","","","","","","","","","","",""
"aa-learning-trial","149","602418","0.0-9.0-2.0-1.38","4294","1","18","Female","approach_avoid_spark_v1","""event"",""trial"",""time""
""fullscreenenter"",""1"",""8205""
","
","
","""event"",""trial"",""time""
""fullscreenenter"",""1"",""8205""
","
","","","","","","1046.9000000953674","images/horse4.png","","","learning","4","4","1","1","horse","animals","1","0","","good","[6]"
"html-keyboard-response","150","602921","0.0-9.0-2.0-0.39","4294","1","18","Female","approach_avoid_spark_v1","""event"",""trial"",""time""
""fullscreenenter"",""1"",""8205""
","
","
","""event"",""trial"",""time""
""fullscreenenter"",""1"",""8205""
","
","","","","","","null","<div style=""font-size:60px;"">+</div>","null","","fixation","","","","","","","","","","",""
"aa-learning-trial","151","605928","0.0-9.0-2.0-1.39","4294","1","18","Female","approach_avoid_spark_v1","""event"",""trial"",""time""
""fullscreenenter"",""1"",""8205""
","
","
","""event"",""trial"",""time""
""fullscreenenter"",""1"",""8205""
","
","","","","","","1341","images/goat6.png","","","learning","1","0","0","0","goat","animals","1","0","","neutral","0"
"html-keyboard-response","152","606433","0.0-9.0-2.0-0.40","4294","1","18","Female","approach_avoid_spark_v1","""event"",""trial"",""time""
""fullscreenenter"",""1"",""8205""
","
","
","""event"",""trial"",""time""
""fullscreenenter"",""1"",""8205""
","
","","","","","","null","<div style=""font-size:60px;"">+</div>","null","","fixation","","","","","","","","","","",""
"aa-learning-trial","153","609437","0.0-9.0-2.0-1.40","4294","1","18","Female","approach_avoid_spark_v1","""event"",""trial"",""time""
""fullscreenenter"",""1"",""8205""
","
","
","""event"",""trial"",""time""
""fullscreenenter"",""1"",""8205""
","
","","","","","","1179.2000000476837","images/goat6.png","","","learning","-1","-1","1","1","goat","animals","1","0","","neutral","0"
"html-keyboard-response","154","609940","0.0-9.0-2.0-0.41","4294","1","18","Female","approach_avoid_spark_v1","""event"",""trial"",""time""
""fullscreenenter"",""1"",""8205""
","
","
","""event"",""trial"",""time""
""fullscreenenter"",""1"",""8205""
","
","","","","","","null","<div style=""font-size:60px;"">+</div>","null","","fixation","","","","","","","","","","",""
"aa-learning-trial","155","612946","0.0-9.0-2.0-1.41","4294","1","18","Female","approach_avoid_spark_v1","""event"",""trial"",""time""
""fullscreenenter"",""1"",""8205""
","
","
","""event"",""trial"",""time""
""fullscreenenter"",""1"",""8205""
","
","","","","","","885.2000000476837","images/horse4.png","","","learning","3","3","1","1","horse","animals","1","0","","good","[6]"
"html-keyboard-response","156","613451","0.0-9.0-2.0-0.42","4294","1","18","Female","approach_avoid_spark_v1","""event"",""trial"",""time""
""fullscreenenter"",""1"",""8205""
","
","
","""event"",""trial"",""time""
""fullscreenenter"",""1"",""8205""
","
","","","","","","null","<div style=""font-size:60px;"">+</div>","null","","fixation","","","","","","","","","","",""
"aa-learning-trial","157","616456","0.0-9.0-2.0-1.42","4294","1","18","Female","approach_avoid_spark_v1","""event"",""trial"",""time""
""fullscreenenter"",""1"",""8205""
","
","
","""event"",""trial"",""time""
""fullscreenenter"",""1"",""8205""
","
","","","","","","1404.7000000476837","images/cow4.png","","","learning","-5","-5","1","1","cow","animals","1","0","","bad","[-4]"
"html-keyboard-response","158","616958","0.0-9.0-2.0-0.43","4294","1","18","Female","approach_avoid_spark_v1","""event"",""trial"",""time""
""fullscreenenter"",""1"",""8205""
","
","
","""event"",""trial"",""time""
""fullscreenenter"",""1"",""8205""
","
","","","","","","null","<div style=""font-size:60px;"">+</div>","null","","fixation","","","","","","","","","","",""
"aa-learning-trial","159","619965","0.0-9.0-2.0-1.43","4294","1","18","Female","approach_avoid_spark_v1","""event"",""trial"",""time""
""fullscreenenter"",""1"",""8205""
","
","
","""event"",""trial"",""time""
""fullscreenenter"",""1"",""8205""
","
","","","","","","1493.3999998569489","images/cow8.png","","","learning","-2","-2","1","1","cow","animals","1","0","","bad","[-4]"
"html-keyboard-response","160","620466","0.0-9.0-2.0-0.44","4294","1","18","Female","approach_avoid_spark_v1","""event"",""trial"",""time""
""fullscreenenter"",""1"",""8205""
","
","
","""event"",""trial"",""time""
""fullscreenenter"",""1"",""8205""
","
","","","","","","null","<div style=""font-size:60px;"">+</div>","null","","fixation","","","","","","","","","","",""
"aa-learning-trial","161","623469","0.0-9.0-2.0-1.44","4294","1","18","Female","approach_avoid_spark_v1","""event"",""trial"",""time""
""fullscreenenter"",""1"",""8205""
","
","
","""event"",""trial"",""time""
""fullscreenenter"",""1"",""8205""
","
","","","","","","1496.5999999046326","images/goat5.png","","","learning","-2","-2","1","1","goat","animals","1","0","","neutral","0"
"html-keyboard-response","162","623971","0.0-9.0-2.0-0.45","4294","1","18","Female","approach_avoid_spark_v1","""event"",""trial"",""time""
""fullscreenenter"",""1"",""8205""
","
","
","""event"",""trial"",""time""
""fullscreenenter"",""1"",""8205""
","
","","","","","","null","<div style=""font-size:60px;"">+</div>","null","","fixation","","","","","","","","","","",""
"aa-learning-trial","163","626978","0.0-9.0-2.0-1.45","4294","1","18","Female","approach_avoid_spark_v1","""event"",""trial"",""time""
""fullscreenenter"",""1"",""8205""
","
","
","""event"",""trial"",""time""
""fullscreenenter"",""1"",""8205""
","
","","","","","","1237.3000001907349","images/goat6.png","","","learning","-2","0","0","0","goat","animals","1","0","","neutral","0"
"html-keyboard-response","164","627480","0.0-9.0-2.0-0.46","4294","1","18","Female","approach_avoid_spark_v1","""event"",""trial"",""time""
""fullscreenenter"",""1"",""8205""
","
","
","""event"",""trial"",""time""
""fullscreenenter"",""1"",""8205""
","
","","","","","","null","<div style=""font-size:60px;"">+</div>","null","","fixation","","","","","","","","","","",""
"aa-learning-trial","165","630487","0.0-9.0-2.0-1.46","4294","1","18","Female","approach_avoid_spark_v1","""event"",""trial"",""time""
""fullscreenenter"",""1"",""8205""
","
","
","""event"",""trial"",""time""
""fullscreenenter"",""1"",""8205""
","
","","","","","","655.7000000476837","images/horse4.png","","","learning","8","8","1","1","horse","animals","1","0","","good","[6]"
"html-keyboard-response","166","630990","0.0-9.0-2.0-0.47","4294","1","18","Female","approach_avoid_spark_v1","""event"",""trial"",""time""
""fullscreenenter"",""1"",""8205""
","
","
","""event"",""trial"",""time""
""fullscreenenter"",""1"",""8205""
","
","","","","","","null","<div style=""font-size:60px;"">+</div>","null","","fixation","","","","","","","","","","",""
"aa-learning-trial","167","633995","0.0-9.0-2.0-1.47","4294","1","18","Female","approach_avoid_spark_v1","""event"",""trial"",""time""
""fullscreenenter"",""1"",""8205""
","
","
","""event"",""trial"",""time""
""fullscreenenter"",""1"",""8205""
","
","","","","","","1522.3999998569489","images/horse2.png","","","learning","5","5","1","1","horse","animals","1","0","","good","[6]"
"html-keyboard-response","168","634498","0.0-9.0-2.0-0.48","4294","1","18","Female","approach_avoid_spark_v1","""event"",""trial"",""time""
""fullscreenenter"",""1"",""8205""
","
","
","""event"",""trial"",""time""
""fullscreenenter"",""1"",""8205""
","
","","","","","","null","<div style=""font-size:60px;"">+</div>","null","","fixation","","","","","","","","","","",""
"aa-learning-trial","169","637501","0.0-9.0-2.0-1.48","4294","1","18","Female","approach_avoid_spark_v1","""event"",""trial"",""time""
""fullscreenenter"",""1"",""8205""
","
","
","""event"",""trial"",""time""
""fullscreenenter"",""1"",""8205""
","
","","","","","","1740.6999998092651","images/cow2.png","","","learning","-3","-3","1","1","cow","animals","1","0","","bad","[-4]"
"html-keyboard-response","170","638002","0.0-9.0-2.0-0.49","4294","1","18","Female","approach_avoid_spark_v1","""event"",""trial"",""time""
""fullscreenenter"",""1"",""8205""
","
","
","""event"",""trial"",""time""
""fullscreenenter"",""1"",""8205""
","
","","","","","","null","<div style=""font-size:60px;"">+</div>","null","","fixation","","","","","","","","","","",""
"aa-learning-trial","171","641010","0.0-9.0-2.0-1.49","4294","1","18","Female","approach_avoid_spark_v1","""event"",""trial"",""time""
""fullscreenenter"",""1"",""8205""
","
","
","""event"",""trial"",""time""
""fullscreenenter"",""1"",""8205""
","
","","","","","","782.0999999046326","images/horse2.png","","","learning","5","5","1","1","horse","animals","1","0","","good","[6]"
"html-keyboard-response","172","641512","0.0-9.0-2.0-0.50","4294","1","18","Female","approach_avoid_spark_v1","""event"",""trial"",""time""
""fullscreenenter"",""1"",""8205""
","
","
","""event"",""trial"",""time""
""fullscreenenter"",""1"",""8205""
","
","","","","","","null","<div style=""font-size:60px;"">+</div>","null","","fixation","","","","","","","","","","",""
"aa-learning-trial","173","644519","0.0-9.0-2.0-1.50","4294","1","18","Female","approach_avoid_spark_v1","""event"",""trial"",""time""
""fullscreenenter"",""1"",""8205""
","
","
","""event"",""trial"",""time""
""fullscreenenter"",""1"",""8205""
","
","","","","","","1121.7000000476837","images/cow4.png","","","learning","-3","0","0","0","cow","animals","1","0","","bad","[-4]"
"html-button-response","174","647605","0.0-9.0-3.0","4294","1","18","Female","approach_avoid_spark_v1","""event"",""trial"",""time""
""fullscreenenter"",""1"",""8205""
","
","
","""event"",""trial"",""time""
""fullscreenenter"",""1"",""8205""
","
","","","","","","3084.7999999523163","<p> You have completed the round! <p> In this round, you earned 57 points! </p>","0","","break","","","","","","","","","","",""
"html-button-response","175","649318","0.0-10.0","4294","1","18","Female","approach_avoid_spark_v1","""event"",""trial"",""time""
""fullscreenenter"",""1"",""8205""
","
","
","""event"",""trial"",""time""
""fullscreenenter"",""1"",""8205""
","
","","","","","","1711.8000001907349","<p> Now it's time to play another round. </p>","0","","transition_screen","","","","","","","","","","",""
"preload","176","649439","0.0-11.0-0.0","4294","1","18","Female","approach_avoid_spark_v1","""event"",""trial"",""time""
""fullscreenenter"",""1"",""8205""
","
","
","""event"",""trial"",""time""
""fullscreenenter"",""1"",""8205""
","
","true","false","[]","[]","[]","","","","","","","","","","","","","","","",""
"learning-instructions","177","655446","0.0-11.0-1.0-0.0","4294","1","18","Female","approach_avoid_spark_v1","""event"",""trial"",""time""
""fullscreenenter"",""1"",""8205""
","
","
","""event"",""trial"",""time""
""fullscreenenter"",""1"",""8205""
","
","","","","","","1007.1000001430511","<p> Your goal in this round is to decorate your friend's new house with furniture. </p></div>","","0","instructions","","","","","","","","","","",""
"learning-instructions","178","667141","0.0-11.0-1.0-0.1","4294","1","18","Female","approach_avoid_spark_v1","""event"",""trial"",""time""
""fullscreenenter"",""1"",""8205""
","
","
","""event"",""trial"",""time""
""fullscreenenter"",""1"",""8205""
","
","","","","","","1651.7999999523163","<p> Your friend likes some pieces of furniture but not others.  </p><p> On each turn, you will see a piece of furniture.   </p><p> You need to decide whether to put it in your friend's house or not.  </p>","","0","instructions","","","","","","","","","","",""
"learning-instructions","179","674713","0.0-11.0-1.0-0.2","4294","1","18","Female","approach_avoid_spark_v1","""event"",""trial"",""time""
""fullscreenenter"",""1"",""8205""
","
","
","""event"",""trial"",""time""
""fullscreenenter"",""1"",""8205""
","
","","","","","","1868.2999999523163","<p> You can put the furniture in her house by pressing 1 and deliver it elsewhere by pressing 0. </p><br><div class=""choice-instructions-grid""> <div class=""choice-option""><img src=""images/approach.png"" class=""choice-option-img"" stage=""instructions"" position=""0"" ><div class=""choice-option-text""> Press ""1."" </div></div><div class=""choice-option""><img src=""images/avoid.png"" class=""choice-option-img"" stage=""instructions"" position=""1"" ><div class=""choice-option-text""> Press ""0."" </div></div>","","0","instructions","","","","","","","","","","",""
"learning-instructions","180","689550","0.0-11.0-1.0-0.3","4294","1","18","Female","approach_avoid_spark_v1","""event"",""trial"",""time""
""fullscreenenter"",""1"",""8205""
","
","
","""event"",""trial"",""time""
""fullscreenenter"",""1"",""8205""
","
","","","","","","5805.399999856949","<p> If you decorate your friend's house with furniture she likes, she will be happy! </p><p> But if you give her furniture that she does not like, she will be annoyed. </p>","","0","instructions","","","","","","","","","","",""
"learning-instructions","181","703654","0.0-11.0-1.0-0.4","4294","1","18","Female","approach_avoid_spark_v1","""event"",""trial"",""time""
""fullscreenenter"",""1"",""8205""
","
","
","""event"",""trial"",""time""
""fullscreenenter"",""1"",""8205""
","
","","","","","","1771.4000000953674","<p> You will earn points based on how you made your friend feel. </p><p> If you made her happy, you will WIN anywhere from 1 - 9 points, </p><p> but if you made her annoyed you will LOSE anywhere from 1 - 9 points. </p>","","0","instructions","","","","","","","","","","",""
"learning-instructions","182","711454","0.0-11.0-1.0-0.5","4294","1","18","Female","approach_avoid_spark_v1","""event"",""trial"",""time""
""fullscreenenter"",""1"",""8205""
","
","
","""event"",""trial"",""time""
""fullscreenenter"",""1"",""8205""
","
","","","","","","1150.1000001430511","<p> You will see how many points you won or lost in the center of the screen. </p><p> Here is what you would see if you won 5 points: </p><p style=""color:green;font-size:50px;font-weight:bolder"">5</p>","","0","instructions","","","","","","","","","","",""
"learning-instructions","183","722872","0.0-11.0-1.0-0.6","4294","1","18","Female","approach_avoid_spark_v1","""event"",""trial"",""time""
""fullscreenenter"",""1"",""8205""
","
","
","""event"",""trial"",""time""
""fullscreenenter"",""1"",""8205""
","
","","","","","","8584.799999952316","<p> And here is what you would see if you lost 3 points: </p><p style=""color:red;font-size:50px;font-weight:bolder"">-3</p>","","0","instructions","","","","","","","","","","",""
"learning-instructions","184","798697","0.0-11.0-1.0-0.7","4294","1","18","Female","approach_avoid_spark_v1","""event"",""trial"",""time""
""fullscreenenter"",""1"",""8205""
","
","
","""event"",""trial"",""time""
""fullscreenenter"",""1"",""8205""
","
","","","","","","58048.09999990463","<p> Some pieces of furniture will make her feel very happy or very annoyed. </p><p> These pieces of furniture will make you win or lose LOTS of points. </p><p> Other pieces of furniture will only make her feel a little happy or a little annoyed. </p><p> These pieces of furniture will make you win or lose small amounts of points. </p>","","0","instructions","","","","","","","","","","",""
"learning-instructions","185","812773","0.0-11.0-1.0-0.8","4294","1","18","Female","approach_avoid_spark_v1","""event"",""trial"",""time""
""fullscreenenter"",""1"",""8205""
","
","
","""event"",""trial"",""time""
""fullscreenenter"",""1"",""8205""
","
","","","","","","983.8000001907349","<p> If you choose to deliver a piece of furniture elsewhere, you will not win or lose any points. </p><p>  However, in the center of the screen, you will see the number of points you WOULD HAVE won or lost if you had given the furniture to your friend. </p>","","0","instructions","","","","","","","","","","",""
"learning-instructions","186","837581","0.0-11.0-1.0-0.9","4294","1","18","Female","approach_avoid_spark_v1","""event"",""trial"",""time""
""fullscreenenter"",""1"",""8205""
","
","
","""event"",""trial"",""time""
""fullscreenenter"",""1"",""8205""
","
","","","","","","13595.399999856949","<p> Here is what you might see if you did not give a piece of furniture to your friend that would have made her happy: </p><p style=""color:grey; font-size:50px; display: inline-block; border-spacing: 15px; border-width:3px; border-style:solid; border-color:red"">  &nbsp; 6 &nbsp; </p><p> Remember, in this case, you would not win or lose ANY points because you did not give her the furniture.  </p>","","0","instructions","","","","","","","","","","",""
"learning-instructions","187","845808","0.0-11.0-1.0-0.10","4294","1","18","Female","approach_avoid_spark_v1","""event"",""trial"",""time""
""fullscreenenter"",""1"",""8205""
","
","
","""event"",""trial"",""time""
""fullscreenenter"",""1"",""8205""
","
","","","","","","937.2000000476837","<p> Try to make the best choice for each piece of furniture because </p><p> at the end of the game, you will earn bonus money based on how many points you earned. </p>","","0","instructions","","","","","","","","","","",""
"learning-instructions","188","854654","0.0-11.0-1.0-0.11","4294","1","18","Female","approach_avoid_spark_v1","""event"",""trial"",""time""
""fullscreenenter"",""1"",""8205""
","
","
","""event"",""trial"",""time""
""fullscreenenter"",""1"",""8205""
","
","","","","","","658.4000000953674","<p> You will have 3 seconds to make each choice. Try to respond before time runs out! </p><p> You will lose 5 points each time you do not make a response. </p>","","0","instructions","","","","","","","","","","",""
"html-keyboard-response","189","855263","0.0-11.0-2.0-0.0","4294","1","18","Female","approach_avoid_spark_v1","""event"",""trial"",""time""
""fullscreenenter"",""1"",""8205""
","
","
","""event"",""trial"",""time""
""fullscreenenter"",""1"",""8205""
","
","","","","","","null","<div style=""font-size:60px;"">+</div>","null","","fixation","","","","","","","","","","",""
"aa-learning-trial","190","858271","0.0-11.0-2.0-1.0","4294","1","18","Female","approach_avoid_spark_v1","""event"",""trial"",""time""
""fullscreenenter"",""1"",""8205""
","
","
","""event"",""trial"",""time""
""fullscreenenter"",""1"",""8205""
","
","","","","","","1347.7999999523163","images/sofa8.png","","","learning","3","3","1","1","sofa","furniture","2","1","","bad","[-6]"
"html-keyboard-response","191","858775","0.0-11.0-2.0-0.1","4294","1","18","Female","approach_avoid_spark_v1","""event"",""trial"",""time""
""fullscreenenter"",""1"",""8205""
","
","
","""event"",""trial"",""time""
""fullscreenenter"",""1"",""8205""
","
","","","","","","null","<div style=""font-size:60px;"">+</div>","null","","fixation","","","","","","","","","","",""
"aa-learning-trial","192","861780","0.0-11.0-2.0-1.1","4294","1","18","Female","approach_avoid_spark_v1","""event"",""trial"",""time""
""fullscreenenter"",""1"",""8205""
","
","
","""event"",""trial"",""time""
""fullscreenenter"",""1"",""8205""
","
","","","","","","1136","images/bed7.png","","","learning","-9","-9","1","1","bed","furniture","2","1","","neutral","0"
"html-keyboard-response","193","862286","0.0-11.0-2.0-0.2","4294","1","18","Female","approach_avoid_spark_v1","""event"",""trial"",""time""
""fullscreenenter"",""1"",""8205""
","
","
","""event"",""trial"",""time""
""fullscreenenter"",""1"",""8205""
","
","","","","","","null","<div style=""font-size:60px;"">+</div>","null","","fixation","","","","","","","","","","",""
"aa-learning-trial","194","865289","0.0-11.0-2.0-1.2","4294","1","18","Female","approach_avoid_spark_v1","""event"",""trial"",""time""
""fullscreenenter"",""1"",""8205""
","
","
","""event"",""trial"",""time""
""fullscreenenter"",""1"",""8205""
","
","","","","","","1518.4000000953674","images/chair7.png","","","learning","1","1","1","1","chair","furniture","2","1","","good","[5]"
"html-keyboard-response","195","865791","0.0-11.0-2.0-0.3","4294","1","18","Female","approach_avoid_spark_v1","""event"",""trial"",""time""
""fullscreenenter"",""1"",""8205""
","
","
","""event"",""trial"",""time""
""fullscreenenter"",""1"",""8205""
","
","","","","","","null","<div style=""font-size:60px;"">+</div>","null","","fixation","","","","","","","","","","",""
"aa-learning-trial","196","868798","0.0-11.0-2.0-1.3","4294","1","18","Female","approach_avoid_spark_v1","""event"",""trial"",""time""
""fullscreenenter"",""1"",""8205""
","
","
","""event"",""trial"",""time""
""fullscreenenter"",""1"",""8205""
","
","","","","","","1124.6999998092651","images/sofa4.png","","","learning","-3","0","0","0","sofa","furniture","2","1","","bad","[-6]"
"html-keyboard-response","197","869300","0.0-11.0-2.0-0.4","4294","1","18","Female","approach_avoid_spark_v1","""event"",""trial"",""time""
""fullscreenenter"",""1"",""8205""
","
","
","""event"",""trial"",""time""
""fullscreenenter"",""1"",""8205""
","
","","","","","","null","<div style=""font-size:60px;"">+</div>","null","","fixation","","","","","","","","","","",""
"aa-learning-trial","198","872305","0.0-11.0-2.0-1.4","4294","1","18","Female","approach_avoid_spark_v1","""event"",""trial"",""time""
""fullscreenenter"",""1"",""8205""
","
","
","""event"",""trial"",""time""
""fullscreenenter"",""1"",""8205""
","
","","","","","","2886.0999999046326","images/chair8.png","","","learning","-8","0","0","0","chair","furniture","2","1","","good","[5]"
"html-keyboard-response","199","872809","0.0-11.0-2.0-0.5","4294","1","18","Female","approach_avoid_spark_v1","""event"",""trial"",""time""
""fullscreenenter"",""1"",""8205""
","
","
","""event"",""trial"",""time""
""fullscreenenter"",""1"",""8205""
","
","","","","","","null","<div style=""font-size:60px;"">+</div>","null","","fixation","","","","","","","","","","",""
"aa-learning-trial","200","875812","0.0-11.0-2.0-1.5","4294","1","18","Female","approach_avoid_spark_v1","""event"",""trial"",""time""
""fullscreenenter"",""1"",""8205""
","
","
","""event"",""trial"",""time""
""fullscreenenter"",""1"",""8205""
","
","","","","","","1273.2999999523163","images/bed3.png","","","learning","5","5","1","1","bed","furniture","2","1","","neutral","0"
"html-keyboard-response","201","876313","0.0-11.0-2.0-0.6","4294","1","18","Female","approach_avoid_spark_v1","""event"",""trial"",""time""
""fullscreenenter"",""1"",""8205""
","
","
","""event"",""trial"",""time""
""fullscreenenter"",""1"",""8205""
","
","","","","","","null","<div style=""font-size:60px;"">+</div>","null","","fixation","","","","","","","","","","",""
"aa-learning-trial","202","879319","0.0-11.0-2.0-1.6","4294","1","18","Female","approach_avoid_spark_v1","""event"",""trial"",""time""
""fullscreenenter"",""1"",""8205""
","
","
","""event"",""trial"",""time""
""fullscreenenter"",""1"",""8205""
","
","","","","","","745.5999999046326","images/sofa8.png","","","learning","3","3","1","1","sofa","furniture","2","1","","bad","[-6]"
"html-keyboard-response","203","879822","0.0-11.0-2.0-0.7","4294","1","18","Female","approach_avoid_spark_v1","""event"",""trial"",""time""
""fullscreenenter"",""1"",""8205""
","
","
","""event"",""trial"",""time""
""fullscreenenter"",""1"",""8205""
","
","","","","","","null","<div style=""font-size:60px;"">+</div>","null","","fixation","","","","","","","","","","",""
"aa-learning-trial","204","882826","0.0-11.0-2.0-1.7","4294","1","18","Female","approach_avoid_spark_v1","""event"",""trial"",""time""
""fullscreenenter"",""1"",""8205""
","
","
","""event"",""trial"",""time""
""fullscreenenter"",""1"",""8205""
","
","","","","","","907.9000000953674","images/chair7.png","","","learning","1","1","1","1","chair","furniture","2","1","","good","[5]"
"html-keyboard-response","205","883331","0.0-11.0-2.0-0.8","4294","1","18","Female","approach_avoid_spark_v1","""event"",""trial"",""time""
""fullscreenenter"",""1"",""8205""
","
","
","""event"",""trial"",""time""
""fullscreenenter"",""1"",""8205""
","
","","","","","","null","<div style=""font-size:60px;"">+</div>","null","","fixation","","","","","","","","","","",""
"aa-learning-trial","206","886336","0.0-11.0-2.0-1.8","4294","1","18","Female","approach_avoid_spark_v1","""event"",""trial"",""time""
""fullscreenenter"",""1"",""8205""
","
","
","""event"",""trial"",""time""
""fullscreenenter"",""1"",""8205""
","
","","","","","","675.5999999046326","images/chair8.png","","","learning","-8","0","0","0","chair","furniture","2","1","","good","[5]"
"html-keyboard-response","207","886841","0.0-11.0-2.0-0.9","4294","1","18","Female","approach_avoid_spark_v1","""event"",""trial"",""time""
""fullscreenenter"",""1"",""8205""
","
","
","""event"",""trial"",""time""
""fullscreenenter"",""1"",""8205""
","
","","","","","","null","<div style=""font-size:60px;"">+</div>","null","","fixation","","","","","","","","","","",""
"aa-learning-trial","208","889848","0.0-11.0-2.0-1.9","4294","1","18","Female","approach_avoid_spark_v1","""event"",""trial"",""time""
""fullscreenenter"",""1"",""8205""
","
","
","""event"",""trial"",""time""
""fullscreenenter"",""1"",""8205""
","
","","","","","","775.3999998569489","images/chair3.png","","","learning","4","0","0","0","chair","furniture","2","1","","good","[5]"
"html-keyboard-response","209","890353","0.0-11.0-2.0-0.10","4294","1","18","Female","approach_avoid_spark_v1","""event"",""trial"",""time""
""fullscreenenter"",""1"",""8205""
","
","
","""event"",""trial"",""time""
""fullscreenenter"",""1"",""8205""
","
","","","","","","null","<div style=""font-size:60px;"">+</div>","null","","fixation","","","","","","","","","","",""
"aa-learning-trial","210","893360","0.0-11.0-2.0-1.10","4294","1","18","Female","approach_avoid_spark_v1","""event"",""trial"",""time""
""fullscreenenter"",""1"",""8205""
","
","
","""event"",""trial"",""time""
""fullscreenenter"",""1"",""8205""
","
","","","","","","888.8999998569489","images/bed7.png","","","learning","-9","0","0","0","bed","furniture","2","1","","neutral","0"
"html-keyboard-response","211","893864","0.0-11.0-2.0-0.11","4294","1","18","Female","approach_avoid_spark_v1","""event"",""trial"",""time""
""fullscreenenter"",""1"",""8205""
","
","
","""event"",""trial"",""time""
""fullscreenenter"",""1"",""8205""
","
","","","","","","null","<div style=""font-size:60px;"">+</div>","null","","fixation","","","","","","","","","","",""
"aa-learning-trial","212","896872","0.0-11.0-2.0-1.11","4294","1","18","Female","approach_avoid_spark_v1","""event"",""trial"",""time""
""fullscreenenter"",""1"",""8205""
","
","
","""event"",""trial"",""time""
""fullscreenenter"",""1"",""8205""
","
","","","","","","1492.8999998569489","images/bed8.png","","","learning","9","0","0","0","bed","furniture","2","1","","neutral","0"
"html-keyboard-response","213","897373","0.0-11.0-2.0-0.12","4294","1","18","Female","approach_avoid_spark_v1","""event"",""trial"",""time""
""fullscreenenter"",""1"",""8205""
","
","
","""event"",""trial"",""time""
""fullscreenenter"",""1"",""8205""
","
","","","","","","null","<div style=""font-size:60px;"">+</div>","null","","fixation","","","","","","","","","","",""
"aa-learning-trial","214","900379","0.0-11.0-2.0-1.12","4294","1","18","Female","approach_avoid_spark_v1","""event"",""trial"",""time""
""fullscreenenter"",""1"",""8205""
","
","
","""event"",""trial"",""time""
""fullscreenenter"",""1"",""8205""
","
","","","","","","1042.8000001907349","images/sofa4.png","","","learning","-3","0","0","0","sofa","furniture","2","1","","bad","[-6]"
"html-keyboard-response","215","900883","0.0-11.0-2.0-0.13","4294","1","18","Female","approach_avoid_spark_v1","""event"",""trial"",""time""
""fullscreenenter"",""1"",""8205""
","
","
","""event"",""trial"",""time""
""fullscreenenter"",""1"",""8205""
","
","","","","","","null","<div style=""font-size:60px;"">+</div>","null","","fixation","","","","","","","","","","",""
"aa-learning-trial","216","903891","0.0-11.0-2.0-1.13","4294","1","18","Female","approach_avoid_spark_v1","""event"",""trial"",""time""
""fullscreenenter"",""1"",""8205""
","
","
","""event"",""trial"",""time""
""fullscreenenter"",""1"",""8205""
","
","","","","","","1965.7000000476837","images/bed3.png","","","learning","5","0","0","0","bed","furniture","2","1","","neutral","0"
"html-keyboard-response","217","904395","0.0-11.0-2.0-0.14","4294","1","18","Female","approach_avoid_spark_v1","""event"",""trial"",""time""
""fullscreenenter"",""1"",""8205""
","
","
","""event"",""trial"",""time""
""fullscreenenter"",""1"",""8205""
","
","","","","","","null","<div style=""font-size:60px;"">+</div>","null","","fixation","","","","","","","","","","",""
"aa-learning-trial","218","907399","0.0-11.0-2.0-1.14","4294","1","18","Female","approach_avoid_spark_v1","""event"",""trial"",""time""
""fullscreenenter"",""1"",""8205""
","
","
","""event"",""trial"",""time""
""fullscreenenter"",""1"",""8205""
","
","","","","","","1947.5","images/sofa2.png","","","learning","2","2","1","1","sofa","furniture","2","1","","bad","[-6]"
"html-keyboard-response","219","907905","0.0-11.0-2.0-0.15","4294","1","18","Female","approach_avoid_spark_v1","""event"",""trial"",""time""
""fullscreenenter"",""1"",""8205""
","
","
","""event"",""trial"",""time""
""fullscreenenter"",""1"",""8205""
","
","","","","","","null","<div style=""font-size:60px;"">+</div>","null","","fixation","","","","","","","","","","",""
"aa-learning-trial","220","910912","0.0-11.0-2.0-1.15","4294","1","18","Female","approach_avoid_spark_v1","""event"",""trial"",""time""
""fullscreenenter"",""1"",""8205""
","
","
","""event"",""trial"",""time""
""fullscreenenter"",""1"",""8205""
","
","","","","","","554.7999999523163","images/sofa2.png","","","learning","2","2","1","1","sofa","furniture","2","1","","bad","[-6]"
"html-keyboard-response","221","911416","0.0-11.0-2.0-0.16","4294","1","18","Female","approach_avoid_spark_v1","""event"",""trial"",""time""
""fullscreenenter"",""1"",""8205""
","
","
","""event"",""trial"",""time""
""fullscreenenter"",""1"",""8205""
","
","","","","","","null","<div style=""font-size:60px;"">+</div>","null","","fixation","","","","","","","","","","",""
"aa-learning-trial","222","914421","0.0-11.0-2.0-1.16","4294","1","18","Female","approach_avoid_spark_v1","""event"",""trial"",""time""
""fullscreenenter"",""1"",""8205""
","
","
","""event"",""trial"",""time""
""fullscreenenter"",""1"",""8205""
","
","","","","","","1345.0999999046326","images/chair8.png","","","learning","-8","-8","1","1","chair","furniture","2","1","","good","[5]"
"html-keyboard-response","223","914925","0.0-11.0-2.0-0.17","4294","1","18","Female","approach_avoid_spark_v1","""event"",""trial"",""time""
""fullscreenenter"",""1"",""8205""
","
","
","""event"",""trial"",""time""
""fullscreenenter"",""1"",""8205""
","
","","","","","","null","<div style=""font-size:60px;"">+</div>","null","","fixation","","","","","","","","","","",""
"aa-learning-trial","224","917931","0.0-11.0-2.0-1.17","4294","1","18","Female","approach_avoid_spark_v1","""event"",""trial"",""time""
""fullscreenenter"",""1"",""8205""
","
","
","""event"",""trial"",""time""
""fullscreenenter"",""1"",""8205""
","
","","","","","","989.0999999046326","images/chair3.png","","","learning","4","4","1","1","chair","furniture","2","1","","good","[5]"
"html-keyboard-response","225","918434","0.0-11.0-2.0-0.18","4294","1","18","Female","approach_avoid_spark_v1","""event"",""trial"",""time""
""fullscreenenter"",""1"",""8205""
","
","
","""event"",""trial"",""time""
""fullscreenenter"",""1"",""8205""
","
","","","","","","null","<div style=""font-size:60px;"">+</div>","null","","fixation","","","","","","","","","","",""
"aa-learning-trial","226","921440","0.0-11.0-2.0-1.18","4294","1","18","Female","approach_avoid_spark_v1","""event"",""trial"",""time""
""fullscreenenter"",""1"",""8205""
","
","
","""event"",""trial"",""time""
""fullscreenenter"",""1"",""8205""
","
","","","","","","1219.5","images/sofa4.png","","","learning","-3","0","0","0","sofa","furniture","2","1","","bad","[-6]"
"html-keyboard-response","227","921944","0.0-11.0-2.0-0.19","4294","1","18","Female","approach_avoid_spark_v1","""event"",""trial"",""time""
""fullscreenenter"",""1"",""8205""
","
","
","""event"",""trial"",""time""
""fullscreenenter"",""1"",""8205""
","
","","","","","","null","<div style=""font-size:60px;"">+</div>","null","","fixation","","","","","","","","","","",""
"aa-learning-trial","228","924949","0.0-11.0-2.0-1.19","4294","1","18","Female","approach_avoid_spark_v1","""event"",""trial"",""time""
""fullscreenenter"",""1"",""8205""
","
","
","""event"",""trial"",""time""
""fullscreenenter"",""1"",""8205""
","
","","","","","","1370.2000000476837","images/bed5.png","","","learning","-1","0","0","0","bed","furniture","2","1","","neutral","0"
"html-keyboard-response","229","925453","0.0-11.0-2.0-0.20","4294","1","18","Female","approach_avoid_spark_v1","""event"",""trial"",""time""
""fullscreenenter"",""1"",""8205""
","
","
","""event"",""trial"",""time""
""fullscreenenter"",""1"",""8205""
","
","","","","","","null","<div style=""font-size:60px;"">+</div>","null","","fixation","","","","","","","","","","",""
"aa-learning-trial","230","928458","0.0-11.0-2.0-1.20","4294","1","18","Female","approach_avoid_spark_v1","""event"",""trial"",""time""
""fullscreenenter"",""1"",""8205""
","
","
","""event"",""trial"",""time""
""fullscreenenter"",""1"",""8205""
","
","","","","","","1029.5","images/bed3.png","","","learning","5","5","1","1","bed","furniture","2","1","","neutral","0"
"html-keyboard-response","231","928962","0.0-11.0-2.0-0.21","4294","1","18","Female","approach_avoid_spark_v1","""event"",""trial"",""time""
""fullscreenenter"",""1"",""8205""
","
","
","""event"",""trial"",""time""
""fullscreenenter"",""1"",""8205""
","
","","","","","","null","<div style=""font-size:60px;"">+</div>","null","","fixation","","","","","","","","","","",""
"aa-learning-trial","232","931968","0.0-11.0-2.0-1.21","4294","1","18","Female","approach_avoid_spark_v1","""event"",""trial"",""time""
""fullscreenenter"",""1"",""8205""
","
","
","""event"",""trial"",""time""
""fullscreenenter"",""1"",""8205""
","
","","","","","","771.4000000953674","images/sofa2.png","","","learning","2","2","1","1","sofa","furniture","2","1","","bad","[-6]"
"html-keyboard-response","233","932472","0.0-11.0-2.0-0.22","4294","1","18","Female","approach_avoid_spark_v1","""event"",""trial"",""time""
""fullscreenenter"",""1"",""8205""
","
","
","""event"",""trial"",""time""
""fullscreenenter"",""1"",""8205""
","
","","","","","","null","<div style=""font-size:60px;"">+</div>","null","","fixation","","","","","","","","","","",""
"aa-learning-trial","234","935479","0.0-11.0-2.0-1.22","4294","1","18","Female","approach_avoid_spark_v1","""event"",""trial"",""time""
""fullscreenenter"",""1"",""8205""
","
","
","""event"",""trial"",""time""
""fullscreenenter"",""1"",""8205""
","
","","","","","","645.7000000476837","images/sofa8.png","","","learning","3","3","1","1","sofa","furniture","2","1","","bad","[-6]"
"html-keyboard-response","235","935985","0.0-11.0-2.0-0.23","4294","1","18","Female","approach_avoid_spark_v1","""event"",""trial"",""time""
""fullscreenenter"",""1"",""8205""
","
","
","""event"",""trial"",""time""
""fullscreenenter"",""1"",""8205""
","
