"trial_type","trial_index","time_elapsed","internal_node_id","subject_id","task_condition","age","gender","task_version","interactions","blur_events","focus_events","fullscreenenter_events","fullscreenexit_events","success","timeout","failed_images","failed_audio","failed_video","rt","stimulus","response","button_pressed","task_part","approach_reward","points","key_press","option_selected","stim_cat","task_block","block_condition","block_number","correct","cat_type","mean_cat_reward"
"pavlovia","0","4","0.0-0.0","5178","2","12","Female","approach_avoid_spark_v1","""event"",""trial"",""time""
""fullscreenenter"",""1"",""2591""
","
","
","""event"",""trial"",""time""
""fullscreenenter"",""1"",""2591""
","
","","","","","","","","","","","","","","","","","","","","",""
"fullscreen","1","3538","0.0-1.0","5178","2","12","Female","approach_avoid_spark_v1","""event"",""trial"",""time""
""fullscreenenter"",""1"",""2591""
","
","
","""event"",""trial"",""time""
""fullscreenenter"",""1"",""2591""
","
","true","","","","","","","","","","","","","","","","","","","",""
"preload","2","7893","0.0-2.0","5178","2","12","Female","approach_avoid_spark_v1","""event"",""trial"",""time""
""fullscreenenter"",""1"",""2591""
","
","
","""event"",""trial"",""time""
""fullscreenenter"",""1"",""2591""
","
","true","false","[]","[]","[]","","","","","","","","","","","","","","","",""
"audio-keyboard-response","3","28352","0.0-3.0","5178","2","12","Female","approach_avoid_spark_v1","""event"",""trial"",""time""
""fullscreenenter"",""1"",""2591""
","
","
","""event"",""trial"",""time""
""fullscreenenter"",""1"",""2591""
","
","","","","","","0","audio/beep_loop.wav"," ","","","","","","","","","","","","",""
"audio-button-response","4","31716","0.0-4.0","5178","2","12","Female","approach_avoid_spark_v1","""event"",""trial"",""time""
""fullscreenenter"",""1"",""2591""
","
","
","""event"",""trial"",""time""
""fullscreenenter"",""1"",""2591""
","
","","","","","","3312","audio/shark.wav","4","","","","","","","","","","","","",""
"audio-button-response","5","34328","0.0-5.0","5178","2","12","Female","approach_avoid_spark_v1","""event"",""trial"",""time""
""fullscreenenter"",""1"",""2591""
","
","
","""event"",""trial"",""time""
""fullscreenenter"",""1"",""2591""
","
","","","","","","1611","audio/turtle.wav","1","","","","","","","","","","","","",""
"preload","6","36869","0.0-6.0","5178","2","12","Female","approach_avoid_spark_v1","""event"",""trial"",""time""
""fullscreenenter"",""1"",""2591""
","
","
","""event"",""trial"",""time""
""fullscreenenter"",""1"",""2591""
","
","true","false","[]","[]","[]","","","","","","","","","","","","","","","",""
"html-keyboard-response","7","39596","0.0-7.0","5178","2","12","Female","approach_avoid_spark_v1","""event"",""trial"",""time""
""fullscreenenter"",""1"",""2591""
","
","
","""event"",""trial"",""time""
""fullscreenenter"",""1"",""2591""
","
","","","","","","2724.0000000000073","Welcome to the experiment. Press any key to begin and to advance the instructions."," ","","","","","","","","","","","","",""
"learning-instructions","8","49434","0.0-8.0-0.0-0.0","5178","2","12","Female","approach_avoid_spark_v1","""event"",""trial"",""time""
""fullscreenenter"",""1"",""2591""
","
","
","""event"",""trial"",""time""
""fullscreenenter"",""1"",""2591""
","
","","","","","","2883","<p> Welcome! Today you are going to play 6 different rounds of a decision-making game. </p><p> Use the mouse to click next to continue. </p>","","0","instructions","","","","","","","","","","",""
"learning-instructions","9","53962","0.0-8.0-0.0-0.1","5178","2","12","Female","approach_avoid_spark_v1","""event"",""trial"",""time""
""fullscreenenter"",""1"",""2591""
","
","
","""event"",""trial"",""time""
""fullscreenenter"",""1"",""2591""
","
","","","","","","1806","<p> You will start with a practice round to learn the rules. </p>","","0","instructions","","","","","","","","","","",""
"learning-instructions","10","58097","0.0-8.0-0.0-0.2","5178","2","12","Female","approach_avoid_spark_v1","""event"",""trial"",""time""
""fullscreenenter"",""1"",""2591""
","
","
","""event"",""trial"",""time""
""fullscreenenter"",""1"",""2591""
","
","","","","","","687.0000000000073","<p> Your goal in this round is to give out sports equipment to kids. </p></div>","","0","instructions","","","","","","","","","","",""
"learning-instructions","11","66159","0.0-8.0-0.0-0.3","5178","2","12","Female","approach_avoid_spark_v1","""event"",""trial"",""time""
""fullscreenenter"",""1"",""2591""
","
","
","""event"",""trial"",""time""
""fullscreenenter"",""1"",""2591""
","
","","","","","","509","<p> The kids only like some of the equipment.  </p><p> On each turn, you will see a piece of sports equipment.   </p><p> You need to decide whether to give it to the kids or not.  </p>","","0","instructions","","","","","","","","","","",""
"learning-instructions","12","71684","0.0-8.0-0.0-0.4","5178","2","12","Female","approach_avoid_spark_v1","""event"",""trial"",""time""
""fullscreenenter"",""1"",""2591""
","
","
","""event"",""trial"",""time""
""fullscreenenter"",""1"",""2591""
","
","","","","","","776","<p> You can give them the equipment by pressing 1 and choose not to give it to them by pressing 0. </p><br><div class=""choice-instructions-grid""> <div class=""choice-option""><img src=""images/approach.png"" class=""choice-option-img"" stage=""instructions"" position=""0"" ><div class=""choice-option-text""> Press ""1."" </div></div><div class=""choice-option""><img src=""images/avoid.png"" class=""choice-option-img"" stage=""instructions"" position=""1"" ><div class=""choice-option-text""> Press ""0."" </div></div>","","0","instructions","","","","","","","","","","",""
"learning-instructions","13","81508","0.0-8.0-0.0-0.5","5178","2","12","Female","approach_avoid_spark_v1","""event"",""trial"",""time""
""fullscreenenter"",""1"",""2591""
","
","
","""event"",""trial"",""time""
""fullscreenenter"",""1"",""2591""
","
","","","","","","2439","<p> If you give them a piece of equipment they like, they will be happy! </p><p> But if you give them a piece of equipment they do not like, they will be sad. </p>","","0","instructions","","","","","","","","","","",""
"learning-instructions","14","92832","0.0-8.0-0.0-0.6","5178","2","12","Female","approach_avoid_spark_v1","""event"",""trial"",""time""
""fullscreenenter"",""1"",""2591""
","
","
","""event"",""trial"",""time""
""fullscreenenter"",""1"",""2591""
","
","","","","","","818","<p> You will earn points based on how you make kids feel. </p><p> If you make them happy, you will WIN anywhere from 1 - 9 points, </p><p> but if you make them sad, you will LOSE anywhere from 1 - 9 points. </p>","","0","instructions","","","","","","","","","","",""
"learning-instructions","15","103092","0.0-8.0-0.0-0.7","5178","2","12","Female","approach_avoid_spark_v1","""event"",""trial"",""time""
""fullscreenenter"",""1"",""2591""
","
","
","""event"",""trial"",""time""
""fullscreenenter"",""1"",""2591""
","
","","","","","","705.9999999999854","<p> You will see how many points you won or lost in the center of the screen. </p><p> Here is what you would see if you won 6 points: </p><p style=""color:green;font-size:50px;font-weight:bolder"">6</p><p style=""color:green"">The text is GREEN because you WON points.</p>","","0","instructions","","","","","","","","","","",""
"learning-instructions","16","110019","0.0-8.0-0.0-0.8","5178","2","12","Female","approach_avoid_spark_v1","""event"",""trial"",""time""
""fullscreenenter"",""1"",""2591""
","
","
","""event"",""trial"",""time""
""fullscreenenter"",""1"",""2591""
","
","","","","","","1426.9999999999854","<p> And here is what you would see if you lost 4 points: </p><p style=""color:red;font-size:50px;font-weight:bolder"">-4</p><p style=""color:red"">The text is RED because you LOST points. </p>","","0","instructions","","","","","","","","","","",""
"learning-instructions","17","125414","0.0-8.0-0.0-0.9","5178","2","12","Female","approach_avoid_spark_v1","""event"",""trial"",""time""
""fullscreenenter"",""1"",""2591""
","
","
","""event"",""trial"",""time""
""fullscreenenter"",""1"",""2591""
","
","","","","","","690","<p> Some of the equipment will make the kids VERY happy or sad. </p><p> These pieces of equipment will make you win or lose LOTS of points. </p><p> Other pieces of equipment will only make the kids a little happy or sad. </p><p> These pieces of equipment will make you win or lose small amounts of points. </p>","","0","instructions","","","","","","","","","","",""
"learning-instructions","18","138364","0.0-8.0-0.0-0.10","5178","2","12","Female","approach_avoid_spark_v1","""event"",""trial"",""time""
""fullscreenenter"",""1"",""2591""
","
","
","""event"",""trial"",""time""
""fullscreenenter"",""1"",""2591""
","
","","","","","","2329","<p> If you choose not to give them the equipment, you will not win or lose any points. </p><p>  However, in the center of the screen, you will see the number of points you WOULD HAVE won or lost if you had given them the equipment. </p>","","0","instructions","","","","","","","","","","",""
"learning-instructions","19","161526","0.0-8.0-0.0-0.11","5178","2","12","Female","approach_avoid_spark_v1","""event"",""trial"",""time""
""fullscreenenter"",""1"",""2591""
","
","
","""event"",""trial"",""time""
""fullscreenenter"",""1"",""2591""
","
","","","","","","1641","<p> Here is what you might see if you did not give the equipment to the kids but it would have made them happy: </p><p style=""color:grey; font-size:50px; display: inline-block; border-spacing: 15px; border-width:3px; border-style:solid; border-color:red"">  &nbsp; 7 &nbsp; </p><p> Remember, in this case, you would not win or lose ANY points because you did not give them the equipment.  </p><p style=""color:grey"">The text is GREY because you earned ZERO points. </p><p style=""color:red"">However, choosing to give the kids the equipment would have made you win points. The box around the text is RED because you chose the worse option. </p>","","0","instructions","","","","","","","","","","",""
"learning-instructions","20","183182","0.0-8.0-0.0-0.12","5178","2","12","Female","approach_avoid_spark_v1","""event"",""trial"",""time""
""fullscreenenter"",""1"",""2591""
","
","
","""event"",""trial"",""time""
""fullscreenenter"",""1"",""2591""
","
","","","","","","587","<p> Here is what you might see if you did not give the equipment to the kids but it would have made them sad: </p><p style=""color:grey;font-size:50px; display: inline-block; border-spacing: 15px; border-width:3px; border-style:solid; border-color:green"">  &nbsp; -8 &nbsp; </p><p> Remember, in this case, you would not win or lose ANY points because you did not give them the equipment.  </p><p style=""color:grey"">The text is GREY because you earned ZERO points. </p><p  style=""color:green""> Choosing to give the kids the equipment would have made you lose points. The box around the text is GREEN because you chose the better option.</p>","","0","instructions","","","","","","","","","","",""
"learning-instructions","21","192328","0.0-8.0-0.0-0.13","5178","2","12","Female","approach_avoid_spark_v1","""event"",""trial"",""time""
""fullscreenenter"",""1"",""2591""
","
","
","""event"",""trial"",""time""
""fullscreenenter"",""1"",""2591""
","
","","","","","","377","<p> You will have 3 seconds to make each choice. Try to respond before time runs out! </p><p> You will lose 5 points each time you do not make a response. </p>","","0","instructions","","","","","","","","","","",""
"learning-instructions","22","198179","0.0-8.0-0.0-0.14","5178","2","12","Female","approach_avoid_spark_v1","""event"",""trial"",""time""
""fullscreenenter"",""1"",""2591""
","
","
","""event"",""trial"",""time""
""fullscreenenter"",""1"",""2591""
","
","","","","","","444","<p> This is just a practice round, but in the real game, your bonus payment will depend on your total number of points.","","0","instructions","","","","","","","","","","",""
"learning-instructions","23","204242","0.0-8.0-0.0-0.15","5178","2","12","Female","approach_avoid_spark_v1","""event"",""trial"",""time""
""fullscreenenter"",""1"",""2591""
","
","
","""event"",""trial"",""time""
""fullscreenenter"",""1"",""2591""
","
","","","","","","307","<p> Remember, you can give them the equipment by pressing 1 and choose not to give it to them by pressing 0. </p><br><div class=""choice-instructions-grid""> <div class=""choice-option""><img src=""images/approach.png"" class=""choice-option-img"" stage=""instructions"" position=""0"" ><div class=""choice-option-text""> Press ""1."" </div></div><div class=""choice-option""><img src=""images/avoid.png"" class=""choice-option-img"" stage=""instructions"" position=""1"" ><div class=""choice-option-text""> Press ""0."" </div></div>","","0","instructions","","","","","","","","","","",""
"html-button-response","24","206241","0.0-8.0-1.0","5178","2","12","Female","approach_avoid_spark_v1","""event"",""trial"",""time""
""fullscreenenter"",""1"",""2591""
","
","
","""event"",""trial"",""time""
""fullscreenenter"",""1"",""2591""
","
","","","","","","1897","<p> Ready to practice? </p>","0","","","","","","","","","","","","",""
"html-keyboard-response","25","206843","0.0-8.0-2.0-0.0","5178","2","12","Female","approach_avoid_spark_v1","""event"",""trial"",""time""
""fullscreenenter"",""1"",""2591""
","
","
","""event"",""trial"",""time""
""fullscreenenter"",""1"",""2591""
","
","","","","","","null","<div style=""font-size:60px;"">+</div>","null","","fixation","","","","","","","","","","",""
"aa-learning-trial","26","209846","0.0-8.0-2.0-1.0","5178","2","12","Female","approach_avoid_spark_v1","""event"",""trial"",""time""
""fullscreenenter"",""1"",""2591""
","
","
","""event"",""trial"",""time""
""fullscreenenter"",""1"",""2591""
","
","","","","","","2102","images/ball1.png","","","learning","-3","-3","1","1","practice","practice","practice","-1","","",""
"html-keyboard-response","27","210348","0.0-8.0-2.0-0.1","5178","2","12","Female","approach_avoid_spark_v1","""event"",""trial"",""time""
""fullscreenenter"",""1"",""2591""
","
","
","""event"",""trial"",""time""
""fullscreenenter"",""1"",""2591""
","
","","","","","","null","<div style=""font-size:60px;"">+</div>","null","","fixation","","","","","","","","","","",""
"aa-learning-trial","28","213350","0.0-8.0-2.0-1.1","5178","2","12","Female","approach_avoid_spark_v1","""event"",""trial"",""time""
""fullscreenenter"",""1"",""2591""
","
","
","""event"",""trial"",""time""
""fullscreenenter"",""1"",""2591""
","
","","","","","","1835","images/ball3.png","","","learning","-6","-6","1","1","practice","practice","practice","-1","","",""
"html-keyboard-response","29","213852","0.0-8.0-2.0-0.2","5178","2","12","Female","approach_avoid_spark_v1","""event"",""trial"",""time""
""fullscreenenter"",""1"",""2591""
","
","
","""event"",""trial"",""time""
""fullscreenenter"",""1"",""2591""
","
","","","","","","null","<div style=""font-size:60px;"">+</div>","null","","fixation","","","","","","","","","","",""
"aa-learning-trial","30","216854","0.0-8.0-2.0-1.2","5178","2","12","Female","approach_avoid_spark_v1","""event"",""trial"",""time""
""fullscreenenter"",""1"",""2591""
","
","
","""event"",""trial"",""time""
""fullscreenenter"",""1"",""2591""
","
","","","","","","1339","images/ball4.png","","","learning","-5","-5","1","1","practice","practice","practice","-1","","",""
"html-keyboard-response","31","217355","0.0-8.0-2.0-0.3","5178","2","12","Female","approach_avoid_spark_v1","""event"",""trial"",""time""
""fullscreenenter"",""1"",""2591""
","
","
","""event"",""trial"",""time""
""fullscreenenter"",""1"",""2591""
","
","","","","","","null","<div style=""font-size:60px;"">+</div>","null","","fixation","","","","","","","","","","",""
"aa-learning-trial","32","220356","0.0-8.0-2.0-1.3","5178","2","12","Female","approach_avoid_spark_v1","""event"",""trial"",""time""
""fullscreenenter"",""1"",""2591""
","
","
","""event"",""trial"",""time""
""fullscreenenter"",""1"",""2591""
","
","","","","","","788","images/racket3.png","","","learning","3","0","0","0","practice","practice","practice","-1","","",""
"html-keyboard-response","33","220858","0.0-8.0-2.0-0.4","5178","2","12","Female","approach_avoid_spark_v1","""event"",""trial"",""time""
""fullscreenenter"",""1"",""2591""
","
","
","""event"",""trial"",""time""
""fullscreenenter"",""1"",""2591""
","
","","","","","","null","<div style=""font-size:60px;"">+</div>","null","","fixation","","","","","","","","","","",""
"aa-learning-trial","34","223861","0.0-8.0-2.0-1.4","5178","2","12","Female","approach_avoid_spark_v1","""event"",""trial"",""time""
""fullscreenenter"",""1"",""2591""
","
","
","""event"",""trial"",""time""
""fullscreenenter"",""1"",""2591""
","
","","","","","","1321","images/ball2.png","","","learning","4","4","1","1","practice","practice","practice","-1","","",""
"html-keyboard-response","35","224362","0.0-8.0-2.0-0.5","5178","2","12","Female","approach_avoid_spark_v1","""event"",""trial"",""time""
""fullscreenenter"",""1"",""2591""
","
","
","""event"",""trial"",""time""
""fullscreenenter"",""1"",""2591""
","
","","","","","","null","<div style=""font-size:60px;"">+</div>","null","","fixation","","","","","","","","","","",""
"aa-learning-trial","36","227363","0.0-8.0-2.0-1.5","5178","2","12","Female","approach_avoid_spark_v1","""event"",""trial"",""time""
""fullscreenenter"",""1"",""2591""
","
","
","""event"",""trial"",""time""
""fullscreenenter"",""1"",""2591""
","
","","","","","","306","images/racket4.png","","","learning","-4","0","0","0","practice","practice","practice","-1","","",""
"html-keyboard-response","37","227865","0.0-8.0-2.0-0.6","5178","2","12","Female","approach_avoid_spark_v1","""event"",""trial"",""time""
""fullscreenenter"",""1"",""2591""
","
","
","""event"",""trial"",""time""
""fullscreenenter"",""1"",""2591""
","
","","","","","","null","<div style=""font-size:60px;"">+</div>","null","","fixation","","","","","","","","","","",""
"aa-learning-trial","38","230868","0.0-8.0-2.0-1.6","5178","2","12","Female","approach_avoid_spark_v1","""event"",""trial"",""time""
""fullscreenenter"",""1"",""2591""
","
","
","""event"",""trial"",""time""
""fullscreenenter"",""1"",""2591""
","
","","","","","","466","images/racket4.png","","","learning","2","2","1","1","practice","practice","practice","-1","","",""
"html-keyboard-response","39","231369","0.0-8.0-2.0-0.7","5178","2","12","Female","approach_avoid_spark_v1","""event"",""trial"",""time""
""fullscreenenter"",""1"",""2591""
","
","
","""event"",""trial"",""time""
""fullscreenenter"",""1"",""2591""
","
","","","","","","null","<div style=""font-size:60px;"">+</div>","null","","fixation","","","","","","","","","","",""
"aa-learning-trial","40","234372","0.0-8.0-2.0-1.7","5178","2","12","Female","approach_avoid_spark_v1","""event"",""trial"",""time""
""fullscreenenter"",""1"",""2591""
","
","
","""event"",""trial"",""time""
""fullscreenenter"",""1"",""2591""
","
","","","","","","421","images/ball3.png","","","learning","1","1","1","1","practice","practice","practice","-1","","",""
"html-keyboard-response","41","234873","0.0-8.0-2.0-0.8","5178","2","12","Female","approach_avoid_spark_v1","""event"",""trial"",""time""
""fullscreenenter"",""1"",""2591""
","
","
","""event"",""trial"",""time""
""fullscreenenter"",""1"",""2591""
","
","","","","","","null","<div style=""font-size:60px;"">+</div>","null","","fixation","","","","","","","","","","",""
"aa-learning-trial","42","237875","0.0-8.0-2.0-1.8","5178","2","12","Female","approach_avoid_spark_v1","""event"",""trial"",""time""
""fullscreenenter"",""1"",""2591""
","
","
","""event"",""trial"",""time""
""fullscreenenter"",""1"",""2591""
","
","","","","","","217","images/ball1.png","","","learning","-7","0","0","0","practice","practice","practice","-1","","",""
"html-keyboard-response","43","238377","0.0-8.0-2.0-0.9","5178","2","12","Female","approach_avoid_spark_v1","""event"",""trial"",""time""
""fullscreenenter"",""1"",""2591""
","
","
","""event"",""trial"",""time""
""fullscreenenter"",""1"",""2591""
","
","","","","","","null","<div style=""font-size:60px;"">+</div>","null","","fixation","","","","","","","","","","",""
"aa-learning-trial","44","241379","0.0-8.0-2.0-1.9","5178","2","12","Female","approach_avoid_spark_v1","""event"",""trial"",""time""
""fullscreenenter"",""1"",""2591""
","
","
","""event"",""trial"",""time""
""fullscreenenter"",""1"",""2591""
","
","","","","","","286","images/ball1.png","","","learning","1","1","1","1","practice","practice","practice","-1","","",""
"html-keyboard-response","45","241880","0.0-8.0-2.0-0.10","5178","2","12","Female","approach_avoid_spark_v1","""event"",""trial"",""time""
""fullscreenenter"",""1"",""2591""
","
","
","""event"",""trial"",""time""
""fullscreenenter"",""1"",""2591""
","
","","","","","","null","<div style=""font-size:60px;"">+</div>","null","","fixation","","","","","","","","","","",""
"aa-learning-trial","46","244882","0.0-8.0-2.0-1.10","5178","2","12","Female","approach_avoid_spark_v1","""event"",""trial"",""time""
""fullscreenenter"",""1"",""2591""
","
","
","""event"",""trial"",""time""
""fullscreenenter"",""1"",""2591""
","
","","","","","","1061.000000000029","images/racket2.png","","","learning","-8","0","0","0","practice","practice","practice","-1","","",""
"html-keyboard-response","47","245384","0.0-8.0-2.0-0.11","5178","2","12","Female","approach_avoid_spark_v1","""event"",""trial"",""time""
""fullscreenenter"",""1"",""2591""
","
","
","""event"",""trial"",""time""
""fullscreenenter"",""1"",""2591""
","
","","","","","","null","<div style=""font-size:60px;"">+</div>","null","","fixation","","","","","","","","","","",""
"aa-learning-trial","48","248385","0.0-8.0-2.0-1.11","5178","2","12","Female","approach_avoid_spark_v1","""event"",""trial"",""time""
""fullscreenenter"",""1"",""2591""
","
","
","""event"",""trial"",""time""
""fullscreenenter"",""1"",""2591""
","
","","","","","","378","images/racket2.png","","","learning","7","7","1","1","practice","practice","practice","-1","","",""
"html-button-response","49","250834","0.0-8.0-3.0","5178","2","12","Female","approach_avoid_spark_v1","""event"",""trial"",""time""
""fullscreenenter"",""1"",""2591""
","
","
","""event"",""trial"",""time""
""fullscreenenter"",""1"",""2591""
","
","","","","","","2447","<p> You earned 1 points in the practice round! </p>","0","","break","","","","","","","","","","",""
"learning-instructions","50","257948","0.0-8.0-4.0-0.0","5178","2","12","Female","approach_avoid_spark_v1","""event"",""trial"",""time""
""fullscreenenter"",""1"",""2591""
","
","
","""event"",""trial"",""time""
""fullscreenenter"",""1"",""2591""
","
","","","","","","1157","<p> It's almost time to start the real game. </p><p> Before you start, we're going to ask you a few questions about how the game works. </p>","","0","instructions","","","","","","","","","","",""
"preload","51","258963","0.0-8.0-5.0","5178","2","12","Female","approach_avoid_spark_v1","""event"",""trial"",""time""
""fullscreenenter"",""1"",""2591""
","
","
","""event"",""trial"",""time""
""fullscreenenter"",""1"",""2591""
","
","true","false","[]","[]","[]","","","","","","","","","","","","","","","",""
"comp-q","52","265321","0.0-8.0-6.0-0.0","5178","2","12","Female","approach_avoid_spark_v1","""event"",""trial"",""time""
""fullscreenenter"",""1"",""2591""
","
","
","""event"",""trial"",""time""
""fullscreenenter"",""1"",""2591""
","
","","","","","","1366","<p> <b> True or False? </b> </p><p> If you see a number in GREY, that means you earned that many points. </p>","","1","comp_question","","","","","","","","","true","",""
"comp-q","53","274900","0.0-8.0-6.0-1.0","5178","2","12","Female","approach_avoid_spark_v1","""event"",""trial"",""time""
""fullscreenenter"",""1"",""2591""
","
","
","""event"",""trial"",""time""
""fullscreenenter"",""1"",""2591""
","
","","","","","","1222.9999999999418","<p><b> That's right! </b> If you see a grey number, it means you earned ZERO points. <br> The grey numbers show the points you WOULD HAVE earned if you had made the other choice. </p>","","0","comp_answer","","","","","","","","","","",""
"comp-q","54","280806","0.0-8.0-7.0-0.0","5178","2","12","Female","approach_avoid_spark_v1","""event"",""trial"",""time""
""fullscreenenter"",""1"",""2591""
","
","
","""event"",""trial"",""time""
""fullscreenenter"",""1"",""2591""
","
","","","","","","1219","<p> <b> True or False? </b> </p><p> You will have as much time as you want to make each choice. </p>","","1","comp_question","","","","","","","","","true","",""
"comp-q","55","286431","0.0-8.0-7.0-1.0","5178","2","12","Female","approach_avoid_spark_v1","""event"",""trial"",""time""
""fullscreenenter"",""1"",""2591""
","
","
","""event"",""trial"",""time""
""fullscreenenter"",""1"",""2591""
","
","","","","","","1589","<p> <b> That's right! </b> You will only have 3 seconds to make each choice. </p>","","0","comp_answer","","","","","","","","","","",""
"comp-q","56","291891","0.0-8.0-8.0-0.0","5178","2","12","Female","approach_avoid_spark_v1","""event"",""trial"",""time""
""fullscreenenter"",""1"",""2591""
","
","
","""event"",""trial"",""time""
""fullscreenenter"",""1"",""2591""
","
","","","","","","808","<p> <b> True or False? </b> </p><p> You should use the '1' and '0' keys to make your choices. </p>","","0","comp_question","","","","","","","","","true","",""
"comp-q","57","297466","0.0-8.0-8.0-1.0","5178","2","12","Female","approach_avoid_spark_v1","""event"",""trial"",""time""
""fullscreenenter"",""1"",""2591""
","
","
","""event"",""trial"",""time""
""fullscreenenter"",""1"",""2591""
","
","","","","","","971","<p> <b> That's right! </b> You should use the '1' and '0' keys to make each choice. </p>","","0","comp_answer","","","","","","","","","","",""
"learning-instructions","58","305225","0.0-8.0-9.0-0.0","5178","2","12","Female","approach_avoid_spark_v1","""event"",""trial"",""time""
""fullscreenenter"",""1"",""2591""
","
","
","""event"",""trial"",""time""
""fullscreenenter"",""1"",""2591""
","
","","","","","","1493.0000000000582","<p> It's now time to start the real game. </p>Do your best, because the points you earn in the next rounds will influence your bonus payment. </p>","","0","instructions","","","","","","","","","","",""
"preload","59","305332","0.0-9.0-0.0","5178","2","12","Female","approach_avoid_spark_v1","""event"",""trial"",""time""
""fullscreenenter"",""1"",""2591""
","
","
","""event"",""trial"",""time""
""fullscreenenter"",""1"",""2591""
","
","true","false","[]","[]","[]","","","","","","","","","","","","","","","",""
"learning-instructions","60","311588","0.0-9.0-1.0-0.0","5178","2","12","Female","approach_avoid_spark_v1","""event"",""trial"",""time""
""fullscreenenter"",""1"",""2591""
","
","
","""event"",""trial"",""time""
""fullscreenenter"",""1"",""2591""
","
","","","","","","1366.0000000000582","<p> Your goal in this round is to take your friend for rides in different vehicles. </p></div>","","0","instructions","","","","","","","","","","",""
"learning-instructions","61","321889","0.0-9.0-1.0-0.1","5178","2","12","Female","approach_avoid_spark_v1","""event"",""trial"",""time""
""fullscreenenter"",""1"",""2591""
","
","
","""event"",""trial"",""time""
""fullscreenenter"",""1"",""2591""
","
","","","","","","572","<p> Your friend enjoys riding in some vehicles but not in others.  </p><p> On each turn, you will see a vehicle.   </p><p> You need to decide whether to take your friend for a ride or not.  </p>","","0","instructions","","","","","","","","","","",""
"learning-instructions","62","328895","0.0-9.0-1.0-0.2","5178","2","12","Female","approach_avoid_spark_v1","""event"",""trial"",""time""
""fullscreenenter"",""1"",""2591""
","
","
","""event"",""trial"",""time""
""fullscreenenter"",""1"",""2591""
","
","","","","","","660","<p> You can take your friend for a ride in the vehicle by pressing 1 and skip the ride by pressing 0. </p><br><div class=""choice-instructions-grid""> <div class=""choice-option""><img src=""images/approach.png"" class=""choice-option-img"" stage=""instructions"" position=""0"" ><div class=""choice-option-text""> Press ""1."" </div></div><div class=""choice-option""><img src=""images/avoid.png"" class=""choice-option-img"" stage=""instructions"" position=""1"" ><div class=""choice-option-text""> Press ""0."" </div></div>","","0","instructions","","","","","","","","","","",""
"learning-instructions","63","339634","0.0-9.0-1.0-0.3","5178","2","12","Female","approach_avoid_spark_v1","""event"",""trial"",""time""
""fullscreenenter"",""1"",""2591""
","
","
","""event"",""trial"",""time""
""fullscreenenter"",""1"",""2591""
","
","","","","","","2130","<p> If you take them for a ride in a vehicle they like, they will be thrilled! </p><p> But if you take them for a ride in a vehicle they do not like, they will be upset. </p>","","0","instructions","","","","","","","","","","",""
"learning-instructions","64","352395","0.0-9.0-1.0-0.4","5178","2","12","Female","approach_avoid_spark_v1","""event"",""trial"",""time""
""fullscreenenter"",""1"",""2591""
","
","
","""event"",""trial"",""time""
""fullscreenenter"",""1"",""2591""
","
","","","","","","1241","<p> You will earn points based on how you made your friend feel. </p><p> If you made him thrilled, you will WIN anywhere from 1 - 9 points, </p><p> but if you made him upset, you will LOSE anywhere from 1 - 9 points. </p>","","0","instructions","","","","","","","","","","",""
"learning-instructions","65","361073","0.0-9.0-1.0-0.5","5178","2","12","Female","approach_avoid_spark_v1","""event"",""trial"",""time""
""fullscreenenter"",""1"",""2591""
","
","
","""event"",""trial"",""time""
""fullscreenenter"",""1"",""2591""
","
","","","","","","1373","<p> You will see how many points you won or lost in the center of the screen. </p><p> Here is what you would see if you won 5 points: </p><p style=""color:green;font-size:50px;font-weight:bolder"">5</p>","","0","instructions","","","","","","","","","","",""
"learning-instructions","66","368278","0.0-9.0-1.0-0.6","5178","2","12","Female","approach_avoid_spark_v1","""event"",""trial"",""time""
""fullscreenenter"",""1"",""2591""
","
","
","""event"",""trial"",""time""
""fullscreenenter"",""1"",""2591""
","
","","","","","","3988","<p> And here is what you would see if you lost 3 points: </p><p style=""color:red;font-size:50px;font-weight:bolder"">-3</p>","","0","instructions","","","","","","","","","","",""
"learning-instructions","67","384090","0.0-9.0-1.0-0.7","5178","2","12","Female","approach_avoid_spark_v1","""event"",""trial"",""time""
""fullscreenenter"",""1"",""2591""
","
","
","""event"",""trial"",""time""
""fullscreenenter"",""1"",""2591""
","
","","","","","","817","<p> Some vehicles will make your friend REALLY thrilled or upset. </p><p> These vehicles will make you win or lose LOTS of points. </p><p> Other vehicles will only make him feel a little thrilled or upset. </p><p> These vehicles will make you win or lose small amounts of points. </p>","","0","instructions","","","","","","","","","","",""
"learning-instructions","68","396268","0.0-9.0-1.0-0.8","5178","2","12","Female","approach_avoid_spark_v1","""event"",""trial"",""time""
""fullscreenenter"",""1"",""2591""
","
","
","""event"",""trial"",""time""
""fullscreenenter"",""1"",""2591""
","
","","","","","","592","<p> If you choose to skip the ride, you will not win or lose any points. </p><p>  However, in the center of the screen, you will see the number of points you WOULD HAVE won or lost if you had taken your friend for a ride. </p>","","0","instructions","","","","","","","","","","",""
"learning-instructions","69","408473","0.0-9.0-1.0-0.9","5178","2","12","Female","approach_avoid_spark_v1","""event"",""trial"",""time""
""fullscreenenter"",""1"",""2591""
","
","
","""event"",""trial"",""time""
""fullscreenenter"",""1"",""2591""
","
","","","","","","1627","<p> Here is what you might see if you did not take your friend for a ride but he would have enjoyed it: </p><p style=""color:grey; font-size:50px; display: inline-block; border-spacing: 15px; border-width:3px; border-style:solid; border-color:red"">  &nbsp; 6 &nbsp; </p><p> Remember, in this case, you would not win or lose ANY points because you skipped the ride.  </p>","","0","instructions","","","","","","","","","","",""
"learning-instructions","70","418881","0.0-9.0-1.0-0.10","5178","2","12","Female","approach_avoid_spark_v1","""event"",""trial"",""time""
""fullscreenenter"",""1"",""2591""
","
","
","""event"",""trial"",""time""
""fullscreenenter"",""1"",""2591""
","
","","","","","","3026","<p> Try to make the best choice for each vehicle because </p><p> at the end of the game, you will earn bonus money based on how many points you earned. </p>","","0","instructions","","","","","","","","","","",""
"learning-instructions","71","427527","0.0-9.0-1.0-0.11","5178","2","12","Female","approach_avoid_spark_v1","""event"",""trial"",""time""
""fullscreenenter"",""1"",""2591""
","
","
","""event"",""trial"",""time""
""fullscreenenter"",""1"",""2591""
","
","","","","","","465","<p> You will have 3 seconds to make each choice. Try to respond before time runs out! </p><p> You will lose 5 points each time you do not make a response. </p>","","0","instructions","","","","","","","","","","",""
"html-keyboard-response","72","428129","0.0-9.0-2.0-0.0","5178","2","12","Female","approach_avoid_spark_v1","""event"",""trial"",""time""
""fullscreenenter"",""1"",""2591""
","
","
","""event"",""trial"",""time""
""fullscreenenter"",""1"",""2591""
","
","","","","","","null","<div style=""font-size:60px;"">+</div>","null","","fixation","","","","","","","","","","",""
"aa-learning-trial","73","431132","0.0-9.0-2.0-1.0","5178","2","12","Female","approach_avoid_spark_v1","""event"",""trial"",""time""
""fullscreenenter"",""1"",""2591""
","
","
","""event"",""trial"",""time""
""fullscreenenter"",""1"",""2591""
","
","","","","","","1279.9999999999418","images/boat8.png","","","learning","2","2","1","1","boat","vehicles","2","0","","bad","[-3]"
"html-keyboard-response","74","431634","0.0-9.0-2.0-0.1","5178","2","12","Female","approach_avoid_spark_v1","""event"",""trial"",""time""
""fullscreenenter"",""1"",""2591""
","
","
","""event"",""trial"",""time""
""fullscreenenter"",""1"",""2591""
","
","","","","","","null","<div style=""font-size:60px;"">+</div>","null","","fixation","","","","","","","","","","",""
"aa-learning-trial","75","434636","0.0-9.0-2.0-1.1","5178","2","12","Female","approach_avoid_spark_v1","""event"",""trial"",""time""
""fullscreenenter"",""1"",""2591""
","
","
","""event"",""trial"",""time""
""fullscreenenter"",""1"",""2591""
","
","","","","","","974.9999999999418","images/train3.png","","","learning","3","0","0","0","train","vehicles","2","0","","good","[5]"
"html-keyboard-response","76","435138","0.0-9.0-2.0-0.2","5178","2","12","Female","approach_avoid_spark_v1","""event"",""trial"",""time""
""fullscreenenter"",""1"",""2591""
","
","
","""event"",""trial"",""time""
""fullscreenenter"",""1"",""2591""
","
","","","","","","null","<div style=""font-size:60px;"">+</div>","null","","fixation","","","","","","","","","","",""
"aa-learning-trial","77","438140","0.0-9.0-2.0-1.2","5178","2","12","Female","approach_avoid_spark_v1","""event"",""trial"",""time""
""fullscreenenter"",""1"",""2591""
","
","
","""event"",""trial"",""time""
""fullscreenenter"",""1"",""2591""
","
","","","","","","724","images/boat2.png","","","learning","-7","-7","1","1","boat","vehicles","2","0","","bad","[-3]"
"html-keyboard-response","78","438642","0.0-9.0-2.0-0.3","5178","2","12","Female","approach_avoid_spark_v1","""event"",""trial"",""time""
""fullscreenenter"",""1"",""2591""
","
","
","""event"",""trial"",""time""
""fullscreenenter"",""1"",""2591""
","
","","","","","","null","<div style=""font-size:60px;"">+</div>","null","","fixation","","","","","","","","","","",""
"aa-learning-trial","79","441643","0.0-9.0-2.0-1.3","5178","2","12","Female","approach_avoid_spark_v1","""event"",""trial"",""time""
""fullscreenenter"",""1"",""2591""
","
","
","""event"",""trial"",""time""
""fullscreenenter"",""1"",""2591""
","
","","","","","","820","images/train4.png","","","learning","1","1","1","1","train","vehicles","2","0","","good","[5]"
"html-keyboard-response","80","442145","0.0-9.0-2.0-0.4","5178","2","12","Female","approach_avoid_spark_v1","""event"",""trial"",""time""
""fullscreenenter"",""1"",""2591""
","
","
","""event"",""trial"",""time""
""fullscreenenter"",""1"",""2591""
","
","","","","","","null","<div style=""font-size:60px;"">+</div>","null","","fixation","","","","","","","","","","",""
"aa-learning-trial","81","445146","0.0-9.0-2.0-1.4","5178","2","12","Female","approach_avoid_spark_v1","""event"",""trial"",""time""
""fullscreenenter"",""1"",""2591""
","
","
","""event"",""trial"",""time""
""fullscreenenter"",""1"",""2591""
","
","","","","","","1127","images/boat7.png","","","learning","-4","0","0","0","boat","vehicles","2","0","","bad","[-3]"
"html-keyboard-response","82","445648","0.0-9.0-2.0-0.5","5178","2","12","Female","approach_avoid_spark_v1","""event"",""trial"",""time""
""fullscreenenter"",""1"",""2591""
","
","
","""event"",""trial"",""time""
""fullscreenenter"",""1"",""2591""
","
","","","","","","null","<div style=""font-size:60px;"">+</div>","null","","fixation","","","","","","","","","","",""
"aa-learning-trial","83","448650","0.0-9.0-2.0-1.5","5178","2","12","Female","approach_avoid_spark_v1","""event"",""trial"",""time""
""fullscreenenter"",""1"",""2591""
","
","
","""event"",""trial"",""time""
""fullscreenenter"",""1"",""2591""
","
","","","","","","1090","images/truck2.png","","","learning","-5","0","0","0","truck","vehicles","2","0","","neutral","0"
"html-keyboard-response","84","449151","0.0-9.0-2.0-0.6","5178","2","12","Female","approach_avoid_spark_v1","""event"",""trial"",""time""
""fullscreenenter"",""1"",""2591""
","
","
","""event"",""trial"",""time""
""fullscreenenter"",""1"",""2591""
","
","","","","","","null","<div style=""font-size:60px;"">+</div>","null","","fixation","","","","","","","","","","",""
"aa-learning-trial","85","452153","0.0-9.0-2.0-1.6","5178","2","12","Female","approach_avoid_spark_v1","""event"",""trial"",""time""
""fullscreenenter"",""1"",""2591""
","
","
","""event"",""trial"",""time""
""fullscreenenter"",""1"",""2591""
","
","","","","","","439","images/train6.png","","","learning","-6","-6","1","1","train","vehicles","2","0","","good","[5]"
"html-keyboard-response","86","452656","0.0-9.0-2.0-0.7","5178","2","12","Female","approach_avoid_spark_v1","""event"",""trial"",""time""
""fullscreenenter"",""1"",""2591""
","
","
","""event"",""trial"",""time""
""fullscreenenter"",""1"",""2591""
","
","","","","","","null","<div style=""font-size:60px;"">+</div>","null","","fixation","","","","","","","","","","",""
"aa-learning-trial","87","455659","0.0-9.0-2.0-1.7","5178","2","12","Female","approach_avoid_spark_v1","""event"",""trial"",""time""
""fullscreenenter"",""1"",""2591""
","
","
","""event"",""trial"",""time""
""fullscreenenter"",""1"",""2591""
","
","","","","","","1193","images/truck1.png","","","learning","5","0","0","0","truck","vehicles","2","0","","neutral","0"
"html-keyboard-response","88","456160","0.0-9.0-2.0-0.8","5178","2","12","Female","approach_avoid_spark_v1","""event"",""trial"",""time""
""fullscreenenter"",""1"",""2591""
","
","
","""event"",""trial"",""time""
""fullscreenenter"",""1"",""2591""
","
","","","","","","null","<div style=""font-size:60px;"">+</div>","null","","fixation","","","","","","","","","","",""
"aa-learning-trial","89","459162","0.0-9.0-2.0-1.8","5178","2","12","Female","approach_avoid_spark_v1","""event"",""trial"",""time""
""fullscreenenter"",""1"",""2591""
","
","
","""event"",""trial"",""time""
""fullscreenenter"",""1"",""2591""
","
","","","","","","2768","images/train4.png","","","learning","1","1","1","1","train","vehicles","2","0","","good","[5]"
"html-keyboard-response","90","459663","0.0-9.0-2.0-0.9","5178","2","12","Female","approach_avoid_spark_v1","""event"",""trial"",""time""
""fullscreenenter"",""1"",""2591""
","
","
","""event"",""trial"",""time""
""fullscreenenter"",""1"",""2591""
","
","","","","","","null","<div style=""font-size:60px;"">+</div>","null","","fixation","","","","","","","","","","",""
"aa-learning-trial","91","462665","0.0-9.0-2.0-1.9","5178","2","12","Female","approach_avoid_spark_v1","""event"",""trial"",""time""
""fullscreenenter"",""1"",""2591""
","
","
","""event"",""trial"",""time""
""fullscreenenter"",""1"",""2591""
","
","","","","","","1680.0000000000582","images/boat7.png","","","learning","-4","0","0","0","boat","vehicles","2","0","","bad","[-3]"
"html-keyboard-response","92","463167","0.0-9.0-2.0-0.10","5178","2","12","Female","approach_avoid_spark_v1","""event"",""trial"",""time""
""fullscreenenter"",""1"",""2591""
","
","
","""event"",""trial"",""time""
""fullscreenenter"",""1"",""2591""
","
","","","","","","null","<div style=""font-size:60px;"">+</div>","null","","fixation","","","","","","","","","","",""
"aa-learning-trial","93","466169","0.0-9.0-2.0-1.10","5178","2","12","Female","approach_avoid_spark_v1","""event"",""trial"",""time""
""fullscreenenter"",""1"",""2591""
","
","
","""event"",""trial"",""time""
""fullscreenenter"",""1"",""2591""
","
","","","","","","1030","images/train3.png","","","learning","3","3","1","1","train","vehicles","2","0","","good","[5]"
"html-keyboard-response","94","466670","0.0-9.0-2.0-0.11","5178","2","12","Female","approach_avoid_spark_v1","""event"",""trial"",""time""
""fullscreenenter"",""1"",""2591""
","
","
","""event"",""trial"",""time""
""fullscreenenter"",""1"",""2591""
","
","","","","","","null","<div style=""font-size:60px;"">+</div>","null","","fixation","","","","","","","","","","",""
"aa-learning-trial","95","469672","0.0-9.0-2.0-1.11","5178","2","12","Female","approach_avoid_spark_v1","""event"",""trial"",""time""
""fullscreenenter"",""1"",""2591""
","
","
","""event"",""trial"",""time""
""fullscreenenter"",""1"",""2591""
","
","","","","","","1060.9999999999418","images/truck1.png","","","learning","5","0","0","0","truck","vehicles","2","0","","neutral","0"
"html-keyboard-response","96","470173","0.0-9.0-2.0-0.12","5178","2","12","Female","approach_avoid_spark_v1","""event"",""trial"",""time""
""fullscreenenter"",""1"",""2591""
","
","
","""event"",""trial"",""time""
""fullscreenenter"",""1"",""2591""
","
","","","","","","null","<div style=""font-size:60px;"">+</div>","null","","fixation","","","","","","","","","","",""
"aa-learning-trial","97","473175","0.0-9.0-2.0-1.12","5178","2","12","Female","approach_avoid_spark_v1","""event"",""trial"",""time""
""fullscreenenter"",""1"",""2591""
","
","
","""event"",""trial"",""time""
""fullscreenenter"",""1"",""2591""
","
","","","","","","867","images/boat8.png","","","learning","2","2","1","1","boat","vehicles","2","0","","bad","[-3]"
"html-keyboard-response","98","473677","0.0-9.0-2.0-0.13","5178","2","12","Female","approach_avoid_spark_v1","""event"",""trial"",""time""
""fullscreenenter"",""1"",""2591""
","
","
","""event"",""trial"",""time""
""fullscreenenter"",""1"",""2591""
","
","","","","","","null","<div style=""font-size:60px;"">+</div>","null","","fixation","","","","","","","","","","",""
"aa-learning-trial","99","476678","0.0-9.0-2.0-1.13","5178","2","12","Female","approach_avoid_spark_v1","""event"",""trial"",""time""
""fullscreenenter"",""1"",""2591""
","
","
","""event"",""trial"",""time""
""fullscreenenter"",""1"",""2591""
","
","","","","","","1506","images/truck4.png","","","learning","7","0","0","0","truck","vehicles","2","0","","neutral","0"
"html-keyboard-response","100","477180","0.0-9.0-2.0-0.14","5178","2","12","Female","approach_avoid_spark_v1","""event"",""trial"",""time""
""fullscreenenter"",""1"",""2591""
","
","
","""event"",""trial"",""time""
""fullscreenenter"",""1"",""2591""
","
","","","","","","null","<div style=""font-size:60px;"">+</div>","null","","fixation","","","","","","","","","","",""
"aa-learning-trial","101","480182","0.0-9.0-2.0-1.14","5178","2","12","Female","approach_avoid_spark_v1","""event"",""trial"",""time""
""fullscreenenter"",""1"",""2591""
","
","
","""event"",""trial"",""time""
""fullscreenenter"",""1"",""2591""
","
","","","","","","1079.0000000000582","images/truck4.png","","","learning","7","7","1","1","truck","vehicles","2","0","","neutral","0"
"html-keyboard-response","102","480684","0.0-9.0-2.0-0.15","5178","2","12","Female","approach_avoid_spark_v1","""event"",""trial"",""time""
""fullscreenenter"",""1"",""2591""
","
","
","""event"",""trial"",""time""
""fullscreenenter"",""1"",""2591""
","
","","","","","","null","<div style=""font-size:60px;"">+</div>","null","","fixation","","","","","","","","","","",""
"aa-learning-trial","103","483687","0.0-9.0-2.0-1.15","5178","2","12","Female","approach_avoid_spark_v1","""event"",""trial"",""time""
""fullscreenenter"",""1"",""2591""
","
","
","""event"",""trial"",""time""
""fullscreenenter"",""1"",""2591""
","
","","","","","","1386","images/boat7.png","","","learning","-4","0","0","0","boat","vehicles","2","0","","bad","[-3]"
"html-keyboard-response","104","484188","0.0-9.0-2.0-0.16","5178","2","12","Female","approach_avoid_spark_v1","""event"",""trial"",""time""
""fullscreenenter"",""1"",""2591""
","
","
","""event"",""trial"",""time""
""fullscreenenter"",""1"",""2591""
","
","","","","","","null","<div style=""font-size:60px;"">+</div>","null","","fixation","","","","","","","","","","",""
"aa-learning-trial","105","487191","0.0-9.0-2.0-1.16","5178","2","12","Female","approach_avoid_spark_v1","""event"",""trial"",""time""
""fullscreenenter"",""1"",""2591""
","
","
","""event"",""trial"",""time""
""fullscreenenter"",""1"",""2591""
","
","","","","","","1498","images/train6.png","","","learning","-6","0","0","0","train","vehicles","2","0","","good","[5]"
"html-keyboard-response","106","487692","0.0-9.0-2.0-0.17","5178","2","12","Female","approach_avoid_spark_v1","""event"",""trial"",""time""
""fullscreenenter"",""1"",""2591""
","
","
","""event"",""trial"",""time""
""fullscreenenter"",""1"",""2591""
","
","","","","","","null","<div style=""font-size:60px;"">+</div>","null","","fixation","","","","","","","","","","",""
"aa-learning-trial","107","490694","0.0-9.0-2.0-1.17","5178","2","12","Female","approach_avoid_spark_v1","""event"",""trial"",""time""
""fullscreenenter"",""1"",""2591""
","
","
","""event"",""trial"",""time""
""fullscreenenter"",""1"",""2591""
","
","","","","","","1468","images/boat7.png","","","learning","-4","0","0","0","boat","vehicles","2","0","","bad","[-3]"
"html-keyboard-response","108","491196","0.0-9.0-2.0-0.18","5178","2","12","Female","approach_avoid_spark_v1","""event"",""trial"",""time""
""fullscreenenter"",""1"",""2591""
","
","
","""event"",""trial"",""time""
""fullscreenenter"",""1"",""2591""
","
","","","","","","null","<div style=""font-size:60px;"">+</div>","null","","fixation","","","","","","","","","","",""
"aa-learning-trial","109","494197","0.0-9.0-2.0-1.18","5178","2","12","Female","approach_avoid_spark_v1","""event"",""trial"",""time""
""fullscreenenter"",""1"",""2591""
","
","
","""event"",""trial"",""time""
""fullscreenenter"",""1"",""2591""
","
","","","","","","1740","images/truck1.png","","","learning","5","5","1","1","truck","vehicles","2","0","","neutral","0"
"html-keyboard-response","110","494699","0.0-9.0-2.0-0.19","5178","2","12","Female","approach_avoid_spark_v1","""event"",""trial"",""time""
""fullscreenenter"",""1"",""2591""
","
","
","""event"",""trial"",""time""
""fullscreenenter"",""1"",""2591""
","
","","","","","","null","<div style=""font-size:60px;"">+</div>","null","","fixation","","","","","","","","","","",""
"aa-learning-trial","111","497701","0.0-9.0-2.0-1.19","5178","2","12","Female","approach_avoid_spark_v1","""event"",""trial"",""time""
""fullscreenenter"",""1"",""2591""
","
","
","""event"",""trial"",""time""
""fullscreenenter"",""1"",""2591""
","
","","","","","","1133.9999999999418","images/truck4.png","","","learning","7","0","0","0","truck","vehicles","2","0","","neutral","0"
"html-keyboard-response","112","498202","0.0-9.0-2.0-0.20","5178","2","12","Female","approach_avoid_spark_v1","""event"",""trial"",""time""
""fullscreenenter"",""1"",""2591""
","
","
","""event"",""trial"",""time""
""fullscreenenter"",""1"",""2591""
","
","","","","","","null","<div style=""font-size:60px;"">+</div>","null","","fixation","","","","","","","","","","",""
"aa-learning-trial","113","501204","0.0-9.0-2.0-1.20","5178","2","12","Female","approach_avoid_spark_v1","""event"",""trial"",""time""
""fullscreenenter"",""1"",""2591""
","
","
","""event"",""trial"",""time""
""fullscreenenter"",""1"",""2591""
","
","","","","","","1013","images/truck2.png","","","learning","-5","-5","1","1","truck","vehicles","2","0","","neutral","0"
"html-keyboard-response","114","501705","0.0-9.0-2.0-0.21","5178","2","12","Female","approach_avoid_spark_v1","""event"",""trial"",""time""
""fullscreenenter"",""1"",""2591""
","
","
","""event"",""trial"",""time""
""fullscreenenter"",""1"",""2591""
","
","","","","","","null","<div style=""font-size:60px;"">+</div>","null","","fixation","","","","","","","","","","",""
"aa-learning-trial","115","504707","0.0-9.0-2.0-1.21","5178","2","12","Female","approach_avoid_spark_v1","""event"",""trial"",""time""
""fullscreenenter"",""1"",""2591""
","
","
","""event"",""trial"",""time""
""fullscreenenter"",""1"",""2591""
","
","","","","","","1536.9999999999418","images/train4.png","","","learning","1","1","1","1","train","vehicles","2","0","","good","[5]"
"html-keyboard-response","116","505208","0.0-9.0-2.0-0.22","5178","2","12","Female","approach_avoid_spark_v1","""event"",""trial"",""time""
""fullscreenenter"",""1"",""2591""
","
","
","""event"",""trial"",""time""
""fullscreenenter"",""1"",""2591""
","
","","","","","","null","<div style=""font-size:60px;"">+</div>","null","","fixation","","","","","","","","","","",""
"aa-learning-trial","117","508209","0.0-9.0-2.0-1.22","5178","2","12","Female","approach_avoid_spark_v1","""event"",""trial"",""time""
""fullscreenenter"",""1"",""2591""
","
","
","""event"",""trial"",""time""
""fullscreenenter"",""1"",""2591""
","
","","","","","","1713","images/truck1.png","","","learning","5","0","0","0","truck","vehicles","2","0","","neutral","0"
"html-keyboard-response","118","508710","0.0-9.0-2.0-0.23","5178","2","12","Female","approach_avoid_spark_v1","""event"",""trial"",""time""
""fullscreenenter"",""1"",""2591""
","
","
","""event"",""trial"",""time""
""fullscreenenter"",""1"",""2591""
","
","","","","","","null","<div style=""font-size:60px;"">+</div>","null","","fixation","","","","","","","","","","",""
"aa-learning-trial","119","511711","0.0-9.0-2.0-1.23","5178","2","12","Female","approach_avoid_spark_v1","""event"",""trial"",""time""
""fullscreenenter"",""1"",""2591""
","
","
","""event"",""trial"",""time""
""fullscreenenter"",""1"",""2591""
","
","","","","","","1543","images/train4.png","","","learning","1","1","1","1","train","vehicles","2","0","","good","[5]"
"html-keyboard-response","120","512212","0.0-9.0-2.0-0.24","5178","2","12","Female","approach_avoid_spark_v1","""event"",""trial"",""time""
""fullscreenenter"",""1"",""2591""
","
","
","""event"",""trial"",""time""
""fullscreenenter"",""1"",""2591""
","
","","","","","","null","<div style=""font-size:60px;"">+</div>","null","","fixation","","","","","","","","","","",""
"aa-learning-trial","121","515214","0.0-9.0-2.0-1.24","5178","2","12","Female","approach_avoid_spark_v1","""event"",""trial"",""time""
""fullscreenenter"",""1"",""2591""
","
","
","""event"",""trial"",""time""
""fullscreenenter"",""1"",""2591""
","
","","","","","","1279","images/train3.png","","","learning","3","3","1","1","train","vehicles","2","0","","good","[5]"
"html-keyboard-response","122","515715","0.0-9.0-2.0-0.25","5178","2","12","Female","approach_avoid_spark_v1","""event"",""trial"",""time""
""fullscreenenter"",""1"",""2591""
","
","
","""event"",""trial"",""time""
""fullscreenenter"",""1"",""2591""
","
","","","","","","null","<div style=""font-size:60px;"">+</div>","null","","fixation","","","","","","","","","","",""
"aa-learning-trial","123","518717","0.0-9.0-2.0-1.25","5178","2","12","Female","approach_avoid_spark_v1","""event"",""trial"",""time""
""fullscreenenter"",""1"",""2591""
","
","
","""event"",""trial"",""time""
""fullscreenenter"",""1"",""2591""
","
","","","","","","1009.0000000000582","images/truck4.png","","","learning","7","0","0","0","truck","vehicles","2","0","","neutral","0"
"html-keyboard-response","124","519218","0.0-9.0-2.0-0.26","5178","2","12","Female","approach_avoid_spark_v1","""event"",""trial"",""time""
""fullscreenenter"",""1"",""2591""
","
","
","""event"",""trial"",""time""
""fullscreenenter"",""1"",""2591""
","
","","","","","","null","<div style=""font-size:60px;"">+</div>","null","","fixation","","","","","","","","","","",""
"aa-learning-trial","125","522220","0.0-9.0-2.0-1.26","5178","2","12","Female","approach_avoid_spark_v1","""event"",""trial"",""time""
""fullscreenenter"",""1"",""2591""
","
","
","""event"",""trial"",""time""
""fullscreenenter"",""1"",""2591""
","
","","","","","","1496.0000000001164","images/boat1.png","","","learning","4","0","0","0","boat","vehicles","2","0","","bad","[-3]"
"html-keyboard-response","126","522720","0.0-9.0-2.0-0.27","5178","2","12","Female","approach_avoid_spark_v1","""event"",""trial"",""time""
""fullscreenenter"",""1"",""2591""
","
","
","""event"",""trial"",""time""
""fullscreenenter"",""1"",""2591""
","
","","","","","","null","<div style=""font-size:60px;"">+</div>","null","","fixation","","","","","","","","","","",""
"aa-learning-trial","127","525722","0.0-9.0-2.0-1.27","5178","2","12","Female","approach_avoid_spark_v1","""event"",""trial"",""time""
""fullscreenenter"",""1"",""2591""
","
","
","""event"",""trial"",""time""
""fullscreenenter"",""1"",""2591""
","
","","","","","","2448.999999999942","images/boat2.png","","","learning","-7","-7","1","1","boat","vehicles","2","0","","bad","[-3]"
"html-keyboard-response","128","526224","0.0-9.0-2.0-0.28","5178","2","12","Female","approach_avoid_spark_v1","""event"",""trial"",""time""
""fullscreenenter"",""1"",""2591""
","
","
","""event"",""trial"",""time""
""fullscreenenter"",""1"",""2591""
","
","","","","","","null","<div style=""font-size:60px;"">+</div>","null","","fixation","","","","","","","","","","",""
"aa-learning-trial","129","529225","0.0-9.0-2.0-1.28","5178","2","12","Female","approach_avoid_spark_v1","""event"",""trial"",""time""
""fullscreenenter"",""1"",""2591""
","
","
","""event"",""trial"",""time""
""fullscreenenter"",""1"",""2591""
","
","","","","","","2130.9999999998836","images/truck2.png","","","learning","-5","0","0","0","truck","vehicles","2","0","","neutral","0"
"html-keyboard-response","130","529726","0.0-9.0-2.0-0.29","5178","2","12","Female","approach_avoid_spark_v1","""event"",""trial"",""time""
""fullscreenenter"",""1"",""2591""
","
","
","""event"",""trial"",""time""
""fullscreenenter"",""1"",""2591""
","
","","","","","","null","<div style=""font-size:60px;"">+</div>","null","","fixation","","","","","","","","","","",""
"aa-learning-trial","131","532726","0.0-9.0-2.0-1.29","5178","2","12","Female","approach_avoid_spark_v1","""event"",""trial"",""time""
""fullscreenenter"",""1"",""2591""
","
","
","""event"",""trial"",""time""
""fullscreenenter"",""1"",""2591""
","
","","","","","","1090","images/truck1.png","","","learning","5","0","0","0","truck","vehicles","2","0","","neutral","0"
"html-keyboard-response","132","533227","0.0-9.0-2.0-0.30","5178","2","12","Female","approach_avoid_spark_v1","""event"",""trial"",""time""
""fullscreenenter"",""1"",""2591""
","
","
","""event"",""trial"",""time""
""fullscreenenter"",""1"",""2591""
","
","","","","","","null","<div style=""font-size:60px;"">+</div>","null","","fixation","","","","","","","","","","",""
"aa-learning-trial","133","536228","0.0-9.0-2.0-1.30","5178","2","12","Female","approach_avoid_spark_v1","""event"",""trial"",""time""
""fullscreenenter"",""1"",""2591""
","
","
","""event"",""trial"",""time""
""fullscreenenter"",""1"",""2591""
","
","","","","","","772","images/train3.png","","","learning","3","3","1","1","train","vehicles","2","0","","good","[5]"
"html-keyboard-response","134","536728","0.0-9.0-2.0-0.31","5178","2","12","Female","approach_avoid_spark_v1","""event"",""trial"",""time""
""fullscreenenter"",""1"",""2591""
","
","
","""event"",""trial"",""time""
""fullscreenenter"",""1"",""2591""
","
","","","","","","null","<div style=""font-size:60px;"">+</div>","null","","fixation","","","","","","","","","","",""
"aa-learning-trial","135","539730","0.0-9.0-2.0-1.31","5178","2","12","Female","approach_avoid_spark_v1","""event"",""trial"",""time""
""fullscreenenter"",""1"",""2591""
","
","
","""event"",""trial"",""time""
""fullscreenenter"",""1"",""2591""
","
","","","","","","1082","images/train4.png","","","learning","1","1","1","1","train","vehicles","2","0","","good","[5]"
"html-keyboard-response","136","540231","0.0-9.0-2.0-0.32","5178","2","12","Female","approach_avoid_spark_v1","""event"",""trial"",""time""
""fullscreenenter"",""1"",""2591""
","
","
","""event"",""trial"",""time""
""fullscreenenter"",""1"",""2591""
","
","","","","","","null","<div style=""font-size:60px;"">+</div>","null","","fixation","","","","","","","","","","",""
"aa-learning-trial","137","543232","0.0-9.0-2.0-1.32","5178","2","12","Female","approach_avoid_spark_v1","""event"",""trial"",""time""
""fullscreenenter"",""1"",""2591""
","
","
","""event"",""trial"",""time""
""fullscreenenter"",""1"",""2591""
","
","","","","","","1995","images/truck3.png","","","learning","-2","0","0","0","truck","vehicles","2","0","","neutral","0"
"html-keyboard-response","138","543734","0.0-9.0-2.0-0.33","5178","2","12","Female","approach_avoid_spark_v1","""event"",""trial"",""time""
""fullscreenenter"",""1"",""2591""
","
","
","""event"",""trial"",""time""
""fullscreenenter"",""1"",""2591""
","
","","","","","","null","<div style=""font-size:60px;"">+</div>","null","","fixation","","","","","","","","","","",""
"aa-learning-trial","139","546735","0.0-9.0-2.0-1.33","5178","2","12","Female","approach_avoid_spark_v1","""event"",""trial"",""time""
""fullscreenenter"",""1"",""2591""
","
","
","""event"",""trial"",""time""
""fullscreenenter"",""1"",""2591""
","
","","","","","","1665","images/boat8.png","","","learning","2","2","1","1","boat","vehicles","2","0","","bad","[-3]"
"html-keyboard-response","140","547235","0.0-9.0-2.0-0.34","5178","2","12","Female","approach_avoid_spark_v1","""event"",""trial"",""time""
""fullscreenenter"",""1"",""2591""
","
","
","""event"",""trial"",""time""
""fullscreenenter"",""1"",""2591""
","
","","","","","","null","<div style=""font-size:60px;"">+</div>","null","","fixation","","","","","","","","","","",""
"aa-learning-trial","141","550237","0.0-9.0-2.0-1.34","5178","2","12","Female","approach_avoid_spark_v1","""event"",""trial"",""time""
""fullscreenenter"",""1"",""2591""
","
","
","""event"",""trial"",""time""
""fullscreenenter"",""1"",""2591""
","
","","","","","","675","images/truck4.png","","","learning","7","7","1","1","truck","vehicles","2","0","","neutral","0"
"html-keyboard-response","142","550738","0.0-9.0-2.0-0.35","5178","2","12","Female","approach_avoid_spark_v1","""event"",""trial"",""time""
""fullscreenenter"",""1"",""2591""
","
","
","""event"",""trial"",""time""
""fullscreenenter"",""1"",""2591""
","
","","","","","","null","<div style=""font-size:60px;"">+</div>","null","","fixation","","","","","","","","","","",""
"aa-learning-trial","143","553739","0.0-9.0-2.0-1.35","5178","2","12","Female","approach_avoid_spark_v1","""event"",""trial"",""time""
""fullscreenenter"",""1"",""2591""
","
","
","""event"",""trial"",""time""
""fullscreenenter"",""1"",""2591""
","
","","","","","","856","images/truck1.png","","","learning","5","0","0","0","truck","vehicles","2","0","","neutral","0"
"html-keyboard-response","144","554240","0.0-9.0-2.0-0.36","5178","2","12","Female","approach_avoid_spark_v1","""event"",""trial"",""time""
""fullscreenenter"",""1"",""2591""
","
","
","""event"",""trial"",""time""
""fullscreenenter"",""1"",""2591""
","
","","","","","","null","<div style=""font-size:60px;"">+</div>","null","","fixation","","","","","","","","","","",""
"aa-learning-trial","145","557242","0.0-9.0-2.0-1.36","5178","2","12","Female","approach_avoid_spark_v1","""event"",""trial"",""time""
""fullscreenenter"",""1"",""2591""
","
","
","""event"",""trial"",""time""
""fullscreenenter"",""1"",""2591""
","
","","","","","","1773","images/truck7.png","","","learning","-8","-8","1","1","truck","vehicles","2","0","","neutral","0"
"html-keyboard-response","146","557744","0.0-9.0-2.0-0.37","5178","2","12","Female","approach_avoid_spark_v1","""event"",""trial"",""time""
""fullscreenenter"",""1"",""2591""
","
","
","""event"",""trial"",""time""
""fullscreenenter"",""1"",""2591""
","
","","","","","","null","<div style=""font-size:60px;"">+</div>","null","","fixation","","","","","","","","","","",""
"aa-learning-trial","147","560745","0.0-9.0-2.0-1.37","5178","2","12","Female","approach_avoid_spark_v1","""event"",""trial"",""time""
""fullscreenenter"",""1"",""2591""
","
","
","""event"",""trial"",""time""
""fullscreenenter"",""1"",""2591""
","
","","","","","","1239","images/train1.png","","","learning","6","0","0","0","train","vehicles","2","0","","good","[5]"
"html-keyboard-response","148","561246","0.0-9.0-2.0-0.38","5178","2","12","Female","approach_avoid_spark_v1","""event"",""trial"",""time""
""fullscreenenter"",""1"",""2591""
","
","
","""event"",""trial"",""time""
""fullscreenenter"",""1"",""2591""
","
","","","","","","null","<div style=""font-size:60px;"">+</div>","null","","fixation","","","","","","","","","","",""
"aa-learning-trial","149","564247","0.0-9.0-2.0-1.38","5178","2","12","Female","approach_avoid_spark_v1","""event"",""trial"",""time""
""fullscreenenter"",""1"",""2591""
","
","
","""event"",""trial"",""time""
""fullscreenenter"",""1"",""2591""
","
","","","","","","1009","images/boat2.png","","","learning","-7","-7","1","1","boat","vehicles","2","0","","bad","[-3]"
"html-keyboard-response","150","564749","0.0-9.0-2.0-0.39","5178","2","12","Female","approach_avoid_spark_v1","""event"",""trial"",""time""
""fullscreenenter"",""1"",""2591""
","
","
","""event"",""trial"",""time""
""fullscreenenter"",""1"",""2591""
","
","","","","","","null","<div style=""font-size:60px;"">+</div>","null","","fixation","","","","","","","","","","",""
"aa-learning-trial","151","567750","0.0-9.0-2.0-1.39","5178","2","12","Female","approach_avoid_spark_v1","""event"",""trial"",""time""
""fullscreenenter"",""1"",""2591""
","
","
","""event"",""trial"",""time""
""fullscreenenter"",""1"",""2591""
","
","","","","","","1610","images/train6.png","","","learning","-6","0","0","0","train","vehicles","2","0","","good","[5]"
"html-keyboard-response","152","568251","0.0-9.0-2.0-0.40","5178","2","12","Female","approach_avoid_spark_v1","""event"",""trial"",""time""
""fullscreenenter"",""1"",""2591""
","
","
","""event"",""trial"",""time""
""fullscreenenter"",""1"",""2591""
","
","","","","","","null","<div style=""font-size:60px;"">+</div>","null","","fixation","","","","","","","","","","",""
"aa-learning-trial","153","571253","0.0-9.0-2.0-1.40","5178","2","12","Female","approach_avoid_spark_v1","""event"",""trial"",""time""
""fullscreenenter"",""1"",""2591""
","
","
","""event"",""trial"",""time""
""fullscreenenter"",""1"",""2591""
","
","","","","","","1207","images/boat8.png","","","learning","2","2","1","1","boat","vehicles","2","0","","bad","[-3]"
"html-keyboard-response","154","571755","0.0-9.0-2.0-0.41","5178","2","12","Female","approach_avoid_spark_v1","""event"",""trial"",""time""
""fullscreenenter"",""1"",""2591""
","
","
","""event"",""trial"",""time""
""fullscreenenter"",""1"",""2591""
","
","","","","","","null","<div style=""font-size:60px;"">+</div>","null","","fixation","","","","","","","","","","",""
"aa-learning-trial","155","574756","0.0-9.0-2.0-1.41","5178","2","12","Female","approach_avoid_spark_v1","""event"",""trial"",""time""
""fullscreenenter"",""1"",""2591""
","
","
","""event"",""trial"",""time""
""fullscreenenter"",""1"",""2591""
","
","","","","","","982","images/train3.png","","","learning","3","3","1","1","train","vehicles","2","0","","good","[5]"
"html-keyboard-response","156","575258","0.0-9.0-2.0-0.42","5178","2","12","Female","approach_avoid_spark_v1","""event"",""trial"",""time""
""fullscreenenter"",""1"",""2591""
","
","
","""event"",""trial"",""time""
""fullscreenenter"",""1"",""2591""
","
","","","","","","null","<div style=""font-size:60px;"">+</div>","null","","fixation","","","","","","","","","","",""
"aa-learning-trial","157","578260","0.0-9.0-2.0-1.42","5178","2","12","Female","approach_avoid_spark_v1","""event"",""trial"",""time""
""fullscreenenter"",""1"",""2591""
","
","
","""event"",""trial"",""time""
""fullscreenenter"",""1"",""2591""
","
","","","","","","1650","images/train8.png","","","learning","-3","0","0","0","train","vehicles","2","0","","good","[5]"
"html-keyboard-response","158","578762","0.0-9.0-2.0-0.43","5178","2","12","Female","approach_avoid_spark_v1","""event"",""trial"",""time""
""fullscreenenter"",""1"",""2591""
","
","
","""event"",""trial"",""time""
""fullscreenenter"",""1"",""2591""
","
","","","","","","null","<div style=""font-size:60px;"">+</div>","null","","fixation","","","","","","","","","","",""
"aa-learning-trial","159","581763","0.0-9.0-2.0-1.43","5178","2","12","Female","approach_avoid_spark_v1","""event"",""trial"",""time""
""fullscreenenter"",""1"",""2591""
","
","
","""event"",""trial"",""time""
""fullscreenenter"",""1"",""2591""
","
","","","","","","1463","images/boat7.png","","","learning","-4","-4","1","1","boat","vehicles","2","0","","bad","[-3]"
"html-keyboard-response","160","582264","0.0-9.0-2.0-0.44","5178","2","12","Female","approach_avoid_spark_v1","""event"",""trial"",""time""
""fullscreenenter"",""1"",""2591""
","
","
","""event"",""trial"",""time""
""fullscreenenter"",""1"",""2591""
","
","","","","","","null","<div style=""font-size:60px;"">+</div>","null","","fixation","","","","","","","","","","",""
"aa-learning-trial","161","585266","0.0-9.0-2.0-1.44","5178","2","12","Female","approach_avoid_spark_v1","""event"",""trial"",""time""
""fullscreenenter"",""1"",""2591""
","
","
","""event"",""trial"",""time""
""fullscreenenter"",""1"",""2591""
","
","","","","","","1576","images/train3.png","","","learning","3","3","1","1","train","vehicles","2","0","","good","[5]"
"html-keyboard-response","162","585767","0.0-9.0-2.0-0.45","5178","2","12","Female","approach_avoid_spark_v1","""event"",""trial"",""time""
""fullscreenenter"",""1"",""2591""
","
","
","""event"",""trial"",""time""
""fullscreenenter"",""1"",""2591""
","
","","","","","","null","<div style=""font-size:60px;"">+</div>","null","","fixation","","","","","","","","","","",""
"aa-learning-trial","163","588769","0.0-9.0-2.0-1.45","5178","2","12","Female","approach_avoid_spark_v1","""event"",""trial"",""time""
""fullscreenenter"",""1"",""2591""
","
","
","""event"",""trial"",""time""
""fullscreenenter"",""1"",""2591""
","
","","","","","","1350","images/boat7.png","","","learning","-4","0","0","0","boat","vehicles","2","0","","bad","[-3]"
"html-keyboard-response","164","589270","0.0-9.0-2.0-0.46","5178","2","12","Female","approach_avoid_spark_v1","""event"",""trial"",""time""
""fullscreenenter"",""1"",""2591""
","
","
","""event"",""trial"",""time""
""fullscreenenter"",""1"",""2591""
","
","","","","","","null","<div style=""font-size:60px;"">+</div>","null","","fixation","","","","","","","","","","",""
"aa-learning-trial","165","592273","0.0-9.0-2.0-1.46","5178","2","12","Female","approach_avoid_spark_v1","""event"",""trial"",""time""
""fullscreenenter"",""1"",""2591""
","
","
","""event"",""trial"",""time""
""fullscreenenter"",""1"",""2591""
","
","","","","","","1854","images/boat8.png","","","learning","2","2","1","1","boat","vehicles","2","0","","bad","[-3]"
"html-keyboard-response","166","592774","0.0-9.0-2.0-0.47","5178","2","12","Female","approach_avoid_spark_v1","""event"",""trial"",""time""
""fullscreenenter"",""1"",""2591""
","
","
","""event"",""trial"",""time""
""fullscreenenter"",""1"",""2591""
","
","","","","","","null","<div style=""font-size:60px;"">+</div>","null","","fixation","","","","","","","","","","",""
"aa-learning-trial","167","595776","0.0-9.0-2.0-1.47","5178","2","12","Female","approach_avoid_spark_v1","""event"",""trial"",""time""
""fullscreenenter"",""1"",""2591""
","
","
","""event"",""trial"",""time""
""fullscreenenter"",""1"",""2591""
","
","","","","","","1582","images/boat6.png","","","learning","8","0","0","0","boat","vehicles","2","0","","bad","[-3]"
"html-keyboard-response","168","596278","0.0-9.0-2.0-0.48","5178","2","12","Female","approach_avoid_spark_v1","""event"",""trial"",""time""
""fullscreenenter"",""1"",""2591""
","
","
","""event"",""trial"",""time""
""fullscreenenter"",""1"",""2591""
","
","","","","","","null","<div style=""font-size:60px;"">+</div>","null","","fixation","","","","","","","","","","",""
"aa-learning-trial","169","599280","0.0-9.0-2.0-1.48","5178","2","12","Female","approach_avoid_spark_v1","""event"",""trial"",""time""
""fullscreenenter"",""1"",""2591""
","
","
","""event"",""trial"",""time""
""fullscreenenter"",""1"",""2591""
","
","","","","","","1687","images/train4.png","","","learning","1","1","1","1","train","vehicles","2","0","","good","[5]"
"html-keyboard-response","170","599781","0.0-9.0-2.0-0.49","5178","2","12","Female","approach_avoid_spark_v1","""event"",""trial"",""time""
""fullscreenenter"",""1"",""2591""
","
","
","""event"",""trial"",""time""
""fullscreenenter"",""1"",""2591""
","
","","","","","","null","<div style=""font-size:60px;"">+</div>","null","","fixation","","","","","","","","","","",""
"aa-learning-trial","171","602783","0.0-9.0-2.0-1.49","5178","2","12","Female","approach_avoid_spark_v1","""event"",""trial"",""time""
""fullscreenenter"",""1"",""2591""
","
","
","""event"",""trial"",""time""
""fullscreenenter"",""1"",""2591""
","
","","","","","","1150","images/boat8.png","","","learning","2","0","0","0","boat","vehicles","2","0","","bad","[-3]"
"html-keyboard-response","172","603284","0.0-9.0-2.0-0.50","5178","2","12","Female","approach_avoid_spark_v1","""event"",""trial"",""time""
""fullscreenenter"",""1"",""2591""
","
","
","""event"",""trial"",""time""
""fullscreenenter"",""1"",""2591""
","
","","","","","","null","<div style=""font-size:60px;"">+</div>","null","","fixation","","","","","","","","","","",""
"aa-learning-trial","173","606287","0.0-9.0-2.0-1.50","5178","2","12","Female","approach_avoid_spark_v1","""event"",""trial"",""time""
""fullscreenenter"",""1"",""2591""
","
","
","""event"",""trial"",""time""
""fullscreenenter"",""1"",""2591""
","
","","","","","","783","images/truck4.png","","","learning","7","7","1","1","truck","vehicles","2","0","","neutral","0"
"html-button-response","174","609267","0.0-9.0-3.0","5178","2","12","Female","approach_avoid_spark_v1","""event"",""trial"",""time""
""fullscreenenter"",""1"",""2591""
","
","
","""event"",""trial"",""time""
""fullscreenenter"",""1"",""2591""
","
","","","","","","2979","<p> You have completed the round! <p> In this round, you earned 13 points! </p>","0","","break","","","","","","","","","","",""
"html-button-response","175","611009","0.0-10.0","5178","2","12","Female","approach_avoid_spark_v1","""event"",""trial"",""time""
""fullscreenenter"",""1"",""2591""
","
","
","""event"",""trial"",""time""
""fullscreenenter"",""1"",""2591""
","
","","","","","","1741","<p> Now it's time to play another round. </p>","0","","transition_screen","","","","","","","","","","",""
"preload","176","611115","0.0-11.0-0.0","5178","2","12","Female","approach_avoid_spark_v1","""event"",""trial"",""time""
""fullscreenenter"",""1"",""2591""
","
","
","""event"",""trial"",""time""
""fullscreenenter"",""1"",""2591""
","
","true","false","[]","[]","[]","","","","","","","","","","","","","","","",""
"learning-instructions","177","816183","0.0-11.0-1.0-0.0","5178","2","12","Female","approach_avoid_spark_v1","""event"",""trial"",""time""
""fullscreenenter"",""1"",""2591""
","
","
","""event"",""trial"",""time""
""fullscreenenter"",""1"",""2591""
","
","","","","","","199875","<p> Your goal in this round is to sell different plants to a picky customer. </p></div>","","0","instructions","","","","","","","","","","",""
"learning-instructions","178","960961","0.0-11.0-1.0-0.1","5178","2","12","Female","approach_avoid_spark_v1","""event"",""trial"",""time""
""fullscreenenter"",""1"",""2591""
","
","
","""event"",""trial"",""time""
""fullscreenenter"",""1"",""2591""
","
","","","","","","135437","<p> The customer likes some plants and dislikes others.  </p><p> On each turn, you will see a plant.   </p><p> You need to decide whether to offer it to the customer or not.  </p>","","0","instructions","","","","","","","","","","",""
"learning-instructions","179","998878","0.0-11.0-1.0-0.2","5178","2","12","Female","approach_avoid_spark_v1","""event"",""trial"",""time""
""fullscreenenter"",""1"",""2591""
","
","
","""event"",""trial"",""time""
""fullscreenenter"",""1"",""2591""
","
","","","","","","32205","<p> You can offer the plant by pressing 1 and decide to not offer it by pressing 0. </p><br><div class=""choice-instructions-grid""> <div class=""choice-option""><img src=""images/approach.png"" class=""choice-option-img"" stage=""instructions"" position=""0"" ><div class=""choice-option-text""> Press ""1."" </div></div><div class=""choice-option""><img src=""images/avoid.png"" class=""choice-option-img"" stage=""instructions"" position=""1"" ><div class=""choice-option-text""> Press ""0."" </div></div>","","0","instructions","","","","","","","","","","",""
"learning-instructions","180","1018903","0.0-11.0-1.0-0.3","5178","2","12","Female","approach_avoid_spark_v1","""event"",""trial"",""time""
""fullscreenenter"",""1"",""2591""
","
","
","""event"",""trial"",""time""
""fullscreenenter"",""1"",""2591""
","
","","","","","","11359","<p> If you offer a plant to the customer that she likes, she will be very pleased! </p><p> But if you offer a plant that she does NOT like, she will be annoyed. </p>","","0","instructions","","","","","","","","","","",""
"learning-instructions","181","1050082","0.0-11.0-1.0-0.4","5178","2","12","Female","approach_avoid_spark_v1","""event"",""trial"",""time""
""fullscreenenter"",""1"",""2591""
","
","
","""event"",""trial"",""time""
""fullscreenenter"",""1"",""2591""
","
","","","","","","19034","<p> You will earn points based on how you made the customer feel. </p><p> If you made her pleased, you will WIN anywhere from 1 - 9 points, </p><p> but if you made her annoyed, you will LOSE anywhere from 1 - 9 points. </p>","","0","instructions","","","","","","","","","","",""
"learning-instructions","182","1068016","0.0-11.0-1.0-0.5","5178","2","12","Female","approach_avoid_spark_v1","""event"",""trial"",""time""
""fullscreenenter"",""1"",""2591""
","
","
","""event"",""trial"",""time""
""fullscreenenter"",""1"",""2591""
","
","","","","","","11285","<p> You will see how many points you won or lost in the center of the screen. </p><p> Here is what you would see if you won 5 points: </p><p style=""color:green;font-size:50px;font-weight:bolder"">5</p>","","0","instructions","","","","","","","","","","",""
"learning-instructions","183","1071371","0.0-11.0-1.0-0.6","5178","2","12","Female","approach_avoid_spark_v1","""event"",""trial"",""time""
""fullscreenenter"",""1"",""2591""
","
","
","""event"",""trial"",""time""
""fullscreenenter"",""1"",""2591""
","
","","","","","","524","<p> And here is what you would see if you lost 3 points: </p><p style=""color:red;font-size:50px;font-weight:bolder"">-3</p>","","0","instructions","","","","","","","","","","",""
"learning-instructions","184","1110591","0.0-11.0-1.0-0.7","5178","2","12","Female","approach_avoid_spark_v1","""event"",""trial"",""time""
""fullscreenenter"",""1"",""2591""
","
","
","""event"",""trial"",""time""
""fullscreenenter"",""1"",""2591""
","
","","","","","","24874","<p> Some plants will make the customer VERY pleased or annoyed. </p><p> These plants will make you win or lose LOTS of points. </p><p> The customer will have less strong feelings about other plants. </p><p> These plants will make you win or lose small amounts of points. </p>","","0","instructions","","","","","","","","","","",""
"learning-instructions","185","1127787","0.0-11.0-1.0-0.8","5178","2","12","Female","approach_avoid_spark_v1","""event"",""trial"",""time""
""fullscreenenter"",""1"",""2591""
","
","
","""event"",""trial"",""time""
""fullscreenenter"",""1"",""2591""
","
","","","","","","4959","<p> If you choose to not offer the plant to the customer, you will not win or lose any points. </p><p>  However, in the center of the screen, you will see the number of points you WOULD HAVE won or lost if you had offered the plant. </p>","","0","instructions","","","","","","","","","","",""
"learning-instructions","186","1141678","0.0-11.0-1.0-0.9","5178","2","12","Female","approach_avoid_spark_v1","""event"",""trial"",""time""
""fullscreenenter"",""1"",""2591""
","
","
","""event"",""trial"",""time""
""fullscreenenter"",""1"",""2591""
","
","","","","","","2760","<p> Here is what you might see if you did not offer the plant but the customer would have liked it: </p><p style=""color:grey; font-size:50px; display: inline-block; border-spacing: 15px; border-width:3px; border-style:solid; border-color:red"">  &nbsp; 6 &nbsp; </p><p> Remember, in this case, you would not win or lose ANY points because you did not offer the plant.  </p>","","0","instructions","","","","","","","","","","",""
"learning-instructions","187","1151753","0.0-11.0-1.0-0.10","5178","2","12","Female","approach_avoid_spark_v1","""event"",""trial"",""time""
""fullscreenenter"",""1"",""2591""
","
","
","""event"",""trial"",""time""
""fullscreenenter"",""1"",""2591""
","
","","","","","","2724.000000000233","<p> Try to make the best choice for each plant because </p><p> at the end of the game, you will earn bonus money based on how many points you earned. </p>","","0","instructions","","","","","","","","","","",""
"learning-instructions","188","1161099","0.0-11.0-1.0-0.11","5178","2","12","Female","approach_avoid_spark_v1","""event"",""trial"",""time""
""fullscreenenter"",""1"",""2591""
","
","
","""event"",""trial"",""time""
""fullscreenenter"",""1"",""2591""
","
","","","","","","1165","<p> You will have 3 seconds to make each choice. Try to respond before time runs out! </p><p> You will lose 5 points each time you do not make a response. </p>","","0","instructions","","","","","","","","","","",""
"html-keyboard-response","189","1161700","0.0-11.0-2.0-0.0","5178","2","12","Female","approach_avoid_spark_v1","""event"",""trial"",""time""
""fullscreenenter"",""1"",""2591""
","
","
","""event"",""trial"",""time""
""fullscreenenter"",""1"",""2591""
","
","","","","","","null","<div style=""font-size:60px;"">+</div>","null","","fixation","","","","","","","","","","",""
"aa-learning-trial","190","1164702","0.0-11.0-2.0-1.0","5178","2","12","Female","approach_avoid_spark_v1","""event"",""trial"",""time""
""fullscreenenter"",""1"",""2591""
","
","
","""event"",""trial"",""time""
""fullscreenenter"",""1"",""2591""
","
","","","","","","1655","images/flower8.png","","","learning","-3","0","0","0","flower","plants","1","1","","bad","[-6]"
"html-keyboard-response","191","1165203","0.0-11.0-2.0-0.1","5178","2","12","Female","approach_avoid_spark_v1","""event"",""trial"",""time""
""fullscreenenter"",""1"",""2591""
","
","
","""event"",""trial"",""time""
""fullscreenenter"",""1"",""2591""
","
","","","","","","null","<div style=""font-size:60px;"">+</div>","null","","fixation","","","","","","","","","","",""
"aa-learning-trial","192","1168205","0.0-11.0-2.0-1.1","5178","2","12","Female","approach_avoid_spark_v1","""event"",""trial"",""time""
""fullscreenenter"",""1"",""2591""
","
","
","""event"",""trial"",""time""
""fullscreenenter"",""1"",""2591""
","
","","","","","","730","images/flower3.png","","","learning","-8","-8","1","1","flower","plants","1","1","","bad","[-6]"
"html-keyboard-response","193","1168705","0.0-11.0-2.0-0.2","5178","2","12","Female","approach_avoid_spark_v1","""event"",""trial"",""time""
""fullscreenenter"",""1"",""2591""
","
","
","""event"",""trial"",""time""
""fullscreenenter"",""1"",""2591""
","
","","","","","","null","<div style=""font-size:60px;"">+</div>","null","","fixation","","","","","","","","","","",""
"aa-learning-trial","194","1171707","0.0-11.0-2.0-1.2","5178","2","12","Female","approach_avoid_spark_v1","""event"",""trial"",""time""
""fullscreenenter"",""1"",""2591""
","
","
","""event"",""trial"",""time""
""fullscreenenter"",""1"",""2591""
","
","","","","","","967","images/tree1.png","","","learning","[-1]","-1","1","1","tree","plants","1","1","","neutral","0"
"html-keyboard-response","195","1172207","0.0-11.0-2.0-0.3","5178","2","12","Female","approach_avoid_spark_v1","""event"",""trial"",""time""
""fullscreenenter"",""1"",""2591""
","
","
","""event"",""trial"",""time""
""fullscreenenter"",""1"",""2591""
","
","","","","","","null","<div style=""font-size:60px;"">+</div>","null","","fixation","","","","","","","","","","",""
"aa-learning-trial","196","1175209","0.0-11.0-2.0-1.3","5178","2","12","Female","approach_avoid_spark_v1","""event"",""trial"",""time""
""fullscreenenter"",""1"",""2591""
","
","
","""event"",""trial"",""time""
""fullscreenenter"",""1"",""2591""
","
","","","","","","697","images/tree7.png","","","learning","2","0","0","0","tree","plants","1","1","","neutral","0"
"html-keyboard-response","197","1175710","0.0-11.0-2.0-0.4","5178","2","12","Female","approach_avoid_spark_v1","""event"",""trial"",""time""
""fullscreenenter"",""1"",""2591""
","
","
","""event"",""trial"",""time""
""fullscreenenter"",""1"",""2591""
","
","","","","","","null","<div style=""font-size:60px;"">+</div>","null","","fixation","","","","","","","","","","",""
"aa-learning-trial","198","1178711","0.0-11.0-2.0-1.4","5178","2","12","Female","approach_avoid_spark_v1","""event"",""trial"",""time""
""fullscreenenter"",""1"",""2591""
","
","
","""event"",""trial"",""time""
""fullscreenenter"",""1"",""2591""
","
","","","","","","1164","images/flower7.png","","","learning","-8","-8","1","1","flower","plants","1","1","","bad","[-6]"
"html-keyboard-response","199","1179212","0.0-11.0-2.0-0.5","5178","2","12","Female","approach_avoid_spark_v1","""event"",""trial"",""time""
""fullscreenenter"",""1"",""2591""
","
","
","""event"",""trial"",""time""
""fullscreenenter"",""1"",""2591""
","
","","","","","","null","<div style=""font-size:60px;"">+</div>","null","","fixation","","","","","","","","","","",""
"aa-learning-trial","200","1182213","0.0-11.0-2.0-1.5","5178","2","12","Female","approach_avoid_spark_v1","""event"",""trial"",""time""
""fullscreenenter"",""1"",""2591""
","
","
","""event"",""trial"",""time""
""fullscreenenter"",""1"",""2591""
","
","","","","","","1652","images/tree2.png","","","learning","-2","-2","1","1","tree","plants","1","1","","neutral","0"
"html-keyboard-response","201","1182713","0.0-11.0-2.0-0.6","5178","2","12","Female","approach_avoid_spark_v1","""event"",""trial"",""time""
""fullscreenenter"",""1"",""2591""
","
","
","""event"",""trial"",""time""
""fullscreenenter"",""1"",""2591""
","
","","","","","","null","<div style=""font-size:60px;"">+</div>","null","","fixation","","","","","","","","","","",""
"aa-learning-trial","202","1185714","0.0-11.0-2.0-1.6","5178","2","12","Female","approach_avoid_spark_v1","""event"",""trial"",""time""
""fullscreenenter"",""1"",""2591""
","
","
","""event"",""trial"",""time""
""fullscreenenter"",""1"",""2591""
","
","","","","","","999","images/flower7.png","","","learning","-5","0","0","0","flower","plants","1","1","","bad","[-6]"
"html-keyboard-response","203","1186215","0.0-11.0-2.0-0.7","5178","2","12","Female","approach_avoid_spark_v1","""event"",""trial"",""time""
""fullscreenenter"",""1"",""2591""
","
","
","""event"",""trial"",""time""
""fullscreenenter"",""1"",""2591""
","
","","","","","","null","<div style=""font-size:60px;"">+</div>","null","","fixation","","","","","","","","","","",""
"aa-learning-trial","204","1189216","0.0-11.0-2.0-1.7","5178","2","12","Female","approach_avoid_spark_v1","""event"",""trial"",""time""
""fullscreenenter"",""1"",""2591""
","
","
","""event"",""trial"",""time""
""fullscreenenter"",""1"",""2591""
","
","","","","","","1633","images/tree1.png","","","learning","1","0","0","0","tree","plants","1","1","","neutral","0"
"html-keyboard-response","205","1189717","0.0-11.0-2.0-0.8","5178","2","12","Female","approach_avoid_spark_v1","""event"",""trial"",""time""
""fullscreenenter"",""1"",""2591""
","
","
","""event"",""trial"",""time""
""fullscreenenter"",""1"",""2591""
","
","","","","","","null","<div style=""font-size:60px;"">+</div>","null","","fixation","","","","","","","","","","",""
"aa-learning-trial","206","1192718","0.0-11.0-2.0-1.8","5178","2","12","Female","approach_avoid_spark_v1","""event"",""trial"",""time""
""fullscreenenter"",""1"",""2591""
","
","
","""event"",""trial"",""time""
""fullscreenenter"",""1"",""2591""
","
","","","","","","1324.0000000002328","images/bush4.png","","","learning","7","7","1","1","bush","plants","1","1","","good","[5]"
"html-keyboard-response","207","1193219","0.0-11.0-2.0-0.9","5178","2","12","Female","approach_avoid_spark_v1","""event"",""trial"",""time""
""fullscreenenter"",""1"",""2591""
","
","
","""event"",""trial"",""time""
""fullscreenenter"",""1"",""2591""
","
","","","","","","null","<div style=""font-size:60px;"">+</div>","null","","fixation","","","","","","","","","","",""
"aa-learning-trial","208","1196220","0.0-11.0-2.0-1.9","5178","2","12","Female","approach_avoid_spark_v1","""event"",""trial"",""time""
""fullscreenenter"",""1"",""2591""
","
","
","""event"",""trial"",""time""
""fullscreenenter"",""1"",""2591""
","
","","","","","","1288","images/bush3.png","","","learning","4","0","0","0","bush","plants","1","1","","good","[5]"
"html-keyboard-response","209","1196720","0.0-11.0-2.0-0.10","5178","2","12","Female","approach_avoid_spark_v1","""event"",""trial"",""time""
""fullscreenenter"",""1"",""2591""
","
","
","""event"",""trial"",""time""
""fullscreenenter"",""1"",""2591""
","
","","","","","","null","<div style=""font-size:60px;"">+</div>","null","","fixation","","","","","","","","","","",""
"aa-learning-trial","210","1199722","0.0-11.0-2.0-1.10","5178","2","12","Female","approach_avoid_spark_v1","""event"",""trial"",""time""
""fullscreenenter"",""1"",""2591""
","
","
","""event"",""trial"",""time""
""fullscreenenter"",""1"",""2591""
","
","","","","","","675","images/bush3.png","","","learning","7","7","1","1","bush","plants","1","1","","good","[5]"
"html-keyboard-response","211","1200222","0.0-11.0-2.0-0.11","5178","2","12","Female","approach_avoid_spark_v1","""event"",""trial"",""time""
""fullscreenenter"",""1"",""2591""
","
","
","""event"",""trial"",""time""
""fullscreenenter"",""1"",""2591""
","
","","","","","","null","<div style=""font-size:60px;"">+</div>","null","","fixation","","","","","","","","","","",""
"aa-learning-trial","212","1203223","0.0-11.0-2.0-1.11","5178","2","12","Female","approach_avoid_spark_v1","""event"",""trial"",""time""
""fullscreenenter"",""1"",""2591""
","
","
","""event"",""trial"",""time""
""fullscreenenter"",""1"",""2591""
","
","","","","","","1040.0000000002328","images/tree2.png","","","learning","-3","0","0","0","tree","plants","1","1","","neutral","0"
"html-keyboard-response","213","1203725","0.0-11.0-2.0-0.12","5178","2","12","Female","approach_avoid_spark_v1","""event"",""trial"",""time""
""fullscreenenter"",""1"",""2591""
","
","
","""event"",""trial"",""time""
""fullscreenenter"",""1"",""2591""
","
","","","","","","null","<div style=""font-size:60px;"">+</div>","null","","fixation","","","","","","","","","","",""
"aa-learning-trial","214","1206726","0.0-11.0-2.0-1.12","5178","2","12","Female","approach_avoid_spark_v1","""event"",""trial"",""time""
""fullscreenenter"",""1"",""2591""
","
","
","""event"",""trial"",""time""
""fullscreenenter"",""1"",""2591""
","
","","","","","","736","images/flower8.png","","","learning","-4","0","0","0","flower","plants","1","1","","bad","[-6]"
"html-keyboard-response","215","1207227","0.0-11.0-2.0-0.13","5178","2","12","Female","approach_avoid_spark_v1","""event"",""trial"",""time""
""fullscreenenter"",""1"",""2591""
","
","
","""event"",""trial"",""time""
""fullscreenenter"",""1"",""2591""
","
","","","","","","null","<div style=""font-size:60px;"">+</div>","null","","fixation","","","","","","","","","","",""
"aa-learning-trial","216","1210228","0.0-11.0-2.0-1.13","5178","2","12","Female","approach_avoid_spark_v1","""event"",""trial"",""time""
""fullscreenenter"",""1"",""2591""
","
","
","""event"",""trial"",""time""
""fullscreenenter"",""1"",""2591""
","
","","","","","","2062","images/bush1.png","","","learning","6","6","1","1","bush","plants","1","1","","good","[5]"
"html-keyboard-response","217","1210729","0.0-11.0-2.0-0.14","5178","2","12","Female","approach_avoid_spark_v1","""event"",""trial"",""time""
""fullscreenenter"",""1"",""2591""
","
","
","""event"",""trial"",""time""
""fullscreenenter"",""1"",""2591""
","
","","","","","","null","<div style=""font-size:60px;"">+</div>","null","","fixation","","","","","","","","","","",""
"aa-learning-trial","218","1213730","0.0-11.0-2.0-1.14","5178","2","12","Female","approach_avoid_spark_v1","""event"",""trial"",""time""
""fullscreenenter"",""1"",""2591""
","
","
","""event"",""trial"",""time""
""fullscreenenter"",""1"",""2591""
","
","","","","","","1229","images/bush4.png","","","learning","4","4","1","1","bush","plants","1","1","","good","[5]"
"html-keyboard-response","219","1214231","0.0-11.0-2.0-0.15","5178","2","12","Female","approach_avoid_spark_v1","""event"",""trial"",""time""
""fullscreenenter"",""1"",""2591""
","
","
","""event"",""trial"",""time""
""fullscreenenter"",""1"",""2591""
","
","","","","","","null","<div style=""font-size:60px;"">+</div>","null","","fixation","","","","","","","","","","",""
"aa-learning-trial","220","1217232","0.0-11.0-2.0-1.15","5178","2","12","Female","approach_avoid_spark_v1","""event"",""trial"",""time""
""fullscreenenter"",""1"",""2591""
","
","
","""event"",""trial"",""time""
""fullscreenenter"",""1"",""2591""
","
","","","","","","1163","images/bush7.png","","","learning","6","6","1","1","bush","plants","1","1","","good","[5]"
"html-keyboard-response","221","1217733","0.0-11.0-2.0-0.16","5178","2","12","Female","approach_avoid_spark_v1","""event"",""trial"",""time""
""fullscreenenter"",""1"",""2591""
","
","
","""event"",""trial"",""time""
""fullscreenenter"",""1"",""2591""
","
","","","","","","null","<div style=""font-size:60px;"">+</div>","null","","fixation","","","","","","","","","","",""
"aa-learning-trial","222","1220735","0.0-11.0-2.0-1.16","5178","2","12","Female","approach_avoid_spark_v1","""event"",""trial"",""time""
""fullscreenenter"",""1"",""2591""
","
","
","""event"",""trial"",""time""
""fullscreenenter"",""1"",""2591""
","
","","","","","","837.0000000002328","images/bush1.png","","","learning","4","0","0","0","bush","plants","1","1","","good","[5]"
"html-keyboard-response","223","1221236","0.0-11.0-2.0-0.17","5178","2","12","Female","approach_avoid_spark_v1","""event"",""trial"",""time""
""fullscreenenter"",""1"",""2591""
","
","
","""event"",""trial"",""time""
""fullscreenenter"",""1"",""2591""
","
","","","","","","null","<div style=""font-size:60px;"">+</div>","null","","fixation","","","","","","","","","","",""
"aa-learning-trial","224","1224237","0.0-11.0-2.0-1.17","5178","2","12","Female","approach_avoid_spark_v1","""event"",""trial"",""time""
""fullscreenenter"",""1"",""2591""
","
","
","""event"",""trial"",""time""
""fullscreenenter"",""1"",""2591""
","
","","","","","","2051","images/bush3.png","","","learning","5","0","0","0","bush","plants","1","1","","good","[5]"
"html-keyboard-response","225","1224738","0.0-11.0-2.0-0.18","5178","2","12","Female","approach_avoid_spark_v1","""event"",""trial"",""time""
""fullscreenenter"",""1"",""2591""
","
","
","""event"",""trial"",""time""
""fullscreenenter"",""1"",""2591""
","
","","","","","","null","<div style=""font-size:60px;"">+</div>","null","","fixation","","","","","","","","","","",""
"aa-learning-trial","226","1227740","0.0-11.0-2.0-1.18","5178","2","12","Female","approach_avoid_spark_v1","""event"",""trial"",""time""
""fullscreenenter"",""1"",""2591""
","
","
","""event"",""trial"",""time""
""fullscreenenter"",""1"",""2591""
","
","","","","","","948","images/flower7.png","","","learning","-8","0","0","0","flower","plants","1","1","","bad","[-6]"
"html-keyboard-response","227","1228241","0.0-11.0-2.0-0.19","5178","2","12","Female","approach_avoid_spark_v1","""event"",""trial"",""time""
""fullscreenenter"",""1"",""2591""
","
","
","""event"",""trial"",""time""
""fullscreenenter"",""1"",""2591""
","
","","","","","","null","<div style=""font-size:60px;"">+</div>","null","","fixation","","","","","","","","","","",""
"aa-learning-trial","228","1231242","0.0-11.0-2.0-1.19","5178","2","12","Female","approach_avoid_spark_v1","""event"",""trial"",""time""
""fullscreenenter"",""1"",""2591""
","
","
","""event"",""trial"",""time""
""fullscreenenter"",""1"",""2591""
","
","","","","","","1676","images/tree1.png","","","learning","[-1]","-1","1","1","tree","plants","1","1","","neutral","0"
"html-keyboard-response","229","1231743","0.0-11.0-2.0-0.20","5178","2","12","Female","approach_avoid_spark_v1","""event"",""trial"",""time""
""fullscreenenter"",""1"",""2591""
","
","
","""event"",""trial"",""time""
""fullscreenenter"",""1"",""2591""
","
","","","","","","null","<div style=""font-size:60px;"">+</div>","null","","fixation","","","","","","","","","","",""
"aa-learning-trial","230","1234744","0.0-11.0-2.0-1.20","5178","2","12","Female","approach_avoid_spark_v1","""event"",""trial"",""time""
""fullscreenenter"",""1"",""2591""
","
","
","""event"",""trial"",""time""
""fullscreenenter"",""1"",""2591""
","
","","","","","","1048.9999999997672","images/tree2.png","","","learning","-2","0","0","0","tree","plants","1","1","","neutral","0"
"html-keyboard-response","231","1235245","0.0-11.0-2.0-0.21","5178","2","12","Female","approach_avoid_spark_v1","""event"",""trial"",""time""
""fullscreenenter"",""1"",""2591""
","
","
","""event"",""trial"",""time""
""fullscreenenter"",""1"",""2591""
","
","","","","","","null","<div style=""font-size:60px;"">+</div>","null","","fixation","","","","","","","","","","",""
"aa-learning-trial","232","1238247","0.0-11.0-2.0-1.21","5178","2","12","Female","approach_avoid_spark_v1","""event"",""trial"",""time""
""fullscreenenter"",""1"",""2591""
","
","
","""event"",""trial"",""time""
""fullscreenenter"",""1"",""2591""
","
","","","","","","1789","images/tree1.png","","","learning","-2","0","0","0","tree","plants","1","1","","neutral","0"
"html-keyboard-response","233","1238748","0.0-11.0-2.0-0.22","5178","2","12","Female","approach_avoid_spark_v1","""event"",""trial"",""time""
""fullscreenenter"",""1"",""2591""
","
","
","""event"",""trial"",""time""
""fullscreenenter"",""1"",""2591""
","
","","","","","","null","<div style=""font-size:60px;"">+</div>","null","","fixation","","","","","","","","","","",""
"aa-learning-trial","234","1241749","0.0-11.0-2.0-1.22","5178","2","12","Female","approach_avoid_spark_v1","""event"",""trial"",""time""
""fullscreenenter"",""1"",""2591""
","
","
","""event"",""trial"",""time""
""fullscreenenter"",""1"",""2591""
","
","","","","","","1284","images/tree2.png","","","learning","3","0","0","0","tree","plants","1","1","","neutral","0"
"html-keyboard-response","235","1242250","0.0-11.0-2.0-0.23","5178","2","12","Female","approach_avoid_spark_v1","""event"",""trial"",""time""
""fullscreenenter"",""1"",""2591""
","
","
","""event"",""trial"",""time""
""fullscreenenter"",""1"",""2591""
","
","","","","","","null","<div style=""font-size:60px;"">+</div>","null","","fixation","","","","","","","","","","",""
"aa-learning-trial","236","1245251","0.0-11.0-2.0-1.23","5178","2","12","Female","approach_avoid_spark_v1","""event"",""trial"",""time""
""fullscreenenter"",""1"",""2591""
","
","
","""event"",""trial"",""time""
""fullscreenenter"",""1"",""2591""
","
","","","","","","2521.000000000233","images/bush3.png","","","learning","5","5","1","1","bush","plants","1","1","","good","[5]"
"html-keyboard-response","237","1245752","0.0-11.0-2.0-0.24","5178","2","12","Female","approach_avoid_spark_v1","""event"",""trial"",""time""
""fullscreenenter"",""1"",""2591""
","
","
","""event"",""trial"",""time""
""fullscreenenter"",""1"",""2591""
","
","","","","","","null","<div style=""font-size:60px;"">+</div>","null","","fixation","","","","","","","","","","",""
"aa-learning-trial","238","1248754","0.0-11.0-2.0-1.24","5178","2","12","Female","approach_avoid_spark_v1","""event"",""trial"",""time""
""fullscreenenter"",""1"",""2591""
","
","
","""event"",""trial"",""time""
""fullscreenenter"",""1"",""2591""
","
","","","","","","2058.999999999767","images/tree1.png","","","learning","1","0","0","0","tree","plants","1","1","","neutral","0"
"html-keyboard-response","239","1249254","0.0-11.0-2.0-0.25","5178","2","12","Female","approach_avoid_spark_v1","""event"",""trial"",""time""
""fullscreenenter"",""1"",""2591""
","