"trial_type","trial_index","time_elapsed","internal_node_id","subject_id","task_condition","age","gender","task_version","interactions","blur_events","focus_events","fullscreenenter_events","fullscreenexit_events","success","timeout","failed_images","failed_audio","failed_video","rt","stimulus","response","button_pressed","task_part","approach_reward","points","key_press","option_selected","stim_cat","task_block","block_condition","block_number","correct","cat_type","mean_cat_reward"
"pavlovia","0","1","0.0-0.0","5810","1","10","Male","approach_avoid_spark_v1","""event"",""trial"",""time""
""fullscreenenter"",""1"",""1934""
","
","
","""event"",""trial"",""time""
""fullscreenenter"",""1"",""1934""
","
","","","","","","","","","","","","","","","","","","","","",""
"fullscreen","1","2898","0.0-1.0","5810","1","10","Male","approach_avoid_spark_v1","""event"",""trial"",""time""
""fullscreenenter"",""1"",""1934""
","
","
","""event"",""trial"",""time""
""fullscreenenter"",""1"",""1934""
","
","true","","","","","","","","","","","","","","","","","","","",""
"preload","2","57029","0.0-2.0","5810","1","10","Male","approach_avoid_spark_v1","""event"",""trial"",""time""
""fullscreenenter"",""1"",""1934""
","
","
","""event"",""trial"",""time""
""fullscreenenter"",""1"",""1934""
","
","true","false","[]","[]","[]","","","","","","","","","","","","","","","",""
"audio-keyboard-response","3","60579","0.0-3.0","5810","1","10","Male","approach_avoid_spark_v1","""event"",""trial"",""time""
""fullscreenenter"",""1"",""1934""
","
","
","""event"",""trial"",""time""
""fullscreenenter"",""1"",""1934""
","
","","","","","","3529.433106575965","audio/beep_loop.wav"," ","","","","","","","","","","","","",""
"audio-button-response","4","63722","0.0-4.0","5810","1","10","Male","approach_avoid_spark_v1","""event"",""trial"",""time""
""fullscreenenter"",""1"",""1934""
","
","
","""event"",""trial"",""time""
""fullscreenenter"",""1"",""1934""
","
","","","","","","3140","audio/shark.wav","4","","","","","","","","","","","","",""
"audio-button-response","5","66329","0.0-5.0","5810","1","10","Male","approach_avoid_spark_v1","""event"",""trial"",""time""
""fullscreenenter"",""1"",""1934""
","
","
","""event"",""trial"",""time""
""fullscreenenter"",""1"",""1934""
","
","","","","","","1599","audio/turtle.wav","1","","","","","","","","","","","","",""
"preload","6","119575","0.0-6.0","5810","1","10","Male","approach_avoid_spark_v1","""event"",""trial"",""time""
""fullscreenenter"",""1"",""1934""
","
","
","""event"",""trial"",""time""
""fullscreenenter"",""1"",""1934""
","
","true","false","[]","[]","[]","","","","","","","","","","","","","","","",""
"html-keyboard-response","7","123124","0.0-7.0","5810","1","10","Male","approach_avoid_spark_v1","""event"",""trial"",""time""
""fullscreenenter"",""1"",""1934""
","
","
","""event"",""trial"",""time""
""fullscreenenter"",""1"",""1934""
","
","","","","","","3546.10000000149","Welcome to the experiment. Press any key to begin and to advance the instructions.","x","","","","","","","","","","","","",""
"learning-instructions","8","134305","0.0-8.0-0.0-0.0","5810","1","10","Male","approach_avoid_spark_v1","""event"",""trial"",""time""
""fullscreenenter"",""1"",""1934""
","
","
","""event"",""trial"",""time""
""fullscreenenter"",""1"",""1934""
","
","","","","","","4224.39999999851","<p> Welcome! Today you are going to play 6 different rounds of a decision-making game. </p><p> Use the mouse to click next to continue. </p>","","0","instructions","","","","","","","","","","",""
"learning-instructions","9","139320","0.0-8.0-0.0-0.1","5810","1","10","Male","approach_avoid_spark_v1","""event"",""trial"",""time""
""fullscreenenter"",""1"",""1934""
","
","
","""event"",""trial"",""time""
""fullscreenenter"",""1"",""1934""
","
","","","","","","2280.39999999851","<p> You will start with a practice round to learn the rules. </p>","","0","instructions","","","","","","","","","","",""
"learning-instructions","10","143584","0.0-8.0-0.0-0.2","5810","1","10","Male","approach_avoid_spark_v1","""event"",""trial"",""time""
""fullscreenenter"",""1"",""1934""
","
","
","""event"",""trial"",""time""
""fullscreenenter"",""1"",""1934""
","
","","","","","","804.4000000022352","<p> Your goal in this round is to give out sports equipment to kids. </p></div>","","0","instructions","","","","","","","","","","",""
"learning-instructions","11","151791","0.0-8.0-0.0-0.3","5810","1","10","Male","approach_avoid_spark_v1","""event"",""trial"",""time""
""fullscreenenter"",""1"",""1934""
","
","
","""event"",""trial"",""time""
""fullscreenenter"",""1"",""1934""
","
","","","","","","662.3999999985099","<p> The kids only like some of the equipment.  </p><p> On each turn, you will see a piece of sports equipment.   </p><p> You need to decide whether to give it to the kids or not.  </p>","","0","instructions","","","","","","","","","","",""
"learning-instructions","12","157466","0.0-8.0-0.0-0.4","5810","1","10","Male","approach_avoid_spark_v1","""event"",""trial"",""time""
""fullscreenenter"",""1"",""1934""
","
","
","""event"",""trial"",""time""
""fullscreenenter"",""1"",""1934""
","
","","","","","","913.6000000014901","<p> You can give them the equipment by pressing 1 and choose not to give it to them by pressing 0. </p><br><div class=""choice-instructions-grid""> <div class=""choice-option""><img src=""images/approach.png"" class=""choice-option-img"" stage=""instructions"" position=""0"" ><div class=""choice-option-text""> Press ""1."" </div></div><div class=""choice-option""><img src=""images/avoid.png"" class=""choice-option-img"" stage=""instructions"" position=""1"" ><div class=""choice-option-text""> Press ""0."" </div></div>","","0","instructions","","","","","","","","","","",""
"learning-instructions","13","165603","0.0-8.0-0.0-0.5","5810","1","10","Male","approach_avoid_spark_v1","""event"",""trial"",""time""
""fullscreenenter"",""1"",""1934""
","
","
","""event"",""trial"",""time""
""fullscreenenter"",""1"",""1934""
","
","","","","","","759.6000000014901","<p> If you give them a piece of equipment they like, they will be happy! </p><p> But if you give them a piece of equipment they do not like, they will be sad. </p>","","0","instructions","","","","","","","","","","",""
"learning-instructions","14","177145","0.0-8.0-0.0-0.6","5810","1","10","Male","approach_avoid_spark_v1","""event"",""trial"",""time""
""fullscreenenter"",""1"",""1934""
","
","
","""event"",""trial"",""time""
""fullscreenenter"",""1"",""1934""
","
","","","","","","1023.6999999992549","<p> You will earn points based on how you make kids feel. </p><p> If you make them happy, you will WIN anywhere from 1 - 9 points, </p><p> but if you make them sad, you will LOSE anywhere from 1 - 9 points. </p>","","0","instructions","","","","","","","","","","",""
"learning-instructions","15","188105","0.0-8.0-0.0-0.7","5810","1","10","Male","approach_avoid_spark_v1","""event"",""trial"",""time""
""fullscreenenter"",""1"",""1934""
","
","
","""event"",""trial"",""time""
""fullscreenenter"",""1"",""1934""
","
","","","","","","1403.7000000029802","<p> You will see how many points you won or lost in the center of the screen. </p><p> Here is what you would see if you won 6 points: </p><p style=""color:green;font-size:50px;font-weight:bolder"">6</p><p style=""color:green"">The text is GREEN because you WON points.</p>","","0","instructions","","","","","","","","","","",""
"learning-instructions","16","194320","0.0-8.0-0.0-0.8","5810","1","10","Male","approach_avoid_spark_v1","""event"",""trial"",""time""
""fullscreenenter"",""1"",""1934""
","
","
","""event"",""trial"",""time""
""fullscreenenter"",""1"",""1934""
","
","","","","","","710","<p> And here is what you would see if you lost 4 points: </p><p style=""color:red;font-size:50px;font-weight:bolder"">-4</p><p style=""color:red"">The text is RED because you LOST points. </p>","","0","instructions","","","","","","","","","","",""
"learning-instructions","17","209743","0.0-8.0-0.0-0.9","5810","1","10","Male","approach_avoid_spark_v1","""event"",""trial"",""time""
""fullscreenenter"",""1"",""1934""
","
","
","""event"",""trial"",""time""
""fullscreenenter"",""1"",""1934""
","
","","","","","","714.0999999977648","<p> Some of the equipment will make the kids VERY happy or sad. </p><p> These pieces of equipment will make you win or lose LOTS of points. </p><p> Other pieces of equipment will only make the kids a little happy or sad. </p><p> These pieces of equipment will make you win or lose small amounts of points. </p>","","0","instructions","","","","","","","","","","",""
"learning-instructions","18","221091","0.0-8.0-0.0-0.10","5810","1","10","Male","approach_avoid_spark_v1","""event"",""trial"",""time""
""fullscreenenter"",""1"",""1934""
","
","
","""event"",""trial"",""time""
""fullscreenenter"",""1"",""1934""
","
","","","","","","718.0999999977648","<p> If you choose not to give them the equipment, you will not win or lose any points. </p><p>  However, in the center of the screen, you will see the number of points you WOULD HAVE won or lost if you had given them the equipment. </p>","","0","instructions","","","","","","","","","","",""
"learning-instructions","19","246481","0.0-8.0-0.0-0.11","5810","1","10","Male","approach_avoid_spark_v1","""event"",""trial"",""time""
""fullscreenenter"",""1"",""1934""
","
","
","""event"",""trial"",""time""
""fullscreenenter"",""1"",""1934""
","
","","","","","","3859.89999999851","<p> Here is what you might see if you did not give the equipment to the kids but it would have made them happy: </p><p style=""color:grey; font-size:50px; display: inline-block; border-spacing: 15px; border-width:3px; border-style:solid; border-color:red"">  &nbsp; 7 &nbsp; </p><p> Remember, in this case, you would not win or lose ANY points because you did not give them the equipment.  </p><p style=""color:grey"">The text is GREY because you earned ZERO points. </p><p style=""color:red"">However, choosing to give the kids the equipment would have made you win points. The box around the text is RED because you chose the worse option. </p>","","0","instructions","","","","","","","","","","",""
"learning-instructions","20","270264","0.0-8.0-0.0-0.12","5810","1","10","Male","approach_avoid_spark_v1","""event"",""trial"",""time""
""fullscreenenter"",""1"",""1934""
","
","
","""event"",""trial"",""time""
""fullscreenenter"",""1"",""1934""
","
","","","","","","2703.199999999255","<p> Here is what you might see if you did not give the equipment to the kids but it would have made them sad: </p><p style=""color:grey;font-size:50px; display: inline-block; border-spacing: 15px; border-width:3px; border-style:solid; border-color:green"">  &nbsp; -8 &nbsp; </p><p> Remember, in this case, you would not win or lose ANY points because you did not give them the equipment.  </p><p style=""color:grey"">The text is GREY because you earned ZERO points. </p><p  style=""color:green""> Choosing to give the kids the equipment would have made you lose points. The box around the text is GREEN because you chose the better option.</p>","","0","instructions","","","","","","","","","","",""
"learning-instructions","21","283995","0.0-8.0-0.0-0.13","5810","1","10","Male","approach_avoid_spark_v1","""event"",""trial"",""time""
""fullscreenenter"",""1"",""1934""
","
","
","""event"",""trial"",""time""
""fullscreenenter"",""1"",""1934""
","
","","","","","","1691.9000000022352","<p> You will have 3 seconds to make each choice. Try to respond before time runs out! </p><p> You will lose 5 points each time you do not make a response. </p>","","0","instructions","","","","","","","","","","",""
"learning-instructions","22","291258","0.0-8.0-0.0-0.14","5810","1","10","Male","approach_avoid_spark_v1","""event"",""trial"",""time""
""fullscreenenter"",""1"",""1934""
","
","
","""event"",""trial"",""time""
""fullscreenenter"",""1"",""1934""
","
","","","","","","1846","<p> This is just a practice round, but in the real game, your bonus payment will depend on your total number of points.","","0","instructions","","","","","","","","","","",""
"learning-instructions","23","298018","0.0-8.0-0.0-0.15","5810","1","10","Male","approach_avoid_spark_v1","""event"",""trial"",""time""
""fullscreenenter"",""1"",""1934""
","
","
","""event"",""trial"",""time""
""fullscreenenter"",""1"",""1934""
","
","","","","","","995.8000000007451","<p> Remember, you can give them the equipment by pressing 1 and choose not to give it to them by pressing 0. </p><br><div class=""choice-instructions-grid""> <div class=""choice-option""><img src=""images/approach.png"" class=""choice-option-img"" stage=""instructions"" position=""0"" ><div class=""choice-option-text""> Press ""1."" </div></div><div class=""choice-option""><img src=""images/avoid.png"" class=""choice-option-img"" stage=""instructions"" position=""1"" ><div class=""choice-option-text""> Press ""0."" </div></div>","","0","instructions","","","","","","","","","","",""
"html-button-response","24","300002","0.0-8.0-1.0","5810","1","10","Male","approach_avoid_spark_v1","""event"",""trial"",""time""
""fullscreenenter"",""1"",""1934""
","
","
","""event"",""trial"",""time""
""fullscreenenter"",""1"",""1934""
","
","","","","","","1880.3999999985099","<p> Ready to practice? </p>","0","","","","","","","","","","","","",""
"html-keyboard-response","25","300615","0.0-8.0-2.0-0.0","5810","1","10","Male","approach_avoid_spark_v1","""event"",""trial"",""time""
""fullscreenenter"",""1"",""1934""
","
","
","""event"",""trial"",""time""
""fullscreenenter"",""1"",""1934""
","
","","","","","","null","<div style=""font-size:60px;"">+</div>","null","","fixation","","","","","","","","","","",""
"aa-learning-trial","26","303623","0.0-8.0-2.0-1.0","5810","1","10","Male","approach_avoid_spark_v1","""event"",""trial"",""time""
""fullscreenenter"",""1"",""1934""
","
","
","""event"",""trial"",""time""
""fullscreenenter"",""1"",""1934""
","
","","","","","","null","images/ball4.png","","","learning","-6","-5","","null","practice","practice","practice","-1","","",""
"html-keyboard-response","27","304127","0.0-8.0-2.0-0.1","5810","1","10","Male","approach_avoid_spark_v1","""event"",""trial"",""time""
""fullscreenenter"",""1"",""1934""
","
","
","""event"",""trial"",""time""
""fullscreenenter"",""1"",""1934""
","
","","","","","","null","<div style=""font-size:60px;"">+</div>","null","","fixation","","","","","","","","","","",""
"aa-learning-trial","28","307135","0.0-8.0-2.0-1.1","5810","1","10","Male","approach_avoid_spark_v1","""event"",""trial"",""time""
""fullscreenenter"",""1"",""1934""
","
","
","""event"",""trial"",""time""
""fullscreenenter"",""1"",""1934""
","
","","","","","","null","images/ball3.png","","","learning","-4","-5","","null","practice","practice","practice","-1","","",""
"html-keyboard-response","29","307638","0.0-8.0-2.0-0.2","5810","1","10","Male","approach_avoid_spark_v1","""event"",""trial"",""time""
""fullscreenenter"",""1"",""1934""
","
","
","""event"",""trial"",""time""
""fullscreenenter"",""1"",""1934""
","
","","","","","","null","<div style=""font-size:60px;"">+</div>","null","","fixation","","","","","","","","","","",""
"aa-learning-trial","30","310646","0.0-8.0-2.0-1.2","5810","1","10","Male","approach_avoid_spark_v1","""event"",""trial"",""time""
""fullscreenenter"",""1"",""1934""
","
","
","""event"",""trial"",""time""
""fullscreenenter"",""1"",""1934""
","
","","","","","","null","images/racket4.png","","","learning","1","-5","","null","practice","practice","practice","-1","","",""
"html-keyboard-response","31","311151","0.0-8.0-2.0-0.3","5810","1","10","Male","approach_avoid_spark_v1","""event"",""trial"",""time""
""fullscreenenter"",""1"",""1934""
","
","
","""event"",""trial"",""time""
""fullscreenenter"",""1"",""1934""
","
","","","","","","null","<div style=""font-size:60px;"">+</div>","null","","fixation","","","","","","","","","","",""
"aa-learning-trial","32","314159","0.0-8.0-2.0-1.3","5810","1","10","Male","approach_avoid_spark_v1","""event"",""trial"",""time""
""fullscreenenter"",""1"",""1934""
","
","
","""event"",""trial"",""time""
""fullscreenenter"",""1"",""1934""
","
","","","","","","null","images/ball2.png","","","learning","3","-5","","null","practice","practice","practice","-1","","",""
"html-keyboard-response","33","314663","0.0-8.0-2.0-0.4","5810","1","10","Male","approach_avoid_spark_v1","""event"",""trial"",""time""
""fullscreenenter"",""1"",""1934""
","
","
","""event"",""trial"",""time""
""fullscreenenter"",""1"",""1934""
","
","","","","","","null","<div style=""font-size:60px;"">+</div>","null","","fixation","","","","","","","","","","",""
"aa-learning-trial","34","317671","0.0-8.0-2.0-1.4","5810","1","10","Male","approach_avoid_spark_v1","""event"",""trial"",""time""
""fullscreenenter"",""1"",""1934""
","
","
","""event"",""trial"",""time""
""fullscreenenter"",""1"",""1934""
","
","","","","","","null","images/ball3.png","","","learning","8","-5","","null","practice","practice","practice","-1","","",""
"html-keyboard-response","35","318175","0.0-8.0-2.0-0.5","5810","1","10","Male","approach_avoid_spark_v1","""event"",""trial"",""time""
""fullscreenenter"",""1"",""1934""
","
","
","""event"",""trial"",""time""
""fullscreenenter"",""1"",""1934""
","
","","","","","","null","<div style=""font-size:60px;"">+</div>","null","","fixation","","","","","","","","","","",""
"aa-learning-trial","36","321183","0.0-8.0-2.0-1.5","5810","1","10","Male","approach_avoid_spark_v1","""event"",""trial"",""time""
""fullscreenenter"",""1"",""1934""
","
","
","""event"",""trial"",""time""
""fullscreenenter"",""1"",""1934""
","
","","","","","","null","images/ball1.png","","","learning","3","-5","","null","practice","practice","practice","-1","","",""
"html-keyboard-response","37","321687","0.0-8.0-2.0-0.6","5810","1","10","Male","approach_avoid_spark_v1","""event"",""trial"",""time""
""fullscreenenter"",""1"",""1934""
","
","
","""event"",""trial"",""time""
""fullscreenenter"",""1"",""1934""
","
","","","","","","null","<div style=""font-size:60px;"">+</div>","null","","fixation","","","","","","","","","","",""
"aa-learning-trial","38","324695","0.0-8.0-2.0-1.6","5810","1","10","Male","approach_avoid_spark_v1","""event"",""trial"",""time""
""fullscreenenter"",""1"",""1934""
","
","
","""event"",""trial"",""time""
""fullscreenenter"",""1"",""1934""
","
","","","","","","null","images/racket4.png","","","learning","5","-5","","null","practice","practice","practice","-1","","",""
"html-keyboard-response","39","325198","0.0-8.0-2.0-0.7","5810","1","10","Male","approach_avoid_spark_v1","""event"",""trial"",""time""
""fullscreenenter"",""1"",""1934""
","
","
","""event"",""trial"",""time""
""fullscreenenter"",""1"",""1934""
","
","","","","","","null","<div style=""font-size:60px;"">+</div>","null","","fixation","","","","","","","","","","",""
"aa-learning-trial","40","328207","0.0-8.0-2.0-1.7","5810","1","10","Male","approach_avoid_spark_v1","""event"",""trial"",""time""
""fullscreenenter"",""1"",""1934""
","
","
","""event"",""trial"",""time""
""fullscreenenter"",""1"",""1934""
","
","","","","","","null","images/ball1.png","","","learning","-4","-5","","null","practice","practice","practice","-1","","",""
"html-keyboard-response","41","328710","0.0-8.0-2.0-0.8","5810","1","10","Male","approach_avoid_spark_v1","""event"",""trial"",""time""
""fullscreenenter"",""1"",""1934""
","
","
","""event"",""trial"",""time""
""fullscreenenter"",""1"",""1934""
","
","","","","","","null","<div style=""font-size:60px;"">+</div>","null","","fixation","","","","","","","","","","",""
"aa-learning-trial","42","331719","0.0-8.0-2.0-1.8","5810","1","10","Male","approach_avoid_spark_v1","""event"",""trial"",""time""
""fullscreenenter"",""1"",""1934""
","
","
","""event"",""trial"",""time""
""fullscreenenter"",""1"",""1934""
","
","","","","","","null","images/racket2.png","","","learning","-2","-5","","null","practice","practice","practice","-1","","",""
"html-keyboard-response","43","332223","0.0-8.0-2.0-0.9","5810","1","10","Male","approach_avoid_spark_v1","""event"",""trial"",""time""
""fullscreenenter"",""1"",""1934""
","
","
","""event"",""trial"",""time""
""fullscreenenter"",""1"",""1934""
","
","","","","","","null","<div style=""font-size:60px;"">+</div>","null","","fixation","","","","","","","","","","",""
"aa-learning-trial","44","335231","0.0-8.0-2.0-1.9","5810","1","10","Male","approach_avoid_spark_v1","""event"",""trial"",""time""
""fullscreenenter"",""1"",""1934""
","
","
","""event"",""trial"",""time""
""fullscreenenter"",""1"",""1934""
","
","","","","","","null","images/ball4.png","","","learning","-2","-5","","null","practice","practice","practice","-1","","",""
"html-keyboard-response","45","335735","0.0-8.0-2.0-0.10","5810","1","10","Male","approach_avoid_spark_v1","""event"",""trial"",""time""
""fullscreenenter"",""1"",""1934""
","
","
","""event"",""trial"",""time""
""fullscreenenter"",""1"",""1934""
","
","","","","","","null","<div style=""font-size:60px;"">+</div>","null","","fixation","","","","","","","","","","",""
"aa-learning-trial","46","338743","0.0-8.0-2.0-1.10","5810","1","10","Male","approach_avoid_spark_v1","""event"",""trial"",""time""
""fullscreenenter"",""1"",""1934""
","
","
","""event"",""trial"",""time""
""fullscreenenter"",""1"",""1934""
","
","","","","","","null","images/ball3.png","","","learning","5","-5","","null","practice","practice","practice","-1","","",""
"html-keyboard-response","47","339247","0.0-8.0-2.0-0.11","5810","1","10","Male","approach_avoid_spark_v1","""event"",""trial"",""time""
""fullscreenenter"",""1"",""1934""
","
","
","""event"",""trial"",""time""
""fullscreenenter"",""1"",""1934""
","
","","","","","","null","<div style=""font-size:60px;"">+</div>","null","","fixation","","","","","","","","","","",""
"aa-learning-trial","48","342255","0.0-8.0-2.0-1.11","5810","1","10","Male","approach_avoid_spark_v1","""event"",""trial"",""time""
""fullscreenenter"",""1"",""1934""
","
","
","""event"",""trial"",""time""
""fullscreenenter"",""1"",""1934""
","
","","","","","","null","images/racket1.png","","","learning","1","-5","","null","practice","practice","practice","-1","","",""
"html-button-response","49","360650","0.0-8.0-3.0","5810","1","10","Male","approach_avoid_spark_v1","""event"",""trial"",""time""
""fullscreenenter"",""1"",""1934""
","
","
","""event"",""trial"",""time""
""fullscreenenter"",""1"",""1934""
","
","","","","","","18387.79999999702","<p> You earned -60 points in the practice round! </p>","0","","break","","","","","","","","","","",""
"learning-instructions","50","368754","0.0-8.0-4.0-0.0","5810","1","10","Male","approach_avoid_spark_v1","""event"",""trial"",""time""
""fullscreenenter"",""1"",""1934""
","
","
","""event"",""trial"",""time""
""fullscreenenter"",""1"",""1934""
","
","","","","","","2131.300000000745","<p> It's almost time to start the real game. </p><p> Before you start, we're going to ask you a few questions about how the game works. </p>","","0","instructions","","","","","","","","","","",""
"preload","51","395083","0.0-8.0-5.0","5810","1","10","Male","approach_avoid_spark_v1","""event"",""trial"",""time""
""fullscreenenter"",""1"",""1934""
","
","
","""event"",""trial"",""time""
""fullscreenenter"",""1"",""1934""
","
","true","false","[]","[]","[]","","","","","","","","","","","","","","","",""
"comp-q","52","401424","0.0-8.0-6.0-0.0","5810","1","10","Male","approach_avoid_spark_v1","""event"",""trial"",""time""
""fullscreenenter"",""1"",""1934""
","
","
","""event"",""trial"",""time""
""fullscreenenter"",""1"",""1934""
","
","","","","","","1343.8999999985099","<p> <b> True or False? </b> </p><p> If you see a number in GREY, that means you earned that many points. </p>","","1","comp_question","","","","","","","","","true","",""
"comp-q","53","411787","0.0-8.0-6.0-1.0","5810","1","10","Male","approach_avoid_spark_v1","""event"",""trial"",""time""
""fullscreenenter"",""1"",""1934""
","
","
","""event"",""trial"",""time""
""fullscreenenter"",""1"",""1934""
","
","","","","","","1994.800000000745","<p><b> That's right! </b> If you see a grey number, it means you earned ZERO points. <br> The grey numbers show the points you WOULD HAVE earned if you had made the other choice. </p>","","0","comp_answer","","","","","","","","","","",""
"comp-q","54","417315","0.0-8.0-7.0-0.0","5810","1","10","Male","approach_avoid_spark_v1","""event"",""trial"",""time""
""fullscreenenter"",""1"",""1934""
","
","
","""event"",""trial"",""time""
""fullscreenenter"",""1"",""1934""
","
","","","","","","831.2000000029802","<p> <b> True or False? </b> </p><p> You will have as much time as you want to make each choice. </p>","","1","comp_question","","","","","","","","","true","",""
"comp-q","55","422475","0.0-8.0-7.0-1.0","5810","1","10","Male","approach_avoid_spark_v1","""event"",""trial"",""time""
""fullscreenenter"",""1"",""1934""
","
","
","""event"",""trial"",""time""
""fullscreenenter"",""1"",""1934""
","
","","","","","","1112.5","<p> <b> That's right! </b> You will only have 3 seconds to make each choice. </p>","","0","comp_answer","","","","","","","","","","",""
"comp-q","56","428042","0.0-8.0-8.0-0.0","5810","1","10","Male","approach_avoid_spark_v1","""event"",""trial"",""time""
""fullscreenenter"",""1"",""1934""
","
","
","""event"",""trial"",""time""
""fullscreenenter"",""1"",""1934""
","
","","","","","","900.2999999970198","<p> <b> True or False? </b> </p><p> You should use the '1' and '0' keys to make your choices. </p>","","0","comp_question","","","","","","","","","true","",""
"comp-q","57","434505","0.0-8.0-8.0-1.0","5810","1","10","Male","approach_avoid_spark_v1","""event"",""trial"",""time""
""fullscreenenter"",""1"",""1934""
","
","
","""event"",""trial"",""time""
""fullscreenenter"",""1"",""1934""
","
","","","","","","1843.800000000745","<p> <b> That's right! </b> You should use the '1' and '0' keys to make each choice. </p>","","0","comp_answer","","","","","","","","","","",""
"learning-instructions","58","442473","0.0-8.0-9.0-0.0","5810","1","10","Male","approach_avoid_spark_v1","""event"",""trial"",""time""
""fullscreenenter"",""1"",""1934""
","
","
","""event"",""trial"",""time""
""fullscreenenter"",""1"",""1934""
","
","","","","","","1691.800000000745","<p> It's now time to start the real game. </p>Do your best, because the points you earn in the next rounds will influence your bonus payment. </p>","","0","instructions","","","","","","","","","","",""
"preload","59","442609","0.0-9.0-0.0","5810","1","10","Male","approach_avoid_spark_v1","""event"",""trial"",""time""
""fullscreenenter"",""1"",""1934""
","
","
","""event"",""trial"",""time""
""fullscreenenter"",""1"",""1934""
","
","true","false","[]","[]","[]","","","","","","","","","","","","","","","",""
"learning-instructions","60","459511","0.0-9.0-1.0-0.0","5810","1","10","Male","approach_avoid_spark_v1","""event"",""trial"",""time""
""fullscreenenter"",""1"",""1934""
","
","
","""event"",""trial"",""time""
""fullscreenenter"",""1"",""1934""
","
","","","","","","10311.199999999255","<p> Your goal in this round is to take care of lots of animals. </p></div>","","0","instructions","","","","","","","","","","",""
"learning-instructions","61","483632","0.0-9.0-1.0-0.1","5810","1","10","Male","approach_avoid_spark_v1","""event"",""trial"",""time""
""fullscreenenter"",""1"",""1934""
","
","
","""event"",""trial"",""time""
""fullscreenenter"",""1"",""1934""
","
","","","","","","7150.800000000745","<p> Some animals want to be pet, while other animals want to be left alone.  </p><p> On each turn, you will see an animal.   </p><p> You need to decide whether to pet it or not.  </p>","","0","instructions","","","","","","","","","","",""
"learning-instructions","62","493993","0.0-9.0-1.0-0.2","5810","1","10","Male","approach_avoid_spark_v1","""event"",""trial"",""time""
""fullscreenenter"",""1"",""1934""
","
","
","""event"",""trial"",""time""
""fullscreenenter"",""1"",""1934""
","
","","","","","","3311.800000000745","<p> You can pet the animal by pressing 1 and leave the animal alone by pressing 0. </p><br><div class=""choice-instructions-grid""> <div class=""choice-option""><img src=""images/approach.png"" class=""choice-option-img"" stage=""instructions"" position=""0"" ><div class=""choice-option-text""> Press ""1."" </div></div><div class=""choice-option""><img src=""images/avoid.png"" class=""choice-option-img"" stage=""instructions"" position=""1"" ><div class=""choice-option-text""> Press ""0."" </div></div>","","0","instructions","","","","","","","","","","",""
"learning-instructions","63","508896","0.0-9.0-1.0-0.3","5810","1","10","Male","approach_avoid_spark_v1","""event"",""trial"",""time""
""fullscreenenter"",""1"",""1934""
","
","
","""event"",""trial"",""time""
""fullscreenenter"",""1"",""1934""
","
","","","","","","1206.3999999985099","<p> If you pet an animal that wants to be pet, you will make it feel happy! </p><p> But if you pet an animal that wants to be left alone, you will make it feel angry. </p>","","0","instructions","","","","","","","","","","",""
"learning-instructions","64","533818","0.0-9.0-1.0-0.4","5810","1","10","Male","approach_avoid_spark_v1","""event"",""trial"",""time""
""fullscreenenter"",""1"",""1934""
","
","
","""event"",""trial"",""time""
""fullscreenenter"",""1"",""1934""
","
","","","","","","1146","<p> You will earn points based on how you made the animal feel. </p><p> If you made it feel happy, you will WIN anywhere from 1 - 9 points, </p><p> but if you made it feel angry, you will LOSE anywhere from 1 - 9 points. </p>","","0","instructions","","","","","","","","","","",""
"learning-instructions","65","546434","0.0-9.0-1.0-0.5","5810","1","10","Male","approach_avoid_spark_v1","""event"",""trial"",""time""
""fullscreenenter"",""1"",""1934""
","
","
","""event"",""trial"",""time""
""fullscreenenter"",""1"",""1934""
","
","","","","","","1222.2000000029802","<p> You will see how many points you won or lost in the center of the screen. </p><p> Here is what you would see if you won 5 points: </p><p style=""color:green;font-size:50px;font-weight:bolder"">5</p>","","0","instructions","","","","","","","","","","",""
"learning-instructions","66","556786","0.0-9.0-1.0-0.6","5810","1","10","Male","approach_avoid_spark_v1","""event"",""trial"",""time""
""fullscreenenter"",""1"",""1934""
","
","
","""event"",""trial"",""time""
""fullscreenenter"",""1"",""1934""
","
","","","","","","1414.3999999985099","<p> And here is what you would see if you lost 3 points: </p><p style=""color:red;font-size:50px;font-weight:bolder"">-3</p>","","0","instructions","","","","","","","","","","",""
"learning-instructions","67","580248","0.0-9.0-1.0-0.7","5810","1","10","Male","approach_avoid_spark_v1","""event"",""trial"",""time""
""fullscreenenter"",""1"",""1934""
","
","
","""event"",""trial"",""time""
""fullscreenenter"",""1"",""1934""
","
","","","","","","1527.699999999255","<p> Some animals will become very happy or very angry. </p><p> These animals will make you win or lose LOTS of points. </p><p> Other animals have less strong feelings. </p><p> These animals will make you win or lose small amounts of points. </p>","","0","instructions","","","","","","","","","","",""
"learning-instructions","68","596835","0.0-9.0-1.0-0.8","5810","1","10","Male","approach_avoid_spark_v1","""event"",""trial"",""time""
""fullscreenenter"",""1"",""1934""
","
","
","""event"",""trial"",""time""
""fullscreenenter"",""1"",""1934""
","
","","","","","","1692.2999999970198","<p> If you choose to leave the animal alone, you will not win or lose any points. </p><p>  However, in the center of the screen, you will see the number of points you WOULD HAVE won or lost if you had pet the animal. </p>","","0","instructions","","","","","","","","","","",""
"learning-instructions","69","614945","0.0-9.0-1.0-0.9","5810","1","10","Male","approach_avoid_spark_v1","""event"",""trial"",""time""
""fullscreenenter"",""1"",""1934""
","
","
","""event"",""trial"",""time""
""fullscreenenter"",""1"",""1934""
","
","","","","","","1283.300000000745","<p> Here is what you might see if you did not pet the animal but the animal wanted to be pet: </p><p style=""color:grey; font-size:50px; display: inline-block; border-spacing: 15px; border-width:3px; border-style:solid; border-color:red"">  &nbsp; 6 &nbsp; </p><p> Remember, in this case, you would not win or lose ANY points because you did not pet the animal.  </p>","","0","instructions","","","","","","","","","","",""
"learning-instructions","70","625705","0.0-9.0-1.0-0.10","5810","1","10","Male","approach_avoid_spark_v1","""event"",""trial"",""time""
""fullscreenenter"",""1"",""1934""
","
","
","""event"",""trial"",""time""
""fullscreenenter"",""1"",""1934""
","
","","","","","","1584.3999999985099","<p> Try to make the best choice for each animal because </p><p> at the end of the game, you will earn bonus money based on how many points you earned. </p>","","0","instructions","","","","","","","","","","",""
"learning-instructions","71","635961","0.0-9.0-1.0-0.11","5810","1","10","Male","approach_avoid_spark_v1","""event"",""trial"",""time""
""fullscreenenter"",""1"",""1934""
","
","
","""event"",""trial"",""time""
""fullscreenenter"",""1"",""1934""
","
","","","","","","2070.699999999255","<p> You will have 3 seconds to make each choice. Try to respond before time runs out! </p><p> You will lose 5 points each time you do not make a response. </p>","","0","instructions","","","","","","","","","","",""
"html-keyboard-response","72","636567","0.0-9.0-2.0-0.0","5810","1","10","Male","approach_avoid_spark_v1","""event"",""trial"",""time""
""fullscreenenter"",""1"",""1934""
","
","
","""event"",""trial"",""time""
""fullscreenenter"",""1"",""1934""
","
","","","","","","null","<div style=""font-size:60px;"">+</div>","null","","fixation","","","","","","","","","","",""
"aa-learning-trial","73","639576","0.0-9.0-2.0-1.0","5810","1","10","Male","approach_avoid_spark_v1","""event"",""trial"",""time""
""fullscreenenter"",""1"",""1934""
","
","
","""event"",""trial"",""time""
""fullscreenenter"",""1"",""1934""
","
","","","","","","2020.199999999255","images/dog1.png","","","learning","-6","-6","1","1","dog","pets","1","0","","bad","[-5]"
"html-keyboard-response","74","640080","0.0-9.0-2.0-0.1","5810","1","10","Male","approach_avoid_spark_v1","""event"",""trial"",""time""
""fullscreenenter"",""1"",""1934""
","
","
","""event"",""trial"",""time""
""fullscreenenter"",""1"",""1934""
","
","","","","","","null","<div style=""font-size:60px;"">+</div>","null","","fixation","","","","","","","","","","",""
"aa-learning-trial","75","643088","0.0-9.0-2.0-1.1","5810","1","10","Male","approach_avoid_spark_v1","""event"",""trial"",""time""
""fullscreenenter"",""1"",""1934""
","
","
","""event"",""trial"",""time""
""fullscreenenter"",""1"",""1934""
","
","","","","","","1452.199999999255","images/dog7.png","","","learning","-8","-8","1","1","dog","pets","1","0","","bad","[-5]"
"html-keyboard-response","76","643591","0.0-9.0-2.0-0.2","5810","1","10","Male","approach_avoid_spark_v1","""event"",""trial"",""time""
""fullscreenenter"",""1"",""1934""
","
","
","""event"",""trial"",""time""
""fullscreenenter"",""1"",""1934""
","
","","","","","","null","<div style=""font-size:60px;"">+</div>","null","","fixation","","","","","","","","","","",""
"aa-learning-trial","77","646601","0.0-9.0-2.0-1.2","5810","1","10","Male","approach_avoid_spark_v1","""event"",""trial"",""time""
""fullscreenenter"",""1"",""1934""
","
","
","""event"",""trial"",""time""
""fullscreenenter"",""1"",""1934""
","
","","","","","","1507.3999999985099","images/rodent8.png","","","learning","1","0","0","0","rodent","pets","1","0","","neutral","0"
"html-keyboard-response","78","647104","0.0-9.0-2.0-0.3","5810","1","10","Male","approach_avoid_spark_v1","""event"",""trial"",""time""
""fullscreenenter"",""1"",""1934""
","
","
","""event"",""trial"",""time""
""fullscreenenter"",""1"",""1934""
","
","","","","","","null","<div style=""font-size:60px;"">+</div>","null","","fixation","","","","","","","","","","",""
"aa-learning-trial","79","650116","0.0-9.0-2.0-1.3","5810","1","10","Male","approach_avoid_spark_v1","""event"",""trial"",""time""
""fullscreenenter"",""1"",""1934""
","
","
","""event"",""trial"",""time""
""fullscreenenter"",""1"",""1934""
","
","","","","","","1467.300000000745","images/rodent5.png","","","learning","-2","-2","1","1","rodent","pets","1","0","","neutral","0"
"html-keyboard-response","80","650620","0.0-9.0-2.0-0.4","5810","1","10","Male","approach_avoid_spark_v1","""event"",""trial"",""time""
""fullscreenenter"",""1"",""1934""
","
","
","""event"",""trial"",""time""
""fullscreenenter"",""1"",""1934""
","
","","","","","","null","<div style=""font-size:60px;"">+</div>","null","","fixation","","","","","","","","","","",""
"aa-learning-trial","81","653628","0.0-9.0-2.0-1.4","5810","1","10","Male","approach_avoid_spark_v1","""event"",""trial"",""time""
""fullscreenenter"",""1"",""1934""
","
","
","""event"",""trial"",""time""
""fullscreenenter"",""1"",""1934""
","
","","","","","","1265.699999999255","images/rodent8.png","","","learning","[1]","1","1","1","rodent","pets","1","0","","neutral","0"
"html-keyboard-response","82","654131","0.0-9.0-2.0-0.5","5810","1","10","Male","approach_avoid_spark_v1","""event"",""trial"",""time""
""fullscreenenter"",""1"",""1934""
","
","
","""event"",""trial"",""time""
""fullscreenenter"",""1"",""1934""
","
","","","","","","null","<div style=""font-size:60px;"">+</div>","null","","fixation","","","","","","","","","","",""
"aa-learning-trial","83","657140","0.0-9.0-2.0-1.5","5810","1","10","Male","approach_avoid_spark_v1","""event"",""trial"",""time""
""fullscreenenter"",""1"",""1934""
","
","
","""event"",""trial"",""time""
""fullscreenenter"",""1"",""1934""
","
","","","","","","1275.5","images/rodent5.png","","","learning","1","0","0","0","rodent","pets","1","0","","neutral","0"
"html-keyboard-response","84","657643","0.0-9.0-2.0-0.6","5810","1","10","Male","approach_avoid_spark_v1","""event"",""trial"",""time""
""fullscreenenter"",""1"",""1934""
","
","
","""event"",""trial"",""time""
""fullscreenenter"",""1"",""1934""
","
","","","","","","null","<div style=""font-size:60px;"">+</div>","null","","fixation","","","","","","","","","","",""
"aa-learning-trial","85","660651","0.0-9.0-2.0-1.6","5810","1","10","Male","approach_avoid_spark_v1","""event"",""trial"",""time""
""fullscreenenter"",""1"",""1934""
","
","
","""event"",""trial"",""time""
""fullscreenenter"",""1"",""1934""
","
","","","","","","1091.300000000745","images/rabbit5.png","","","learning","5","5","1","1","rabbit","pets","1","0","","good","[3]"
"html-keyboard-response","86","661155","0.0-9.0-2.0-0.7","5810","1","10","Male","approach_avoid_spark_v1","""event"",""trial"",""time""
""fullscreenenter"",""1"",""1934""
","
","
","""event"",""trial"",""time""
""fullscreenenter"",""1"",""1934""
","
","","","","","","null","<div style=""font-size:60px;"">+</div>","null","","fixation","","","","","","","","","","",""
"aa-learning-trial","87","664163","0.0-9.0-2.0-1.7","5810","1","10","Male","approach_avoid_spark_v1","""event"",""trial"",""time""
""fullscreenenter"",""1"",""1934""
","
","
","""event"",""trial"",""time""
""fullscreenenter"",""1"",""1934""
","
","","","","","","922.8999999985099","images/rabbit4.png","","","learning","3","3","1","1","rabbit","pets","1","0","","good","[3]"
"html-keyboard-response","88","664668","0.0-9.0-2.0-0.8","5810","1","10","Male","approach_avoid_spark_v1","""event"",""trial"",""time""
""fullscreenenter"",""1"",""1934""
","
","
","""event"",""trial"",""time""
""fullscreenenter"",""1"",""1934""
","
","","","","","","null","<div style=""font-size:60px;"">+</div>","null","","fixation","","","","","","","","","","",""
"aa-learning-trial","89","667676","0.0-9.0-2.0-1.8","5810","1","10","Male","approach_avoid_spark_v1","""event"",""trial"",""time""
""fullscreenenter"",""1"",""1934""
","
","
","""event"",""trial"",""time""
""fullscreenenter"",""1"",""1934""
","
","","","","","","880.9000000022352","images/dog7.png","","","learning","-7","-7","1","1","dog","pets","1","0","","bad","[-5]"
"html-keyboard-response","90","668180","0.0-9.0-2.0-0.9","5810","1","10","Male","approach_avoid_spark_v1","""event"",""trial"",""time""
""fullscreenenter"",""1"",""1934""
","
","
","""event"",""trial"",""time""
""fullscreenenter"",""1"",""1934""
","
","","","","","","null","<div style=""font-size:60px;"">+</div>","null","","fixation","","","","","","","","","","",""
"aa-learning-trial","91","671188","0.0-9.0-2.0-1.9","5810","1","10","Male","approach_avoid_spark_v1","""event"",""trial"",""time""
""fullscreenenter"",""1"",""1934""
","
","
","""event"",""trial"",""time""
""fullscreenenter"",""1"",""1934""
","
","","","","","","651.2999999970198","images/rabbit4.png","","","learning","4","4","1","1","rabbit","pets","1","0","","good","[3]"
"html-keyboard-response","92","671692","0.0-9.0-2.0-0.10","5810","1","10","Male","approach_avoid_spark_v1","""event"",""trial"",""time""
""fullscreenenter"",""1"",""1934""
","
","
","""event"",""trial"",""time""
""fullscreenenter"",""1"",""1934""
","
","","","","","","null","<div style=""font-size:60px;"">+</div>","null","","fixation","","","","","","","","","","",""
"aa-learning-trial","93","674700","0.0-9.0-2.0-1.10","5810","1","10","Male","approach_avoid_spark_v1","""event"",""trial"",""time""
""fullscreenenter"",""1"",""1934""
","
","
","""event"",""trial"",""time""
""fullscreenenter"",""1"",""1934""
","
","","","","","","1152.8999999985099","images/dog6.png","","","learning","-7","0","0","0","dog","pets","1","0","","bad","[-5]"
"html-keyboard-response","94","675203","0.0-9.0-2.0-0.11","5810","1","10","Male","approach_avoid_spark_v1","""event"",""trial"",""time""
""fullscreenenter"",""1"",""1934""
","
","
","""event"",""trial"",""time""
""fullscreenenter"",""1"",""1934""
","
","","","","","","null","<div style=""font-size:60px;"">+</div>","null","","fixation","","","","","","","","","","",""
"aa-learning-trial","95","678212","0.0-9.0-2.0-1.11","5810","1","10","Male","approach_avoid_spark_v1","""event"",""trial"",""time""
""fullscreenenter"",""1"",""1934""
","
","
","""event"",""trial"",""time""
""fullscreenenter"",""1"",""1934""
","
","","","","","","953.7999999970198","images/rabbit5.png","","","learning","4","4","1","1","rabbit","pets","1","0","","good","[3]"
"html-keyboard-response","96","678715","0.0-9.0-2.0-0.12","5810","1","10","Male","approach_avoid_spark_v1","""event"",""trial"",""time""
""fullscreenenter"",""1"",""1934""
","
","
","""event"",""trial"",""time""
""fullscreenenter"",""1"",""1934""
","
","","","","","","null","<div style=""font-size:60px;"">+</div>","null","","fixation","","","","","","","","","","",""
"aa-learning-trial","97","681724","0.0-9.0-2.0-1.12","5810","1","10","Male","approach_avoid_spark_v1","""event"",""trial"",""time""
""fullscreenenter"",""1"",""1934""
","
","
","""event"",""trial"",""time""
""fullscreenenter"",""1"",""1934""
","
","","","","","","1298.300000000745","images/rodent3.png","","","learning","1","0","0","0","rodent","pets","1","0","","neutral","0"
"html-keyboard-response","98","682228","0.0-9.0-2.0-0.13","5810","1","10","Male","approach_avoid_spark_v1","""event"",""trial"",""time""
""fullscreenenter"",""1"",""1934""
","
","
","""event"",""trial"",""time""
""fullscreenenter"",""1"",""1934""
","
","","","","","","null","<div style=""font-size:60px;"">+</div>","null","","fixation","","","","","","","","","","",""
"aa-learning-trial","99","685236","0.0-9.0-2.0-1.13","5810","1","10","Male","approach_avoid_spark_v1","""event"",""trial"",""time""
""fullscreenenter"",""1"",""1934""
","
","
","""event"",""trial"",""time""
""fullscreenenter"",""1"",""1934""
","
","","","","","","1257","images/dog6.png","","","learning","-8","-8","1","1","dog","pets","1","0","","bad","[-5]"
"html-keyboard-response","100","685740","0.0-9.0-2.0-0.14","5810","1","10","Male","approach_avoid_spark_v1","""event"",""trial"",""time""
""fullscreenenter"",""1"",""1934""
","
","
","""event"",""trial"",""time""
""fullscreenenter"",""1"",""1934""
","
","","","","","","null","<div style=""font-size:60px;"">+</div>","null","","fixation","","","","","","","","","","",""
"aa-learning-trial","101","688749","0.0-9.0-2.0-1.14","5810","1","10","Male","approach_avoid_spark_v1","""event"",""trial"",""time""
""fullscreenenter"",""1"",""1934""
","
","
","""event"",""trial"",""time""
""fullscreenenter"",""1"",""1934""
","
","","","","","","1471.699999999255","images/rabbit8.png","","","learning","5","5","1","1","rabbit","pets","1","0","","good","[3]"
"html-keyboard-response","102","689259","0.0-9.0-2.0-0.15","5810","1","10","Male","approach_avoid_spark_v1","""event"",""trial"",""time""
""fullscreenenter"",""1"",""1934""
","
","
","""event"",""trial"",""time""
""fullscreenenter"",""1"",""1934""
","
","","","","","","null","<div style=""font-size:60px;"">+</div>","null","","fixation","","","","","","","","","","",""
"aa-learning-trial","103","692268","0.0-9.0-2.0-1.15","5810","1","10","Male","approach_avoid_spark_v1","""event"",""trial"",""time""
""fullscreenenter"",""1"",""1934""
","
","
","""event"",""trial"",""time""
""fullscreenenter"",""1"",""1934""
","
","","","","","","1089.5","images/rabbit6.png","","","learning","6","6","1","1","rabbit","pets","1","0","","good","[3]"
"html-keyboard-response","104","692771","0.0-9.0-2.0-0.16","5810","1","10","Male","approach_avoid_spark_v1","""event"",""trial"",""time""
""fullscreenenter"",""1"",""1934""
","
","
","""event"",""trial"",""time""
""fullscreenenter"",""1"",""1934""
","
","","","","","","null","<div style=""font-size:60px;"">+</div>","null","","fixation","","","","","","","","","","",""
"aa-learning-trial","105","695779","0.0-9.0-2.0-1.16","5810","1","10","Male","approach_avoid_spark_v1","""event"",""trial"",""time""
""fullscreenenter"",""1"",""1934""
","
","
","""event"",""trial"",""time""
""fullscreenenter"",""1"",""1934""
","
","","","","","","1015.5","images/dog6.png","","","learning","-6","0","0","0","dog","pets","1","0","","bad","[-5]"
"html-keyboard-response","106","696283","0.0-9.0-2.0-0.17","5810","1","10","Male","approach_avoid_spark_v1","""event"",""trial"",""time""
""fullscreenenter"",""1"",""1934""
","
","
","""event"",""trial"",""time""
""fullscreenenter"",""1"",""1934""
","
","","","","","","null","<div style=""font-size:60px;"">+</div>","null","","fixation","","","","","","","","","","",""
"aa-learning-trial","107","699291","0.0-9.0-2.0-1.17","5810","1","10","Male","approach_avoid_spark_v1","""event"",""trial"",""time""
""fullscreenenter"",""1"",""1934""
","
","
","""event"",""trial"",""time""
""fullscreenenter"",""1"",""1934""
","
","","","","","","1475.300000000745","images/rodent3.png","","","learning","1","0","0","0","rodent","pets","1","0","","neutral","0"
"html-keyboard-response","108","699796","0.0-9.0-2.0-0.18","5810","1","10","Male","approach_avoid_spark_v1","""event"",""trial"",""time""
""fullscreenenter"",""1"",""1934""
","
","
","""event"",""trial"",""time""
""fullscreenenter"",""1"",""1934""
","
","","","","","","null","<div style=""font-size:60px;"">+</div>","null","","fixation","","","","","","","","","","",""
"aa-learning-trial","109","702805","0.0-9.0-2.0-1.18","5810","1","10","Male","approach_avoid_spark_v1","""event"",""trial"",""time""
""fullscreenenter"",""1"",""1934""
","
","
","""event"",""trial"",""time""
""fullscreenenter"",""1"",""1934""
","
","","","","","","1080.199999999255","images/rabbit5.png","","","learning","2","2","1","1","rabbit","pets","1","0","","good","[3]"
"html-keyboard-response","110","703308","0.0-9.0-2.0-0.19","5810","1","10","Male","approach_avoid_spark_v1","""event"",""trial"",""time""
""fullscreenenter"",""1"",""1934""
","
","
","""event"",""trial"",""time""
""fullscreenenter"",""1"",""1934""
","
","","","","","","null","<div style=""font-size:60px;"">+</div>","null","","fixation","","","","","","","","","","",""
"aa-learning-trial","111","706316","0.0-9.0-2.0-1.19","5810","1","10","Male","approach_avoid_spark_v1","""event"",""trial"",""time""
""fullscreenenter"",""1"",""1934""
","
","
","""event"",""trial"",""time""
""fullscreenenter"",""1"",""1934""
","
","","","","","","1039.2000000029802","images/rabbit4.png","","","learning","4","4","1","1","rabbit","pets","1","0","","good","[3]"
"html-keyboard-response","112","706820","0.0-9.0-2.0-0.20","5810","1","10","Male","approach_avoid_spark_v1","""event"",""trial"",""time""
""fullscreenenter"",""1"",""1934""
","
","
","""event"",""trial"",""time""
""fullscreenenter"",""1"",""1934""
","
","","","","","","null","<div style=""font-size:60px;"">+</div>","null","","fixation","","","","","","","","","","",""
"aa-learning-trial","113","709832","0.0-9.0-2.0-1.20","5810","1","10","Male","approach_avoid_spark_v1","""event"",""trial"",""time""
""fullscreenenter"",""1"",""1934""
","
","
","""event"",""trial"",""time""
""fullscreenenter"",""1"",""1934""
","
","","","","","","999.0999999977648","images/rodent8.png","","","learning","1","0","0","0","rodent","pets","1","0","","neutral","0"
"html-keyboard-response","114","710335","0.0-9.0-2.0-0.21","5810","1","10","Male","approach_avoid_spark_v1","""event"",""trial"",""time""
""fullscreenenter"",""1"",""1934""
","
","
","""event"",""trial"",""time""
""fullscreenenter"",""1"",""1934""
","
","","","","","","null","<div style=""font-size:60px;"">+</div>","null","","fixation","","","","","","","","","","",""
"aa-learning-trial","115","713343","0.0-9.0-2.0-1.21","5810","1","10","Male","approach_avoid_spark_v1","""event"",""trial"",""time""
""fullscreenenter"",""1"",""1934""
","
","
","""event"",""trial"",""time""
""fullscreenenter"",""1"",""1934""
","
","","","","","","993.5","images/rabbit4.png","","","learning","1","1","1","1","rabbit","pets","1","0","","good","[3]"
"html-keyboard-response","116","713847","0.0-9.0-2.0-0.22","5810","1","10","Male","approach_avoid_spark_v1","""event"",""trial"",""time""
""fullscreenenter"",""1"",""1934""
","
","
","""event"",""trial"",""time""
""fullscreenenter"",""1"",""1934""
","
","","","","","","null","<div style=""font-size:60px;"">+</div>","null","","fixation","","","","","","","","","","",""
"aa-learning-trial","117","716856","0.0-9.0-2.0-1.22","5810","1","10","Male","approach_avoid_spark_v1","""event"",""trial"",""time""
""fullscreenenter"",""1"",""1934""
","
","
","""event"",""trial"",""time""
""fullscreenenter"",""1"",""1934""
","
","","","","","","1047.3999999985099","images/dog6.png","","","learning","-6","0","0","0","dog","pets","1","0","","bad","[-5]"
"html-keyboard-response","118","717359","0.0-9.0-2.0-0.23","5810","1","10","Male","approach_avoid_spark_v1","""event"",""trial"",""time""
""fullscreenenter"",""1"",""1934""
","
","
","""event"",""trial"",""time""
""fullscreenenter"",""1"",""1934""
","
","","","","","","null","<div style=""font-size:60px;"">+</div>","null","","fixation","","","","","","","","","","",""
"aa-learning-trial","119","720368","0.0-9.0-2.0-1.23","5810","1","10","Male","approach_avoid_spark_v1","""event"",""trial"",""time""
""fullscreenenter"",""1"",""1934""
","
","
","""event"",""trial"",""time""
""fullscreenenter"",""1"",""1934""
","
","","","","","","1630.3999999985099","images/dog7.png","","","learning","-7","0","0","0","dog","pets","1","0","","bad","[-5]"
"html-keyboard-response","120","720871","0.0-9.0-2.0-0.24","5810","1","10","Male","approach_avoid_spark_v1","""event"",""trial"",""time""
""fullscreenenter"",""1"",""1934""
","
","
","""event"",""trial"",""time""
""fullscreenenter"",""1"",""1934""
","
","","","","","","null","<div style=""font-size:60px;"">+</div>","null","","fixation","","","","","","","","","","",""
"aa-learning-trial","121","723879","0.0-9.0-2.0-1.24","5810","1","10","Male","approach_avoid_spark_v1","""event"",""trial"",""time""
""fullscreenenter"",""1"",""1934""
","
","
","""event"",""trial"",""time""
""fullscreenenter"",""1"",""1934""
","
","","","","","","727.7000000029802","images/rabbit4.png","","","learning","4","4","1","1","rabbit","pets","1","0","","good","[3]"
"html-keyboard-response","122","724383","0.0-9.0-2.0-0.25","5810","1","10","Male","approach_avoid_spark_v1","""event"",""trial"",""time""
""fullscreenenter"",""1"",""1934""
","
","
","""event"",""trial"",""time""
""fullscreenenter"",""1"",""1934""
","
","","","","","","null","<div style=""font-size:60px;"">+</div>","null","","fixation","","","","","","","","","","",""
"aa-learning-trial","123","727389","0.0-9.0-2.0-1.25","5810","1","10","Male","approach_avoid_spark_v1","""event"",""trial"",""time""
""fullscreenenter"",""1"",""1934""
","
","
","""event"",""trial"",""time""
""fullscreenenter"",""1"",""1934""
","
","","","","","","2670.7999999970198","images/rodent5.png","","","learning","2","2","1","1","rodent","pets","1","0","","neutral","0"
"html-keyboard-response","124","727895","0.0-9.0-2.0-0.26","5810","1","10","Male","approach_avoid_spark_v1","""event"",""trial"",""time""
""fullscreenenter"",""1"",""1934""
","
","
","""event"",""trial"",""time""
""fullscreenenter"",""1"",""1934""
","
","","","","","","null","<div style=""font-size:60px;"">+</div>","null","","fixation","","","","","","","","","","",""
"aa-learning-trial","125","730903","0.0-9.0-2.0-1.26","5810","1","10","Male","approach_avoid_spark_v1","""event"",""trial"",""time""
""fullscreenenter"",""1"",""1934""
","
","
","""event"",""trial"",""time""
""fullscreenenter"",""1"",""1934""
","
","","","","","","1173.199999999255","images/rodent5.png","","","learning","-1","-1","1","1","rodent","pets","1","0","","neutral","0"
"html-keyboard-response","126","731406","0.0-9.0-2.0-0.27","5810","1","10","Male","approach_avoid_spark_v1","""event"",""trial"",""time""
""fullscreenenter"",""1"",""1934""
","
","
","""event"",""trial"",""time""
""fullscreenenter"",""1"",""1934""
","
","","","","","","null","<div style=""font-size:60px;"">+</div>","null","","fixation","","","","","","","","","","",""
"aa-learning-trial","127","734415","0.0-9.0-2.0-1.27","5810","1","10","Male","approach_avoid_spark_v1","""event"",""trial"",""time""
""fullscreenenter"",""1"",""1934""
","
","
","""event"",""trial"",""time""
""fullscreenenter"",""1"",""1934""
","
","","","","","","1647.2000000029802","images/dog1.png","","","learning","-6","0","0","0","dog","pets","1","0","","bad","[-5]"
"html-keyboard-response","128","734919","0.0-9.0-2.0-0.28","5810","1","10","Male","approach_avoid_spark_v1","""event"",""trial"",""time""
""fullscreenenter"",""1"",""1934""
","
","
","""event"",""trial"",""time""
""fullscreenenter"",""1"",""1934""
","
","","","","","","null","<div style=""font-size:60px;"">+</div>","null","","fixation","","","","","","","","","","",""
"aa-learning-trial","129","737928","0.0-9.0-2.0-1.28","5810","1","10","Male","approach_avoid_spark_v1","""event"",""trial"",""time""
""fullscreenenter"",""1"",""1934""
","
","
","""event"",""trial"",""time""
""fullscreenenter"",""1"",""1934""
","
","","","","","","1189.5","images/dog2.png","","","learning","-5","0","0","0","dog","pets","1","0","","bad","[-5]"
"html-keyboard-response","130","738431","0.0-9.0-2.0-0.29","5810","1","10","Male","approach_avoid_spark_v1","""event"",""trial"",""time""
""fullscreenenter"",""1"",""1934""
","
","
","""event"",""trial"",""time""
""fullscreenenter"",""1"",""1934""
","
","","","","","","null","<div style=""font-size:60px;"">+</div>","null","","fixation","","","","","","","","","","",""
"aa-learning-trial","131","741439","0.0-9.0-2.0-1.29","5810","1","10","Male","approach_avoid_spark_v1","""event"",""trial"",""time""
""fullscreenenter"",""1"",""1934""
","
","
","""event"",""trial"",""time""
""fullscreenenter"",""1"",""1934""
","
","","","","","","798.0999999977648","images/rabbit5.png","","","learning","3","3","1","1","rabbit","pets","1","0","","good","[3]"
"html-keyboard-response","132","741943","0.0-9.0-2.0-0.30","5810","1","10","Male","approach_avoid_spark_v1","""event"",""trial"",""time""
""fullscreenenter"",""1"",""1934""
","
","
","""event"",""trial"",""time""
""fullscreenenter"",""1"",""1934""
","
","","","","","","null","<div style=""font-size:60px;"">+</div>","null","","fixation","","","","","","","","","","",""
"aa-learning-trial","133","744951","0.0-9.0-2.0-1.30","5810","1","10","Male","approach_avoid_spark_v1","""event"",""trial"",""time""
""fullscreenenter"",""1"",""1934""
","
","
","""event"",""trial"",""time""
""fullscreenenter"",""1"",""1934""
","
","","","","","","820.8000000007451","images/rabbit4.png","","","learning","2","2","1","1","rabbit","pets","1","0","","good","[3]"
"html-keyboard-response","134","745455","0.0-9.0-2.0-0.31","5810","1","10","Male","approach_avoid_spark_v1","""event"",""trial"",""time""
""fullscreenenter"",""1"",""1934""
","
","
","""event"",""trial"",""time""
""fullscreenenter"",""1"",""1934""
","
","","","","","","null","<div style=""font-size:60px;"">+</div>","null","","fixation","","","","","","","","","","",""
"aa-learning-trial","135","748463","0.0-9.0-2.0-1.31","5810","1","10","Male","approach_avoid_spark_v1","""event"",""trial"",""time""
""fullscreenenter"",""1"",""1934""
","
","
","""event"",""trial"",""time""
""fullscreenenter"",""1"",""1934""
","
","","","","","","1374.7000000029802","images/dog8.png","","","learning","-6","-6","1","1","dog","pets","1","0","","bad","[-5]"
"html-keyboard-response","136","748967","0.0-9.0-2.0-0.32","5810","1","10","Male","approach_avoid_spark_v1","""event"",""trial"",""time""
""fullscreenenter"",""1"",""1934""
","
","
","""event"",""trial"",""time""
""fullscreenenter"",""1"",""1934""
","
","","","","","","null","<div style=""font-size:60px;"">+</div>","null","","fixation","","","","","","","","","","",""
"aa-learning-trial","137","751976","0.0-9.0-2.0-1.32","5810","1","10","Male","approach_avoid_spark_v1","""event"",""trial"",""time""
""fullscreenenter"",""1"",""1934""
","
","
","""event"",""trial"",""time""
""fullscreenenter"",""1"",""1934""
","
","","","","","","1284.699999999255","images/rodent2.png","","","learning","-1","-1","1","1","rodent","pets","1","0","","neutral","0"
"html-keyboard-response","138","752479","0.0-9.0-2.0-0.33","5810","1","10","Male","approach_avoid_spark_v1","""event"",""trial"",""time""
""fullscreenenter"",""1"",""1934""
","
","
","""event"",""trial"",""time""
""fullscreenenter"",""1"",""1934""
","
","","","","","","null","<div style=""font-size:60px;"">+</div>","null","","fixation","","","","","","","","","","",""
"aa-learning-trial","139","755488","0.0-9.0-2.0-1.33","5810","1","10","Male","approach_avoid_spark_v1","""event"",""trial"",""time""
""fullscreenenter"",""1"",""1934""
","
","
","""event"",""trial"",""time""
""fullscreenenter"",""1"",""1934""
","
","","","","","","1325","images/rabbit8.png","","","learning","6","6","1","1","rabbit","pets","1","0","","good","[3]"
"html-keyboard-response","140","755991","0.0-9.0-2.0-0.34","5810","1","10","Male","approach_avoid_spark_v1","""event"",""trial"",""time""
""fullscreenenter"",""1"",""1934""
","
","
","""event"",""trial"",""time""
""fullscreenenter"",""1"",""1934""
","
","","","","","","null","<div style=""font-size:60px;"">+</div>","null","","fixation","","","","","","","","","","",""
"aa-learning-trial","141","758999","0.0-9.0-2.0-1.34","5810","1","10","Male","approach_avoid_spark_v1","""event"",""trial"",""time""
""fullscreenenter"",""1"",""1934""
","
","
","""event"",""trial"",""time""
""fullscreenenter"",""1"",""1934""
","
","","","","","","1172.699999999255","images/rabbit5.png","","","learning","4","4","1","1","rabbit","pets","1","0","","good","[3]"
"html-keyboard-response","142","759503","0.0-9.0-2.0-0.35","5810","1","10","Male","approach_avoid_spark_v1","""event"",""trial"",""time""
""fullscreenenter"",""1"",""1934""
","
","
","""event"",""trial"",""time""
""fullscreenenter"",""1"",""1934""
","
","","","","","","null","<div style=""font-size:60px;"">+</div>","null","","fixation","","","","","","","","","","",""
"aa-learning-trial","143","762513","0.0-9.0-2.0-1.35","5810","1","10","Male","approach_avoid_spark_v1","""event"",""trial"",""time""
""fullscreenenter"",""1"",""1934""
","
","
","""event"",""trial"",""time""
""fullscreenenter"",""1"",""1934""
","
","","","","","","1083.800000000745","images/rodent4.png","","","learning","1","0","0","0","rodent","pets","1","0","","neutral","0"
"html-keyboard-response","144","763023","0.0-9.0-2.0-0.36","5810","1","10","Male","approach_avoid_spark_v1","""event"",""trial"",""time""
""fullscreenenter"",""1"",""1934""
","
","
","""event"",""trial"",""time""
""fullscreenenter"",""1"",""1934""
","
","","","","","","null","<div style=""font-size:60px;"">+</div>","null","","fixation","","","","","","","","","","",""
"aa-learning-trial","145","766031","0.0-9.0-2.0-1.36","5810","1","10","Male","approach_avoid_spark_v1","""event"",""trial"",""time""
""fullscreenenter"",""1"",""1934""
","
","
","""event"",""trial"",""time""
""fullscreenenter"",""1"",""1934""
","
","","","","","","1324.5999999977648","images/rabbit5.png","","","learning","1","1","1","1","rabbit","pets","1","0","","good","[3]"
"html-keyboard-response","146","766535","0.0-9.0-2.0-0.37","5810","1","10","Male","approach_avoid_spark_v1","""event"",""trial"",""time""
""fullscreenenter"",""1"",""1934""
","
","
","""event"",""trial"",""time""
""fullscreenenter"",""1"",""1934""
","
","","","","","","null","<div style=""font-size:60px;"">+</div>","null","","fixation","","","","","","","","","","",""
"aa-learning-trial","147","769543","0.0-9.0-2.0-1.37","5810","1","10","Male","approach_avoid_spark_v1","""event"",""trial"",""time""
""fullscreenenter"",""1"",""1934""
","
","
","""event"",""trial"",""time""
""fullscreenenter"",""1"",""1934""
","
","","","","","","1590.300000000745","images/rodent8.png","","","learning","[-1]","-1","1","1","rodent","pets","1","0","","neutral","0"
"html-keyboard-response","148","770051","0.0-9.0-2.0-0.38","5810","1","10","Male","approach_avoid_spark_v1","""event"",""trial"",""time""
""fullscreenenter"",""1"",""1934""
","
","
","""event"",""trial"",""time""
""fullscreenenter"",""1"",""1934""
","
","","","","","","null","<div style=""font-size:60px;"">+</div>","null","","fixation","","","","","","","","","","",""
"aa-learning-trial","149","773059","0.0-9.0-2.0-1.38","5810","1","10","Male","approach_avoid_spark_v1","""event"",""trial"",""time""
""fullscreenenter"",""1"",""1934""
","
","
","""event"",""trial"",""time""
""fullscreenenter"",""1"",""1934""
","
","","","","","","1115.2000000029802","images/dog1.png","","","learning","-5","0","0","0","dog","pets","1","0","","bad","[-5]"
"html-keyboard-response","150","773562","0.0-9.0-2.0-0.39","5810","1","10","Male","approach_avoid_spark_v1","""event"",""trial"",""time""
""fullscreenenter"",""1"",""1934""
","
","
","""event"",""trial"",""time""
""fullscreenenter"",""1"",""1934""
","
","","","","","","null","<div style=""font-size:60px;"">+</div>","null","","fixation","","","","","","","","","","",""
"aa-learning-trial","151","776571","0.0-9.0-2.0-1.39","5810","1","10","Male","approach_avoid_spark_v1","""event"",""trial"",""time""
""fullscreenenter"",""1"",""1934""
","
","
","""event"",""trial"",""time""
""fullscreenenter"",""1"",""1934""
","
","","","","","","1315.199999999255","images/dog7.png","","","learning","-7","0","0","0","dog","pets","1","0","","bad","[-5]"
"html-keyboard-response","152","777074","0.0-9.0-2.0-0.40","5810","1","10","Male","approach_avoid_spark_v1","""event"",""trial"",""time""
""fullscreenenter"",""1"",""1934""
","
","
","""event"",""trial"",""time""
""fullscreenenter"",""1"",""1934""
","
","","","","","","null","<div style=""font-size:60px;"">+</div>","null","","fixation","","","","","","","","","","",""
"aa-learning-trial","153","780082","0.0-9.0-2.0-1.40","5810","1","10","Male","approach_avoid_spark_v1","""event"",""trial"",""time""
""fullscreenenter"",""1"",""1934""
","
","
","""event"",""trial"",""time""
""fullscreenenter"",""1"",""1934""
","
","","","","","","1260.199999999255","images/rabbit3.png","","","learning","3","3","1","1","rabbit","pets","1","0","","good","[3]"
"html-keyboard-response","154","780586","0.0-9.0-2.0-0.41","5810","1","10","Male","approach_avoid_spark_v1","""event"",""trial"",""time""
""fullscreenenter"",""1"",""1934""
","
","
","""event"",""trial"",""time""
""fullscreenenter"",""1"",""1934""
","
","","","","","","null","<div style=""font-size:60px;"">+</div>","null","","fixation","","","","","","","","","","",""
"aa-learning-trial","155","783594","0.0-9.0-2.0-1.41","5810","1","10","Male","approach_avoid_spark_v1","""event"",""trial"",""time""
""fullscreenenter"",""1"",""1934""
","
","
","""event"",""trial"",""time""
""fullscreenenter"",""1"",""1934""
","
","","","","","","1235.8999999985099","images/dog7.png","","","learning","-4","0","0","0","dog","pets","1","0","","bad","[-5]"
"html-keyboard-response","156","784098","0.0-9.0-2.0-0.42","5810","1","10","Male","approach_avoid_spark_v1","""event"",""trial"",""time""
""fullscreenenter"",""1"",""1934""
","
","
","""event"",""trial"",""time""
""fullscreenenter"",""1"",""1934""
","
","","","","","","null","<div style=""font-size:60px;"">+</div>","null","","fixation","","","","","","","","","","",""
"aa-learning-trial","157","787106","0.0-9.0-2.0-1.42","5810","1","10","Male","approach_avoid_spark_v1","""event"",""trial"",""time""
""fullscreenenter"",""1"",""1934""
","
","
","""event"",""trial"",""time""
""fullscreenenter"",""1"",""1934""
","
","","","","","","1210.8999999985099","images/rodent5.png","","","learning","1","0","0","0","rodent","pets","1","0","","neutral","0"
"html-keyboard-response","158","787610","0.0-9.0-2.0-0.43","5810","1","10","Male","approach_avoid_spark_v1","""event"",""trial"",""time""
""fullscreenenter"",""1"",""1934""
","
","
","""event"",""trial"",""time""
""fullscreenenter"",""1"",""1934""
","
","","","","","","null","<div style=""font-size:60px;"">+</div>","null","","fixation","","","","","","","","","","",""
"aa-learning-trial","159","790619","0.0-9.0-2.0-1.43","5810","1","10","Male","approach_avoid_spark_v1","""event"",""trial"",""time""
""fullscreenenter"",""1"",""1934""
","
","
","""event"",""trial"",""time""
""fullscreenenter"",""1"",""1934""
","
","","","","","","1155.199999999255","images/dog6.png","","","learning","-6","0","0","0","dog","pets","1","0","","bad","[-5]"
"html-keyboard-response","160","791122","0.0-9.0-2.0-0.44","5810","1","10","Male","approach_avoid_spark_v1","""event"",""trial"",""time""
""fullscreenenter"",""1"",""1934""
","
","
","""event"",""trial"",""time""
""fullscreenenter"",""1"",""1934""
","
","","","","","","null","<div style=""font-size:60px;"">+</div>","null","","fixation","","","","","","","","","","",""
"aa-learning-trial","161","794131","0.0-9.0-2.0-1.44","5810","1","10","Male","approach_avoid_spark_v1","""event"",""trial"",""time""
""fullscreenenter"",""1"",""1934""
","
","
","""event"",""trial"",""time""
""fullscreenenter"",""1"",""1934""
","
","","","","","","970.0999999977648","images/dog6.png","","","learning","-3","0","0","0","dog","pets","1","0","","bad","[-5]"
"html-keyboard-response","162","794634","0.0-9.0-2.0-0.45","5810","1","10","Male","approach_avoid_spark_v1","""event"",""trial"",""time""
""fullscreenenter"",""1"",""1934""
","
","
","""event"",""trial"",""time""
""fullscreenenter"",""1"",""1934""
","
","","","","","","null","<div style=""font-size:60px;"">+</div>","null","","fixation","","","","","","","","","","",""
"aa-learning-trial","163","797642","0.0-9.0-2.0-1.45","5810","1","10","Male","approach_avoid_spark_v1","""event"",""trial"",""time""
""fullscreenenter"",""1"",""1934""
","
","
","""event"",""trial"",""time""
""fullscreenenter"",""1"",""1934""
","
","","","","","","1411.5","images/rodent8.png","","","learning","[-1]","-1","1","1","rodent","pets","1","0","","neutral","0"
"html-keyboard-response","164","798146","0.0-9.0-2.0-0.46","5810","1","10","Male","approach_avoid_spark_v1","""event"",""trial"",""time""
""fullscreenenter"",""1"",""1934""
","
","
","""event"",""trial"",""time""
""fullscreenenter"",""1"",""1934""
","
","","","","","","null","<div style=""font-size:60px;"">+</div>","null","","fixation","","","","","","","","","","",""
"aa-learning-trial","165","801154","0.0-9.0-2.0-1.46","5810","1","10","Male","approach_avoid_spark_v1","""event"",""trial"",""time""
""fullscreenenter"",""1"",""1934""
","
","
","""event"",""trial"",""time""
""fullscreenenter"",""1"",""1934""
","
","","","","","","1372","images/rabbit8.png","","","learning","2","2","1","1","rabbit","pets","1","0","","good","[3]"
"html-keyboard-response","166","801657","0.0-9.0-2.0-0.47","5810","1","10","Male","approach_avoid_spark_v1","""event"",""trial"",""time""
""fullscreenenter"",""1"",""1934""
","
","
","""event"",""trial"",""time""
""fullscreenenter"",""1"",""1934""
","
","","","","","","null","<div style=""font-size:60px;"">+</div>","null","","fixation","","","","","","","","","","",""
"aa-learning-trial","167","804666","0.0-9.0-2.0-1.47","5810","1","10","Male","approach_avoid_spark_v1","""event"",""trial"",""time""
""fullscreenenter"",""1"",""1934""
","
","
","""event"",""trial"",""time""
""fullscreenenter"",""1"",""1934""
","
","","","","","","1074.4000000022352","images/rodent5.png","","","learning","1","1","1","1","rodent","pets","1","0","","neutral","0"
"html-keyboard-response","168","805169","0.0-9.0-2.0-0.48","5810","1","10","Male","approach_avoid_spark_v1","""event"",""trial"",""time""
""fullscreenenter"",""1"",""1934""
","
","
","""event"",""trial"",""time""
""fullscreenenter"",""1"",""1934""
","
","","","","","","null","<div style=""font-size:60px;"">+</div>","null","","fixation","","","","","","","","","","",""
"aa-learning-trial","169","808179","0.0-9.0-2.0-1.48","5810","1","10","Male","approach_avoid_spark_v1","""event"",""trial"",""time""
""fullscreenenter"",""1"",""1934""
","
","
","""event"",""trial"",""time""
""fullscreenenter"",""1"",""1934""
","
","","","","","","1642.6000000014901","images/rodent3.png","","","learning","1","0","0","0","rodent","pets","1","0","","neutral","0"
"html-keyboard-response","170","808682","0.0-9.0-2.0-0.49","5810","1","10","Male","approach_avoid_spark_v1","""event"",""trial"",""time""
""fullscreenenter"",""1"",""1934""
","
","
","""event"",""trial"",""time""
""fullscreenenter"",""1"",""1934""
","
","","","","","","null","<div style=""font-size:60px;"">+</div>","null","","fixation","","","","","","","","","","",""
"aa-learning-trial","171","811690","0.0-9.0-2.0-1.49","5810","1","10","Male","approach_avoid_spark_v1","""event"",""trial"",""time""
""fullscreenenter"",""1"",""1934""
","
","
","""event"",""trial"",""time""
""fullscreenenter"",""1"",""1934""
","
","","","","","","1349.5","images/rodent8.png","","","learning","-3","-3","1","1","rodent","pets","1","0","","neutral","0"
"html-keyboard-response","172","812194","0.0-9.0-2.0-0.50","5810","1","10","Male","approach_avoid_spark_v1","""event"",""trial"",""time""
""fullscreenenter"",""1"",""1934""
","
","
","""event"",""trial"",""time""
""fullscreenenter"",""1"",""1934""
","
","","","","","","null","<div style=""font-size:60px;"">+</div>","null","","fixation","","","","","","","","","","",""
"aa-learning-trial","173","815202","0.0-9.0-2.0-1.50","5810","1","10","Male","approach_avoid_spark_v1","""event"",""trial"",""time""
""fullscreenenter"",""1"",""1934""
","
","
","""event"",""trial"",""time""
""fullscreenenter"",""1"",""1934""
","
","","","","","","1273.300000000745","images/dog7.png","","","learning","-1","0","0","0","dog","pets","1","0","","bad","[-5]"
"html-button-response","174","819159","0.0-9.0-3.0","5810","1","10","Male","approach_avoid_spark_v1","""event"",""trial"",""time""
""fullscreenenter"",""1"",""1934""
","
","
","""event"",""trial"",""time""
""fullscreenenter"",""1"",""1934""
","
","","","","","","3953.699999999255","<p> You have completed the round! <p> In this round, you earned 19 points! </p>","0","","break","","","","","","","","","","",""
"html-button-response","175","822542","0.0-10.0","5810","1","10","Male","approach_avoid_spark_v1","""event"",""trial"",""time""
""fullscreenenter"",""1"",""1934""
","
","
","""event"",""trial"",""time""
""fullscreenenter"",""1"",""1934""
","
","","","","","","3382.599999997765","<p> Now it's time to play another round. </p>","0","","transition_screen","","","","","","","","","","",""
"preload","176","822679","0.0-11.0-0.0","5810","1","10","Male","approach_avoid_spark_v1","""event"",""trial"",""time""
""fullscreenenter"",""1"",""1934""
","
","
","""event"",""trial"",""time""
""fullscreenenter"",""1"",""1934""
","
","true","false","[]","[]","[]","","","","","","","","","","","","","","","",""
"learning-instructions","177","831298","0.0-11.0-1.0-0.0","5810","1","10","Male","approach_avoid_spark_v1","""event"",""trial"",""time""
""fullscreenenter"",""1"",""1934""
","
","
","""event"",""trial"",""time""
""fullscreenenter"",""1"",""1934""
","
","","","","","","2336.199999999255","<p> Your goal in this round is to sell different plants to a picky customer. </p></div>","","0","instructions","","","","","","","","","","",""
"learning-instructions","178","846730","0.0-11.0-1.0-0.1","5810","1","10","Male","approach_avoid_spark_v1","""event"",""trial"",""time""
""fullscreenenter"",""1"",""1934""
","
","
","""event"",""trial"",""time""
""fullscreenenter"",""1"",""1934""
","
","","","","","","1688.199999999255","<p> The customer likes some plants and dislikes others.  </p><p> On each turn, you will see a plant.   </p><p> You need to decide whether to offer it to the customer or not.  </p>","","0","instructions","","","","","","","","","","",""
"learning-instructions","179","855065","0.0-11.0-1.0-0.2","5810","1","10","Male","approach_avoid_spark_v1","""event"",""trial"",""time""
""fullscreenenter"",""1"",""1934""
","
","
","""event"",""trial"",""time""
""fullscreenenter"",""1"",""1934""
","
","","","","","","1302.800000000745","<p> You can offer the plant by pressing 1 and decide to not offer it by pressing 0. </p><br><div class=""choice-instructions-grid""> <div class=""choice-option""><img src=""images/approach.png"" class=""choice-option-img"" stage=""instructions"" position=""0"" ><div class=""choice-option-text""> Press ""1."" </div></div><div class=""choice-option""><img src=""images/avoid.png"" class=""choice-option-img"" stage=""instructions"" position=""1"" ><div class=""choice-option-text""> Press ""0."" </div></div>","","0","instructions","","","","","","","","","","",""
"learning-instructions","180","869056","0.0-11.0-1.0-0.3","5810","1","10","Male","approach_avoid_spark_v1","""event"",""trial"",""time""
""fullscreenenter"",""1"",""1934""
","
","
","""event"",""trial"",""time""
""fullscreenenter"",""1"",""1934""
","
","","","","","","1146.3999999985099","<p> If you offer a plant to the customer that she likes, she will be very pleased! </p><p> But if you offer a plant that she does NOT like, she will be annoyed. </p>","","0","instructions","","","","","","","","","","",""
"learning-instructions","181","885959","0.0-11.0-1.0-0.4","5810","1","10","Male","approach_avoid_spark_v1","""event"",""trial"",""time""
""fullscreenenter"",""1"",""1934""
","
","
","""event"",""trial"",""time""
""fullscreenenter"",""1"",""1934""
","
","","","","","","1380.5","<p> You will earn points based on how you made the customer feel. </p><p> If you made her pleased, you will WIN anywhere from 1 - 9 points, </p><p> but if you made her annoyed, you will LOSE anywhere from 1 - 9 points. </p>","","0","instructions","","","","","","","","","","",""
"learning-instructions","182","893587","0.0-11.0-1.0-0.5","5810","1","10","Male","approach_avoid_spark_v1","""event"",""trial"",""time""
""fullscreenenter"",""1"",""1934""
","
","
","""event"",""trial"",""time""
""fullscreenenter"",""1"",""1934""
","
","","","","","","973.7999999970198","<p> You will see how many points you won or lost in the center of the screen. </p><p> Here is what you would see if you won 5 points: </p><p style=""color:green;font-size:50px;font-weight:bolder"">5</p>","","0","instructions","","","","","","","","","","",""
"learning-instructions","183","897267","0.0-11.0-1.0-0.6","5810","1","10","Male","approach_avoid_spark_v1","""event"",""trial"",""time""
""fullscreenenter"",""1"",""1934""
","
","
","""event"",""trial"",""time""
""fullscreenenter"",""1"",""1934""
","
","","","","","","844.1999999992549","<p> And here is what you would see if you lost 3 points: </p><p style=""color:red;font-size:50px;font-weight:bolder"">-3</p>","","0","instructions","","","","","","","","","","",""
"learning-instructions","184","922802","0.0-11.0-1.0-0.7","5810","1","10","Male","approach_avoid_spark_v1","""event"",""trial"",""time""
""fullscreenenter"",""1"",""1934""
","
","
","""event"",""trial"",""time""
""fullscreenenter"",""1"",""1934""
","
","","","","","","900.5","<p> Some plants will make the customer VERY pleased or annoyed. </p><p> These plants will make you win or lose LOTS of points. </p><p> The customer will have less strong feelings about other plants. </p><p> These plants will make you win or lose small amounts of points. </p>","","0","instructions","","","","","","","","","","",""
"learning-instructions","185","937585","0.0-11.0-1.0-0.8","5810","1","10","Male","approach_avoid_spark_v1","""event"",""trial"",""time""
""fullscreenenter"",""1"",""1934""
","
","
","""event"",""trial"",""time""
""fullscreenenter"",""1"",""1934""
","
","","","","","","1374.199999999255","<p> If you choose to not offer the plant to the customer, you will not win or lose any points. </p><p>  However, in the center of the screen, you will see the number of points you WOULD HAVE won or lost if you had offered the plant. </p>","","0","instructions","","","","","","","","","","",""
"learning-instructions","186","953163","0.0-11.0-1.0-0.9","5810","1","10","Male","approach_avoid_spark_v1","""event"",""trial"",""time""
""fullscreenenter"",""1"",""1934""
","
","
","""event"",""trial"",""time""
""fullscreenenter"",""1"",""1934""
","
","","","","","","820.1999999992549","<p> Here is what you might see if you did not offer the plant but the customer would have liked it: </p><p style=""color:grey; font-size:50px; display: inline-block; border-spacing: 15px; border-width:3px; border-style:solid; border-color:red"">  &nbsp; 6 &nbsp; </p><p> Remember, in this case, you would not win or lose ANY points because you did not offer the plant.  </p>","","0","instructions","","","","","","","","","","",""
"learning-instructions","187","969962","0.0-11.0-1.0-0.10","5810","1","10","Male","approach_avoid_spark_v1","""event"",""trial"",""time""
""fullscreenenter"",""1"",""1934""
","
","
","""event"",""trial"",""time""
""fullscreenenter"",""1"",""1934""
","
","","","","","","1071","<p> Try to make the best choice for each plant because </p><p> at the end of the game, you will earn bonus money based on how many points you earned. </p>","","0","instructions","","","","","","","","","","",""
"learning-instructions","188","979017","0.0-11.0-1.0-0.11","5810","1","10","Male","approach_avoid_spark_v1","""event"",""trial"",""time""
""fullscreenenter"",""1"",""1934""
","
","
","""event"",""trial"",""time""
""fullscreenenter"",""1"",""1934""
","
","","","","","","866.8999999985099","<p> You will have 3 seconds to make each choice. Try to respond before time runs out! </p><p> You will lose 5 points each time you do not make a response. </p>","","0","instructions","","","","","","","","","","",""
"html-keyboard-response","189","979628","0.0-11.0-2.0-0.0","5810","1","10","Male","approach_avoid_spark_v1","""event"",""trial"",""time""
""fullscreenenter"",""1"",""1934""
","
","
","""event"",""trial"",""time""
""fullscreenenter"",""1"",""1934""
","
","","","","","","null","<div style=""font-size:60px;"">+</div>","null","","fixation","","","","","","","","","","",""
"aa-learning-trial","190","982637","0.0-11.0-2.0-1.0","5810","1","10","Male","approach_avoid_spark_v1","""event"",""trial"",""time""
""fullscreenenter"",""1"",""1934""
","
","
","""event"",""trial"",""time""
""fullscreenenter"",""1"",""1934""
","
","","","","","","2112.199999999255","images/tree8.png","","","learning","-4","0","0","0","tree","plants","2","1","","good","[4]"
"html-keyboard-response","191","983141","0.0-11.0-2.0-0.1","5810","1","10","Male","approach_avoid_spark_v1","""event"",""trial"",""time""
""fullscreenenter"",""1"",""1934""
","
","
","""event"",""trial"",""time""
""fullscreenenter"",""1"",""1934""
","
","","","","","","null","<div style=""font-size:60px;"">+</div>","null","","fixation","","","","","","","","","","",""
"aa-learning-trial","192","986149","0.0-11.0-2.0-1.1","5810","1","10","Male","approach_avoid_spark_v1","""event"",""trial"",""time""
""fullscreenenter"",""1"",""1934""
","
","
","""event"",""trial"",""time""
""fullscreenenter"",""1"",""1934""
","
","","","","","","1431.4000000022352","images/cactus5.png","","","learning","-1","0","0","0","cactus","plants","2","1","","neutral","0"
"html-keyboard-response","193","986653","0.0-11.0-2.0-0.2","5810","1","10","Male","approach_avoid_spark_v1","""event"",""trial"",""time""
""fullscreenenter"",""1"",""1934""
","
","
","""event"",""trial"",""time""
""fullscreenenter"",""1"",""1934""
","
","","","","","","null","<div style=""font-size:60px;"">+</div>","null","","fixation","","","","","","","","","","",""
"aa-learning-trial","194","989661","0.0-11.0-2.0-1.2","5810","1","10","Male","approach_avoid_spark_v1","""event"",""trial"",""time""
""fullscreenenter"",""1"",""1934""
","
","
","""event"",""trial"",""time""
""fullscreenenter"",""1"",""1934""
","
","","","","","","1278.5999999977648","images/cactus8.png","","","learning","-5","-5","1","1","cactus","plants","2","1","","neutral","0"
"html-keyboard-response","195","990164","0.0-11.0-2.0-0.3","5810","1","10","Male","approach_avoid_spark_v1","""event"",""trial"",""time""
""fullscreenenter"",""1"",""1934""
","
","
","""event"",""trial"",""time""
""fullscreenenter"",""1"",""1934""
","
","","","","","","null","<div style=""font-size:60px;"">+</div>","null","","fixation","","","","","","","","","","",""
"aa-learning-trial","196","993170","0.0-11.0-2.0-1.3","5810","1","10","Male","approach_avoid_spark_v1","""event"",""trial"",""time""
""fullscreenenter"",""1"",""1934""
","
","
","""event"",""trial"",""time""
""fullscreenenter"",""1"",""1934""
","
","","","","","","2072.800000000745","images/tree7.png","","","learning","9","9","1","1","tree","plants","2","1","","good","[4]"
"html-keyboard-response","197","993676","0.0-11.0-2.0-0.4","5810","1","10","Male","approach_avoid_spark_v1","""event"",""trial"",""time""
""fullscreenenter"",""1"",""1934""
","
","
","""event"",""trial"",""time""
""fullscreenenter"",""1"",""1934""
","
","","","","","","null","<div style=""font-size:60px;"">+</div>","null","","fixation","","","","","","","","","","",""
"aa-learning-trial","198","996684","0.0-11.0-2.0-1.4","5810","1","10","Male","approach_avoid_spark_v1","""event"",""trial"",""time""
""fullscreenenter"",""1"",""1934""
","
","
","""event"",""trial"",""time""
""fullscreenenter"",""1"",""1934""
","
","","","","","","1328.5","images/bush7.png","","","learning","1","1","1","1","bush","plants","2","1","","bad","[-5]"
"html-keyboard-response","199","997188","0.0-11.0-2.0-0.5","5810","1","10","Male","approach_avoid_spark_v1","""event"",""trial"",""time""
""fullscreenenter"",""1"",""1934""
","
","
","""event"",""trial"",""time""
""fullscreenenter"",""1"",""1934""
","
","","","","","","null","<div style=""font-size:60px;"">+</div>","null","","fixation","","","","","","","","","","",""
"aa-learning-trial","200","1000197","0.0-11.0-2.0-1.5","5810","1","10","Male","approach_avoid_spark_v1","""event"",""trial"",""time""
""fullscreenenter"",""1"",""1934""
","
","
","""event"",""trial"",""time""
""fullscreenenter"",""1"",""1934""
","
","","","","","","1063.0999999977648","images/bush7.png","","","learning","1","1","1","1","bush","plants","2","1","","bad","[-5]"
"html-keyboard-response","201","1000701","0.0-11.0-2.0-0.6","5810","1","10","Male","approach_avoid_spark_v1","""event"",""trial"",""time""
""fullscreenenter"",""1"",""1934""
","
","
","""event"",""trial"",""time""
""fullscreenenter"",""1"",""1934""
","
","","","","","","null","<div style=""font-size:60px;"">+</div>","null","","fixation","","","","","","","","","","",""
"aa-learning-trial","202","1003709","0.0-11.0-2.0-1.6","5810","1","10","Male","approach_avoid_spark_v1","""event"",""trial"",""time""
""fullscreenenter"",""1"",""1934""
","
","
","""event"",""trial"",""time""
""fullscreenenter"",""1"",""1934""
","
","","","","","","1246.2000000029802","images/tree8.png","","","learning","-4","0","0","0","tree","plants","2","1","","good","[4]"
"html-keyboard-response","203","1004213","0.0-11.0-2.0-0.7","5810","1","10","Male","approach_avoid_spark_v1","""event"",""trial"",""time""
""fullscreenenter"",""1"",""1934""
","
","
","""event"",""trial"",""time""
""fullscreenenter"",""1"",""1934""
","
","","","","","","null","<div style=""font-size:60px;"">+</div>","null","","fixation","","","","","","","","","","",""
"aa-learning-trial","204","1007221","0.0-11.0-2.0-1.7","5810","1","10","Male","approach_avoid_spark_v1","""event"",""trial"",""time""
""fullscreenenter"",""1"",""1934""
","
","
","""event"",""trial"",""time""
""fullscreenenter"",""1"",""1934""
","
","","","","","","1846.800000000745","images/bush8.png","","","learning","-3","0","0","0","bush","plants","2","1","","bad","[-5]"
"html-keyboard-response","205","1007725","0.0-11.0-2.0-0.8","5810","1","10","Male","approach_avoid_spark_v1","""event"",""trial"",""time""
""fullscreenenter"",""1"",""1934""
","
","
","""event"",""trial"",""time""
""fullscreenenter"",""1"",""1934""
","
","","","","","","null","<div style=""font-size:60px;"">+</div>","null","","fixation","","","","","","","","","","",""
"aa-learning-trial","206","1010733","0.0-11.0-2.0-1.8","5810","1","10","Male","approach_avoid_spark_v1","""event"",""trial"",""time""
""fullscreenenter"",""1"",""1934""
","
","
","""event"",""trial"",""time""
""fullscreenenter"",""1"",""1934""
","
","","","","","","1151.199999999255","images/cactus3.png","","","learning","3","0","0","0","cactus","plants","2","1","","neutral","0"
"html-keyboard-response","207","1011236","0.0-11.0-2.0-0.9","5810","1","10","Male","approach_avoid_spark_v1","""event"",""trial"",""time""
""fullscreenenter"",""1"",""1934""
","
","
","""event"",""trial"",""time""
""fullscreenenter"",""1"",""1934""
","
","","","","","","null","<div style=""font-size:60px;"">+</div>","null","","fixation","","","","","","","","","","",""
"aa-learning-trial","208","1014248","0.0-11.0-2.0-1.9","5810","1","10","Male","approach_avoid_spark_v1","""event"",""trial"",""time""
""fullscreenenter"",""1"",""1934""
","
","
","""event"",""trial"",""time""
""fullscreenenter"",""1"",""1934""
","
","","","","","","1206.0999999977648","images/cactus5.png","","","learning","-1","0","0","0","cactus","plants","2","1","","neutral","0"
"html-keyboard-response","209","1014751","0.0-11.0-2.0-0.10","5810","1","10","Male","approach_avoid_spark_v1","""event"",""trial"",""time""
""fullscreenenter"",""1"",""1934""
","
","
","""event"",""trial"",""time""
""fullscreenenter"",""1"",""1934""
","
","","","","","","null","<div style=""font-size:60px;"">+</div>","null","","fixation","","","","","","","","","","",""
"aa-learning-trial","210","1017760","0.0-11.0-2.0-1.10","5810","1","10","Male","approach_avoid_spark_v1","""event"",""trial"",""time""
""fullscreenenter"",""1"",""1934""
","
","
","""event"",""trial"",""time""
""fullscreenenter"",""1"",""1934""
","
","","","","","","1213.7999999970198","images/bush8.png","","","learning","-3","0","0","0","bush","plants","2","1","","bad","[-5]"
"html-keyboard-response","211","1018264","0.0-11.0-2.0-0.11","5810","1","10","Male","approach_avoid_spark_v1","""event"",""trial"",""time""
""fullscreenenter"",""1"",""1934""
","
","
","""event"",""trial"",""time""
""fullscreenenter"",""1"",""1934""
","
","","","","","","null","<div style=""font-size:60px;"">+</div>","null","","fixation","","","","","","","","","","",""
"aa-learning-trial","212","1021272","0.0-11.0-2.0-1.11","5810","1","10","Male","approach_avoid_spark_v1","""event"",""trial"",""time""
""fullscreenenter"",""1"",""1934""
","
","
","""event"",""trial"",""time""
""fullscreenenter"",""1"",""1934""
","
","","","","","","1062.4000000022352","images/bush5.png","","","learning","8","8","1","1","bush","plants","2","1","","bad","[-5]"
"html-keyboard-response","213","1021776","0.0-11.0-2.0-0.12","5810","1","10","Male","approach_avoid_spark_v1","""event"",""trial"",""time""
""fullscreenenter"",""1"",""1934""
","
","
","""event"",""trial"",""time""
""fullscreenenter"",""1"",""1934""
","
","","","","","","null","<div style=""font-size:60px;"">+</div>","null","","fixation","","","","","","","","","","",""
"aa-learning-trial","214","1024784","0.0-11.0-2.0-1.12","5810","1","10","Male","approach_avoid_spark_v1","""event"",""trial"",""time""
""fullscreenenter"",""1"",""1934""
","
","
","""event"",""trial"",""time""
""fullscreenenter"",""1"",""1934""
","
","","","","","","1933.0999999977648","images/tree2.png","","","learning","-7","-7","1","1","tree","plants","2","1","","good","[4]"
"html-keyboard-response","215","1025288","0.0-11.0-2.0-0.13","5810","1","10","Male","approach_avoid_spark_v1","""event"",""trial"",""time""
""fullscreenenter"",""1"",""1934""
","
","
","""event"",""trial"",""time""
""fullscreenenter"",""1"",""1934""
","
","","","","","","null","<div style=""font-size:60px;"">+</div>","null","","fixation","","","","","","","","","","",""
"aa-learning-trial","216","1028296","0.0-11.0-2.0-1.13","5810","1","10","Male","approach_avoid_spark_v1","""event"",""trial"",""time""
""fullscreenenter"",""1"",""1934""
","
","
","""event"",""trial"",""time""
""fullscreenenter"",""1"",""1934""
","
","","","","","","1525","images/cactus8.png","","","learning","-5","0","0","0","cactus","plants","2","1","","neutral","0"
"html-keyboard-response","217","1028799","0.0-11.0-2.0-0.14","5810","1","10","Male","approach_avoid_spark_v1","""event"",""trial"",""time""
""fullscreenenter"",""1"",""1934""
","
","
","""event"",""trial"",""time""
""fullscreenenter"",""1"",""1934""
","
","","","","","","null","<div style=""font-size:60px;"">+</div>","null","","fixation","","","","","","","","","","",""
"aa-learning-trial","218","1031808","0.0-11.0-2.0-1.14","5810","1","10","Male","approach_avoid_spark_v1","""event"",""trial"",""time""
""fullscreenenter"",""1"",""1934""
","
","
","""event"",""trial"",""time""
""fullscreenenter"",""1"",""1934""
","
","","","","","","1886.199999999255","images/tree2.png","","","learning","-7","-7","1","1","tree","plants","2","1","","good","[4]"
"html-keyboard-response","219","1032311","0.0-11.0-2.0-0.15","5810","1","10","Male","approach_avoid_spark_v1","""event"",""trial"",""time""
""fullscreenenter"",""1"",""1934""
","
","
","""event"",""trial"",""time""
""fullscreenenter"",""1"",""1934""
","
","","","","","","null","<div style=""font-size:60px;"">+</div>","null","","fixation","","","","","","","","","","",""
"aa-learning-trial","220","1035320","0.0-11.0-2.0-1.15","5810","1","10","Male","approach_avoid_spark_v1","""event"",""trial"",""time""
""fullscreenenter"",""1"",""1934""
","
","
","""event"",""trial"",""time""
""fullscreenenter"",""1"",""1934""
","
","","","","","","1813","images/tree7.png","","","learning","9","9","1","1","tree","plants","2","1","","good","[4]"
"html-keyboard-response","221","1035824","0.0-11.0-2.0-0.16","5810","1","10","Male","approach_avoid_spark_v1","""event"",""trial"",""time""
""fullscreenenter"",""1"",""1934""
","
","
","""event"",""trial"",""time""
""fullscreenenter"",""1"",""1934""
","
","","","","","","null","<div style=""font-size:60px;"">+</div>","null","","fixation","","","","","","","","","","",""
"aa-learning-trial","222","1038832","0.0-11.0-2.0-1.16","5810","1","10","Male","approach_avoid_spark_v1","""event"",""trial"",""time""
""fullscreenenter"",""1"",""1934""
","
","
","""event"",""trial"",""time""
""fullscreenenter"",""1"",""1934""
","
","","","","","","925.3000000007451","images/cactus8.png","","","learning","-5","0","0","0","cactus","plants","2","1","","neutral","0"
"html-keyboard-response","223","1039336","0.0-11.0-2.0-0.17","5810","1","10","Male","approach_avoid_spark_v1","""event"",""trial"",""time""
""fullscreenenter"",""1"",""1934""
","
","
","""event"",""trial"",""time""
""fullscreenenter"",""1"",""1934""
","
","","","","","","null","<div style=""font-size:60px;"">+</div>","null","","fixation","","","","","","","","","","",""
"aa-learning-trial","224","1042344","0.0-11.0-2.0-1.17","5810","1","10","Male","approach_avoid_spark_v1","""event"",""trial"",""time""
""fullscreenenter"",""1"",""1934""
","
","
","""event"",""trial"",""time""
""fullscreenenter"",""1"",""1934""
","
","","","","","","1429.0999999977648","images/tree7.png","","","learning","9","9","1","1","tree","plants","2","1","","good","[4]"
"html-keyboard-response","225","1042848","0.0-11.0-2.0-0.18","5810","1","10","Male","approach_avoid_spark_v1","""event"",""trial"",""time""
""fullscreenenter"",""1"",""1934""
","
","
","""event"",""trial"",""time""
""fullscreenenter"",""1"",""1934""
","
","","","","","","null","<div style=""font-size:60px;"">+</div>","null","","fixation","","","","","","","","","","",""
"aa-learning-trial","226","1045856","0.0-11.0-2.0-1.18","5810","1","10","Male","approach_avoid_spark_v1","""event"",""trial"",""time""
""fullscreenenter"",""1"",""1934""
","
","
","""event"",""trial"",""time""
""fullscreenenter"",""1"",""1934""
","
","","","","","","1052.199999999255","images/bush6.png","","","learning","5","5","1","1","bush","plants","2","1","","bad","[-5]"
"html-keyboard-response","227","1046360","0.0-11.0-2.0-0.19","5810","1","10","Male","approach_avoid_spark_v1","""event"",""trial"",""time""
""fullscreenenter"",""1"",""1934""
","
","
","""event"",""trial"",""time""
""fullscreenenter"",""1"",""1934""
","
","","","","","","null","<div style=""font-size:60px;"">+</div>","null","","fixation","","","","","","","","","","",""
"aa-learning-trial","228","1049368","0.0-11.0-2.0-1.19","5810","1","10","Male","approach_avoid_spark_v1","""event"",""trial"",""time""
""fullscreenenter"",""1"",""1934""
","
","
","""event"",""trial"",""time""
""fullscreenenter"",""1"",""1934""
","
","","","","","","1924.199999999255","images/bush5.png","","","learning","8","8","1","1","bush","plants","2","1","","bad","[-5]"
"html-keyboard-response","229","1049871","0.0-11.0-2.0-0.20","5810","1","10","Male","approach_avoid_spark_v1","""event"",""trial"",""time""
""fullscreenenter"",""1"",""1934""
","
","
","""event"",""trial"",""time""
""fullscreenenter"",""1"",""1934""
","
","","","","","","null","<div style=""font-size:60px;"">+</div>","null","","fixation","","","","","","","","","","",""
"aa-learning-trial","230","1052880","0.0-11.0-2.0-1.20","5810","1","10","Male","approach_avoid_spark_v1","""event"",""trial"",""time""
""fullscreenenter"",""1"",""1934""
","
","
","""event"",""trial"",""time""
""fullscreenenter"",""1"",""1934""
","
","","","","","","1214.5","images/tree8.png","","","learning","-4","0","0","0","tree","plants","2","1","","good","[4]"
"html-keyboard-response","231","1053384","0.0-11.0-2.0-0.21","5810","1","10","Male","approach_avoid_spark_v1","""event"",""trial"",""time""
""fullscreenenter"",""1"",""1934""
","
","
","""event"",""trial"",""time""
""fullscreenenter"",""1"",""1934""
","
","","","","","","null","<div style=""font-size:60px;"">+</div>","null","","fixation","","","","","","","","","","",""
"aa-learning-trial","232","1056392","0.0-11.0-2.0-1.21","5810","1","10","Male","approach_avoid_spark_v1","""event"",""trial"",""time""
""fullscreenenter"",""1"",""1934""
","
","
","""event"",""trial"",""time""
""fullscreenenter"",""1"",""1934""
","
","","","","","","1475.199999999255","images/bush7.png","","","learning","1","1","1","1","bush","plants","2","1","","bad","[-5]"
"html-keyboard-response","233","1056896","0.0-11.0-2.0-0.22","5810","1","10","Male","approach_avoid_spark_v1","""event"",""trial"",""time""
""fullscreenenter"",""1"",""1934""
","
","
","""event"",""trial"",""time""
""fullscreenenter"",""1"",""1934""
","
","","","","","","null","<div style=""font-size:60px;"">+</div>","null","","fixation","","","","","","","","","","",""
"aa-learning-trial","234","1059904","0.0-11.0-2.0-1.22","5810","1","10","Male","approach_avoid_spark_v1","""event"",""trial"",""time""
""fullscreenenter"",""1"",""1934""
","
","
","""event"",""trial"",""time""
""fullscreenenter"",""1"",""1934""
","
","","","","","","859.5","images/cactus5.png","","","learning","-1","0","0","0","cactus","plants","2","1","","neutral","0"
"html-keyboard-response","235","1060407","0.0-11.0-2.0-0.23","5810","1","10","Male","approach_avoid_spark_v1","""event"",""trial"",""time""
""fullscreenenter"",""1"",""1934""
","
","
","""event"",""trial"",""time""
""fullscreenenter"",""1"",""1934""
","
","","","","","","null","<div style=""font-size:60px;"">+</div>","null","","fixation","","","","","","","","","","",""
"aa-learning-trial","236","1063416","0.0-11.0-2.0-1.23","5810","1","10","Male","approach_avoid_spark_v1","""event"",""trial"",""time""
""fullscreenenter"",""1"",""1934""
","
","
","""event"",""trial"",""time""
""fullscreenenter"",""1"",""1934""
","
","","","","","","1716.7000000029802","images/tree8.png","","","learning","-4","-4","1","1","tree","plants","2","1","","good","[4]"
"html-keyboard-response","237","1063919","0.0-11.0-2.0-0.24","5810","1","10","Male","approach_avoid_spark_v1","""event"",""trial"",""time""
""fullscreenenter"",""1"",""1934""
","
","
","""event"",""trial"",""time""
""fullscreenenter"",""1"",""1934""
","
","","","","","","null","<div style=""font-size:60px;"">+</div>","null","","fixation","","","","","","","","","","",""
"aa-learning-trial","238","1066927","0.0-11.0-2.0-1.24","5810","1","10","Male","approach_avoid_spark_v1","""event"",""trial"",""time""
