"trial_type","trial_index","time_elapsed","internal_node_id","subject_id","task_condition","age","gender","task_version","interactions","blur_events","focus_events","fullscreenenter_events","fullscreenexit_events","success","timeout","failed_images","failed_audio","failed_video","rt","stimulus","response","button_pressed","task_part","approach_reward","points","key_press","option_selected","stim_cat","task_block","block_condition","block_number","correct","cat_type","mean_cat_reward"
"pavlovia","0","4","0.0-0.0","8404","1","15","Male","approach_avoid_spark_v1","""event"",""trial"",""time""
""fullscreenenter"",""1"",""2869""
","
","
","""event"",""trial"",""time""
""fullscreenenter"",""1"",""2869""
","
","","","","","","","","","","","","","","","","","","","","",""
"fullscreen","1","3859","0.0-1.0","8404","1","15","Male","approach_avoid_spark_v1","""event"",""trial"",""time""
""fullscreenenter"",""1"",""2869""
","
","
","""event"",""trial"",""time""
""fullscreenenter"",""1"",""2869""
","
","true","","","","","","","","","","","","","","","","","","","",""
"preload","2","92553","0.0-2.0","8404","1","15","Male","approach_avoid_spark_v1","""event"",""trial"",""time""
""fullscreenenter"",""1"",""2869""
","
","
","""event"",""trial"",""time""
""fullscreenenter"",""1"",""2869""
","
","true","false","[]","[]","[]","","","","","","","","","","","","","","","",""
"audio-keyboard-response","3","95698","0.0-3.0","8404","1","15","Male","approach_avoid_spark_v1","""event"",""trial"",""time""
""fullscreenenter"",""1"",""2869""
","
","
","""event"",""trial"",""time""
""fullscreenenter"",""1"",""2869""
","
","","","","","","3036.0090702947814","audio/beep_loop.wav"," ","","","","","","","","","","","","",""
"audio-button-response","4","97706","0.0-4.0","8404","1","15","Male","approach_avoid_spark_v1","""event"",""trial"",""time""
""fullscreenenter"",""1"",""2869""
","
","
","""event"",""trial"",""time""
""fullscreenenter"",""1"",""2869""
","
","","","","","","2003","audio/shark.wav","4","","","","","","","","","","","","",""
"audio-button-response","5","100306","0.0-5.0","8404","1","15","Male","approach_avoid_spark_v1","""event"",""trial"",""time""
""fullscreenenter"",""1"",""2869""
","
","
","""event"",""trial"",""time""
""fullscreenenter"",""1"",""2869""
","
","","","","","","1585","audio/turtle.wav","1","","","","","","","","","","","","",""
"preload","6","125086","0.0-6.0","8404","1","15","Male","approach_avoid_spark_v1","""event"",""trial"",""time""
""fullscreenenter"",""1"",""2869""
","
","
","""event"",""trial"",""time""
""fullscreenenter"",""1"",""2869""
","
","true","false","[]","[]","[]","","","","","","","","","","","","","","","",""
"html-keyboard-response","7","127578","0.0-7.0","8404","1","15","Male","approach_avoid_spark_v1","""event"",""trial"",""time""
""fullscreenenter"",""1"",""2869""
","
","
","""event"",""trial"",""time""
""fullscreenenter"",""1"",""2869""
","
","","","","","","2490.7000000178814","Welcome to the experiment. Press any key to begin and to advance the instructions.","m","","","","","","","","","","","","",""
"learning-instructions","8","135821","0.0-8.0-0.0-0.0","8404","1","15","Male","approach_avoid_spark_v1","""event"",""trial"",""time""
""fullscreenenter"",""1"",""2869""
","
","
","""event"",""trial"",""time""
""fullscreenenter"",""1"",""2869""
","
","","","","","","1281.5","<p> Welcome! Today you are going to play 6 different rounds of a decision-making game. </p><p> Use the mouse to click next to continue. </p>","","0","instructions","","","","","","","","","","",""
"learning-instructions","9","139824","0.0-8.0-0.0-0.1","8404","1","15","Male","approach_avoid_spark_v1","""event"",""trial"",""time""
""fullscreenenter"",""1"",""2869""
","
","
","""event"",""trial"",""time""
""fullscreenenter"",""1"",""2869""
","
","","","","","","1273.4000000059605","<p> You will start with a practice round to learn the rules. </p>","","0","instructions","","","","","","","","","","",""
"learning-instructions","10","144155","0.0-8.0-0.0-0.2","8404","1","15","Male","approach_avoid_spark_v1","""event"",""trial"",""time""
""fullscreenenter"",""1"",""2869""
","
","
","""event"",""trial"",""time""
""fullscreenenter"",""1"",""2869""
","
","","","","","","878.5","<p> Your goal in this round is to give out sports equipment to kids. </p></div>","","0","instructions","","","","","","","","","","",""
"learning-instructions","11","152555","0.0-8.0-0.0-0.3","8404","1","15","Male","approach_avoid_spark_v1","""event"",""trial"",""time""
""fullscreenenter"",""1"",""2869""
","
","
","""event"",""trial"",""time""
""fullscreenenter"",""1"",""2869""
","
","","","","","","849.9000000059605","<p> The kids only like some of the equipment.  </p><p> On each turn, you will see a piece of sports equipment.   </p><p> You need to decide whether to give it to the kids or not.  </p>","","0","instructions","","","","","","","","","","",""
"learning-instructions","12","158773","0.0-8.0-0.0-0.4","8404","1","15","Male","approach_avoid_spark_v1","""event"",""trial"",""time""
""fullscreenenter"",""1"",""2869""
","
","
","""event"",""trial"",""time""
""fullscreenenter"",""1"",""2869""
","
","","","","","","1465.2999999821186","<p> You can give them the equipment by pressing 1 and choose not to give it to them by pressing 0. </p><br><div class=""choice-instructions-grid""> <div class=""choice-option""><img src=""images/approach.png"" class=""choice-option-img"" stage=""instructions"" position=""0"" ><div class=""choice-option-text""> Press ""1."" </div></div><div class=""choice-option""><img src=""images/avoid.png"" class=""choice-option-img"" stage=""instructions"" position=""1"" ><div class=""choice-option-text""> Press ""0."" </div></div>","","0","instructions","","","","","","","","","","",""
"learning-instructions","13","166726","0.0-8.0-0.0-0.5","8404","1","15","Male","approach_avoid_spark_v1","""event"",""trial"",""time""
""fullscreenenter"",""1"",""2869""
","
","
","""event"",""trial"",""time""
""fullscreenenter"",""1"",""2869""
","
","","","","","","571.5","<p> If you give them a piece of equipment they like, they will be happy! </p><p> But if you give them a piece of equipment they do not like, they will be sad. </p>","","0","instructions","","","","","","","","","","",""
"learning-instructions","14","177778","0.0-8.0-0.0-0.6","8404","1","15","Male","approach_avoid_spark_v1","""event"",""trial"",""time""
""fullscreenenter"",""1"",""2869""
","
","
","""event"",""trial"",""time""
""fullscreenenter"",""1"",""2869""
","
","","","","","","548.5","<p> You will earn points based on how you make kids feel. </p><p> If you make them happy, you will WIN anywhere from 1 - 9 points, </p><p> but if you make them sad, you will LOSE anywhere from 1 - 9 points. </p>","","0","instructions","","","","","","","","","","",""
"learning-instructions","15","188213","0.0-8.0-0.0-0.7","8404","1","15","Male","approach_avoid_spark_v1","""event"",""trial"",""time""
""fullscreenenter"",""1"",""2869""
","
","
","""event"",""trial"",""time""
""fullscreenenter"",""1"",""2869""
","
","","","","","","875.5","<p> You will see how many points you won or lost in the center of the screen. </p><p> Here is what you would see if you won 6 points: </p><p style=""color:green;font-size:50px;font-weight:bolder"">6</p><p style=""color:green"">The text is GREEN because you WON points.</p>","","0","instructions","","","","","","","","","","",""
"learning-instructions","16","194235","0.0-8.0-0.0-0.8","8404","1","15","Male","approach_avoid_spark_v1","""event"",""trial"",""time""
""fullscreenenter"",""1"",""2869""
","
","
","""event"",""trial"",""time""
""fullscreenenter"",""1"",""2869""
","
","","","","","","518.8000000119209","<p> And here is what you would see if you lost 4 points: </p><p style=""color:red;font-size:50px;font-weight:bolder"">-4</p><p style=""color:red"">The text is RED because you LOST points. </p>","","0","instructions","","","","","","","","","","",""
"learning-instructions","17","209641","0.0-8.0-0.0-0.9","8404","1","15","Male","approach_avoid_spark_v1","""event"",""trial"",""time""
""fullscreenenter"",""1"",""2869""
","
","
","""event"",""trial"",""time""
""fullscreenenter"",""1"",""2869""
","
","","","","","","697.9000000059605","<p> Some of the equipment will make the kids VERY happy or sad. </p><p> These pieces of equipment will make you win or lose LOTS of points. </p><p> Other pieces of equipment will only make the kids a little happy or sad. </p><p> These pieces of equipment will make you win or lose small amounts of points. </p>","","0","instructions","","","","","","","","","","",""
"learning-instructions","18","220892","0.0-8.0-0.0-0.10","8404","1","15","Male","approach_avoid_spark_v1","""event"",""trial"",""time""
""fullscreenenter"",""1"",""2869""
","
","
","""event"",""trial"",""time""
""fullscreenenter"",""1"",""2869""
","
","","","","","","624","<p> If you choose not to give them the equipment, you will not win or lose any points. </p><p>  However, in the center of the screen, you will see the number of points you WOULD HAVE won or lost if you had given them the equipment. </p>","","0","instructions","","","","","","","","","","",""
"learning-instructions","19","243490","0.0-8.0-0.0-0.11","8404","1","15","Male","approach_avoid_spark_v1","""event"",""trial"",""time""
""fullscreenenter"",""1"",""2869""
","
","
","""event"",""trial"",""time""
""fullscreenenter"",""1"",""2869""
","
","","","","","","1069","<p> Here is what you might see if you did not give the equipment to the kids but it would have made them happy: </p><p style=""color:grey; font-size:50px; display: inline-block; border-spacing: 15px; border-width:3px; border-style:solid; border-color:red"">  &nbsp; 7 &nbsp; </p><p> Remember, in this case, you would not win or lose ANY points because you did not give them the equipment.  </p><p style=""color:grey"">The text is GREY because you earned ZERO points. </p><p style=""color:red"">However, choosing to give the kids the equipment would have made you win points. The box around the text is RED because you chose the worse option. </p>","","0","instructions","","","","","","","","","","",""
"learning-instructions","20","265055","0.0-8.0-0.0-0.12","8404","1","15","Male","approach_avoid_spark_v1","""event"",""trial"",""time""
""fullscreenenter"",""1"",""2869""
","
","
","""event"",""trial"",""time""
""fullscreenenter"",""1"",""2869""
","
","","","","","","488","<p> Here is what you might see if you did not give the equipment to the kids but it would have made them sad: </p><p style=""color:grey;font-size:50px; display: inline-block; border-spacing: 15px; border-width:3px; border-style:solid; border-color:green"">  &nbsp; -8 &nbsp; </p><p> Remember, in this case, you would not win or lose ANY points because you did not give them the equipment.  </p><p style=""color:grey"">The text is GREY because you earned ZERO points. </p><p  style=""color:green""> Choosing to give the kids the equipment would have made you lose points. The box around the text is GREEN because you chose the better option.</p>","","0","instructions","","","","","","","","","","",""
"learning-instructions","21","276645","0.0-8.0-0.0-0.13","8404","1","15","Male","approach_avoid_spark_v1","""event"",""trial"",""time""
""fullscreenenter"",""1"",""2869""
","
","
","""event"",""trial"",""time""
""fullscreenenter"",""1"",""2869""
","
","","","","","","1652.9000000059605","<p> You will have 3 seconds to make each choice. Try to respond before time runs out! </p><p> You will lose 5 points each time you do not make a response. </p>","","0","instructions","","","","","","","","","","",""
"learning-instructions","22","282927","0.0-8.0-0.0-0.14","8404","1","15","Male","approach_avoid_spark_v1","""event"",""trial"",""time""
""fullscreenenter"",""1"",""2869""
","
","
","""event"",""trial"",""time""
""fullscreenenter"",""1"",""2869""
","
","","","","","","869.1999999880791","<p> This is just a practice round, but in the real game, your bonus payment will depend on your total number of points.","","0","instructions","","","","","","","","","","",""
"learning-instructions","23","289290","0.0-8.0-0.0-0.15","8404","1","15","Male","approach_avoid_spark_v1","""event"",""trial"",""time""
""fullscreenenter"",""1"",""2869""
","
","
","""event"",""trial"",""time""
""fullscreenenter"",""1"",""2869""
","
","","","","","","603.2999999821186","<p> Remember, you can give them the equipment by pressing 1 and choose not to give it to them by pressing 0. </p><br><div class=""choice-instructions-grid""> <div class=""choice-option""><img src=""images/approach.png"" class=""choice-option-img"" stage=""instructions"" position=""0"" ><div class=""choice-option-text""> Press ""1."" </div></div><div class=""choice-option""><img src=""images/avoid.png"" class=""choice-option-img"" stage=""instructions"" position=""1"" ><div class=""choice-option-text""> Press ""0."" </div></div>","","0","instructions","","","","","","","","","","",""
"html-button-response","24","291347","0.0-8.0-1.0","8404","1","15","Male","approach_avoid_spark_v1","""event"",""trial"",""time""
""fullscreenenter"",""1"",""2869""
","
","
","""event"",""trial"",""time""
""fullscreenenter"",""1"",""2869""
","
","","","","","","1946.300000011921","<p> Ready to practice? </p>","0","","","","","","","","","","","","",""
"html-keyboard-response","25","291957","0.0-8.0-2.0-0.0","8404","1","15","Male","approach_avoid_spark_v1","""event"",""trial"",""time""
""fullscreenenter"",""1"",""2869""
","
","
","""event"",""trial"",""time""
""fullscreenenter"",""1"",""2869""
","
","","","","","","null","<div style=""font-size:60px;"">+</div>","null","","fixation","","","","","","","","","","",""
"aa-learning-trial","26","294967","0.0-8.0-2.0-1.0","8404","1","15","Male","approach_avoid_spark_v1","""event"",""trial"",""time""
""fullscreenenter"",""1"",""2869""
","
","
","""event"",""trial"",""time""
""fullscreenenter"",""1"",""2869""
","
","","","","","","2525.5999999940395","images/racket1.png","","","learning","2","2","1","1","practice","practice","practice","-1","","",""
"html-keyboard-response","27","295478","0.0-8.0-2.0-0.1","8404","1","15","Male","approach_avoid_spark_v1","""event"",""trial"",""time""
""fullscreenenter"",""1"",""2869""
","
","
","""event"",""trial"",""time""
""fullscreenenter"",""1"",""2869""
","
","","","","","","null","<div style=""font-size:60px;"">+</div>","null","","fixation","","","","","","","","","","",""
"aa-learning-trial","28","298484","0.0-8.0-2.0-1.1","8404","1","15","Male","approach_avoid_spark_v1","""event"",""trial"",""time""
""fullscreenenter"",""1"",""2869""
","
","
","""event"",""trial"",""time""
""fullscreenenter"",""1"",""2869""
","
","","","","","","2669","images/ball4.png","","","learning","8","8","1","1","practice","practice","practice","-1","","",""
"html-keyboard-response","29","298990","0.0-8.0-2.0-0.2","8404","1","15","Male","approach_avoid_spark_v1","""event"",""trial"",""time""
""fullscreenenter"",""1"",""2869""
","
","
","""event"",""trial"",""time""
""fullscreenenter"",""1"",""2869""
","
","","","","","","null","<div style=""font-size:60px;"">+</div>","null","","fixation","","","","","","","","","","",""
"aa-learning-trial","30","301997","0.0-8.0-2.0-1.2","8404","1","15","Male","approach_avoid_spark_v1","""event"",""trial"",""time""
""fullscreenenter"",""1"",""2869""
","
","
","""event"",""trial"",""time""
""fullscreenenter"",""1"",""2869""
","
","","","","","","null","images/racket4.png","","","learning","7","-5","","null","practice","practice","practice","-1","","",""
"html-keyboard-response","31","302502","0.0-8.0-2.0-0.3","8404","1","15","Male","approach_avoid_spark_v1","""event"",""trial"",""time""
""fullscreenenter"",""1"",""2869""
","
","
","""event"",""trial"",""time""
""fullscreenenter"",""1"",""2869""
","
","","","","","","null","<div style=""font-size:60px;"">+</div>","null","","fixation","","","","","","","","","","",""
"aa-learning-trial","32","305509","0.0-8.0-2.0-1.3","8404","1","15","Male","approach_avoid_spark_v1","""event"",""trial"",""time""
""fullscreenenter"",""1"",""2869""
","
","
","""event"",""trial"",""time""
""fullscreenenter"",""1"",""2869""
","
","","","","","","1247","images/racket3.png","","","learning","6","6","1","1","practice","practice","practice","-1","","",""
"html-keyboard-response","33","306014","0.0-8.0-2.0-0.4","8404","1","15","Male","approach_avoid_spark_v1","""event"",""trial"",""time""
""fullscreenenter"",""1"",""2869""
","
","
","""event"",""trial"",""time""
""fullscreenenter"",""1"",""2869""
","
","","","","","","null","<div style=""font-size:60px;"">+</div>","null","","fixation","","","","","","","","","","",""
"aa-learning-trial","34","309021","0.0-8.0-2.0-1.4","8404","1","15","Male","approach_avoid_spark_v1","""event"",""trial"",""time""
""fullscreenenter"",""1"",""2869""
","
","
","""event"",""trial"",""time""
""fullscreenenter"",""1"",""2869""
","
","","","","","","529","images/ball2.png","","","learning","-6","0","0","0","practice","practice","practice","-1","","",""
"html-keyboard-response","35","309524","0.0-8.0-2.0-0.5","8404","1","15","Male","approach_avoid_spark_v1","""event"",""trial"",""time""
""fullscreenenter"",""1"",""2869""
","
","
","""event"",""trial"",""time""
""fullscreenenter"",""1"",""2869""
","
","","","","","","null","<div style=""font-size:60px;"">+</div>","null","","fixation","","","","","","","","","","",""
"aa-learning-trial","36","312532","0.0-8.0-2.0-1.5","8404","1","15","Male","approach_avoid_spark_v1","""event"",""trial"",""time""
""fullscreenenter"",""1"",""2869""
","
","
","""event"",""trial"",""time""
""fullscreenenter"",""1"",""2869""
","
","","","","","","83.5","images/ball2.png","","","learning","6","6","1","1","practice","practice","practice","-1","","",""
"html-keyboard-response","37","313038","0.0-8.0-2.0-0.6","8404","1","15","Male","approach_avoid_spark_v1","""event"",""trial"",""time""
""fullscreenenter"",""1"",""2869""
","
","
","""event"",""trial"",""time""
""fullscreenenter"",""1"",""2869""
","
","","","","","","null","<div style=""font-size:60px;"">+</div>","null","","fixation","","","","","","","","","","",""
"aa-learning-trial","38","316045","0.0-8.0-2.0-1.6","8404","1","15","Male","approach_avoid_spark_v1","""event"",""trial"",""time""
""fullscreenenter"",""1"",""2869""
","
","
","""event"",""trial"",""time""
""fullscreenenter"",""1"",""2869""
","
","","","","","","216.09999999403954","images/ball2.png","","","learning","-7","-7","1","1","practice","practice","practice","-1","","",""
"html-keyboard-response","39","316549","0.0-8.0-2.0-0.7","8404","1","15","Male","approach_avoid_spark_v1","""event"",""trial"",""time""
""fullscreenenter"",""1"",""2869""
","
","
","""event"",""trial"",""time""
""fullscreenenter"",""1"",""2869""
","
","","","","","","null","<div style=""font-size:60px;"">+</div>","null","","fixation","","","","","","","","","","",""
"aa-learning-trial","40","319558","0.0-8.0-2.0-1.7","8404","1","15","Male","approach_avoid_spark_v1","""event"",""trial"",""time""
""fullscreenenter"",""1"",""2869""
","
","
","""event"",""trial"",""time""
""fullscreenenter"",""1"",""2869""
","
","","","","","","474.59999999403954","images/ball2.png","","","learning","3","0","0","0","practice","practice","practice","-1","","",""
"html-keyboard-response","41","320064","0.0-8.0-2.0-0.8","8404","1","15","Male","approach_avoid_spark_v1","""event"",""trial"",""time""
""fullscreenenter"",""1"",""2869""
","
","
","""event"",""trial"",""time""
""fullscreenenter"",""1"",""2869""
","
","","","","","","null","<div style=""font-size:60px;"">+</div>","null","","fixation","","","","","","","","","","",""
"aa-learning-trial","42","323071","0.0-8.0-2.0-1.8","8404","1","15","Male","approach_avoid_spark_v1","""event"",""trial"",""time""
""fullscreenenter"",""1"",""2869""
","
","
","""event"",""trial"",""time""
""fullscreenenter"",""1"",""2869""
","
","","","","","","669.9000000059605","images/racket1.png","","","learning","-4","-4","1","1","practice","practice","practice","-1","","",""
"html-keyboard-response","43","323575","0.0-8.0-2.0-0.9","8404","1","15","Male","approach_avoid_spark_v1","""event"",""trial"",""time""
""fullscreenenter"",""1"",""2869""
","
","
","""event"",""trial"",""time""
""fullscreenenter"",""1"",""2869""
","
","","","","","","null","<div style=""font-size:60px;"">+</div>","null","","fixation","","","","","","","","","","",""
"aa-learning-trial","44","326582","0.0-8.0-2.0-1.9","8404","1","15","Male","approach_avoid_spark_v1","""event"",""trial"",""time""
""fullscreenenter"",""1"",""2869""
","
","
","""event"",""trial"",""time""
""fullscreenenter"",""1"",""2869""
","
","","","","","","936","images/racket2.png","","","learning","-3","0","0","0","practice","practice","practice","-1","","",""
"html-keyboard-response","45","327087","0.0-8.0-2.0-0.10","8404","1","15","Male","approach_avoid_spark_v1","""event"",""trial"",""time""
""fullscreenenter"",""1"",""2869""
","
","
","""event"",""trial"",""time""
""fullscreenenter"",""1"",""2869""
","
","","","","","","null","<div style=""font-size:60px;"">+</div>","null","","fixation","","","","","","","","","","",""
"aa-learning-trial","46","330094","0.0-8.0-2.0-1.10","8404","1","15","Male","approach_avoid_spark_v1","""event"",""trial"",""time""
""fullscreenenter"",""1"",""2869""
","
","
","""event"",""trial"",""time""
""fullscreenenter"",""1"",""2869""
","
","","","","","","691.1999999880791","images/ball1.png","","","learning","-3","-3","1","1","practice","practice","practice","-1","","",""
"html-keyboard-response","47","330599","0.0-8.0-2.0-0.11","8404","1","15","Male","approach_avoid_spark_v1","""event"",""trial"",""time""
""fullscreenenter"",""1"",""2869""
","
","
","""event"",""trial"",""time""
""fullscreenenter"",""1"",""2869""
","
","","","","","","null","<div style=""font-size:60px;"">+</div>","null","","fixation","","","","","","","","","","",""
"aa-learning-trial","48","333606","0.0-8.0-2.0-1.11","8404","1","15","Male","approach_avoid_spark_v1","""event"",""trial"",""time""
""fullscreenenter"",""1"",""2869""
","
","
","""event"",""trial"",""time""
""fullscreenenter"",""1"",""2869""
","
","","","","","","779.4000000059605","images/racket3.png","","","learning","3","0","0","0","practice","practice","practice","-1","","",""
"html-button-response","49","336289","0.0-8.0-3.0","8404","1","15","Male","approach_avoid_spark_v1","""event"",""trial"",""time""
""fullscreenenter"",""1"",""2869""
","
","
","""event"",""trial"",""time""
""fullscreenenter"",""1"",""2869""
","
","","","","","","2680.899999976158","<p> You earned 3 points in the practice round! </p>","0","","break","","","","","","","","","","",""
"learning-instructions","50","343258","0.0-8.0-4.0-0.0","8404","1","15","Male","approach_avoid_spark_v1","""event"",""trial"",""time""
""fullscreenenter"",""1"",""2869""
","
","
","""event"",""trial"",""time""
""fullscreenenter"",""1"",""2869""
","
","","","","","","999.7000000178814","<p> It's almost time to start the real game. </p><p> Before you start, we're going to ask you a few questions about how the game works. </p>","","0","instructions","","","","","","","","","","",""
"preload","51","347415","0.0-8.0-5.0","8404","1","15","Male","approach_avoid_spark_v1","""event"",""trial"",""time""
""fullscreenenter"",""1"",""2869""
","
","
","""event"",""trial"",""time""
""fullscreenenter"",""1"",""2869""
","
","true","false","[]","[]","[]","","","","","","","","","","","","","","","",""
"comp-q","52","354622","0.0-8.0-6.0-0.0","8404","1","15","Male","approach_avoid_spark_v1","""event"",""trial"",""time""
""fullscreenenter"",""1"",""2869""
","
","
","""event"",""trial"",""time""
""fullscreenenter"",""1"",""2869""
","
","","","","","","2215.9000000059605","<p> <b> True or False? </b> </p><p> If you see a number in GREY, that means you earned that many points. </p>","","1","comp_question","","","","","","","","","true","",""
"comp-q","53","363891","0.0-8.0-6.0-1.0","8404","1","15","Male","approach_avoid_spark_v1","""event"",""trial"",""time""
""fullscreenenter"",""1"",""2869""
","
","
","""event"",""trial"",""time""
""fullscreenenter"",""1"",""2869""
","
","","","","","","914.3000000119209","<p><b> That's right! </b> If you see a grey number, it means you earned ZERO points. <br> The grey numbers show the points you WOULD HAVE earned if you had made the other choice. </p>","","0","comp_answer","","","","","","","","","","",""
"comp-q","54","369037","0.0-8.0-7.0-0.0","8404","1","15","Male","approach_avoid_spark_v1","""event"",""trial"",""time""
""fullscreenenter"",""1"",""2869""
","
","
","""event"",""trial"",""time""
""fullscreenenter"",""1"",""2869""
","
","","","","","","452.69999998807907","<p> <b> True or False? </b> </p><p> You will have as much time as you want to make each choice. </p>","","1","comp_question","","","","","","","","","true","",""
"comp-q","55","374505","0.0-8.0-7.0-1.0","8404","1","15","Male","approach_avoid_spark_v1","""event"",""trial"",""time""
""fullscreenenter"",""1"",""2869""
","
","
","""event"",""trial"",""time""
""fullscreenenter"",""1"",""2869""
","
","","","","","","1427.0999999940395","<p> <b> That's right! </b> You will only have 3 seconds to make each choice. </p>","","0","comp_answer","","","","","","","","","","",""
"comp-q","56","380952","0.0-8.0-8.0-0.0","8404","1","15","Male","approach_avoid_spark_v1","""event"",""trial"",""time""
""fullscreenenter"",""1"",""2869""
","
","
","""event"",""trial"",""time""
""fullscreenenter"",""1"",""2869""
","
","","","","","","1784.4000000059605","<p> <b> True or False? </b> </p><p> You should use the '1' and '0' keys to make your choices. </p>","","0","comp_question","","","","","","","","","true","",""
"comp-q","57","386594","0.0-8.0-8.0-1.0","8404","1","15","Male","approach_avoid_spark_v1","""event"",""trial"",""time""
""fullscreenenter"",""1"",""2869""
","
","
","""event"",""trial"",""time""
""fullscreenenter"",""1"",""2869""
","
","","","","","","1035","<p> <b> That's right! </b> You should use the '1' and '0' keys to make each choice. </p>","","0","comp_answer","","","","","","","","","","",""
"learning-instructions","58","396397","0.0-8.0-9.0-0.0","8404","1","15","Male","approach_avoid_spark_v1","""event"",""trial"",""time""
""fullscreenenter"",""1"",""2869""
","
","
","""event"",""trial"",""time""
""fullscreenenter"",""1"",""2869""
","
","","","","","","3529.300000011921","<p> It's now time to start the real game. </p>Do your best, because the points you earn in the next rounds will influence your bonus payment. </p>","","0","instructions","","","","","","","","","","",""
"preload","59","396518","0.0-9.0-0.0","8404","1","15","Male","approach_avoid_spark_v1","""event"",""trial"",""time""
""fullscreenenter"",""1"",""2869""
","
","
","""event"",""trial"",""time""
""fullscreenenter"",""1"",""2869""
","
","true","false","[]","[]","[]","","","","","","","","","","","","","","","",""
"learning-instructions","60","401874","0.0-9.0-1.0-0.0","8404","1","15","Male","approach_avoid_spark_v1","""event"",""trial"",""time""
""fullscreenenter"",""1"",""2869""
","
","
","""event"",""trial"",""time""
""fullscreenenter"",""1"",""2869""
","
","","","","","","938.5","<p> Your goal in this round is to decorate your friend's new house with furniture. </p></div>","","0","instructions","","","","","","","","","","",""
"learning-instructions","61","415776","0.0-9.0-1.0-0.1","8404","1","15","Male","approach_avoid_spark_v1","""event"",""trial"",""time""
""fullscreenenter"",""1"",""2869""
","
","
","""event"",""trial"",""time""
""fullscreenenter"",""1"",""2869""
","
","","","","","","454.80000001192093","<p> Your friend likes some pieces of furniture but not others.  </p><p> On each turn, you will see a piece of furniture.   </p><p> You need to decide whether to put it in your friend's house or not.  </p>","","0","instructions","","","","","","","","","","",""
"learning-instructions","62","422806","0.0-9.0-1.0-0.2","8404","1","15","Male","approach_avoid_spark_v1","""event"",""trial"",""time""
""fullscreenenter"",""1"",""2869""
","
","
","""event"",""trial"",""time""
""fullscreenenter"",""1"",""2869""
","
","","","","","","1029.699999988079","<p> You can put the furniture in her house by pressing 1 and deliver it elsewhere by pressing 0. </p><br><div class=""choice-instructions-grid""> <div class=""choice-option""><img src=""images/approach.png"" class=""choice-option-img"" stage=""instructions"" position=""0"" ><div class=""choice-option-text""> Press ""1."" </div></div><div class=""choice-option""><img src=""images/avoid.png"" class=""choice-option-img"" stage=""instructions"" position=""1"" ><div class=""choice-option-text""> Press ""0."" </div></div>","","0","instructions","","","","","","","","","","",""
"learning-instructions","63","435308","0.0-9.0-1.0-0.3","8404","1","15","Male","approach_avoid_spark_v1","""event"",""trial"",""time""
""fullscreenenter"",""1"",""2869""
","
","
","""event"",""trial"",""time""
""fullscreenenter"",""1"",""2869""
","
","","","","","","1121","<p> If you decorate your friend's house with furniture she likes, she will be happy! </p><p> But if you give her furniture that she does not like, she will be annoyed. </p>","","0","instructions","","","","","","","","","","",""
"learning-instructions","64","449429","0.0-9.0-1.0-0.4","8404","1","15","Male","approach_avoid_spark_v1","""event"",""trial"",""time""
""fullscreenenter"",""1"",""2869""
","
","
","""event"",""trial"",""time""
""fullscreenenter"",""1"",""2869""
","
","","","","","","653.6999999880791","<p> You will earn points based on how you made your friend feel. </p><p> If you made her happy, you will WIN anywhere from 1 - 9 points, </p><p> but if you made her annoyed you will LOSE anywhere from 1 - 9 points. </p>","","0","instructions","","","","","","","","","","",""
"learning-instructions","65","458009","0.0-9.0-1.0-0.5","8404","1","15","Male","approach_avoid_spark_v1","""event"",""trial"",""time""
""fullscreenenter"",""1"",""2869""
","
","
","""event"",""trial"",""time""
""fullscreenenter"",""1"",""2869""
","
","","","","","","787.1000000238419","<p> You will see how many points you won or lost in the center of the screen. </p><p> Here is what you would see if you won 5 points: </p><p style=""color:green;font-size:50px;font-weight:bolder"">5</p>","","0","instructions","","","","","","","","","","",""
"learning-instructions","66","461879","0.0-9.0-1.0-0.6","8404","1","15","Male","approach_avoid_spark_v1","""event"",""trial"",""time""
""fullscreenenter"",""1"",""2869""
","
","
","""event"",""trial"",""time""
""fullscreenenter"",""1"",""2869""
","
","","","","","","524.1999999880791","<p> And here is what you would see if you lost 3 points: </p><p style=""color:red;font-size:50px;font-weight:bolder"">-3</p>","","0","instructions","","","","","","","","","","",""
"learning-instructions","67","480697","0.0-9.0-1.0-0.7","8404","1","15","Male","approach_avoid_spark_v1","""event"",""trial"",""time""
""fullscreenenter"",""1"",""2869""
","
","
","""event"",""trial"",""time""
""fullscreenenter"",""1"",""2869""
","
","","","","","","1004.4000000059605","<p> Some pieces of furniture will make her feel very happy or very annoyed. </p><p> These pieces of furniture will make you win or lose LOTS of points. </p><p> Other pieces of furniture will only make her feel a little happy or a little annoyed. </p><p> These pieces of furniture will make you win or lose small amounts of points. </p>","","0","instructions","","","","","","","","","","",""
"learning-instructions","68","494632","0.0-9.0-1.0-0.8","8404","1","15","Male","approach_avoid_spark_v1","""event"",""trial"",""time""
""fullscreenenter"",""1"",""2869""
","
","
","""event"",""trial"",""time""
""fullscreenenter"",""1"",""2869""
","
","","","","","","1082.7999999821186","<p> If you choose to deliver a piece of furniture elsewhere, you will not win or lose any points. </p><p>  However, in the center of the screen, you will see the number of points you WOULD HAVE won or lost if you had given the furniture to your friend. </p>","","0","instructions","","","","","","","","","","",""
"learning-instructions","69","506768","0.0-9.0-1.0-0.9","8404","1","15","Male","approach_avoid_spark_v1","""event"",""trial"",""time""
""fullscreenenter"",""1"",""2869""
","
","
","""event"",""trial"",""time""
""fullscreenenter"",""1"",""2869""
","
","","","","","","853.2999999821186","<p> Here is what you might see if you did not give a piece of furniture to your friend that would have made her happy: </p><p style=""color:grey; font-size:50px; display: inline-block; border-spacing: 15px; border-width:3px; border-style:solid; border-color:red"">  &nbsp; 6 &nbsp; </p><p> Remember, in this case, you would not win or lose ANY points because you did not give her the furniture.  </p>","","0","instructions","","","","","","","","","","",""
"learning-instructions","70","515696","0.0-9.0-1.0-0.10","8404","1","15","Male","approach_avoid_spark_v1","""event"",""trial"",""time""
""fullscreenenter"",""1"",""2869""
","
","
","""event"",""trial"",""time""
""fullscreenenter"",""1"",""2869""
","
","","","","","","691.5999999940395","<p> Try to make the best choice for each piece of furniture because </p><p> at the end of the game, you will earn bonus money based on how many points you earned. </p>","","0","instructions","","","","","","","","","","",""
"learning-instructions","71","524488","0.0-9.0-1.0-0.11","8404","1","15","Male","approach_avoid_spark_v1","""event"",""trial"",""time""
""fullscreenenter"",""1"",""2869""
","
","
","""event"",""trial"",""time""
""fullscreenenter"",""1"",""2869""
","
","","","","","","607.0999999940395","<p> You will have 3 seconds to make each choice. Try to respond before time runs out! </p><p> You will lose 5 points each time you do not make a response. </p>","","0","instructions","","","","","","","","","","",""
"html-keyboard-response","72","525102","0.0-9.0-2.0-0.0","8404","1","15","Male","approach_avoid_spark_v1","""event"",""trial"",""time""
""fullscreenenter"",""1"",""2869""
","
","
","""event"",""trial"",""time""
""fullscreenenter"",""1"",""2869""
","
","","","","","","null","<div style=""font-size:60px;"">+</div>","null","","fixation","","","","","","","","","","",""
"aa-learning-trial","73","528112","0.0-9.0-2.0-1.0","8404","1","15","Male","approach_avoid_spark_v1","""event"",""trial"",""time""
""fullscreenenter"",""1"",""2869""
","
","
","""event"",""trial"",""time""
""fullscreenenter"",""1"",""2869""
","
","","","","","","1193.4000000059605","images/table4.png","","","learning","-6","-6","1","1","table","furniture","1","0","","bad","[-4]"
"html-keyboard-response","74","528617","0.0-9.0-2.0-0.1","8404","1","15","Male","approach_avoid_spark_v1","""event"",""trial"",""time""
""fullscreenenter"",""1"",""2869""
","
","
","""event"",""trial"",""time""
""fullscreenenter"",""1"",""2869""
","
","","","","","","null","<div style=""font-size:60px;"">+</div>","null","","fixation","","","","","","","","","","",""
"aa-learning-trial","75","531624","0.0-9.0-2.0-1.1","8404","1","15","Male","approach_avoid_spark_v1","""event"",""trial"",""time""
""fullscreenenter"",""1"",""2869""
","
","
","""event"",""trial"",""time""
""fullscreenenter"",""1"",""2869""
","
","","","","","","1388.199999988079","images/sofa7.png","","","learning","1","1","1","1","sofa","furniture","1","0","","neutral","0"
"html-keyboard-response","76","532130","0.0-9.0-2.0-0.2","8404","1","15","Male","approach_avoid_spark_v1","""event"",""trial"",""time""
""fullscreenenter"",""1"",""2869""
","
","
","""event"",""trial"",""time""
""fullscreenenter"",""1"",""2869""
","
","","","","","","null","<div style=""font-size:60px;"">+</div>","null","","fixation","","","","","","","","","","",""
"aa-learning-trial","77","535137","0.0-9.0-2.0-1.2","8404","1","15","Male","approach_avoid_spark_v1","""event"",""trial"",""time""
""fullscreenenter"",""1"",""2869""
","
","
","""event"",""trial"",""time""
""fullscreenenter"",""1"",""2869""
","
","","","","","","1536.699999988079","images/chair2.png","","","learning","3","3","1","1","chair","furniture","1","0","","good","[4]"
"html-keyboard-response","78","535647","0.0-9.0-2.0-0.3","8404","1","15","Male","approach_avoid_spark_v1","""event"",""trial"",""time""
""fullscreenenter"",""1"",""2869""
","
","
","""event"",""trial"",""time""
""fullscreenenter"",""1"",""2869""
","
","","","","","","null","<div style=""font-size:60px;"">+</div>","null","","fixation","","","","","","","","","","",""
"aa-learning-trial","79","538656","0.0-9.0-2.0-1.3","8404","1","15","Male","approach_avoid_spark_v1","""event"",""trial"",""time""
""fullscreenenter"",""1"",""2869""
","
","
","""event"",""trial"",""time""
""fullscreenenter"",""1"",""2869""
","
","","","","","","994","images/sofa4.png","","","learning","-1","-1","1","1","sofa","furniture","1","0","","neutral","0"
"html-keyboard-response","80","539158","0.0-9.0-2.0-0.4","8404","1","15","Male","approach_avoid_spark_v1","""event"",""trial"",""time""
""fullscreenenter"",""1"",""2869""
","
","
","""event"",""trial"",""time""
""fullscreenenter"",""1"",""2869""
","
","","","","","","null","<div style=""font-size:60px;"">+</div>","null","","fixation","","","","","","","","","","",""
"aa-learning-trial","81","542166","0.0-9.0-2.0-1.4","8404","1","15","Male","approach_avoid_spark_v1","""event"",""trial"",""time""
""fullscreenenter"",""1"",""2869""
","
","
","""event"",""trial"",""time""
""fullscreenenter"",""1"",""2869""
","
","","","","","","1247.199999988079","images/table3.png","","","learning","-5","-5","1","1","table","furniture","1","0","","bad","[-4]"
"html-keyboard-response","82","542671","0.0-9.0-2.0-0.5","8404","1","15","Male","approach_avoid_spark_v1","""event"",""trial"",""time""
""fullscreenenter"",""1"",""2869""
","
","
","""event"",""trial"",""time""
""fullscreenenter"",""1"",""2869""
","
","","","","","","null","<div style=""font-size:60px;"">+</div>","null","","fixation","","","","","","","","","","",""
"aa-learning-trial","83","545678","0.0-9.0-2.0-1.5","8404","1","15","Male","approach_avoid_spark_v1","""event"",""trial"",""time""
""fullscreenenter"",""1"",""2869""
","
","
","""event"",""trial"",""time""
""fullscreenenter"",""1"",""2869""
","
","","","","","","1601.6000000238419","images/table7.png","","","learning","-2","0","0","0","table","furniture","1","0","","bad","[-4]"
"html-keyboard-response","84","546183","0.0-9.0-2.0-0.6","8404","1","15","Male","approach_avoid_spark_v1","""event"",""trial"",""time""
""fullscreenenter"",""1"",""2869""
","
","
","""event"",""trial"",""time""
""fullscreenenter"",""1"",""2869""
","
","","","","","","null","<div style=""font-size:60px;"">+</div>","null","","fixation","","","","","","","","","","",""
"aa-learning-trial","85","549185","0.0-9.0-2.0-1.6","8404","1","15","Male","approach_avoid_spark_v1","""event"",""trial"",""time""
""fullscreenenter"",""1"",""2869""
","
","
","""event"",""trial"",""time""
""fullscreenenter"",""1"",""2869""
","
","","","","","","1313.1000000238419","images/table3.png","","","learning","-5","0","0","0","table","furniture","1","0","","bad","[-4]"
"html-keyboard-response","86","549689","0.0-9.0-2.0-0.7","8404","1","15","Male","approach_avoid_spark_v1","""event"",""trial"",""time""
""fullscreenenter"",""1"",""2869""
","
","
","""event"",""trial"",""time""
""fullscreenenter"",""1"",""2869""
","
","","","","","","null","<div style=""font-size:60px;"">+</div>","null","","fixation","","","","","","","","","","",""
"aa-learning-trial","87","552696","0.0-9.0-2.0-1.7","8404","1","15","Male","approach_avoid_spark_v1","""event"",""trial"",""time""
""fullscreenenter"",""1"",""2869""
","
","
","""event"",""trial"",""time""
""fullscreenenter"",""1"",""2869""
","
","","","","","","994.4000000059605","images/sofa7.png","","","learning","1","1","1","1","sofa","furniture","1","0","","neutral","0"
"html-keyboard-response","88","553198","0.0-9.0-2.0-0.8","8404","1","15","Male","approach_avoid_spark_v1","""event"",""trial"",""time""
""fullscreenenter"",""1"",""2869""
","
","
","""event"",""trial"",""time""
""fullscreenenter"",""1"",""2869""
","
","","","","","","null","<div style=""font-size:60px;"">+</div>","null","","fixation","","","","","","","","","","",""
"aa-learning-trial","89","556210","0.0-9.0-2.0-1.8","8404","1","15","Male","approach_avoid_spark_v1","""event"",""trial"",""time""
""fullscreenenter"",""1"",""2869""
","
","
","""event"",""trial"",""time""
""fullscreenenter"",""1"",""2869""
","
","","","","","","1427.5","images/sofa2.png","","","learning","-2","0","0","0","sofa","furniture","1","0","","neutral","0"
"html-keyboard-response","90","556721","0.0-9.0-2.0-0.9","8404","1","15","Male","approach_avoid_spark_v1","""event"",""trial"",""time""
""fullscreenenter"",""1"",""2869""
","
","
","""event"",""trial"",""time""
""fullscreenenter"",""1"",""2869""
","
","","","","","","null","<div style=""font-size:60px;"">+</div>","null","","fixation","","","","","","","","","","",""
"aa-learning-trial","91","559727","0.0-9.0-2.0-1.9","8404","1","15","Male","approach_avoid_spark_v1","""event"",""trial"",""time""
""fullscreenenter"",""1"",""2869""
","
","
","""event"",""trial"",""time""
""fullscreenenter"",""1"",""2869""
","
","","","","","","1044.4000000059605","images/sofa2.png","","","learning","2","0","0","0","sofa","furniture","1","0","","neutral","0"
"html-keyboard-response","92","560232","0.0-9.0-2.0-0.10","8404","1","15","Male","approach_avoid_spark_v1","""event"",""trial"",""time""
""fullscreenenter"",""1"",""2869""
","
","
","""event"",""trial"",""time""
""fullscreenenter"",""1"",""2869""
","
","","","","","","null","<div style=""font-size:60px;"">+</div>","null","","fixation","","","","","","","","","","",""
"aa-learning-trial","93","563239","0.0-9.0-2.0-1.10","8404","1","15","Male","approach_avoid_spark_v1","""event"",""trial"",""time""
""fullscreenenter"",""1"",""2869""
","
","
","""event"",""trial"",""time""
""fullscreenenter"",""1"",""2869""
","
","","","","","","955","images/table4.png","","","learning","-2","-2","1","1","table","furniture","1","0","","bad","[-4]"
"html-keyboard-response","94","563743","0.0-9.0-2.0-0.11","8404","1","15","Male","approach_avoid_spark_v1","""event"",""trial"",""time""
""fullscreenenter"",""1"",""2869""
","
","
","""event"",""trial"",""time""
""fullscreenenter"",""1"",""2869""
","
","","","","","","null","<div style=""font-size:60px;"">+</div>","null","","fixation","","","","","","","","","","",""
"aa-learning-trial","95","566750","0.0-9.0-2.0-1.11","8404","1","15","Male","approach_avoid_spark_v1","""event"",""trial"",""time""
""fullscreenenter"",""1"",""2869""
","
","
","""event"",""trial"",""time""
""fullscreenenter"",""1"",""2869""
","
","","","","","","1073.9000000059605","images/chair1.png","","","learning","5","5","1","1","chair","furniture","1","0","","good","[4]"
"html-keyboard-response","96","567256","0.0-9.0-2.0-0.12","8404","1","15","Male","approach_avoid_spark_v1","""event"",""trial"",""time""
""fullscreenenter"",""1"",""2869""
","
","
","""event"",""trial"",""time""
""fullscreenenter"",""1"",""2869""
","
","","","","","","null","<div style=""font-size:60px;"">+</div>","null","","fixation","","","","","","","","","","",""
"aa-learning-trial","97","570264","0.0-9.0-2.0-1.12","8404","1","15","Male","approach_avoid_spark_v1","""event"",""trial"",""time""
""fullscreenenter"",""1"",""2869""
","
","
","""event"",""trial"",""time""
""fullscreenenter"",""1"",""2869""
","
","","","","","","857.8000000119209","images/chair1.png","","","learning","1","1","1","1","chair","furniture","1","0","","good","[4]"
"html-keyboard-response","98","570769","0.0-9.0-2.0-0.13","8404","1","15","Male","approach_avoid_spark_v1","""event"",""trial"",""time""
""fullscreenenter"",""1"",""2869""
","
","
","""event"",""trial"",""time""
""fullscreenenter"",""1"",""2869""
","
","","","","","","null","<div style=""font-size:60px;"">+</div>","null","","fixation","","","","","","","","","","",""
"aa-learning-trial","99","573775","0.0-9.0-2.0-1.13","8404","1","15","Male","approach_avoid_spark_v1","""event"",""trial"",""time""
""fullscreenenter"",""1"",""2869""
","
","
","""event"",""trial"",""time""
""fullscreenenter"",""1"",""2869""
","
","","","","","","1085.4000000059605","images/chair2.png","","","learning","5","5","1","1","chair","furniture","1","0","","good","[4]"
"html-keyboard-response","100","574281","0.0-9.0-2.0-0.14","8404","1","15","Male","approach_avoid_spark_v1","""event"",""trial"",""time""
""fullscreenenter"",""1"",""2869""
","
","
","""event"",""trial"",""time""
""fullscreenenter"",""1"",""2869""
","
","","","","","","null","<div style=""font-size:60px;"">+</div>","null","","fixation","","","","","","","","","","",""
"aa-learning-trial","101","577289","0.0-9.0-2.0-1.14","8404","1","15","Male","approach_avoid_spark_v1","""event"",""trial"",""time""
""fullscreenenter"",""1"",""2869""
","
","
","""event"",""trial"",""time""
""fullscreenenter"",""1"",""2869""
","
","","","","","","1531.3999999761581","images/chair3.png","","","learning","3","3","1","1","chair","furniture","1","0","","good","[4]"
"html-keyboard-response","102","577792","0.0-9.0-2.0-0.15","8404","1","15","Male","approach_avoid_spark_v1","""event"",""trial"",""time""
""fullscreenenter"",""1"",""2869""
","
","
","""event"",""trial"",""time""
""fullscreenenter"",""1"",""2869""
","
","","","","","","null","<div style=""font-size:60px;"">+</div>","null","","fixation","","","","","","","","","","",""
"aa-learning-trial","103","580799","0.0-9.0-2.0-1.15","8404","1","15","Male","approach_avoid_spark_v1","""event"",""trial"",""time""
""fullscreenenter"",""1"",""2869""
","
","
","""event"",""trial"",""time""
""fullscreenenter"",""1"",""2869""
","
","","","","","","1248.2999999821186","images/table4.png","","","learning","-4","-4","1","1","table","furniture","1","0","","bad","[-4]"
"html-keyboard-response","104","581303","0.0-9.0-2.0-0.16","8404","1","15","Male","approach_avoid_spark_v1","""event"",""trial"",""time""
""fullscreenenter"",""1"",""2869""
","
","
","""event"",""trial"",""time""
""fullscreenenter"",""1"",""2869""
","
","","","","","","null","<div style=""font-size:60px;"">+</div>","null","","fixation","","","","","","","","","","",""
"aa-learning-trial","105","584312","0.0-9.0-2.0-1.16","8404","1","15","Male","approach_avoid_spark_v1","""event"",""trial"",""time""
""fullscreenenter"",""1"",""2869""
","
","
","""event"",""trial"",""time""
""fullscreenenter"",""1"",""2869""
","
","","","","","","1138.2999999821186","images/sofa4.png","","","learning","[1]","0","0","0","sofa","furniture","1","0","","neutral","0"
"html-keyboard-response","106","584816","0.0-9.0-2.0-0.17","8404","1","15","Male","approach_avoid_spark_v1","""event"",""trial"",""time""
""fullscreenenter"",""1"",""2869""
","
","
","""event"",""trial"",""time""
""fullscreenenter"",""1"",""2869""
","
","","","","","","null","<div style=""font-size:60px;"">+</div>","null","","fixation","","","","","","","","","","",""
"aa-learning-trial","107","587823","0.0-9.0-2.0-1.17","8404","1","15","Male","approach_avoid_spark_v1","""event"",""trial"",""time""
""fullscreenenter"",""1"",""2869""
","
","
","""event"",""trial"",""time""
""fullscreenenter"",""1"",""2869""
","
","","","","","","1208.699999988079","images/sofa2.png","","","learning","1","0","0","0","sofa","furniture","1","0","","neutral","0"
"html-keyboard-response","108","588328","0.0-9.0-2.0-0.18","8404","1","15","Male","approach_avoid_spark_v1","""event"",""trial"",""time""
""fullscreenenter"",""1"",""2869""
","
","
","""event"",""trial"",""time""
""fullscreenenter"",""1"",""2869""
","
","","","","","","null","<div style=""font-size:60px;"">+</div>","null","","fixation","","","","","","","","","","",""
"aa-learning-trial","109","591335","0.0-9.0-2.0-1.18","8404","1","15","Male","approach_avoid_spark_v1","""event"",""trial"",""time""
""fullscreenenter"",""1"",""2869""
","
","
","""event"",""trial"",""time""
""fullscreenenter"",""1"",""2869""
","
","","","","","","828.8000000119209","images/table7.png","","","learning","-6","-6","1","1","table","furniture","1","0","","bad","[-4]"
"html-keyboard-response","110","591840","0.0-9.0-2.0-0.19","8404","1","15","Male","approach_avoid_spark_v1","""event"",""trial"",""time""
""fullscreenenter"",""1"",""2869""
","
","
","""event"",""trial"",""time""
""fullscreenenter"",""1"",""2869""
","
","","","","","","null","<div style=""font-size:60px;"">+</div>","null","","fixation","","","","","","","","","","",""
"aa-learning-trial","111","594847","0.0-9.0-2.0-1.19","8404","1","15","Male","approach_avoid_spark_v1","""event"",""trial"",""time""
""fullscreenenter"",""1"",""2869""
","
","
","""event"",""trial"",""time""
""fullscreenenter"",""1"",""2869""
","
","","","","","","487.30000001192093","images/sofa4.png","","","learning","-1","-1","1","1","sofa","furniture","1","0","","neutral","0"
"html-keyboard-response","112","595351","0.0-9.0-2.0-0.20","8404","1","15","Male","approach_avoid_spark_v1","""event"",""trial"",""time""
""fullscreenenter"",""1"",""2869""
","
","
","""event"",""trial"",""time""
""fullscreenenter"",""1"",""2869""
","
","","","","","","null","<div style=""font-size:60px;"">+</div>","null","","fixation","","","","","","","","","","",""
"aa-learning-trial","113","598360","0.0-9.0-2.0-1.20","8404","1","15","Male","approach_avoid_spark_v1","""event"",""trial"",""time""
""fullscreenenter"",""1"",""2869""
","
","
","""event"",""trial"",""time""
""fullscreenenter"",""1"",""2869""
","
","","","","","","298","images/table5.png","","","learning","-4","-4","1","1","table","furniture","1","0","","bad","[-4]"
"html-keyboard-response","114","598865","0.0-9.0-2.0-0.21","8404","1","15","Male","approach_avoid_spark_v1","""event"",""trial"",""time""
""fullscreenenter"",""1"",""2869""
","
","
","""event"",""trial"",""time""
""fullscreenenter"",""1"",""2869""
","
","","","","","","null","<div style=""font-size:60px;"">+</div>","null","","fixation","","","","","","","","","","",""
"aa-learning-trial","115","601872","0.0-9.0-2.0-1.21","8404","1","15","Male","approach_avoid_spark_v1","""event"",""trial"",""time""
""fullscreenenter"",""1"",""2869""
","
","
","""event"",""trial"",""time""
""fullscreenenter"",""1"",""2869""
","
","","","","","","905.0999999940395","images/table4.png","","","learning","-5","-5","1","1","table","furniture","1","0","","bad","[-4]"
"html-keyboard-response","116","602376","0.0-9.0-2.0-0.22","8404","1","15","Male","approach_avoid_spark_v1","""event"",""trial"",""time""
""fullscreenenter"",""1"",""2869""
","
","
","""event"",""trial"",""time""
""fullscreenenter"",""1"",""2869""
","
","","","","","","null","<div style=""font-size:60px;"">+</div>","null","","fixation","","","","","","","","","","",""
"aa-learning-trial","117","605382","0.0-9.0-2.0-1.22","8404","1","15","Male","approach_avoid_spark_v1","""event"",""trial"",""time""
""fullscreenenter"",""1"",""2869""
","
","
","""event"",""trial"",""time""
""fullscreenenter"",""1"",""2869""
","
","","","","","","354.80000001192093","images/chair1.png","","","learning","6","6","1","1","chair","furniture","1","0","","good","[4]"
"html-keyboard-response","118","605888","0.0-9.0-2.0-0.23","8404","1","15","Male","approach_avoid_spark_v1","""event"",""trial"",""time""
""fullscreenenter"",""1"",""2869""
","
","
","""event"",""trial"",""time""
""fullscreenenter"",""1"",""2869""
","
","","","","","","null","<div style=""font-size:60px;"">+</div>","null","","fixation","","","","","","","","","","",""
"aa-learning-trial","119","608895","0.0-9.0-2.0-1.23","8404","1","15","Male","approach_avoid_spark_v1","""event"",""trial"",""time""
""fullscreenenter"",""1"",""2869""
","
","
","""event"",""trial"",""time""
""fullscreenenter"",""1"",""2869""
","
","","","","","","444.59999999403954","images/sofa6.png","","","learning","[-1]","-1","1","1","sofa","furniture","1","0","","neutral","0"
"html-keyboard-response","120","609398","0.0-9.0-2.0-0.24","8404","1","15","Male","approach_avoid_spark_v1","""event"",""trial"",""time""
""fullscreenenter"",""1"",""2869""
","
","
","""event"",""trial"",""time""
""fullscreenenter"",""1"",""2869""
","
","","","","","","null","<div style=""font-size:60px;"">+</div>","null","","fixation","","","","","","","","","","",""
"aa-learning-trial","121","612407","0.0-9.0-2.0-1.24","8404","1","15","Male","approach_avoid_spark_v1","""event"",""trial"",""time""
""fullscreenenter"",""1"",""2869""
","
","
","""event"",""trial"",""time""
""fullscreenenter"",""1"",""2869""
","
","","","","","","544.4000000059605","images/table3.png","","","learning","-3","-3","1","1","table","furniture","1","0","","bad","[-4]"
"html-keyboard-response","122","612913","0.0-9.0-2.0-0.25","8404","1","15","Male","approach_avoid_spark_v1","""event"",""trial"",""time""
""fullscreenenter"",""1"",""2869""
","
","
","""event"",""trial"",""time""
""fullscreenenter"",""1"",""2869""
","
","","","","","","null","<div style=""font-size:60px;"">+</div>","null","","fixation","","","","","","","","","","",""
"aa-learning-trial","123","615923","0.0-9.0-2.0-1.25","8404","1","15","Male","approach_avoid_spark_v1","""event"",""trial"",""time""
""fullscreenenter"",""1"",""2869""
","
","
","""event"",""trial"",""time""
""fullscreenenter"",""1"",""2869""
","
","","","","","","328","images/table4.png","","","learning","-2","-2","1","1","table","furniture","1","0","","bad","[-4]"
"html-keyboard-response","124","616430","0.0-9.0-2.0-0.26","8404","1","15","Male","approach_avoid_spark_v1","""event"",""trial"",""time""
""fullscreenenter"",""1"",""2869""
","
","
","""event"",""trial"",""time""
""fullscreenenter"",""1"",""2869""
","
","","","","","","null","<div style=""font-size:60px;"">+</div>","null","","fixation","","","","","","","","","","",""
"aa-learning-trial","125","619438","0.0-9.0-2.0-1.26","8404","1","15","Male","approach_avoid_spark_v1","""event"",""trial"",""time""
""fullscreenenter"",""1"",""2869""
","
","
","""event"",""trial"",""time""
""fullscreenenter"",""1"",""2869""
","
","","","","","","380.40000000596046","images/sofa2.png","","","learning","1","1","1","1","sofa","furniture","1","0","","neutral","0"
"html-keyboard-response","126","619945","0.0-9.0-2.0-0.27","8404","1","15","Male","approach_avoid_spark_v1","""event"",""trial"",""time""
""fullscreenenter"",""1"",""2869""
","
","
","""event"",""trial"",""time""
""fullscreenenter"",""1"",""2869""
","
","","","","","","null","<div style=""font-size:60px;"">+</div>","null","","fixation","","","","","","","","","","",""
"aa-learning-trial","127","622953","0.0-9.0-2.0-1.27","8404","1","15","Male","approach_avoid_spark_v1","""event"",""trial"",""time""
""fullscreenenter"",""1"",""2869""
","
","
","""event"",""trial"",""time""
""fullscreenenter"",""1"",""2869""
","
","","","","","","401.19999998807907","images/chair2.png","","","learning","3","3","1","1","chair","furniture","1","0","","good","[4]"
"html-keyboard-response","128","623456","0.0-9.0-2.0-0.28","8404","1","15","Male","approach_avoid_spark_v1","""event"",""trial"",""time""
""fullscreenenter"",""1"",""2869""
","
","
","""event"",""trial"",""time""
""fullscreenenter"",""1"",""2869""
","
","","","","","","null","<div style=""font-size:60px;"">+</div>","null","","fixation","","","","","","","","","","",""
"aa-learning-trial","129","626466","0.0-9.0-2.0-1.28","8404","1","15","Male","approach_avoid_spark_v1","""event"",""trial"",""time""
""fullscreenenter"",""1"",""2869""
","
","
","""event"",""trial"",""time""
""fullscreenenter"",""1"",""2869""
","
","","","","","","544.9000000059605","images/chair2.png","","","learning","4","4","1","1","chair","furniture","1","0","","good","[4]"
"html-keyboard-response","130","626978","0.0-9.0-2.0-0.29","8404","1","15","Male","approach_avoid_spark_v1","""event"",""trial"",""time""
""fullscreenenter"",""1"",""2869""
","
","
","""event"",""trial"",""time""
""fullscreenenter"",""1"",""2869""
","
","","","","","","null","<div style=""font-size:60px;"">+</div>","null","","fixation","","","","","","","","","","",""
"aa-learning-trial","131","629985","0.0-9.0-2.0-1.29","8404","1","15","Male","approach_avoid_spark_v1","""event"",""trial"",""time""
""fullscreenenter"",""1"",""2869""
","
","
","""event"",""trial"",""time""
""fullscreenenter"",""1"",""2869""
","
","","","","","","510.19999998807907","images/chair1.png","","","learning","3","3","1","1","chair","furniture","1","0","","good","[4]"
"html-keyboard-response","132","630491","0.0-9.0-2.0-0.30","8404","1","15","Male","approach_avoid_spark_v1","""event"",""trial"",""time""
""fullscreenenter"",""1"",""2869""
","
","
","""event"",""trial"",""time""
""fullscreenenter"",""1"",""2869""
","
","","","","","","null","<div style=""font-size:60px;"">+</div>","null","","fixation","","","","","","","","","","",""
"aa-learning-trial","133","633494","0.0-9.0-2.0-1.30","8404","1","15","Male","approach_avoid_spark_v1","""event"",""trial"",""time""
""fullscreenenter"",""1"",""2869""
","
","
","""event"",""trial"",""time""
""fullscreenenter"",""1"",""2869""
","
","","","","","","684.9000000059605","images/sofa7.png","","","learning","1","1","1","1","sofa","furniture","1","0","","neutral","0"
"html-keyboard-response","134","634002","0.0-9.0-2.0-0.31","8404","1","15","Male","approach_avoid_spark_v1","""event"",""trial"",""time""
""fullscreenenter"",""1"",""2869""
","
","
","""event"",""trial"",""time""
""fullscreenenter"",""1"",""2869""
","
","","","","","","null","<div style=""font-size:60px;"">+</div>","null","","fixation","","","","","","","","","","",""
"aa-learning-trial","135","637010","0.0-9.0-2.0-1.31","8404","1","15","Male","approach_avoid_spark_v1","""event"",""trial"",""time""
""fullscreenenter"",""1"",""2869""
","
","
","""event"",""trial"",""time""
""fullscreenenter"",""1"",""2869""
","
","","","","","","363","images/table4.png","","","learning","-4","-4","1","1","table","furniture","1","0","","bad","[-4]"
"html-keyboard-response","136","637521","0.0-9.0-2.0-0.32","8404","1","15","Male","approach_avoid_spark_v1","""event"",""trial"",""time""
""fullscreenenter"",""1"",""2869""
","
","
","""event"",""trial"",""time""
""fullscreenenter"",""1"",""2869""
","
","","","","","","null","<div style=""font-size:60px;"">+</div>","null","","fixation","","","","","","","","","","",""
"aa-learning-trial","137","640527","0.0-9.0-2.0-1.32","8404","1","15","Male","approach_avoid_spark_v1","""event"",""trial"",""time""
""fullscreenenter"",""1"",""2869""
","
","
","""event"",""trial"",""time""
""fullscreenenter"",""1"",""2869""
","
","","","","","","366.09999999403954","images/chair7.png","","","learning","5","0","0","0","chair","furniture","1","0","","good","[4]"
"html-keyboard-response","138","641032","0.0-9.0-2.0-0.33","8404","1","15","Male","approach_avoid_spark_v1","""event"",""trial"",""time""
""fullscreenenter"",""1"",""2869""
","
","
","""event"",""trial"",""time""
""fullscreenenter"",""1"",""2869""
","
","","","","","","null","<div style=""font-size:60px;"">+</div>","null","","fixation","","","","","","","","","","",""
"aa-learning-trial","139","644039","0.0-9.0-2.0-1.33","8404","1","15","Male","approach_avoid_spark_v1","""event"",""trial"",""time""
""fullscreenenter"",""1"",""2869""
","
","
","""event"",""trial"",""time""
""fullscreenenter"",""1"",""2869""
","
","","","","","","609.1999999880791","images/sofa2.png","","","learning","-1","0","0","0","sofa","furniture","1","0","","neutral","0"
"html-keyboard-response","140","644544","0.0-9.0-2.0-0.34","8404","1","15","Male","approach_avoid_spark_v1","""event"",""trial"",""time""
""fullscreenenter"",""1"",""2869""
","
","
","""event"",""trial"",""time""
""fullscreenenter"",""1"",""2869""
","
","","","","","","null","<div style=""font-size:60px;"">+</div>","null","","fixation","","","","","","","","","","",""
"aa-learning-trial","141","647551","0.0-9.0-2.0-1.34","8404","1","15","Male","approach_avoid_spark_v1","""event"",""trial"",""time""
""fullscreenenter"",""1"",""2869""
","
","
","""event"",""trial"",""time""
""fullscreenenter"",""1"",""2869""
","
","","","","","","393","images/table1.png","","","learning","-1","0","0","0","table","furniture","1","0","","bad","[-4]"
"html-keyboard-response","142","648057","0.0-9.0-2.0-0.35","8404","1","15","Male","approach_avoid_spark_v1","""event"",""trial"",""time""
""fullscreenenter"",""1"",""2869""
","
","
","""event"",""trial"",""time""
""fullscreenenter"",""1"",""2869""
","
","","","","","","null","<div style=""font-size:60px;"">+</div>","null","","fixation","","","","","","","","","","",""
"aa-learning-trial","143","651064","0.0-9.0-2.0-1.35","8404","1","15","Male","approach_avoid_spark_v1","""event"",""trial"",""time""
""fullscreenenter"",""1"",""2869""
","
","
","""event"",""trial"",""time""
""fullscreenenter"",""1"",""2869""
","
","","","","","","79","images/chair3.png","","","learning","4","0","0","0","chair","furniture","1","0","","good","[4]"
"html-keyboard-response","144","651568","0.0-9.0-2.0-0.36","8404","1","15","Male","approach_avoid_spark_v1","""event"",""trial"",""time""
""fullscreenenter"",""1"",""2869""
","
","
","""event"",""trial"",""time""
""fullscreenenter"",""1"",""2869""
","
","","","","","","null","<div style=""font-size:60px;"">+</div>","null","","fixation","","","","","","","","","","",""
"aa-learning-trial","145","654575","0.0-9.0-2.0-1.36","8404","1","15","Male","approach_avoid_spark_v1","""event"",""trial"",""time""
""fullscreenenter"",""1"",""2869""
","
","
","""event"",""trial"",""time""
""fullscreenenter"",""1"",""2869""
","
","","","","","","334.09999999403954","images/sofa7.png","","","learning","2","2","1","1","sofa","furniture","1","0","","neutral","0"
"html-keyboard-response","146","655080","0.0-9.0-2.0-0.37","8404","1","15","Male","approach_avoid_spark_v1","""event"",""trial"",""time""
""fullscreenenter"",""1"",""2869""
","
","
","""event"",""trial"",""time""
""fullscreenenter"",""1"",""2869""
","
","","","","","","null","<div style=""font-size:60px;"">+</div>","null","","fixation","","","","","","","","","","",""
"aa-learning-trial","147","658087","0.0-9.0-2.0-1.37","8404","1","15","Male","approach_avoid_spark_v1","""event"",""trial"",""time""
""fullscreenenter"",""1"",""2869""
","
","
","""event"",""trial"",""time""
""fullscreenenter"",""1"",""2869""
","
","","","","","","118.7000000178814","images/table3.png","","","learning","-3","-3","1","1","table","furniture","1","0","","bad","[-4]"
"html-keyboard-response","148","658592","0.0-9.0-2.0-0.38","8404","1","15","Male","approach_avoid_spark_v1","""event"",""trial"",""time""
""fullscreenenter"",""1"",""2869""
","
","
","""event"",""trial"",""time""
""fullscreenenter"",""1"",""2869""
","
","","","","","","null","<div style=""font-size:60px;"">+</div>","null","","fixation","","","","","","","","","","",""
"aa-learning-trial","149","661599","0.0-9.0-2.0-1.38","8404","1","15","Male","approach_avoid_spark_v1","""event"",""trial"",""time""
""fullscreenenter"",""1"",""2869""
","
","
","""event"",""trial"",""time""
""fullscreenenter"",""1"",""2869""
","
","","","","","","368.59999999403954","images/table7.png","","","learning","-3","-3","1","1","table","furniture","1","0","","bad","[-4]"
"html-keyboard-response","150","662105","0.0-9.0-2.0-0.39","8404","1","15","Male","approach_avoid_spark_v1","""event"",""trial"",""time""
""fullscreenenter"",""1"",""2869""
","
","
","""event"",""trial"",""time""
""fullscreenenter"",""1"",""2869""
","
","","","","","","null","<div style=""font-size:60px;"">+</div>","null","","fixation","","","","","","","","","","",""
"aa-learning-trial","151","665112","0.0-9.0-2.0-1.39","8404","1","15","Male","approach_avoid_spark_v1","""event"",""trial"",""time""
""fullscreenenter"",""1"",""2869""
","
","
","""event"",""trial"",""time""
""fullscreenenter"",""1"",""2869""
","
","","","","","","574.5","images/sofa2.png","","","learning","[1]","1","1","1","sofa","furniture","1","0","","neutral","0"
"html-keyboard-response","152","665615","0.0-9.0-2.0-0.40","8404","1","15","Male","approach_avoid_spark_v1","""event"",""trial"",""time""
""fullscreenenter"",""1"",""2869""
","
","
","""event"",""trial"",""time""
""fullscreenenter"",""1"",""2869""
","
","","","","","","null","<div style=""font-size:60px;"">+</div>","null","","fixation","","","","","","","","","","",""
"aa-learning-trial","153","668623","0.0-9.0-2.0-1.40","8404","1","15","Male","approach_avoid_spark_v1","""event"",""trial"",""time""
""fullscreenenter"",""1"",""2869""
","
","
","""event"",""trial"",""time""
""fullscreenenter"",""1"",""2869""
","
","","","","","","375.19999998807907","images/chair4.png","","","learning","2","2","1","1","chair","furniture","1","0","","good","[4]"
"html-keyboard-response","154","669128","0.0-9.0-2.0-0.41","8404","1","15","Male","approach_avoid_spark_v1","""event"",""trial"",""time""
""fullscreenenter"",""1"",""2869""
","
","
","""event"",""trial"",""time""
""fullscreenenter"",""1"",""2869""
","
","","","","","","null","<div style=""font-size:60px;"">+</div>","null","","fixation","","","","","","","","","","",""
"aa-learning-trial","155","672135","0.0-9.0-2.0-1.41","8404","1","15","Male","approach_avoid_spark_v1","""event"",""trial"",""time""
""fullscreenenter"",""1"",""2869""
","
","
","""event"",""trial"",""time""
""fullscreenenter"",""1"",""2869""
","
","","","","","","765.4000000059605","images/sofa7.png","","","learning","1","0","0","0","sofa","furniture","1","0","","neutral","0"
"html-keyboard-response","156","672640","0.0-9.0-2.0-0.42","8404","1","15","Male","approach_avoid_spark_v1","""event"",""trial"",""time""
""fullscreenenter"",""1"",""2869""
","
","
","""event"",""trial"",""time""
""fullscreenenter"",""1"",""2869""
","
","","","","","","null","<div style=""font-size:60px;"">+</div>","null","","fixation","","","","","","","","","","",""
"aa-learning-trial","157","675647","0.0-9.0-2.0-1.42","8404","1","15","Male","approach_avoid_spark_v1","""event"",""trial"",""time""
""fullscreenenter"",""1"",""2869""
","
","
","""event"",""trial"",""time""
""fullscreenenter"",""1"",""2869""
","
","","","","","","427.19999998807907","images/chair1.png","","","learning","5","5","1","1","chair","furniture","1","0","","good","[4]"
"html-keyboard-response","158","676152","0.0-9.0-2.0-0.43","8404","1","15","Male","approach_avoid_spark_v1","""event"",""trial"",""time""
""fullscreenenter"",""1"",""2869""
","
","
","""event"",""trial"",""time""
""fullscreenenter"",""1"",""2869""
","
","","","","","","null","<div style=""font-size:60px;"">+</div>","null","","fixation","","","","","","","","","","",""
"aa-learning-trial","159","679161","0.0-9.0-2.0-1.43","8404","1","15","Male","approach_avoid_spark_v1","""event"",""trial"",""time""
""fullscreenenter"",""1"",""2869""
","
","
","""event"",""trial"",""time""
""fullscreenenter"",""1"",""2869""
","
","","","","","","766.4000000059605","images/chair2.png","","","learning","3","3","1","1","chair","furniture","1","0","","good","[4]"
"html-keyboard-response","160","679665","0.0-9.0-2.0-0.44","8404","1","15","Male","approach_avoid_spark_v1","""event"",""trial"",""time""
""fullscreenenter"",""1"",""2869""
","
","
","""event"",""trial"",""time""
""fullscreenenter"",""1"",""2869""
","
","","","","","","null","<div style=""font-size:60px;"">+</div>","null","","fixation","","","","","","","","","","",""
"aa-learning-trial","161","682672","0.0-9.0-2.0-1.44","8404","1","15","Male","approach_avoid_spark_v1","""event"",""trial"",""time""
""fullscreenenter"",""1"",""2869""
","
","
","""event"",""trial"",""time""
""fullscreenenter"",""1"",""2869""
","
","","","","","","347.19999998807907","images/table3.png","","","learning","-6","0","0","0","table","furniture","1","0","","bad","[-4]"
"html-keyboard-response","162","683176","0.0-9.0-2.0-0.45","8404","1","15","Male","approach_avoid_spark_v1","""event"",""trial"",""time""
""fullscreenenter"",""1"",""2869""
","
","
","""event"",""trial"",""time""
""fullscreenenter"",""1"",""2869""
","
","","","","","","null","<div style=""font-size:60px;"">+</div>","null","","fixation","","","","","","","","","","",""
"aa-learning-trial","163","686183","0.0-9.0-2.0-1.45","8404","1","15","Male","approach_avoid_spark_v1","""event"",""trial"",""time""
""fullscreenenter"",""1"",""2869""
","
","
","""event"",""trial"",""time""
""fullscreenenter"",""1"",""2869""
","
","","","","","","512.3000000119209","images/sofa7.png","","","learning","[-1]","0","0","0","sofa","furniture","1","0","","neutral","0"
"html-keyboard-response","164","686688","0.0-9.0-2.0-0.46","8404","1","15","Male","approach_avoid_spark_v1","""event"",""trial"",""time""
""fullscreenenter"",""1"",""2869""
","
","
","""event"",""trial"",""time""
""fullscreenenter"",""1"",""2869""
","
","","","","","","null","<div style=""font-size:60px;"">+</div>","null","","fixation","","","","","","","","","","",""
"aa-learning-trial","165","689695","0.0-9.0-2.0-1.46","8404","1","15","Male","approach_avoid_spark_v1","""event"",""trial"",""time""
""fullscreenenter"",""1"",""2869""
","
","
","""event"",""trial"",""time""
""fullscreenenter"",""1"",""2869""
","
","","","","","","993.3000000119209","images/chair2.png","","","learning","4","0","0","0","chair","furniture","1","0","","good","[4]"
"html-keyboard-response","166","690200","0.0-9.0-2.0-0.47","8404","1","15","Male","approach_avoid_spark_v1","""event"",""trial"",""time""
""fullscreenenter"",""1"",""2869""
","
","
","""event"",""trial"",""time""
""fullscreenenter"",""1"",""2869""
","
","","","","","","null","<div style=""font-size:60px;"">+</div>","null","","fixation","","","","","","","","","","",""
"aa-learning-trial","167","693210","0.0-9.0-2.0-1.47","8404","1","15","Male","approach_avoid_spark_v1","""event"",""trial"",""time""
""fullscreenenter"",""1"",""2869""
","
","
","""event"",""trial"",""time""
""fullscreenenter"",""1"",""2869""
","
","","","","","","580","images/chair1.png","","","learning","3","3","1","1","chair","furniture","1","0","","good","[4]"
"html-keyboard-response","168","693714","0.0-9.0-2.0-0.48","8404","1","15","Male","approach_avoid_spark_v1","""event"",""trial"",""time""
""fullscreenenter"",""1"",""2869""
","
","
","""event"",""trial"",""time""
""fullscreenenter"",""1"",""2869""
","
","","","","","","null","<div style=""font-size:60px;"">+</div>","null","","fixation","","","","","","","","","","",""
"aa-learning-trial","169","696720","0.0-9.0-2.0-1.48","8404","1","15","Male","approach_avoid_spark_v1","""event"",""trial"",""time""
""fullscreenenter"",""1"",""2869""
","
","
","""event"",""trial"",""time""
""fullscreenenter"",""1"",""2869""
","
","","","","","","447.7000000178814","images/table3.png","","","learning","-3","0","0","0","table","furniture","1","0","","bad","[-4]"
"html-keyboard-response","170","697225","0.0-9.0-2.0-0.49","8404","1","15","Male","approach_avoid_spark_v1","""event"",""trial"",""time""
""fullscreenenter"",""1"",""2869""
","
","
","""event"",""trial"",""time""
""fullscreenenter"",""1"",""2869""
","
","","","","","","null","<div style=""font-size:60px;"">+</div>","null","","fixation","","","","","","","","","","",""
"aa-learning-trial","171","700231","0.0-9.0-2.0-1.49","8404","1","15","Male","approach_avoid_spark_v1","""event"",""trial"",""time""
""fullscreenenter"",""1"",""2869""
","
","
","""event"",""trial"",""time""
""fullscreenenter"",""1"",""2869""
","
","","","","","","511.59999999403954","images/sofa1.png","","","learning","[-1]","0","0","0","sofa","furniture","1","0","","neutral","0"
"html-keyboard-response","172","700736","0.0-9.0-2.0-0.50","8404","1","15","Male","approach_avoid_spark_v1","""event"",""trial"",""time""
""fullscreenenter"",""1"",""2869""
","
","
","""event"",""trial"",""time""
""fullscreenenter"",""1"",""2869""
","
","","","","","","null","<div style=""font-size:60px;"">+</div>","null","","fixation","","","","","","","","","","",""
"aa-learning-trial","173","703743","0.0-9.0-2.0-1.50","8404","1","15","Male","approach_avoid_spark_v1","""event"",""trial"",""time""
""fullscreenenter"",""1"",""2869""
","
","
","""event"",""trial"",""time""
""fullscreenenter"",""1"",""2869""
","
","","","","","","762.1999999880791","images/chair3.png","","","learning","4","0","0","0","chair","furniture","1","0","","good","[4]"
"html-button-response","174","705869","0.0-9.0-3.0","8404","1","15","Male","approach_avoid_spark_v1","""event"",""trial"",""time""
""fullscreenenter"",""1"",""2869""
","
","
","""event"",""trial"",""time""
""fullscreenenter"",""1"",""2869""
","
","","","","","","2124.5","<p> You have completed the round! <p> In this round, you earned 3 points! </p>","0","","break","","","","","","","","","","",""
"html-button-response","175","711721","0.0-10.0","8404","1","15","Male","approach_avoid_spark_v1","""event"",""trial"",""time""
""fullscreenenter"",""1"",""2869""
","
","
","""event"",""trial"",""time""
""fullscreenenter"",""1"",""2869""
","
","","","","","","5851","<p> Now it's time to play another round. </p>","0","","transition_screen","","","","","","","","","","",""
"preload","176","711845","0.0-11.0-0.0","8404","1","15","Male","approach_avoid_spark_v1","""event"",""trial"",""time""
""fullscreenenter"",""1"",""2869""
","
","
","""event"",""trial"",""time""
""fullscreenenter"",""1"",""2869""
","
","true","false","[]","[]","[]","","","","","","","","","","","","","","","",""
"learning-instructions","177","719814","0.0-11.0-1.0-0.0","8404","1","15","Male","approach_avoid_spark_v1","""event"",""trial"",""time""
""fullscreenenter"",""1"",""2869""
","
","
","""event"",""trial"",""time""
""fullscreenenter"",""1"",""2869""
","
","","","","","","1846.7999999821186","<p> Your goal in this round is to take your friend for rides in different vehicles. </p></div>","","0","instructions","","","","","","","","","","",""
"learning-instructions","178","732797","0.0-11.0-1.0-0.1","8404","1","15","Male","approach_avoid_spark_v1","""event"",""trial"",""time""
""fullscreenenter"",""1"",""2869""
","
","
","""event"",""trial"",""time""
""fullscreenenter"",""1"",""2869""
","
","","","","","","2100.100000023842","<p> Your friend enjoys riding in some vehicles but not in others.  </p><p> On each turn, you will see a vehicle.   </p><p> You need to decide whether to take your friend for a ride or not.  </p>","","0","instructions","","","","","","","","","","",""
"learning-instructions","179","743229","0.0-11.0-1.0-0.2","8404","1","15","Male","approach_avoid_spark_v1","""event"",""trial"",""time""
""fullscreenenter"",""1"",""2869""
","
","
","""event"",""trial"",""time""
""fullscreenenter"",""1"",""2869""
","
","","","","","","3400","<p> You can take your friend for a ride in the vehicle by pressing 1 and skip the ride by pressing 0. </p><br><div class=""choice-instructions-grid""> <div class=""choice-option""><img src=""images/approach.png"" class=""choice-option-img"" stage=""instructions"" position=""0"" ><div class=""choice-option-text""> Press ""1."" </div></div><div class=""choice-option""><img src=""images/avoid.png"" class=""choice-option-img"" stage=""instructions"" position=""1"" ><div class=""choice-option-text""> Press ""0."" </div></div>","","0","instructions","","","","","","","","","","",""
"learning-instructions","180","753661","0.0-11.0-1.0-0.3","8404","1","15","Male","approach_avoid_spark_v1","""event"",""trial"",""time""
""fullscreenenter"",""1"",""2869""
","
","
","""event"",""trial"",""time""
""fullscreenenter"",""1"",""2869""
","
","","","","","","1067.6000000238419","<p> If you take them for a ride in a vehicle they like, they will be thrilled! </p><p> But if you take them for a ride in a vehicle they do not like, they will be upset. </p>","","0","instructions","","","","","","","","","","",""
"learning-instructions","181","767606","0.0-11.0-1.0-0.4","8404","1","15","Male","approach_avoid_spark_v1","""event"",""trial"",""time""
""fullscreenenter"",""1"",""2869""
","
","
","""event"",""trial"",""time""
""fullscreenenter"",""1"",""2869""
","
","","","","","","1010.6999999880791","<p> You will earn points based on how you made your friend feel. </p><p> If you made him thrilled, you will WIN anywhere from 1 - 9 points, </p><p> but if you made him upset, you will LOSE anywhere from 1 - 9 points. </p>","","0","instructions","","","","","","","","","","",""
"learning-instructions","182","775751","0.0-11.0-1.0-0.5","8404","1","15","Male","approach_avoid_spark_v1","""event"",""trial"",""time""
""fullscreenenter"",""1"",""2869""
","
","
","""event"",""trial"",""time""
""fullscreenenter"",""1"",""2869""
","
","","","","","","1486.5","<p> You will see how many points you won or lost in the center of the screen. </p><p> Here is what you would see if you won 5 points: </p><p style=""color:green;font-size:50px;font-weight:bolder"">5</p>","","0","instructions","","","","","","","","","","",""
"learning-instructions","183","779510","0.0-11.0-1.0-0.6","8404","1","15","Male","approach_avoid_spark_v1","""event"",""trial"",""time""
""fullscreenenter"",""1"",""2869""
","
","
","""event"",""trial"",""time""
""fullscreenenter"",""1"",""2869""
","
","","","","","","926.3000000119209","<p> And here is what you would see if you lost 3 points: </p><p style=""color:red;font-size:50px;font-weight:bolder"">-3</p>","","0","instructions","","","","","","","","","","",""
"learning-instructions","184","796353","0.0-11.0-1.0-0.7","8404","1","15","Male","approach_avoid_spark_v1","""event"",""trial"",""time""
""fullscreenenter"",""1"",""2869""
","
","
","""event"",""trial"",""time""
""fullscreenenter"",""1"",""2869""
","
","","","","","","976","<p> Some vehicles will make your friend REALLY thrilled or upset. </p><p> These vehicles will make you win or lose LOTS of points. </p><p> Other vehicles will only make him feel a little thrilled or upset. </p><p> These vehicles will make you win or lose small amounts of points. </p>","","0","instructions","","","","","","","","","","",""
"learning-instructions","185","812250","0.0-11.0-1.0-0.8","8404","1","15","Male","approach_avoid_spark_v1","""event"",""trial"",""time""
""fullscreenenter"",""1"",""2869""
","
","
","""event"",""trial"",""time""
""fullscreenenter"",""1"",""2869""
","
","","","","","","3671.800000011921","<p> If you choose to skip the ride, you will not win or lose any points. </p><p>  However, in the center of the screen, you will see the number of points you WOULD HAVE won or lost if you had taken your friend for a ride. </p>","","0","instructions","","","","","","","","","","",""
"learning-instructions","186","824641","0.0-11.0-1.0-0.9","8404","1","15","Male","approach_avoid_spark_v1","""event"",""trial"",""time""
""fullscreenenter"",""1"",""2869""
","
","
","""event"",""trial"",""time""
""fullscreenenter"",""1"",""2869""
","
","","","","","","1277.9000000059605","<p> Here is what you might see if you did not take your friend for a ride but he would have enjoyed it: </p><p style=""color:grey; font-size:50px; display: inline-block; border-spacing: 15px; border-width:3px; border-style:solid; border-color:red"">  &nbsp; 6 &nbsp; </p><p> Remember, in this case, you would not win or lose ANY points because you skipped the ride.  </p>","","0","instructions","","","","","","","","","","",""
"learning-instructions","187","835213","0.0-11.0-1.0-0.10","8404","1","15","Male","approach_avoid_spark_v1","""event"",""trial"",""time""
""fullscreenenter"",""1"",""2869""
","
","
","""event"",""trial"",""time""
""fullscreenenter"",""1"",""2869""
","
","","","","","","2196.5999999940395","<p> Try to make the best choice for each vehicle because </p><p> at the end of the game, you will earn bonus money based on how many points you earned. </p>","","0","instructions","","","","","","","","","","",""
"learning-instructions","188","844755","0.0-11.0-1.0-0.11","8404","1","15","Male","approach_avoid_spark_v1","""event"",""trial"",""time""
""fullscreenenter"",""1"",""2869""
","
","
","""event"",""trial"",""time""
""fullscreenenter"",""1"",""2869""
","
","","","","","","1359.199999988079","<p> You will have 3 seconds to make each choice. Try to respond before time runs out! </p><p> You will lose 5 points each time you do not make a response. </p>","","0","instructions","","","","","","","","","","",""
"html-keyboard-response","189","845361","0.0-11.0-2.0-0.0","8404","1","15","Male","approach_avoid_spark_v1","""event"",""trial"",""time""
""fullscreenenter"",""1"",""2869""
","
","
","""event"",""trial"",""time""
""fullscreenenter"",""1"",""2869""
","
","","","","","","null","<div style=""font-size:60px;"">+</div>","null","","fixation","","","","","","","","","","",""
"aa-learning-trial","190","848371","0.0-11.0-2.0-1.0","8404","1","15","Male","approach_avoid_spark_v1","""event"",""trial"",""time""
""fullscreenenter"",""1"",""2869""
","
","
","""event"",""trial"",""time""
""fullscreenenter"",""1"",""2869""
","
","","","","","","2880.199999988079","images/truck2.png","","","learning","-5","-5","1","1","truck","vehicles","2","1","","bad","[-6]"
"html-keyboard-response","191","848875","0.0-11.0-2.0-0.1","8404","1","15","Male","approach_avoid_spark_v1","""event"",""trial"",""time""
""fullscreenenter"",""1"",""2869""
","
","
","""event"",""trial"",""time""
""fullscreenenter"",""1"",""2869""
","
","","","","","","null","<div style=""font-size:60px;"">+</div>","null","","fixation","","","","","","","","","","",""
"aa-learning-trial","192","851883","0.0-11.0-2.0-1.1","8404","1","15","Male","approach_avoid_spark_v1","""event"",""trial"",""time""
""fullscreenenter"",""1"",""2869""
","
","
","""event"",""trial"",""time""
""fullscreenenter"",""1"",""2869""
","
","","","","","","834.7999999821186","images/plane4.png","","","learning","3","3","1","1","plane","vehicles","2","1","","good","[5]"
"html-keyboard-response","193","852387","0.0-11.0-2.0-0.2","8404","1","15","Male","approach_avoid_spark_v1","""event"",""trial"",""time""
""fullscreenenter"",""1"",""2869""
","
","
","""event"",""trial"",""time""
""fullscreenenter"",""1"",""2869""
","
","","","","","","null","<div style=""font-size:60px;"">+</div>","null","","fixation","","","","","","","","","","",""
"aa-learning-trial","194","855395","0.0-11.0-2.0-1.2","8404","1","15","Male","approach_avoid_spark_v1","""event"",""trial"",""time""
""fullscreenenter"",""1"",""2869""
","
","
","""event"",""trial"",""time""
""fullscreenenter"",""1"",""2869""
","
","","","","","","332.80000001192093","images/plane4.png","","","learning","3","3","1","1","plane","vehicles","2","1","","good","[5]"
"html-keyboard-response","195","855899","0.0-11.0-2.0-0.3","8404","1","15","Male","approach_avoid_spark_v1","""event"",""trial"",""time""
""fullscreenenter"",""1"",""2869""
","
","
","""event"",""trial"",""time""
""fullscreenenter"",""1"",""2869""
","
","","","","","","null","<div style=""font-size:60px;"">+</div>","null","","fixation","","","","","","","","","","",""
"aa-learning-trial","196","858904","0.0-11.0-2.0-1.3","8404","1","15","Male","approach_avoid_spark_v1","""event"",""trial"",""time""
""fullscreenenter"",""1"",""2869""
","
","
","""event"",""trial"",""time""
""fullscreenenter"",""1"",""2869""
","
","","","","","","280.80000001192093","images/plane5.png","","","learning","-1","-1","1","1","plane","vehicles","2","1","","good","[5]"
"html-keyboard-response","197","859412","0.0-11.0-2.0-0.4","8404","1","15","Male","approach_avoid_spark_v1","""event"",""trial"",""time""
""fullscreenenter"",""1"",""2869""
","
","
","""event"",""trial"",""time""
""fullscreenenter"",""1"",""2869""
","
","","","","","","null","<div style=""font-size:60px;"">+</div>","null","","fixation","","","","","","","","","","",""
"aa-learning-trial","198","862417","0.0-11.0-2.0-1.4","8404","1","15","Male","approach_avoid_spark_v1","""event"",""trial"",""time""
""fullscreenenter"",""1"",""2869""
","
","
","""event"",""trial"",""time""
""fullscreenenter"",""1"",""2869""
","
","","","","","","374.80000001192093","images/plane5.png","","","learning","-1","-1","1","1","plane","vehicles","2","1","","good","[5]"
"html-keyboard-response","199","862924","0.0-11.0-2.0-0.5","8404","1","15","Male","approach_avoid_spark_v1","""event"",""trial"",""time""
""fullscreenenter"",""1"",""2869""
","
","
","""event"",""trial"",""time""
""fullscreenenter"",""1"",""2869""
","
","","","","","","null","<div style=""font-size:60px;"">+</div>","null","","fixation","","","","","","","","","","",""
"aa-learning-trial","200","865928","0.0-11.0-2.0-1.5","8404","1","15","Male","approach_avoid_spark_v1","""event"",""trial"",""time""
""fullscreenenter"",""1"",""2869""
","
","
","""event"",""trial"",""time""
""fullscreenenter"",""1"",""2869""
","
","","","","","","78","images/boat8.png","","","learning","-8","-8","1","1","boat","vehicles","2","1","","neutral","0"
"html-keyboard-response","201","866432","0.0-11.0-2.0-0.6","8404","1","15","Male","approach_avoid_spark_v1","""event"",""trial"",""time""
""fullscreenenter"",""1"",""2869""
","
","
","""event"",""trial"",""time""
""fullscreenenter"",""1"",""2869""
","
","","","","","","null","<div style=""font-size:60px;"">+</div>","null","","fixation","","","","","","","","","","",""
"aa-learning-trial","202","869443","0.0-11.0-2.0-1.6","8404","1","15","Male","approach_avoid_spark_v1","""event"",""trial"",""time""
""fullscreenenter"",""1"",""2869""
","
","
","""event"",""trial"",""time""
""fullscreenenter"",""1"",""2869""
","
","","","","","","336.80000001192093","images/truck3.png","","","learning","2","2","1","1","truck","vehicles","2","1","","bad","[-6]"
"html-keyboard-response","203","869948","0.0-11.0-2.0-0.7","8404","1","15","Male","approach_avoid_spark_v1","""event"",""trial"",""time""
""fullscreenenter"",""1"",""2869""
","
","
","""event"",""trial"",""time""
""fullscreenenter"",""1"",""2869""
","
","","","","","","null","<div style=""font-size:60px;"">+</div>","null","","fixation","","","","","","","","","","",""
"aa-learning-trial","204","872955","0.0-11.0-2.0-1.7","8404","1","15","Male","approach_avoid_spark_v1","""event"",""trial"",""time""
""fullscreenenter"",""1"",""2869""
","
","
","""event"",""trial"",""time""
""fullscreenenter"",""1"",""2869""
","
","","","","","","320.90000000596046","images/boat2.png","","","learning","1","1","1","1","boat","vehicles","2","1","","neutral","0"
"html-keyboard-response","205","873461","0.0-11.0-2.0-0.8","8404","1","15","Male","approach_avoid_spark_v1","""event"",""trial"",""time""
""fullscreenenter"",""1"",""2869""
","
","
","""event"",""trial"",""time""
""fullscreenenter"",""1"",""2869""
","
","","","","","","null","<div style=""font-size:60px;"">+</div>","null","","fixation","","","","","","","","","","",""
"aa-learning-trial","206","876468","0.0-11.0-2.0-1.8","8404","1","15","Male","approach_avoid_spark_v1","""event"",""trial"",""time""
""fullscreenenter"",""1"",""2869""
","
","
","""event"",""trial"",""time""
""fullscreenenter"",""1"",""2869""
","
","","","","","","320.69999998807907","images/boat8.png","","","learning","-8","-8","1","1","boat","vehicles","2","1","","neutral","0"
"html-keyboard-response","207","876978","0.0-11.0-2.0-0.9","8404","1","15","Male","approach_avoid_spark_v1","""event"",""trial"",""time""
""fullscreenenter"",""1"",""2869""
","
","
","""event"",""trial"",""time""
""fullscreenenter"",""1"",""2869""
","
","","","","","","null","<div style=""font-size:60px;"">+</div>","null","","fixation","","","","","","","","","","",""
"aa-learning-trial","208","879985","0.0-11.0-2.0-1.9","8404","1","15","Male","approach_avoid_spark_v1","""event"",""trial"",""time""
""fullscreenenter"",""1"",""2869""
","
","
","""event"",""trial"",""time""
""fullscreenenter"",""1"",""2869""
","
","","","","","","16","images/truck1.png","","","learning","4","4","1","1","truck","vehicles","2","1","","bad","[-6]"
"html-keyboard-response","209","880490","0.0-11.0-2.0-0.10","8404","1","15","Male","approach_avoid_spark_v1","""event"",""trial"",""time""
""fullscreenenter"",""1"",""2869""
","
","
","""event"",""trial"",""time""
""fullscreenenter"",""1"",""2869""
","
","","","","","","null","<div style=""font-size:60px;"">+</div>","null","","fixation","","","","","","","","","","",""
"aa-learning-trial","210","883497","0.0-11.0-2.0-1.10","8404","1","15","Male","approach_avoid_spark_v1","""event"",""trial"",""time""
""fullscreenenter"",""1"",""2869""
","
","
","""event"",""trial"",""time""
""fullscreenenter"",""1"",""2869""
","
","","","","","","494","images/truck2.png","","","learning","-5","-5","1","1","truck","vehicles","2","1","","bad","[-6]"
"html-keyboard-response","211","884002","0.0-11.0-2.0-0.11","8404","1","15","Male","approach_avoid_spark_v1","""event"",""trial"",""time""
""fullscreenenter"",""1"",""2869""
","
","
","""event"",""trial"",""time""
""fullscreenenter"",""1"",""2869""
","
","","","","","","null","<div style=""font-size:60px;"">+</div>","null","","fixation","","","","","","","","","","",""
"aa-learning-trial","212","887009","0.0-11.0-2.0-1.11","8404","1","15","Male","approach_avoid_spark_v1","""event"",""trial"",""time""
""fullscreenenter"",""1"",""2869""
","
","
","""event"",""trial"",""time""
""fullscreenenter"",""1"",""2869""
","
","","","","","","356.19999998807907","images/truck3.png","","","learning","2","2","1","1","truck","vehicles","2","1","","bad","[-6]"
"html-keyboard-response","213","887515","0.0-11.0-2.0-0.12","8404","1","15","Male","approach_avoid_spark_v1","""event"",""trial"",""time""
""fullscreenenter"",""1"",""2869""
","
","
","""event"",""trial"",""time""
""fullscreenenter"",""1"",""2869""
","
","","","","","","null","<div style=""font-size:60px;"">+</div>","null","","fixation","","","","","","","","","","",""
"aa-learning-trial","214","890522","0.0-11.0-2.0-1.12","8404","1","15","Male","approach_avoid_spark_v1","""event"",""trial"",""time""
""fullscreenenter"",""1"",""2869""
","
","
","""event"",""trial"",""time""
""fullscreenenter"",""1"",""2869""
","
","","","","","","359.5","images/boat2.png","","","learning","1","1","1","1","boat","vehicles","2","1","","neutral","0"
"html-keyboard-response","215","891026","0.0-11.0-2.0-0.13","8404","1","15","Male","approach_avoid_spark_v1","""event"",""trial"",""time""
""fullscreenenter"",""1"",""2869""
","
","
","""event"",""trial"",""time""
""fullscreenenter"",""1"",""2869""
","
","","","","","","null","<div style=""font-size:60px;"">+</div>","null","","fixation","","","","","","","","","","",""
"aa-learning-trial","216","894033","0.0-11.0-2.0-1.13","8404","1","15","Male","approach_avoid_spark_v1","""event"",""trial"",""time""
""fullscreenenter"",""1"",""2869""
","
","
","""event"",""trial"",""time""
""fullscreenenter"",""1"",""2869""
","
","","","","","","645.5","images/boat3.png","","","learning","-3","-3","1","1","boat","vehicles","2","1","","neutral","0"
"html-keyboard-response","217","894538","0.0-11.0-2.0-0.14","8404","1","15","Male","approach_avoid_spark_v1","""event"",""trial"",""time""
""fullscreenenter"",""1"",""2869""
","
","
","""event"",""trial"",""time""
""fullscreenenter"",""1"",""2869""
","
","","","","","","null","<div style=""font-size:60px;"">+</div>","null","","fixation","","","","","","","","","","",""
"aa-learning-trial","218","897545","0.0-11.0-2.0-1.14","8404","1","15","Male","approach_avoid_spark_v1","""event"",""trial"",""time""
""fullscreenenter"",""1"",""2869""
","
","
","""event"",""trial"",""time""
""fullscreenenter"",""1"",""2869""
","
","","","","","","85.59999999403954","images/plane6.png","","","learning","-7","-7","1","1","plane","vehicles","2","1","","good","[5]"
"html-keyboard-response","219","898050","0.0-11.0-2.0-0.15","8404","1","15","Male","approach_avoid_spark_v1","""event"",""trial"",""time""
""fullscreenenter"",""1"",""2869""
","
","
","""event"",""trial"",""time""
""fullscreenenter"",""1"",""2869""
","
","","","","","","null","<div style=""font-size:60px;"">+</div>","null","","fixation","","","","","","","","","","",""
"aa-learning-trial","220","901058","0.0-11.0-2.0-1.15","8404","1","15","Male","approach_avoid_spark_v1","""event"",""trial"",""time""
""fullscreenenter"",""1"",""2869""
","
","
","""event"",""trial"",""time""
""fullscreenenter"",""1"",""2869""
","
","","","","","","542","images/truck1.png","","","learning","4","4","1","1","truck","vehicles","2","1","","bad","[-6]"
"html-keyboard-response","221","901562","0.0-11.0-2.0-0.16","8404","1","15","Male","approach_avoid_spark_v1","""event"",""trial"",""time""
""fullscreenenter"",""1"",""2869""
","
","
","""event"",""trial"",""time""
""fullscreenenter"",""1"",""2869""
","
","","","","","","null","<div style=""font-size:60px;"">+</div>","null","","fixation","","","","","","","","","","",""
"aa-learning-trial","222","904570","0.0-11.0-2.0-1.16","8404","1","15","Male","approach_avoid_spark_v1","""event"",""trial"",""time""
""fullscreenenter"",""1"",""2869""
","
","
","""event"",""trial"",""time""
""fullscreenenter"",""1"",""2869""
","
","","","","","","203.5","images/boat8.png","","","learning","-8","-8","1","1","boat","vehicles","2","1","","neutral","0"
"html-keyboard-response","223","905074","0.0-11.0-2.0-0.17","8404","1","15","Male","approach_avoid_spark_v1","""event"",""trial"",""time""
""fullscreenenter"",""1"",""2869""
","
","
","""event"",""trial"",""time""
""fullscreenenter"",""1"",""2869""
","
","","","","","","null","<div style=""font-size:60px;"">+</div>","null","","fixation","","","","","","","","","","",""
"aa-learning-trial","224","908081","0.0-11.0-2.0-1.17","8404","1","15","Male","approach_avoid_spark_v1","""event"",""trial"",""time""
""fullscreenenter"",""1"",""2869""
","
","
","""event"",""trial"",""time""
""fullscreenenter"",""1"",""2869""
","
","","","","","","456.40000000596046","images/truck2.png","","","learning","-5","-5","1","1","truck","vehicles","2","1","","bad","[-6]"
"html-keyboard-response","225","908586","0.0-11.0-2.0-0.18","8404","1","15","Male","approach_avoid_spark_v1","""event"",""trial"",""time""
""fullscreenenter"",""1"",""2869""
","
","
","""event"",""trial"",""time""
""fullscreenenter"",""1"",""2869""
","
","","","","","","null","<div style=""font-size:60px;"">+</div>","null","","fixation","","","","","","","","","","",""
"aa-learning-trial","226","911593","0.0-11.0-2.0-1.18","8404","1","15","Male","approach_avoid_spark_v1","""event"",""trial"",""time""
""fullscreenenter"",""1"",""2869""
","
","
","""event"",""trial"",""time""
""fullscreenenter"",""1"",""2869""
","
","","","","","","407.7999999821186","images/plane3.png","","","learning","6","6","1","1","plane","vehicles","2","1","","good","[5]"
"html-keyboard-response","227","912098","0.0-11.0-2.0-0.19","8404","1","15","Male","approach_avoid_spark_v1","""event"",""trial"",""time""
""fullscreenenter"",""1"",""2869""
","
","
","""event"",""trial"",""time""
""fullscreenenter"",""1"",""2869""
","
","","","","","","null","<div style=""font-size:60px;"">+</div>","null","","fixation","","","","","","","","","","",""
"aa-learning-trial","228","915108","0.0-11.0-2.0-1.19","8404","1","15","Male","approach_avoid_spark_v1","""event"",""trial"",""time""
""fullscreenenter"",""1"",""2869""
","
","
","""event"",""trial"",""time""
""fullscreenenter"",""1"",""2869""
","
","","","","","","489.7999999821186","images/plane5.png","","","learning","-1","-1","1","1","plane","vehicles","2","1","","good","[5]"
"html-keyboard-response","229","915610","0.0-11.0-2.0-0.20","8404","1","15","Male","approach_avoid_spark_v1","""event"",""trial"",""time""
""fullscreenenter"",""1"",""2869""
","
","
","""event"",""trial"",""time""
""fullscreenenter"",""1"",""2869""
","
","","","","","","null","<div style=""font-size:60px;"">+</div>","null","","fixation","","","","","","","","","","",""
"aa-learning-trial","230","918618","0.0-11.0-2.0-1.20","8404","1","15","Male","approach_avoid_spark_v1","""event"",""trial"",""time""
""fullscreenenter"",""1"",""2869""
","
","
","""event"",""trial"",""time""
""fullscreenenter"",""1"",""2869""
","
","","","","","","526","images/plane6.png","","","learning","-7","-7","1","1","plane","vehicles","2","1","","good","[5]"
"html-keyboard-response","231","919123","0.0-11.0-2.0-0.21","8404","1","15","Male","approach_avoid_spark_v1","""event"",""trial"",""time""
""fullscreenenter"",""1"",""2869""
","
","
","""event"",""trial"",""time""
""fullscreenenter"",""1"",""2869""
","
","","","","","","null","<div style=""font-size:60px;"">+</div>","null","","fixation","","","","","","","","","","",""
"aa-learning-trial","232","922130","0.0-11.0-2.0-1.21","8404","1","15","Male","approach_avoid_spark_v1","""event"",""trial"",""time""
""fullscreenenter"",""1"",""2869""
","
","
","""event"",""trial"",""time""
""fullscreenenter"",""1"",""2869""
","
","","","","","","622.7999999821186","images/boat1.png","","","learning","7","7","1","1","boat","vehicles","2","1","","neutral","0"
"html-keyboard-response","233","922637","0.0-11.0-2.0-0.22","8404","1","15","Male","approach_avoid_spark_v1","""event"",""trial"",""time""
""fullscreenenter"",""1"",""2869""
","
","
","""event"",""trial"",""time""
""fullscreenenter"",""1"",""2869""
","
","","","","","","null","<div style=""font-size:60px;"">+</div>","null","","fixation","","","","","","","","","","",""
"aa-learning-trial","234","925641","0.0-11.0-2.0-1.22","8404","1","15","Male","approach_avoid_spark_v1","""event"",""trial"",""time""
""fullscreenenter"",""1"",""2869""
","
","
","""event"",""trial"",""time""
""fullscreenenter"",""1"",""2869""
","
","","","","","","1713.9000000059605","images/boat2.png","","","learning","1","1","1","1","boat","vehicles","2","1","","neutral","0"
"html-keyboard-response","235","926146","0.0-11.0-2.0-0.23","8404","1","15","Male","approach_avoid_spark_v1","""event"",""trial"",""time""
""fullscreenenter"",""1"",""2869""
","
","
","""event"",""trial"",""time""
""fullscreenenter"",""1"",""2869""
","
","","","","","","null","<div style=""font-size:60px;"">+</div>","null","","fixation","","","","","","","","","","",""
"aa-learning-trial","236","929153","0.0-11.0-2.0-1.23","8404","1","15","Male","approach_avoid_spark_v1","""event"",""trial"",""time""
""fullscreenenter"",""1"",""2869""
","
","
","""event"",""trial"",""time""
""fullscreenenter"",""1"",""2869""
","
","","","","","","1292","images/boat2.png","","","learning","1","1","1","1","boat","vehicles","2","1","","neutral","0"
