"trial_type","trial_index","time_elapsed","internal_node_id","subject_id","task_condition","age","gender","task_version","interactions","blur_events","focus_events","fullscreenenter_events","fullscreenexit_events","success","timeout","failed_images","failed_audio","failed_video","rt","stimulus","response","button_pressed","task_part","approach_reward","points","key_press","option_selected","stim_cat","task_block","block_condition","block_number","correct","cat_type","mean_cat_reward"
"pavlovia","0","3","0.0-0.0","5635","2","20","Female","approach_avoid_spark_v1","""event"",""trial"",""time""
""fullscreenenter"",""1"",""3769""
","
","
","""event"",""trial"",""time""
""fullscreenenter"",""1"",""3769""
","
","","","","","","","","","","","","","","","","","","","","",""
"fullscreen","1","4729","0.0-1.0","5635","2","20","Female","approach_avoid_spark_v1","""event"",""trial"",""time""
""fullscreenenter"",""1"",""3769""
","
","
","""event"",""trial"",""time""
""fullscreenenter"",""1"",""3769""
","
","true","","","","","","","","","","","","","","","","","","","",""
"preload","2","9506","0.0-2.0","5635","2","20","Female","approach_avoid_spark_v1","""event"",""trial"",""time""
""fullscreenenter"",""1"",""3769""
","
","
","""event"",""trial"",""time""
""fullscreenenter"",""1"",""3769""
","
","true","false","[]","[]","[]","","","","","","","","","","","","","","","",""
"audio-keyboard-response","3","12753","0.0-3.0","5635","2","20","Female","approach_avoid_spark_v1","""event"",""trial"",""time""
""fullscreenenter"",""1"",""3769""
","
","
","""event"",""trial"",""time""
""fullscreenenter"",""1"",""3769""
","
","","","","","","3250.6666666666674","audio/beep_loop.wav"," ","","","","","","","","","","","","",""
"audio-button-response","4","14677","0.0-4.0","5635","2","20","Female","approach_avoid_spark_v1","""event"",""trial"",""time""
""fullscreenenter"",""1"",""3769""
","
","
","""event"",""trial"",""time""
""fullscreenenter"",""1"",""3769""
","
","","","","","","1920","audio/shark.wav","4","","","","","","","","","","","","",""
"audio-button-response","5","17467","0.0-5.0","5635","2","20","Female","approach_avoid_spark_v1","""event"",""trial"",""time""
""fullscreenenter"",""1"",""3769""
","
","
","""event"",""trial"",""time""
""fullscreenenter"",""1"",""3769""
","
","","","","","","1779","audio/turtle.wav","1","","","","","","","","","","","","",""
"preload","6","20773","0.0-6.0","5635","2","20","Female","approach_avoid_spark_v1","""event"",""trial"",""time""
""fullscreenenter"",""1"",""3769""
","
","
","""event"",""trial"",""time""
""fullscreenenter"",""1"",""3769""
","
","true","false","[]","[]","[]","","","","","","","","","","","","","","","",""
"html-keyboard-response","7","25346","0.0-7.0","5635","2","20","Female","approach_avoid_spark_v1","""event"",""trial"",""time""
""fullscreenenter"",""1"",""3769""
","
","
","""event"",""trial"",""time""
""fullscreenenter"",""1"",""3769""
","
","","","","","","4571.399999976158","Welcome to the experiment. Press any key to begin and to advance the instructions."," ","","","","","","","","","","","","",""
"learning-instructions","8","33809","0.0-8.0-0.0-0.0","5635","2","20","Female","approach_avoid_spark_v1","""event"",""trial"",""time""
""fullscreenenter"",""1"",""3769""
","
","
","""event"",""trial"",""time""
""fullscreenenter"",""1"",""3769""
","
","","","","","","1506.300000011921","<p> Welcome! Today you are going to play 6 different rounds of a decision-making game. </p><p> Use the mouse to click next to continue. </p>","","0","instructions","","","","","","","","","","",""
"learning-instructions","9","37674","0.0-8.0-0.0-0.1","5635","2","20","Female","approach_avoid_spark_v1","""event"",""trial"",""time""
""fullscreenenter"",""1"",""3769""
","
","
","""event"",""trial"",""time""
""fullscreenenter"",""1"",""3769""
","
","","","","","","1126.5999999642372","<p> You will start with a practice round to learn the rules. </p>","","0","instructions","","","","","","","","","","",""
"learning-instructions","10","42194","0.0-8.0-0.0-0.2","5635","2","20","Female","approach_avoid_spark_v1","""event"",""trial"",""time""
""fullscreenenter"",""1"",""3769""
","
","
","""event"",""trial"",""time""
""fullscreenenter"",""1"",""3769""
","
","","","","","","1065.2999999523163","<p> Your goal in this round is to give out sports equipment to kids. </p></div>","","0","instructions","","","","","","","","","","",""
"learning-instructions","11","50329","0.0-8.0-0.0-0.3","5635","2","20","Female","approach_avoid_spark_v1","""event"",""trial"",""time""
""fullscreenenter"",""1"",""3769""
","
","
","""event"",""trial"",""time""
""fullscreenenter"",""1"",""3769""
","
","","","","","","561.3000000119209","<p> The kids only like some of the equipment.  </p><p> On each turn, you will see a piece of sports equipment.   </p><p> You need to decide whether to give it to the kids or not.  </p>","","0","instructions","","","","","","","","","","",""
"learning-instructions","12","56009","0.0-8.0-0.0-0.4","5635","2","20","Female","approach_avoid_spark_v1","""event"",""trial"",""time""
""fullscreenenter"",""1"",""3769""
","
","
","""event"",""trial"",""time""
""fullscreenenter"",""1"",""3769""
","
","","","","","","910.8999999761581","<p> You can give them the equipment by pressing 1 and choose not to give it to them by pressing 0. </p><br><div class=""choice-instructions-grid""> <div class=""choice-option""><img src=""images/approach.png"" class=""choice-option-img"" stage=""instructions"" position=""0"" ><div class=""choice-option-text""> Press ""1."" </div></div><div class=""choice-option""><img src=""images/avoid.png"" class=""choice-option-img"" stage=""instructions"" position=""1"" ><div class=""choice-option-text""> Press ""0."" </div></div>","","0","instructions","","","","","","","","","","",""
"learning-instructions","13","64153","0.0-8.0-0.0-0.5","5635","2","20","Female","approach_avoid_spark_v1","""event"",""trial"",""time""
""fullscreenenter"",""1"",""3769""
","
","
","""event"",""trial"",""time""
""fullscreenenter"",""1"",""3769""
","
","","","","","","766","<p> If you give them a piece of equipment they like, they will be happy! </p><p> But if you give them a piece of equipment they do not like, they will be sad. </p>","","0","instructions","","","","","","","","","","",""
"learning-instructions","14","75234","0.0-8.0-0.0-0.6","5635","2","20","Female","approach_avoid_spark_v1","""event"",""trial"",""time""
""fullscreenenter"",""1"",""3769""
","
","
","""event"",""trial"",""time""
""fullscreenenter"",""1"",""3769""
","
","","","","","","556.1000000238419","<p> You will earn points based on how you make kids feel. </p><p> If you make them happy, you will WIN anywhere from 1 - 9 points, </p><p> but if you make them sad, you will LOSE anywhere from 1 - 9 points. </p>","","0","instructions","","","","","","","","","","",""
"learning-instructions","15","85569","0.0-8.0-0.0-0.7","5635","2","20","Female","approach_avoid_spark_v1","""event"",""trial"",""time""
""fullscreenenter"",""1"",""3769""
","
","
","""event"",""trial"",""time""
""fullscreenenter"",""1"",""3769""
","
","","","","","","770.6999999880791","<p> You will see how many points you won or lost in the center of the screen. </p><p> Here is what you would see if you won 6 points: </p><p style=""color:green;font-size:50px;font-weight:bolder"">6</p><p style=""color:green"">The text is GREEN because you WON points.</p>","","0","instructions","","","","","","","","","","",""
"learning-instructions","16","91849","0.0-8.0-0.0-0.8","5635","2","20","Female","approach_avoid_spark_v1","""event"",""trial"",""time""
""fullscreenenter"",""1"",""3769""
","
","
","""event"",""trial"",""time""
""fullscreenenter"",""1"",""3769""
","
","","","","","","761.1000000238419","<p> And here is what you would see if you lost 4 points: </p><p style=""color:red;font-size:50px;font-weight:bolder"">-4</p><p style=""color:red"">The text is RED because you LOST points. </p>","","0","instructions","","","","","","","","","","",""
"learning-instructions","17","108186","0.0-8.0-0.0-0.9","5635","2","20","Female","approach_avoid_spark_v1","""event"",""trial"",""time""
""fullscreenenter"",""1"",""3769""
","
","
","""event"",""trial"",""time""
""fullscreenenter"",""1"",""3769""
","
","","","","","","1618.8999999761581","<p> Some of the equipment will make the kids VERY happy or sad. </p><p> These pieces of equipment will make you win or lose LOTS of points. </p><p> Other pieces of equipment will only make the kids a little happy or sad. </p><p> These pieces of equipment will make you win or lose small amounts of points. </p>","","0","instructions","","","","","","","","","","",""
"learning-instructions","18","120297","0.0-8.0-0.0-0.10","5635","2","20","Female","approach_avoid_spark_v1","""event"",""trial"",""time""
""fullscreenenter"",""1"",""3769""
","
","
","""event"",""trial"",""time""
""fullscreenenter"",""1"",""3769""
","
","","","","","","1470.4000000357628","<p> If you choose not to give them the equipment, you will not win or lose any points. </p><p>  However, in the center of the screen, you will see the number of points you WOULD HAVE won or lost if you had given them the equipment. </p>","","0","instructions","","","","","","","","","","",""
"learning-instructions","19","142917","0.0-8.0-0.0-0.11","5635","2","20","Female","approach_avoid_spark_v1","""event"",""trial"",""time""
""fullscreenenter"",""1"",""3769""
","
","
","""event"",""trial"",""time""
""fullscreenenter"",""1"",""3769""
","
","","","","","","1069.1000000238419","<p> Here is what you might see if you did not give the equipment to the kids but it would have made them happy: </p><p style=""color:grey; font-size:50px; display: inline-block; border-spacing: 15px; border-width:3px; border-style:solid; border-color:red"">  &nbsp; 7 &nbsp; </p><p> Remember, in this case, you would not win or lose ANY points because you did not give them the equipment.  </p><p style=""color:grey"">The text is GREY because you earned ZERO points. </p><p style=""color:red"">However, choosing to give the kids the equipment would have made you win points. The box around the text is RED because you chose the worse option. </p>","","0","instructions","","","","","","","","","","",""
"learning-instructions","20","165559","0.0-8.0-0.0-0.12","5635","2","20","Female","approach_avoid_spark_v1","""event"",""trial"",""time""
""fullscreenenter"",""1"",""3769""
","
","
","""event"",""trial"",""time""
""fullscreenenter"",""1"",""3769""
","
","","","","","","1563.800000011921","<p> Here is what you might see if you did not give the equipment to the kids but it would have made them sad: </p><p style=""color:grey;font-size:50px; display: inline-block; border-spacing: 15px; border-width:3px; border-style:solid; border-color:green"">  &nbsp; -8 &nbsp; </p><p> Remember, in this case, you would not win or lose ANY points because you did not give them the equipment.  </p><p style=""color:grey"">The text is GREY because you earned ZERO points. </p><p  style=""color:green""> Choosing to give the kids the equipment would have made you lose points. The box around the text is GREEN because you chose the better option.</p>","","0","instructions","","","","","","","","","","",""
"learning-instructions","21","175529","0.0-8.0-0.0-0.13","5635","2","20","Female","approach_avoid_spark_v1","""event"",""trial"",""time""
""fullscreenenter"",""1"",""3769""
","
","
","""event"",""trial"",""time""
""fullscreenenter"",""1"",""3769""
","
","","","","","","442.89999997615814","<p> You will have 3 seconds to make each choice. Try to respond before time runs out! </p><p> You will lose 5 points each time you do not make a response. </p>","","0","instructions","","","","","","","","","","",""
"learning-instructions","22","188035","0.0-8.0-0.0-0.14","5635","2","20","Female","approach_avoid_spark_v1","""event"",""trial"",""time""
""fullscreenenter"",""1"",""3769""
","
","
","""event"",""trial"",""time""
""fullscreenenter"",""1"",""3769""
","
","","","","","","7090.300000011921","<p> This is just a practice round, but in the real game, your bonus payment will depend on your total number of points.","","0","instructions","","","","","","","","","","",""
"learning-instructions","23","197255","0.0-8.0-0.0-0.15","5635","2","20","Female","approach_avoid_spark_v1","""event"",""trial"",""time""
""fullscreenenter"",""1"",""3769""
","
","
","""event"",""trial"",""time""
""fullscreenenter"",""1"",""3769""
","
","","","","","","3458","<p> Remember, you can give them the equipment by pressing 1 and choose not to give it to them by pressing 0. </p><br><div class=""choice-instructions-grid""> <div class=""choice-option""><img src=""images/approach.png"" class=""choice-option-img"" stage=""instructions"" position=""0"" ><div class=""choice-option-text""> Press ""1."" </div></div><div class=""choice-option""><img src=""images/avoid.png"" class=""choice-option-img"" stage=""instructions"" position=""1"" ><div class=""choice-option-text""> Press ""0."" </div></div>","","0","instructions","","","","","","","","","","",""
"html-button-response","24","199766","0.0-8.0-1.0","5635","2","20","Female","approach_avoid_spark_v1","""event"",""trial"",""time""
""fullscreenenter"",""1"",""3769""
","
","
","""event"",""trial"",""time""
""fullscreenenter"",""1"",""3769""
","
","","","","","","2390.2999999523163","<p> Ready to practice? </p>","0","","","","","","","","","","","","",""
"html-keyboard-response","25","200393","0.0-8.0-2.0-0.0","5635","2","20","Female","approach_avoid_spark_v1","""event"",""trial"",""time""
""fullscreenenter"",""1"",""3769""
","
","
","""event"",""trial"",""time""
""fullscreenenter"",""1"",""3769""
","
","","","","","","null","<div style=""font-size:60px;"">+</div>","null","","fixation","","","","","","","","","","",""
"aa-learning-trial","26","203413","0.0-8.0-2.0-1.0","5635","2","20","Female","approach_avoid_spark_v1","""event"",""trial"",""time""
""fullscreenenter"",""1"",""3769""
","
","
","""event"",""trial"",""time""
""fullscreenenter"",""1"",""3769""
","
","","","","","","1304.0999999642372","images/racket4.png","","","learning","6","6","1","1","practice","practice","practice","-1","","",""
"html-keyboard-response","27","203933","0.0-8.0-2.0-0.1","5635","2","20","Female","approach_avoid_spark_v1","""event"",""trial"",""time""
""fullscreenenter"",""1"",""3769""
","
","
","""event"",""trial"",""time""
""fullscreenenter"",""1"",""3769""
","
","","","","","","null","<div style=""font-size:60px;"">+</div>","null","","fixation","","","","","","","","","","",""
"aa-learning-trial","28","206954","0.0-8.0-2.0-1.1","5635","2","20","Female","approach_avoid_spark_v1","""event"",""trial"",""time""
""fullscreenenter"",""1"",""3769""
","
","
","""event"",""trial"",""time""
""fullscreenenter"",""1"",""3769""
","
","","","","","","943.0999999642372","images/ball1.png","","","learning","7","7","1","1","practice","practice","practice","-1","","",""
"html-keyboard-response","29","207473","0.0-8.0-2.0-0.2","5635","2","20","Female","approach_avoid_spark_v1","""event"",""trial"",""time""
""fullscreenenter"",""1"",""3769""
","
","
","""event"",""trial"",""time""
""fullscreenenter"",""1"",""3769""
","
","","","","","","null","<div style=""font-size:60px;"">+</div>","null","","fixation","","","","","","","","","","",""
"aa-learning-trial","30","210503","0.0-8.0-2.0-1.2","5635","2","20","Female","approach_avoid_spark_v1","""event"",""trial"",""time""
""fullscreenenter"",""1"",""3769""
","
","
","""event"",""trial"",""time""
""fullscreenenter"",""1"",""3769""
","
","","","","","","805.5","images/ball3.png","","","learning","5","5","1","1","practice","practice","practice","-1","","",""
"html-keyboard-response","31","211023","0.0-8.0-2.0-0.3","5635","2","20","Female","approach_avoid_spark_v1","""event"",""trial"",""time""
""fullscreenenter"",""1"",""3769""
","
","
","""event"",""trial"",""time""
""fullscreenenter"",""1"",""3769""
","
","","","","","","null","<div style=""font-size:60px;"">+</div>","null","","fixation","","","","","","","","","","",""
"aa-learning-trial","32","214043","0.0-8.0-2.0-1.3","5635","2","20","Female","approach_avoid_spark_v1","""event"",""trial"",""time""
""fullscreenenter"",""1"",""3769""
","
","
","""event"",""trial"",""time""
""fullscreenenter"",""1"",""3769""
","
","","","","","","638.2000000476837","images/ball1.png","","","learning","2","2","1","1","practice","practice","practice","-1","","",""
"html-keyboard-response","33","214553","0.0-8.0-2.0-0.4","5635","2","20","Female","approach_avoid_spark_v1","""event"",""trial"",""time""
""fullscreenenter"",""1"",""3769""
","
","
","""event"",""trial"",""time""
""fullscreenenter"",""1"",""3769""
","
","","","","","","null","<div style=""font-size:60px;"">+</div>","null","","fixation","","","","","","","","","","",""
"aa-learning-trial","34","217573","0.0-8.0-2.0-1.4","5635","2","20","Female","approach_avoid_spark_v1","""event"",""trial"",""time""
""fullscreenenter"",""1"",""3769""
","
","
","""event"",""trial"",""time""
""fullscreenenter"",""1"",""3769""
","
","","","","","","935.0999999642372","images/racket3.png","","","learning","2","2","1","1","practice","practice","practice","-1","","",""
"html-keyboard-response","35","218093","0.0-8.0-2.0-0.5","5635","2","20","Female","approach_avoid_spark_v1","""event"",""trial"",""time""
""fullscreenenter"",""1"",""3769""
","
","
","""event"",""trial"",""time""
""fullscreenenter"",""1"",""3769""
","
","","","","","","null","<div style=""font-size:60px;"">+</div>","null","","fixation","","","","","","","","","","",""
"aa-learning-trial","36","221103","0.0-8.0-2.0-1.5","5635","2","20","Female","approach_avoid_spark_v1","""event"",""trial"",""time""
""fullscreenenter"",""1"",""3769""
","
","
","""event"",""trial"",""time""
""fullscreenenter"",""1"",""3769""
","
","","","","","","1208.9000000357628","images/racket1.png","","","learning","-7","-7","1","1","practice","practice","practice","-1","","",""
"html-keyboard-response","37","221613","0.0-8.0-2.0-0.6","5635","2","20","Female","approach_avoid_spark_v1","""event"",""trial"",""time""
""fullscreenenter"",""1"",""3769""
","
","
","""event"",""trial"",""time""
""fullscreenenter"",""1"",""3769""
","
","","","","","","null","<div style=""font-size:60px;"">+</div>","null","","fixation","","","","","","","","","","",""
"aa-learning-trial","38","224614","0.0-8.0-2.0-1.6","5635","2","20","Female","approach_avoid_spark_v1","""event"",""trial"",""time""
""fullscreenenter"",""1"",""3769""
","
","
","""event"",""trial"",""time""
""fullscreenenter"",""1"",""3769""
","
","","","","","","730.3000000119209","images/racket2.png","","","learning","-1","0","0","0","practice","practice","practice","-1","","",""
"html-keyboard-response","39","225124","0.0-8.0-2.0-0.7","5635","2","20","Female","approach_avoid_spark_v1","""event"",""trial"",""time""
""fullscreenenter"",""1"",""3769""
","
","
","""event"",""trial"",""time""
""fullscreenenter"",""1"",""3769""
","
","","","","","","null","<div style=""font-size:60px;"">+</div>","null","","fixation","","","","","","","","","","",""
"aa-learning-trial","40","228135","0.0-8.0-2.0-1.7","5635","2","20","Female","approach_avoid_spark_v1","""event"",""trial"",""time""
""fullscreenenter"",""1"",""3769""
","
","
","""event"",""trial"",""time""
""fullscreenenter"",""1"",""3769""
","
","","","","","","745.9000000357628","images/ball3.png","","","learning","-6","-6","1","1","practice","practice","practice","-1","","",""
"html-keyboard-response","41","228651","0.0-8.0-2.0-0.8","5635","2","20","Female","approach_avoid_spark_v1","""event"",""trial"",""time""
""fullscreenenter"",""1"",""3769""
","
","
","""event"",""trial"",""time""
""fullscreenenter"",""1"",""3769""
","
","","","","","","null","<div style=""font-size:60px;"">+</div>","null","","fixation","","","","","","","","","","",""
"aa-learning-trial","42","231666","0.0-8.0-2.0-1.8","5635","2","20","Female","approach_avoid_spark_v1","""event"",""trial"",""time""
""fullscreenenter"",""1"",""3769""
","
","
","""event"",""trial"",""time""
""fullscreenenter"",""1"",""3769""
","
","","","","","","868.1000000238419","images/racket1.png","","","learning","-4","0","0","0","practice","practice","practice","-1","","",""
"html-keyboard-response","43","232171","0.0-8.0-2.0-0.9","5635","2","20","Female","approach_avoid_spark_v1","""event"",""trial"",""time""
""fullscreenenter"",""1"",""3769""
","
","
","""event"",""trial"",""time""
""fullscreenenter"",""1"",""3769""
","
","","","","","","null","<div style=""font-size:60px;"">+</div>","null","","fixation","","","","","","","","","","",""
"aa-learning-trial","44","235186","0.0-8.0-2.0-1.9","5635","2","20","Female","approach_avoid_spark_v1","""event"",""trial"",""time""
""fullscreenenter"",""1"",""3769""
","
","
","""event"",""trial"",""time""
""fullscreenenter"",""1"",""3769""
","
","","","","","","938.8999999761581","images/racket3.png","","","learning","-3","-3","1","1","practice","practice","practice","-1","","",""
"html-keyboard-response","45","235700","0.0-8.0-2.0-0.10","5635","2","20","Female","approach_avoid_spark_v1","""event"",""trial"",""time""
""fullscreenenter"",""1"",""3769""
","
","
","""event"",""trial"",""time""
""fullscreenenter"",""1"",""3769""
","
","","","","","","null","<div style=""font-size:60px;"">+</div>","null","","fixation","","","","","","","","","","",""
"aa-learning-trial","46","238714","0.0-8.0-2.0-1.10","5635","2","20","Female","approach_avoid_spark_v1","""event"",""trial"",""time""
""fullscreenenter"",""1"",""3769""
","
","
","""event"",""trial"",""time""
""fullscreenenter"",""1"",""3769""
","
","","","","","","614.6000000238419","images/racket3.png","","","learning","-3","0","0","0","practice","practice","practice","-1","","",""
"html-keyboard-response","47","239231","0.0-8.0-2.0-0.11","5635","2","20","Female","approach_avoid_spark_v1","""event"",""trial"",""time""
""fullscreenenter"",""1"",""3769""
","
","
","""event"",""trial"",""time""
""fullscreenenter"",""1"",""3769""
","
","","","","","","null","<div style=""font-size:60px;"">+</div>","null","","fixation","","","","","","","","","","",""
"aa-learning-trial","48","242248","0.0-8.0-2.0-1.11","5635","2","20","Female","approach_avoid_spark_v1","""event"",""trial"",""time""
""fullscreenenter"",""1"",""3769""
","
","
","""event"",""trial"",""time""
""fullscreenenter"",""1"",""3769""
","
","","","","","","726.6999999880791","images/ball1.png","","","learning","-2","-2","1","1","practice","practice","practice","-1","","",""
"html-button-response","49","245891","0.0-8.0-3.0","5635","2","20","Female","approach_avoid_spark_v1","""event"",""trial"",""time""
""fullscreenenter"",""1"",""3769""
","
","
","""event"",""trial"",""time""
""fullscreenenter"",""1"",""3769""
","
","","","","","","3639.899999976158","<p> You earned 4 points in the practice round! </p>","0","","break","","","","","","","","","","",""
"learning-instructions","50","253264","0.0-8.0-4.0-0.0","5635","2","20","Female","approach_avoid_spark_v1","""event"",""trial"",""time""
""fullscreenenter"",""1"",""3769""
","
","
","""event"",""trial"",""time""
""fullscreenenter"",""1"",""3769""
","
","","","","","","829.1999999880791","<p> It's almost time to start the real game. </p><p> Before you start, we're going to ask you a few questions about how the game works. </p>","","0","instructions","","","","","","","","","","",""
"preload","51","255688","0.0-8.0-5.0","5635","2","20","Female","approach_avoid_spark_v1","""event"",""trial"",""time""
""fullscreenenter"",""1"",""3769""
","
","
","""event"",""trial"",""time""
""fullscreenenter"",""1"",""3769""
","
","true","false","[]","[]","[]","","","","","","","","","","","","","","","",""
"comp-q","52","261870","0.0-8.0-6.0-0.0","5635","2","20","Female","approach_avoid_spark_v1","""event"",""trial"",""time""
""fullscreenenter"",""1"",""3769""
","
","
","""event"",""trial"",""time""
""fullscreenenter"",""1"",""3769""
","
","","","","","","1184.2999999523163","<p> <b> True or False? </b> </p><p> If you see a number in GREY, that means you earned that many points. </p>","","1","comp_question","","","","","","","","","true","",""
"comp-q","53","270995","0.0-8.0-6.0-1.0","5635","2","20","Female","approach_avoid_spark_v1","""event"",""trial"",""time""
""fullscreenenter"",""1"",""3769""
","
","
","""event"",""trial"",""time""
""fullscreenenter"",""1"",""3769""
","
","","","","","","750.2000000476837","<p><b> That's right! </b> If you see a grey number, it means you earned ZERO points. <br> The grey numbers show the points you WOULD HAVE earned if you had made the other choice. </p>","","0","comp_answer","","","","","","","","","","",""
"comp-q","54","276517","0.0-8.0-7.0-0.0","5635","2","20","Female","approach_avoid_spark_v1","""event"",""trial"",""time""
""fullscreenenter"",""1"",""3769""
","
","
","""event"",""trial"",""time""
""fullscreenenter"",""1"",""3769""
","
","","","","","","812.3999999761581","<p> <b> True or False? </b> </p><p> You will have as much time as you want to make each choice. </p>","","1","comp_question","","","","","","","","","true","",""
"comp-q","55","281775","0.0-8.0-7.0-1.0","5635","2","20","Female","approach_avoid_spark_v1","""event"",""trial"",""time""
""fullscreenenter"",""1"",""3769""
","
","
","""event"",""trial"",""time""
""fullscreenenter"",""1"",""3769""
","
","","","","","","1220.5","<p> <b> That's right! </b> You will only have 3 seconds to make each choice. </p>","","0","comp_answer","","","","","","","","","","",""
"comp-q","56","287074","0.0-8.0-8.0-0.0","5635","2","20","Female","approach_avoid_spark_v1","""event"",""trial"",""time""
""fullscreenenter"",""1"",""3769""
","
","
","""event"",""trial"",""time""
""fullscreenenter"",""1"",""3769""
","
","","","","","","641.9000000357628","<p> <b> True or False? </b> </p><p> You should use the '1' and '0' keys to make your choices. </p>","","0","comp_question","","","","","","","","","true","",""
"comp-q","57","292629","0.0-8.0-8.0-1.0","5635","2","20","Female","approach_avoid_spark_v1","""event"",""trial"",""time""
""fullscreenenter"",""1"",""3769""
","
","
","""event"",""trial"",""time""
""fullscreenenter"",""1"",""3769""
","
","","","","","","926.4000000357628","<p> <b> That's right! </b> You should use the '1' and '0' keys to make each choice. </p>","","0","comp_answer","","","","","","","","","","",""
"learning-instructions","58","302802","0.0-8.0-9.0-0.0","5635","2","20","Female","approach_avoid_spark_v1","""event"",""trial"",""time""
""fullscreenenter"",""1"",""3769""
","
","
","""event"",""trial"",""time""
""fullscreenenter"",""1"",""3769""
","
","","","","","","3880.100000023842","<p> It's now time to start the real game. </p>Do your best, because the points you earn in the next rounds will influence your bonus payment. </p>","","0","instructions","","","","","","","","","","",""
"preload","59","302952","0.0-9.0-0.0","5635","2","20","Female","approach_avoid_spark_v1","""event"",""trial"",""time""
""fullscreenenter"",""1"",""3769""
","
","
","""event"",""trial"",""time""
""fullscreenenter"",""1"",""3769""
","
","true","false","[]","[]","[]","","","","","","","","","","","","","","","",""
"learning-instructions","60","309033","0.0-9.0-1.0-0.0","5635","2","20","Female","approach_avoid_spark_v1","""event"",""trial"",""time""
""fullscreenenter"",""1"",""3769""
","
","
","""event"",""trial"",""time""
""fullscreenenter"",""1"",""3769""
","
","","","","","","980.3000000119209","<p> Your goal in this round is to take your friend for rides in different vehicles. </p></div>","","0","instructions","","","","","","","","","","",""
"learning-instructions","61","320182","0.0-9.0-1.0-0.1","5635","2","20","Female","approach_avoid_spark_v1","""event"",""trial"",""time""
""fullscreenenter"",""1"",""3769""
","
","
","""event"",""trial"",""time""
""fullscreenenter"",""1"",""3769""
","
","","","","","","889.3999999761581","<p> Your friend enjoys riding in some vehicles but not in others.  </p><p> On each turn, you will see a vehicle.   </p><p> You need to decide whether to take your friend for a ride or not.  </p>","","0","instructions","","","","","","","","","","",""
"learning-instructions","62","327902","0.0-9.0-1.0-0.2","5635","2","20","Female","approach_avoid_spark_v1","""event"",""trial"",""time""
""fullscreenenter"",""1"",""3769""
","
","
","""event"",""trial"",""time""
""fullscreenenter"",""1"",""3769""
","
","","","","","","1169","<p> You can take your friend for a ride in the vehicle by pressing 1 and skip the ride by pressing 0. </p><br><div class=""choice-instructions-grid""> <div class=""choice-option""><img src=""images/approach.png"" class=""choice-option-img"" stage=""instructions"" position=""0"" ><div class=""choice-option-text""> Press ""1."" </div></div><div class=""choice-option""><img src=""images/avoid.png"" class=""choice-option-img"" stage=""instructions"" position=""1"" ><div class=""choice-option-text""> Press ""0."" </div></div>","","0","instructions","","","","","","","","","","",""
"learning-instructions","63","338382","0.0-9.0-1.0-0.3","5635","2","20","Female","approach_avoid_spark_v1","""event"",""trial"",""time""
""fullscreenenter"",""1"",""3769""
","
","
","""event"",""trial"",""time""
""fullscreenenter"",""1"",""3769""
","
","","","","","","1329.3999999761581","<p> If you take them for a ride in a vehicle they like, they will be thrilled! </p><p> But if you take them for a ride in a vehicle they do not like, they will be upset. </p>","","0","instructions","","","","","","","","","","",""
"learning-instructions","64","351812","0.0-9.0-1.0-0.4","5635","2","20","Female","approach_avoid_spark_v1","""event"",""trial"",""time""
""fullscreenenter"",""1"",""3769""
","
","
","""event"",""trial"",""time""
""fullscreenenter"",""1"",""3769""
","
","","","","","","1479.800000011921","<p> You will earn points based on how you made your friend feel. </p><p> If you made him thrilled, you will WIN anywhere from 1 - 9 points, </p><p> but if you made him upset, you will LOSE anywhere from 1 - 9 points. </p>","","0","instructions","","","","","","","","","","",""
"learning-instructions","65","360783","0.0-9.0-1.0-0.5","5635","2","20","Female","approach_avoid_spark_v1","""event"",""trial"",""time""
""fullscreenenter"",""1"",""3769""
","
","
","""event"",""trial"",""time""
""fullscreenenter"",""1"",""3769""
","
","","","","","","1130.0999999642372","<p> You will see how many points you won or lost in the center of the screen. </p><p> Here is what you would see if you won 5 points: </p><p style=""color:green;font-size:50px;font-weight:bolder"">5</p>","","0","instructions","","","","","","","","","","",""
"learning-instructions","66","368542","0.0-9.0-1.0-0.6","5635","2","20","Female","approach_avoid_spark_v1","""event"",""trial"",""time""
""fullscreenenter"",""1"",""3769""
","
","
","""event"",""trial"",""time""
""fullscreenenter"",""1"",""3769""
","
","","","","","","4119.800000011921","<p> And here is what you would see if you lost 3 points: </p><p style=""color:red;font-size:50px;font-weight:bolder"">-3</p>","","0","instructions","","","","","","","","","","",""
"learning-instructions","67","386701","0.0-9.0-1.0-0.7","5635","2","20","Female","approach_avoid_spark_v1","""event"",""trial"",""time""
""fullscreenenter"",""1"",""3769""
","
","
","""event"",""trial"",""time""
""fullscreenenter"",""1"",""3769""
","
","","","","","","2329.100000023842","<p> Some vehicles will make your friend REALLY thrilled or upset. </p><p> These vehicles will make you win or lose LOTS of points. </p><p> Other vehicles will only make him feel a little thrilled or upset. </p><p> These vehicles will make you win or lose small amounts of points. </p>","","0","instructions","","","","","","","","","","",""
"learning-instructions","68","399682","0.0-9.0-1.0-0.8","5635","2","20","Female","approach_avoid_spark_v1","""event"",""trial"",""time""
""fullscreenenter"",""1"",""3769""
","
","
","""event"",""trial"",""time""
""fullscreenenter"",""1"",""3769""
","
","","","","","","949.6999999880791","<p> If you choose to skip the ride, you will not win or lose any points. </p><p>  However, in the center of the screen, you will see the number of points you WOULD HAVE won or lost if you had taken your friend for a ride. </p>","","0","instructions","","","","","","","","","","",""
"learning-instructions","69","414217","0.0-9.0-1.0-0.9","5635","2","20","Female","approach_avoid_spark_v1","""event"",""trial"",""time""
""fullscreenenter"",""1"",""3769""
","
","
","""event"",""trial"",""time""
""fullscreenenter"",""1"",""3769""
","
","","","","","","3466","<p> Here is what you might see if you did not take your friend for a ride but he would have enjoyed it: </p><p style=""color:grey; font-size:50px; display: inline-block; border-spacing: 15px; border-width:3px; border-style:solid; border-color:red"">  &nbsp; 6 &nbsp; </p><p> Remember, in this case, you would not win or lose ANY points because you skipped the ride.  </p>","","0","instructions","","","","","","","","","","",""
"learning-instructions","70","425152","0.0-9.0-1.0-0.10","5635","2","20","Female","approach_avoid_spark_v1","""event"",""trial"",""time""
""fullscreenenter"",""1"",""3769""
","
","
","""event"",""trial"",""time""
""fullscreenenter"",""1"",""3769""
","
","","","","","","2880.5","<p> Try to make the best choice for each vehicle because </p><p> at the end of the game, you will earn bonus money based on how many points you earned. </p>","","0","instructions","","","","","","","","","","",""
"learning-instructions","71","435817","0.0-9.0-1.0-0.11","5635","2","20","Female","approach_avoid_spark_v1","""event"",""trial"",""time""
""fullscreenenter"",""1"",""3769""
","
","
","""event"",""trial"",""time""
""fullscreenenter"",""1"",""3769""
","
","","","","","","2456.300000011921","<p> You will have 3 seconds to make each choice. Try to respond before time runs out! </p><p> You will lose 5 points each time you do not make a response. </p>","","0","instructions","","","","","","","","","","",""
"html-keyboard-response","72","436463","0.0-9.0-2.0-0.0","5635","2","20","Female","approach_avoid_spark_v1","""event"",""trial"",""time""
""fullscreenenter"",""1"",""3769""
","
","
","""event"",""trial"",""time""
""fullscreenenter"",""1"",""3769""
","
","","","","","","null","<div style=""font-size:60px;"">+</div>","null","","fixation","","","","","","","","","","",""
"aa-learning-trial","73","439489","0.0-9.0-2.0-1.0","5635","2","20","Female","approach_avoid_spark_v1","""event"",""trial"",""time""
""fullscreenenter"",""1"",""3769""
","
","
","""event"",""trial"",""time""
""fullscreenenter"",""1"",""3769""
","
","","","","","","null","images/truck3.png","","","learning","-2","-5","","null","truck","vehicles","2","0","","good","[5]"
"html-keyboard-response","74","440008","0.0-9.0-2.0-0.1","5635","2","20","Female","approach_avoid_spark_v1","""event"",""trial"",""time""
""fullscreenenter"",""1"",""3769""
","
","
","""event"",""trial"",""time""
""fullscreenenter"",""1"",""3769""
","
","","","","","","null","<div style=""font-size:60px;"">+</div>","null","","fixation","","","","","","","","","","",""
"aa-learning-trial","75","443029","0.0-9.0-2.0-1.1","5635","2","20","Female","approach_avoid_spark_v1","""event"",""trial"",""time""
""fullscreenenter"",""1"",""3769""
","
","
","""event"",""trial"",""time""
""fullscreenenter"",""1"",""3769""
","
","","","","","","1645.800000011921","images/truck1.png","","","learning","-7","-7","1","1","truck","vehicles","2","0","","good","[5]"
"html-keyboard-response","76","443549","0.0-9.0-2.0-0.2","5635","2","20","Female","approach_avoid_spark_v1","""event"",""trial"",""time""
""fullscreenenter"",""1"",""3769""
","
","
","""event"",""trial"",""time""
""fullscreenenter"",""1"",""3769""
","
","","","","","","null","<div style=""font-size:60px;"">+</div>","null","","fixation","","","","","","","","","","",""
"aa-learning-trial","77","446579","0.0-9.0-2.0-1.2","5635","2","20","Female","approach_avoid_spark_v1","""event"",""trial"",""time""
""fullscreenenter"",""1"",""3769""
","
","
","""event"",""trial"",""time""
""fullscreenenter"",""1"",""3769""
","
","","","","","","1110.800000011921","images/boat2.png","","","learning","-1","0","0","0","boat","vehicles","2","0","","bad","[-4]"
"html-keyboard-response","78","447098","0.0-9.0-2.0-0.3","5635","2","20","Female","approach_avoid_spark_v1","""event"",""trial"",""time""
""fullscreenenter"",""1"",""3769""
","
","
","""event"",""trial"",""time""
""fullscreenenter"",""1"",""3769""
","
","","","","","","null","<div style=""font-size:60px;"">+</div>","null","","fixation","","","","","","","","","","",""
"aa-learning-trial","79","450119","0.0-9.0-2.0-1.3","5635","2","20","Female","approach_avoid_spark_v1","""event"",""trial"",""time""
""fullscreenenter"",""1"",""3769""
","
","
","""event"",""trial"",""time""
""fullscreenenter"",""1"",""3769""
","
","","","","","","840.1999999880791","images/boat3.png","","","learning","5","0","0","0","boat","vehicles","2","0","","bad","[-4]"
"html-keyboard-response","80","450639","0.0-9.0-2.0-0.4","5635","2","20","Female","approach_avoid_spark_v1","""event"",""trial"",""time""
""fullscreenenter"",""1"",""3769""
","
","
","""event"",""trial"",""time""
""fullscreenenter"",""1"",""3769""
","
","","","","","","null","<div style=""font-size:60px;"">+</div>","null","","fixation","","","","","","","","","","",""
"aa-learning-trial","81","453649","0.0-9.0-2.0-1.4","5635","2","20","Female","approach_avoid_spark_v1","""event"",""trial"",""time""
""fullscreenenter"",""1"",""3769""
","
","
","""event"",""trial"",""time""
""fullscreenenter"",""1"",""3769""
","
","","","","","","917.5","images/train1.png","","","learning","2","2","1","1","train","vehicles","2","0","","neutral","0"
"html-keyboard-response","82","454168","0.0-9.0-2.0-0.5","5635","2","20","Female","approach_avoid_spark_v1","""event"",""trial"",""time""
""fullscreenenter"",""1"",""3769""
","
","
","""event"",""trial"",""time""
""fullscreenenter"",""1"",""3769""
","
","","","","","","null","<div style=""font-size:60px;"">+</div>","null","","fixation","","","","","","","","","","",""
"aa-learning-trial","83","457189","0.0-9.0-2.0-1.5","5635","2","20","Female","approach_avoid_spark_v1","""event"",""trial"",""time""
""fullscreenenter"",""1"",""3769""
","
","
","""event"",""trial"",""time""
""fullscreenenter"",""1"",""3769""
","
","","","","","","770.2000000476837","images/boat3.png","","","learning","5","0","0","0","boat","vehicles","2","0","","bad","[-4]"
"html-keyboard-response","84","457708","0.0-9.0-2.0-0.6","5635","2","20","Female","approach_avoid_spark_v1","""event"",""trial"",""time""
""fullscreenenter"",""1"",""3769""
","
","
","""event"",""trial"",""time""
""fullscreenenter"",""1"",""3769""
","
","","","","","","null","<div style=""font-size:60px;"">+</div>","null","","fixation","","","","","","","","","","",""
"aa-learning-trial","85","460738","0.0-9.0-2.0-1.6","5635","2","20","Female","approach_avoid_spark_v1","""event"",""trial"",""time""
""fullscreenenter"",""1"",""3769""
","
","
","""event"",""trial"",""time""
""fullscreenenter"",""1"",""3769""
","
","","","","","","739.6999999880791","images/train6.png","","","learning","8","8","1","1","train","vehicles","2","0","","neutral","0"
"html-keyboard-response","86","461259","0.0-9.0-2.0-0.7","5635","2","20","Female","approach_avoid_spark_v1","""event"",""trial"",""time""
""fullscreenenter"",""1"",""3769""
","
","
","""event"",""trial"",""time""
""fullscreenenter"",""1"",""3769""
","
","","","","","","null","<div style=""font-size:60px;"">+</div>","null","","fixation","","","","","","","","","","",""
"aa-learning-trial","87","464267","0.0-9.0-2.0-1.7","5635","2","20","Female","approach_avoid_spark_v1","""event"",""trial"",""time""
""fullscreenenter"",""1"",""3769""
","
","
","""event"",""trial"",""time""
""fullscreenenter"",""1"",""3769""
","
","","","","","","734.1999999880791","images/truck1.png","","","learning","-7","0","0","0","truck","vehicles","2","0","","good","[5]"
"html-keyboard-response","88","464779","0.0-9.0-2.0-0.8","5635","2","20","Female","approach_avoid_spark_v1","""event"",""trial"",""time""
""fullscreenenter"",""1"",""3769""
","
","
","""event"",""trial"",""time""
""fullscreenenter"",""1"",""3769""
","
","","","","","","null","<div style=""font-size:60px;"">+</div>","null","","fixation","","","","","","","","","","",""
"aa-learning-trial","89","467784","0.0-9.0-2.0-1.8","5635","2","20","Female","approach_avoid_spark_v1","""event"",""trial"",""time""
""fullscreenenter"",""1"",""3769""
","
","
","""event"",""trial"",""time""
""fullscreenenter"",""1"",""3769""
","
","","","","","","687.8999999761581","images/train6.png","","","learning","8","8","1","1","train","vehicles","2","0","","neutral","0"
"html-keyboard-response","90","468293","0.0-9.0-2.0-0.9","5635","2","20","Female","approach_avoid_spark_v1","""event"",""trial"",""time""
""fullscreenenter"",""1"",""3769""
","
","
","""event"",""trial"",""time""
""fullscreenenter"",""1"",""3769""
","
","","","","","","null","<div style=""font-size:60px;"">+</div>","null","","fixation","","","","","","","","","","",""
"aa-learning-trial","91","471290","0.0-9.0-2.0-1.9","5635","2","20","Female","approach_avoid_spark_v1","""event"",""trial"",""time""
""fullscreenenter"",""1"",""3769""
","
","
","""event"",""trial"",""time""
""fullscreenenter"",""1"",""3769""
","
","","","","","","858.2000000476837","images/train4.png","","","learning","3","3","1","1","train","vehicles","2","0","","neutral","0"
"html-keyboard-response","92","471806","0.0-9.0-2.0-0.10","5635","2","20","Female","approach_avoid_spark_v1","""event"",""trial"",""time""
""fullscreenenter"",""1"",""3769""
","
","
","""event"",""trial"",""time""
""fullscreenenter"",""1"",""3769""
","
","","","","","","null","<div style=""font-size:60px;"">+</div>","null","","fixation","","","","","","","","","","",""
"aa-learning-trial","93","474819","0.0-9.0-2.0-1.10","5635","2","20","Female","approach_avoid_spark_v1","""event"",""trial"",""time""
""fullscreenenter"",""1"",""3769""
","
","
","""event"",""trial"",""time""
""fullscreenenter"",""1"",""3769""
","
","","","","","","762.1000000238419","images/train4.png","","","learning","3","3","1","1","train","vehicles","2","0","","neutral","0"
"html-keyboard-response","94","475338","0.0-9.0-2.0-0.11","5635","2","20","Female","approach_avoid_spark_v1","""event"",""trial"",""time""
""fullscreenenter"",""1"",""3769""
","
","
","""event"",""trial"",""time""
""fullscreenenter"",""1"",""3769""
","
","","","","","","null","<div style=""font-size:60px;"">+</div>","null","","fixation","","","","","","","","","","",""
"aa-learning-trial","95","478345","0.0-9.0-2.0-1.11","5635","2","20","Female","approach_avoid_spark_v1","""event"",""trial"",""time""
""fullscreenenter"",""1"",""3769""
","
","
","""event"",""trial"",""time""
""fullscreenenter"",""1"",""3769""
","
","","","","","","925.8999999761581","images/boat8.png","","","learning","-9","-9","1","1","boat","vehicles","2","0","","bad","[-4]"
"html-keyboard-response","96","478850","0.0-9.0-2.0-0.12","5635","2","20","Female","approach_avoid_spark_v1","""event"",""trial"",""time""
""fullscreenenter"",""1"",""3769""
","
","
","""event"",""trial"",""time""
""fullscreenenter"",""1"",""3769""
","
","","","","","","null","<div style=""font-size:60px;"">+</div>","null","","fixation","","","","","","","","","","",""
"aa-learning-trial","97","481870","0.0-9.0-2.0-1.12","5635","2","20","Female","approach_avoid_spark_v1","""event"",""trial"",""time""
""fullscreenenter"",""1"",""3769""
","
","
","""event"",""trial"",""time""
""fullscreenenter"",""1"",""3769""
","
","","","","","","982.5","images/boat8.png","","","learning","-9","-9","1","1","boat","vehicles","2","0","","bad","[-4]"
"html-keyboard-response","98","482386","0.0-9.0-2.0-0.13","5635","2","20","Female","approach_avoid_spark_v1","""event"",""trial"",""time""
""fullscreenenter"",""1"",""3769""
","
","
","""event"",""trial"",""time""
""fullscreenenter"",""1"",""3769""
","
","","","","","","null","<div style=""font-size:60px;"">+</div>","null","","fixation","","","","","","","","","","",""
"aa-learning-trial","99","485397","0.0-9.0-2.0-1.13","5635","2","20","Female","approach_avoid_spark_v1","""event"",""trial"",""time""
""fullscreenenter"",""1"",""3769""
","
","
","""event"",""trial"",""time""
""fullscreenenter"",""1"",""3769""
","
","","","","","","880.6999999880791","images/truck8.png","","","learning","6","0","0","0","truck","vehicles","2","0","","good","[5]"
"html-keyboard-response","100","485911","0.0-9.0-2.0-0.14","5635","2","20","Female","approach_avoid_spark_v1","""event"",""trial"",""time""
""fullscreenenter"",""1"",""3769""
","
","
","""event"",""trial"",""time""
""fullscreenenter"",""1"",""3769""
","
","","","","","","null","<div style=""font-size:60px;"">+</div>","null","","fixation","","","","","","","","","","",""
"aa-learning-trial","101","488921","0.0-9.0-2.0-1.14","5635","2","20","Female","approach_avoid_spark_v1","""event"",""trial"",""time""
""fullscreenenter"",""1"",""3769""
","
","
","""event"",""trial"",""time""
""fullscreenenter"",""1"",""3769""
","
","","","","","","710.6000000238419","images/truck8.png","","","learning","6","6","1","1","truck","vehicles","2","0","","good","[5]"
"html-keyboard-response","102","489428","0.0-9.0-2.0-0.15","5635","2","20","Female","approach_avoid_spark_v1","""event"",""trial"",""time""
""fullscreenenter"",""1"",""3769""
","
","
","""event"",""trial"",""time""
""fullscreenenter"",""1"",""3769""
","
","","","","","","null","<div style=""font-size:60px;"">+</div>","null","","fixation","","","","","","","","","","",""
"aa-learning-trial","103","492435","0.0-9.0-2.0-1.15","5635","2","20","Female","approach_avoid_spark_v1","""event"",""trial"",""time""
""fullscreenenter"",""1"",""3769""
","
","
","""event"",""trial"",""time""
""fullscreenenter"",""1"",""3769""
","
","","","","","","984.5999999642372","images/boat8.png","","","learning","-9","0","0","0","boat","vehicles","2","0","","bad","[-4]"
"html-keyboard-response","104","492944","0.0-9.0-2.0-0.16","5635","2","20","Female","approach_avoid_spark_v1","""event"",""trial"",""time""
""fullscreenenter"",""1"",""3769""
","
","
","""event"",""trial"",""time""
""fullscreenenter"",""1"",""3769""
","
","","","","","","null","<div style=""font-size:60px;"">+</div>","null","","fixation","","","","","","","","","","",""
"aa-learning-trial","105","495959","0.0-9.0-2.0-1.16","5635","2","20","Female","approach_avoid_spark_v1","""event"",""trial"",""time""
""fullscreenenter"",""1"",""3769""
","
","
","""event"",""trial"",""time""
""fullscreenenter"",""1"",""3769""
","
","","","","","","1373.800000011921","images/truck1.png","","","learning","-7","-7","1","1","truck","vehicles","2","0","","good","[5]"
"html-keyboard-response","106","496469","0.0-9.0-2.0-0.17","5635","2","20","Female","approach_avoid_spark_v1","""event"",""trial"",""time""
""fullscreenenter"",""1"",""3769""
","
","
","""event"",""trial"",""time""
""fullscreenenter"",""1"",""3769""
","
","","","","","","null","<div style=""font-size:60px;"">+</div>","null","","fixation","","","","","","","","","","",""
"aa-learning-trial","107","499496","0.0-9.0-2.0-1.17","5635","2","20","Female","approach_avoid_spark_v1","""event"",""trial"",""time""
""fullscreenenter"",""1"",""3769""
","
","
","""event"",""trial"",""time""
""fullscreenenter"",""1"",""3769""
","
","","","","","","1025.699999988079","images/train2.png","","","learning","-8","-8","1","1","train","vehicles","2","0","","neutral","0"
"html-keyboard-response","108","500000","0.0-9.0-2.0-0.18","5635","2","20","Female","approach_avoid_spark_v1","""event"",""trial"",""time""
""fullscreenenter"",""1"",""3769""
","
","
","""event"",""trial"",""time""
""fullscreenenter"",""1"",""3769""
","
","","","","","","null","<div style=""font-size:60px;"">+</div>","null","","fixation","","","","","","","","","","",""
"aa-learning-trial","109","503012","0.0-9.0-2.0-1.18","5635","2","20","Female","approach_avoid_spark_v1","""event"",""trial"",""time""
""fullscreenenter"",""1"",""3769""
","
","
","""event"",""trial"",""time""
""fullscreenenter"",""1"",""3769""
","
","","","","","","764.8000000119209","images/train4.png","","","learning","3","3","1","1","train","vehicles","2","0","","neutral","0"
"html-keyboard-response","110","503524","0.0-9.0-2.0-0.19","5635","2","20","Female","approach_avoid_spark_v1","""event"",""trial"",""time""
""fullscreenenter"",""1"",""3769""
","
","
","""event"",""trial"",""time""
""fullscreenenter"",""1"",""3769""
","
","","","","","","null","<div style=""font-size:60px;"">+</div>","null","","fixation","","","","","","","","","","",""
"aa-learning-trial","111","506528","0.0-9.0-2.0-1.19","5635","2","20","Female","approach_avoid_spark_v1","""event"",""trial"",""time""
""fullscreenenter"",""1"",""3769""
","
","
","""event"",""trial"",""time""
""fullscreenenter"",""1"",""3769""
","
","","","","","","968.1999999880791","images/boat2.png","","","learning","-1","-1","1","1","boat","vehicles","2","0","","bad","[-4]"
"html-keyboard-response","112","507032","0.0-9.0-2.0-0.20","5635","2","20","Female","approach_avoid_spark_v1","""event"",""trial"",""time""
""fullscreenenter"",""1"",""3769""
","
","
","""event"",""trial"",""time""
""fullscreenenter"",""1"",""3769""
","
","","","","","","null","<div style=""font-size:60px;"">+</div>","null","","fixation","","","","","","","","","","",""
"aa-learning-trial","113","510042","0.0-9.0-2.0-1.20","5635","2","20","Female","approach_avoid_spark_v1","""event"",""trial"",""time""
""fullscreenenter"",""1"",""3769""
","
","
","""event"",""trial"",""time""
""fullscreenenter"",""1"",""3769""
","
","","","","","","718.3999999761581","images/truck8.png","","","learning","6","6","1","1","truck","vehicles","2","0","","good","[5]"
"html-keyboard-response","114","510566","0.0-9.0-2.0-0.21","5635","2","20","Female","approach_avoid_spark_v1","""event"",""trial"",""time""
""fullscreenenter"",""1"",""3769""
","
","
","""event"",""trial"",""time""
""fullscreenenter"",""1"",""3769""
","
","","","","","","null","<div style=""font-size:60px;"">+</div>","null","","fixation","","","","","","","","","","",""
"aa-learning-trial","115","513584","0.0-9.0-2.0-1.21","5635","2","20","Female","approach_avoid_spark_v1","""event"",""trial"",""time""
""fullscreenenter"",""1"",""3769""
","
","
","""event"",""trial"",""time""
""fullscreenenter"",""1"",""3769""
","
","","","","","","708.8000000119209","images/train6.png","","","learning","8","8","1","1","train","vehicles","2","0","","neutral","0"
"html-keyboard-response","116","514092","0.0-9.0-2.0-0.22","5635","2","20","Female","approach_avoid_spark_v1","""event"",""trial"",""time""
""fullscreenenter"",""1"",""3769""
","
","
","""event"",""trial"",""time""
""fullscreenenter"",""1"",""3769""
","
","","","","","","null","<div style=""font-size:60px;"">+</div>","null","","fixation","","","","","","","","","","",""
"aa-learning-trial","117","517109","0.0-9.0-2.0-1.22","5635","2","20","Female","approach_avoid_spark_v1","""event"",""trial"",""time""
""fullscreenenter"",""1"",""3769""
","
","
","""event"",""trial"",""time""
""fullscreenenter"",""1"",""3769""
","
","","","","","","824.0999999642372","images/train1.png","","","learning","2","2","1","1","train","vehicles","2","0","","neutral","0"
"html-keyboard-response","118","517616","0.0-9.0-2.0-0.23","5635","2","20","Female","approach_avoid_spark_v1","""event"",""trial"",""time""
""fullscreenenter"",""1"",""3769""
","
","
","""event"",""trial"",""time""
""fullscreenenter"",""1"",""3769""
","
","","","","","","null","<div style=""font-size:60px;"">+</div>","null","","fixation","","","","","","","","","","",""
"aa-learning-trial","119","520628","0.0-9.0-2.0-1.23","5635","2","20","Female","approach_avoid_spark_v1","""event"",""trial"",""time""
""fullscreenenter"",""1"",""3769""
","
","
","""event"",""trial"",""time""
""fullscreenenter"",""1"",""3769""
","
","","","","","","883.6999999880791","images/boat3.png","","","learning","5","5","1","1","boat","vehicles","2","0","","bad","[-4]"
"html-keyboard-response","120","521140","0.0-9.0-2.0-0.24","5635","2","20","Female","approach_avoid_spark_v1","""event"",""trial"",""time""
""fullscreenenter"",""1"",""3769""
","
","
","""event"",""trial"",""time""
""fullscreenenter"",""1"",""3769""
","
","","","","","","null","<div style=""font-size:60px;"">+</div>","null","","fixation","","","","","","","","","","",""
"aa-learning-trial","121","524145","0.0-9.0-2.0-1.24","5635","2","20","Female","approach_avoid_spark_v1","""event"",""trial"",""time""
""fullscreenenter"",""1"",""3769""
","
","
","""event"",""trial"",""time""
""fullscreenenter"",""1"",""3769""
","
","","","","","","802.6999999880791","images/train4.png","","","learning","3","0","0","0","train","vehicles","2","0","","neutral","0"
"html-keyboard-response","122","524650","0.0-9.0-2.0-0.25","5635","2","20","Female","approach_avoid_spark_v1","""event"",""trial"",""time""
""fullscreenenter"",""1"",""3769""
","
","
","""event"",""trial"",""time""
""fullscreenenter"",""1"",""3769""
","
","","","","","","null","<div style=""font-size:60px;"">+</div>","null","","fixation","","","","","","","","","","",""
"aa-learning-trial","123","527664","0.0-9.0-2.0-1.25","5635","2","20","Female","approach_avoid_spark_v1","""event"",""trial"",""time""
""fullscreenenter"",""1"",""3769""
","
","
","""event"",""trial"",""time""
""fullscreenenter"",""1"",""3769""
","
","","","","","","948.1000000238419","images/boat8.png","","","learning","-9","0","0","0","boat","vehicles","2","0","","bad","[-4]"
"html-keyboard-response","124","528168","0.0-9.0-2.0-0.26","5635","2","20","Female","approach_avoid_spark_v1","""event"",""trial"",""time""
""fullscreenenter"",""1"",""3769""
","
","
","""event"",""trial"",""time""
""fullscreenenter"",""1"",""3769""
","
","","","","","","null","<div style=""font-size:60px;"">+</div>","null","","fixation","","","","","","","","","","",""
"aa-learning-trial","125","531182","0.0-9.0-2.0-1.26","5635","2","20","Female","approach_avoid_spark_v1","""event"",""trial"",""time""
""fullscreenenter"",""1"",""3769""
","
","
","""event"",""trial"",""time""
""fullscreenenter"",""1"",""3769""
","
","","","","","","1328.0999999642372","images/train4.png","","","learning","3","3","1","1","train","vehicles","2","0","","neutral","0"
"html-keyboard-response","126","531682","0.0-9.0-2.0-0.27","5635","2","20","Female","approach_avoid_spark_v1","""event"",""trial"",""time""
""fullscreenenter"",""1"",""3769""
","
","
","""event"",""trial"",""time""
""fullscreenenter"",""1"",""3769""
","
","","","","","","null","<div style=""font-size:60px;"">+</div>","null","","fixation","","","","","","","","","","",""
"aa-learning-trial","127","534696","0.0-9.0-2.0-1.27","5635","2","20","Female","approach_avoid_spark_v1","""event"",""trial"",""time""
""fullscreenenter"",""1"",""3769""
","
","
","""event"",""trial"",""time""
""fullscreenenter"",""1"",""3769""
","
","","","","","","1055.300000011921","images/truck1.png","","","learning","-7","-7","1","1","truck","vehicles","2","0","","good","[5]"
"html-keyboard-response","128","535211","0.0-9.0-2.0-0.28","5635","2","20","Female","approach_avoid_spark_v1","""event"",""trial"",""time""
""fullscreenenter"",""1"",""3769""
","
","
","""event"",""trial"",""time""
""fullscreenenter"",""1"",""3769""
","
","","","","","","null","<div style=""font-size:60px;"">+</div>","null","","fixation","","","","","","","","","","",""
"aa-learning-trial","129","538225","0.0-9.0-2.0-1.28","5635","2","20","Female","approach_avoid_spark_v1","""event"",""trial"",""time""
""fullscreenenter"",""1"",""3769""
","
","
","""event"",""trial"",""time""
""fullscreenenter"",""1"",""3769""
","
","","","","","","831.8999999761581","images/truck2.png","","","learning","-5","-5","1","1","truck","vehicles","2","0","","good","[5]"
"html-keyboard-response","130","538747","0.0-9.0-2.0-0.29","5635","2","20","Female","approach_avoid_spark_v1","""event"",""trial"",""time""
""fullscreenenter"",""1"",""3769""
","
","
","""event"",""trial"",""time""
""fullscreenenter"",""1"",""3769""
","
","","","","","","null","<div style=""font-size:60px;"">+</div>","null","","fixation","","","","","","","","","","",""
"aa-learning-trial","131","541757","0.0-9.0-2.0-1.29","5635","2","20","Female","approach_avoid_spark_v1","""event"",""trial"",""time""
""fullscreenenter"",""1"",""3769""
","
","
","""event"",""trial"",""time""
""fullscreenenter"",""1"",""3769""
","
","","","","","","854.5","images/truck3.png","","","learning","-2","0","0","0","truck","vehicles","2","0","","good","[5]"
"html-keyboard-response","132","542263","0.0-9.0-2.0-0.30","5635","2","20","Female","approach_avoid_spark_v1","""event"",""trial"",""time""
""fullscreenenter"",""1"",""3769""
","
","
","""event"",""trial"",""time""
""fullscreenenter"",""1"",""3769""
","
","","","","","","null","<div style=""font-size:60px;"">+</div>","null","","fixation","","","","","","","","","","",""
"aa-learning-trial","133","545276","0.0-9.0-2.0-1.30","5635","2","20","Female","approach_avoid_spark_v1","""event"",""trial"",""time""
""fullscreenenter"",""1"",""3769""
","
","
","""event"",""trial"",""time""
""fullscreenenter"",""1"",""3769""
","
","","","","","","1189.0999999642372","images/boat3.png","","","learning","5","5","1","1","boat","vehicles","2","0","","bad","[-4]"
"html-keyboard-response","134","545788","0.0-9.0-2.0-0.31","5635","2","20","Female","approach_avoid_spark_v1","""event"",""trial"",""time""
""fullscreenenter"",""1"",""3769""
","
","
","""event"",""trial"",""time""
""fullscreenenter"",""1"",""3769""
","
","","","","","","null","<div style=""font-size:60px;"">+</div>","null","","fixation","","","","","","","","","","",""
"aa-learning-trial","135","548805","0.0-9.0-2.0-1.31","5635","2","20","Female","approach_avoid_spark_v1","""event"",""trial"",""time""
""fullscreenenter"",""1"",""3769""
","
","
","""event"",""trial"",""time""
""fullscreenenter"",""1"",""3769""
","
","","","","","","998.1999999880791","images/train7.png","","","learning","-3","0","0","0","train","vehicles","2","0","","neutral","0"
"html-keyboard-response","136","549316","0.0-9.0-2.0-0.32","5635","2","20","Female","approach_avoid_spark_v1","""event"",""trial"",""time""
""fullscreenenter"",""1"",""3769""
","
","
","""event"",""trial"",""time""
""fullscreenenter"",""1"",""3769""
","
","","","","","","null","<div style=""font-size:60px;"">+</div>","null","","fixation","","","","","","","","","","",""
"aa-learning-trial","137","552339","0.0-9.0-2.0-1.32","5635","2","20","Female","approach_avoid_spark_v1","""event"",""trial"",""time""
""fullscreenenter"",""1"",""3769""
","
","
","""event"",""trial"",""time""
""fullscreenenter"",""1"",""3769""
","
","","","","","","1638.9000000357628","images/boat8.png","","","learning","-9","0","0","0","boat","vehicles","2","0","","bad","[-4]"
"html-keyboard-response","138","552855","0.0-9.0-2.0-0.33","5635","2","20","Female","approach_avoid_spark_v1","""event"",""trial"",""time""
""fullscreenenter"",""1"",""3769""
","
","
","""event"",""trial"",""time""
""fullscreenenter"",""1"",""3769""
","
","","","","","","null","<div style=""font-size:60px;"">+</div>","null","","fixation","","","","","","","","","","",""
"aa-learning-trial","139","555867","0.0-9.0-2.0-1.33","5635","2","20","Female","approach_avoid_spark_v1","""event"",""trial"",""time""
""fullscreenenter"",""1"",""3769""
","
","
","""event"",""trial"",""time""
""fullscreenenter"",""1"",""3769""
","
","","","","","","747.1999999880791","images/truck1.png","","","learning","-7","0","0","0","truck","vehicles","2","0","","good","[5]"
"html-keyboard-response","140","556375","0.0-9.0-2.0-0.34","5635","2","20","Female","approach_avoid_spark_v1","""event"",""trial"",""time""
""fullscreenenter"",""1"",""3769""
","
","
","""event"",""trial"",""time""
""fullscreenenter"",""1"",""3769""
","
","","","","","","null","<div style=""font-size:60px;"">+</div>","null","","fixation","","","","","","","","","","",""
"aa-learning-trial","141","559386","0.0-9.0-2.0-1.34","5635","2","20","Female","approach_avoid_spark_v1","""event"",""trial"",""time""
""fullscreenenter"",""1"",""3769""
","
","
","""event"",""trial"",""time""
""fullscreenenter"",""1"",""3769""
","
","","","","","","592.1999999880791","images/truck8.png","","","learning","6","0","0","0","truck","vehicles","2","0","","good","[5]"
"html-keyboard-response","142","559897","0.0-9.0-2.0-0.35","5635","2","20","Female","approach_avoid_spark_v1","""event"",""trial"",""time""
""fullscreenenter"",""1"",""3769""
","
","
","""event"",""trial"",""time""
""fullscreenenter"",""1"",""3769""
","
","","","","","","null","<div style=""font-size:60px;"">+</div>","null","","fixation","","","","","","","","","","",""
"aa-learning-trial","143","562903","0.0-9.0-2.0-1.35","5635","2","20","Female","approach_avoid_spark_v1","""event"",""trial"",""time""
""fullscreenenter"",""1"",""3769""
","
","
","""event"",""trial"",""time""
""fullscreenenter"",""1"",""3769""
","
","","","","","","1140.7999999523163","images/boat5.png","","","learning","-4","0","0","0","boat","vehicles","2","0","","bad","[-4]"
"html-keyboard-response","144","563427","0.0-9.0-2.0-0.36","5635","2","20","Female","approach_avoid_spark_v1","""event"",""trial"",""time""
""fullscreenenter"",""1"",""3769""
","
","
","""event"",""trial"",""time""
""fullscreenenter"",""1"",""3769""
","
","","","","","","null","<div style=""font-size:60px;"">+</div>","null","","fixation","","","","","","","","","","",""
"aa-learning-trial","145","566445","0.0-9.0-2.0-1.36","5635","2","20","Female","approach_avoid_spark_v1","""event"",""trial"",""time""
""fullscreenenter"",""1"",""3769""
","
","
","""event"",""trial"",""time""
""fullscreenenter"",""1"",""3769""
","
","","","","","","807.8000000119209","images/train4.png","","","learning","3","0","0","0","train","vehicles","2","0","","neutral","0"
"html-keyboard-response","146","566951","0.0-9.0-2.0-0.37","5635","2","20","Female","approach_avoid_spark_v1","""event"",""trial"",""time""
""fullscreenenter"",""1"",""3769""
","
","
","""event"",""trial"",""time""
""fullscreenenter"",""1"",""3769""
","
","","","","","","null","<div style=""font-size:60px;"">+</div>","null","","fixation","","","","","","","","","","",""
"aa-learning-trial","147","569961","0.0-9.0-2.0-1.37","5635","2","20","Female","approach_avoid_spark_v1","""event"",""trial"",""time""
""fullscreenenter"",""1"",""3769""
","
","
","""event"",""trial"",""time""
""fullscreenenter"",""1"",""3769""
","
","","","","","","1086","images/truck8.png","","","learning","6","6","1","1","truck","vehicles","2","0","","good","[5]"
"html-keyboard-response","148","570470","0.0-9.0-2.0-0.38","5635","2","20","Female","approach_avoid_spark_v1","""event"",""trial"",""time""
""fullscreenenter"",""1"",""3769""
","
","
","""event"",""trial"",""time""
""fullscreenenter"",""1"",""3769""
","
","","","","","","null","<div style=""font-size:60px;"">+</div>","null","","fixation","","","","","","","","","","",""
"aa-learning-trial","149","573488","0.0-9.0-2.0-1.38","5635","2","20","Female","approach_avoid_spark_v1","""event"",""trial"",""time""
""fullscreenenter"",""1"",""3769""
","
","
","""event"",""trial"",""time""
""fullscreenenter"",""1"",""3769""
","
","","","","","","740.8999999761581","images/train6.png","","","learning","8","8","1","1","train","vehicles","2","0","","neutral","0"
"html-keyboard-response","150","573999","0.0-9.0-2.0-0.39","5635","2","20","Female","approach_avoid_spark_v1","""event"",""trial"",""time""
""fullscreenenter"",""1"",""3769""
","
","
","""event"",""trial"",""time""
""fullscreenenter"",""1"",""3769""
","
","","","","","","null","<div style=""font-size:60px;"">+</div>","null","","fixation","","","","","","","","","","",""
"aa-learning-trial","151","577013","0.0-9.0-2.0-1.39","5635","2","20","Female","approach_avoid_spark_v1","""event"",""trial"",""time""
""fullscreenenter"",""1"",""3769""
","
","
","""event"",""trial"",""time""
""fullscreenenter"",""1"",""3769""
","
","","","","","","794.6000000238419","images/truck3.png","","","learning","-2","0","0","0","truck","vehicles","2","0","","good","[5]"
"html-keyboard-response","152","577522","0.0-9.0-2.0-0.40","5635","2","20","Female","approach_avoid_spark_v1","""event"",""trial"",""time""
""fullscreenenter"",""1"",""3769""
","
","
","""event"",""trial"",""time""
""fullscreenenter"",""1"",""3769""
","
","","","","","","null","<div style=""font-size:60px;"">+</div>","null","","fixation","","","","","","","","","","",""
"aa-learning-trial","153","580548","0.0-9.0-2.0-1.40","5635","2","20","Female","approach_avoid_spark_v1","""event"",""trial"",""time""
""fullscreenenter"",""1"",""3769""
","
","
","""event"",""trial"",""time""
""fullscreenenter"",""1"",""3769""
","
","","","","","","591.2000000476837","images/truck8.png","","","learning","6","6","1","1","truck","vehicles","2","0","","good","[5]"
"html-keyboard-response","154","581063","0.0-9.0-2.0-0.41","5635","2","20","Female","approach_avoid_spark_v1","""event"",""trial"",""time""
""fullscreenenter"",""1"",""3769""
","
","
","""event"",""trial"",""time""
""fullscreenenter"",""1"",""3769""
","
","","","","","","null","<div style=""font-size:60px;"">+</div>","null","","fixation","","","","","","","","","","",""
"aa-learning-trial","155","584076","0.0-9.0-2.0-1.41","5635","2","20","Female","approach_avoid_spark_v1","""event"",""trial"",""time""
""fullscreenenter"",""1"",""3769""
","
","
","""event"",""trial"",""time""
""fullscreenenter"",""1"",""3769""
","
","","","","","","741.6000000238419","images/boat8.png","","","learning","-9","0","0","0","boat","vehicles","2","0","","bad","[-4]"
"html-keyboard-response","156","584588","0.0-9.0-2.0-0.42","5635","2","20","Female","approach_avoid_spark_v1","""event"",""trial"",""time""
""fullscreenenter"",""1"",""3769""
","
","
","""event"",""trial"",""time""
""fullscreenenter"",""1"",""3769""
","
","","","","","","null","<div style=""font-size:60px;"">+</div>","null","","fixation","","","","","","","","","","",""
"aa-learning-trial","157","587597","0.0-9.0-2.0-1.42","5635","2","20","Female","approach_avoid_spark_v1","""event"",""trial"",""time""
""fullscreenenter"",""1"",""3769""
","
","
","""event"",""trial"",""time""
""fullscreenenter"",""1"",""3769""
","
","","","","","","804.3999999761581","images/boat3.png","","","learning","5","0","0","0","boat","vehicles","2","0","","bad","[-4]"
"html-keyboard-response","158","588104","0.0-9.0-2.0-0.43","5635","2","20","Female","approach_avoid_spark_v1","""event"",""trial"",""time""
""fullscreenenter"",""1"",""3769""
","
","
","""event"",""trial"",""time""
""fullscreenenter"",""1"",""3769""
","
","","","","","","null","<div style=""font-size:60px;"">+</div>","null","","fixation","","","","","","","","","","",""
"aa-learning-trial","159","591115","0.0-9.0-2.0-1.43","5635","2","20","Female","approach_avoid_spark_v1","""event"",""trial"",""time""
""fullscreenenter"",""1"",""3769""
","
","
","""event"",""trial"",""time""
""fullscreenenter"",""1"",""3769""
","
","","","","","","663.7000000476837","images/boat3.png","","","learning","5","5","1","1","boat","vehicles","2","0","","bad","[-4]"
"html-keyboard-response","160","591629","0.0-9.0-2.0-0.44","5635","2","20","Female","approach_avoid_spark_v1","""event"",""trial"",""time""
""fullscreenenter"",""1"",""3769""
","
","
","""event"",""trial"",""time""
""fullscreenenter"",""1"",""3769""
","
","","","","","","null","<div style=""font-size:60px;"">+</div>","null","","fixation","","","","","","","","","","",""
"aa-learning-trial","161","594630","0.0-9.0-2.0-1.44","5635","2","20","Female","approach_avoid_spark_v1","""event"",""trial"",""time""
""fullscreenenter"",""1"",""3769""
","
","
","""event"",""trial"",""time""
""fullscreenenter"",""1"",""3769""
","
","","","","","","655.5","images/boat4.png","","","learning","9","0","0","0","boat","vehicles","2","0","","bad","[-4]"
"html-keyboard-response","162","595138","0.0-9.0-2.0-0.45","5635","2","20","Female","approach_avoid_spark_v1","""event"",""trial"",""time""
""fullscreenenter"",""1"",""3769""
","
","
","""event"",""trial"",""time""
""fullscreenenter"",""1"",""3769""
","
","","","","","","null","<div style=""font-size:60px;"">+</div>","null","","fixation","","","","","","","","","","",""
"aa-learning-trial","163","598146","0.0-9.0-2.0-1.45","5635","2","20","Female","approach_avoid_spark_v1","""event"",""trial"",""time""
""fullscreenenter"",""1"",""3769""
","
","
","""event"",""trial"",""time""
""fullscreenenter"",""1"",""3769""
","
","","","","","","807.1999999880791","images/boat2.png","","","learning","-1","0","0","0","boat","vehicles","2","0","","bad","[-4]"
"html-keyboard-response","164","598662","0.0-9.0-2.0-0.46","5635","2","20","Female","approach_avoid_spark_v1","""event"",""trial"",""time""
""fullscreenenter"",""1"",""3769""
","
","
","""event"",""trial"",""time""
""fullscreenenter"",""1"",""3769""
","
","","","","","","null","<div style=""font-size:60px;"">+</div>","null","","fixation","","","","","","","","","","",""
"aa-learning-trial","165","601673","0.0-9.0-2.0-1.46","5635","2","20","Female","approach_avoid_spark_v1","""event"",""trial"",""time""
""fullscreenenter"",""1"",""3769""
","
","
","""event"",""trial"",""time""
""fullscreenenter"",""1"",""3769""
","
","","","","","","678.4000000357628","images/train1.png","","","learning","2","2","1","1","train","vehicles","2","0","","neutral","0"
"html-keyboard-response","166","602181","0.0-9.0-2.0-0.47","5635","2","20","Female","approach_avoid_spark_v1","""event"",""trial"",""time""
""fullscreenenter"",""1"",""3769""
","
","
","""event"",""trial"",""time""
""fullscreenenter"",""1"",""3769""
","
","","","","","","null","<div style=""font-size:60px;"">+</div>","null","","fixation","","","","","","","","","","",""
"aa-learning-trial","167","605204","0.0-9.0-2.0-1.47","5635","2","20","Female","approach_avoid_spark_v1","""event"",""trial"",""time""
""fullscreenenter"",""1"",""3769""
","
","
","""event"",""trial"",""time""
""fullscreenenter"",""1"",""3769""
","
","","","","","","708.9000000357628","images/train6.png","","","learning","8","8","1","1","train","vehicles","2","0","","neutral","0"
"html-keyboard-response","168","605713","0.0-9.0-2.0-0.48","5635","2","20","Female","approach_avoid_spark_v1","""event"",""trial"",""time""
""fullscreenenter"",""1"",""3769""
","
","
","""event"",""trial"",""time""
""fullscreenenter"",""1"",""3769""
","
","","","","","","null","<div style=""font-size:60px;"">+</div>","null","","fixation","","","","","","","","","","",""
"aa-learning-trial","169","608729","0.0-9.0-2.0-1.48","5635","2","20","Female","approach_avoid_spark_v1","""event"",""trial"",""time""
""fullscreenenter"",""1"",""3769""
","
","
","""event"",""trial"",""time""
""fullscreenenter"",""1"",""3769""
","
","","","","","","534","images/train6.png","","","learning","8","8","1","1","train","vehicles","2","0","","neutral","0"
"html-keyboard-response","170","609234","0.0-9.0-2.0-0.49","5635","2","20","Female","approach_avoid_spark_v1","""event"",""trial"",""time""
""fullscreenenter"",""1"",""3769""
","
","
","""event"",""trial"",""time""
""fullscreenenter"",""1"",""3769""
","
","","","","","","null","<div style=""font-size:60px;"">+</div>","null","","fixation","","","","","","","","","","",""
"aa-learning-trial","171","612247","0.0-9.0-2.0-1.49","5635","2","20","Female","approach_avoid_spark_v1","""event"",""trial"",""time""
""fullscreenenter"",""1"",""3769""
","
","
","""event"",""trial"",""time""
""fullscreenenter"",""1"",""3769""
","
","","","","","","947.6000000238419","images/truck4.png","","","learning","4","0","0","0","truck","vehicles","2","0","","good","[5]"
"html-keyboard-response","172","612754","0.0-9.0-2.0-0.50","5635","2","20","Female","approach_avoid_spark_v1","""event"",""trial"",""time""
""fullscreenenter"",""1"",""3769""
","
","
","""event"",""trial"",""time""
""fullscreenenter"",""1"",""3769""
","
","","","","","","null","<div style=""font-size:60px;"">+</div>","null","","fixation","","","","","","","","","","",""
"aa-learning-trial","173","615761","0.0-9.0-2.0-1.50","5635","2","20","Female","approach_avoid_spark_v1","""event"",""trial"",""time""
""fullscreenenter"",""1"",""3769""
","
","
","""event"",""trial"",""time""
""fullscreenenter"",""1"",""3769""
","
","","","","","","695.1000000238419","images/truck1.png","","","learning","-7","0","0","0","truck","vehicles","2","0","","good","[5]"
"html-button-response","174","619284","0.0-9.0-3.0","5635","2","20","Female","approach_avoid_spark_v1","""event"",""trial"",""time""
""fullscreenenter"",""1"",""3769""
","
","
","""event"",""trial"",""time""
""fullscreenenter"",""1"",""3769""
","
","","","","","","3519.899999976158","<p> You have completed the round! <p> In this round, you earned 47 points! </p>","0","","break","","","","","","","","","","",""
"html-button-response","175","647102","0.0-10.0","5635","2","20","Female","approach_avoid_spark_v1","""event"",""trial"",""time""
""fullscreenenter"",""1"",""3769""
","
","
","""event"",""trial"",""time""
""fullscreenenter"",""1"",""3769""
","
","","","","","","27816.599999964237","<p> Now it's time to play another round. </p>","0","","transition_screen","","","","","","","","","","",""
"preload","176","647243","0.0-11.0-0.0","5635","2","20","Female","approach_avoid_spark_v1","""event"",""trial"",""time""
""fullscreenenter"",""1"",""3769""
","
","
","""event"",""trial"",""time""
""fullscreenenter"",""1"",""3769""
","
","true","false","[]","[]","[]","","","","","","","","","","","","","","","",""
"learning-instructions","177","655987","0.0-11.0-1.0-0.0","5635","2","20","Female","approach_avoid_spark_v1","""event"",""trial"",""time""
""fullscreenenter"",""1"",""3769""
","
","
","""event"",""trial"",""time""
""fullscreenenter"",""1"",""3769""
","
","","","","","","3459.5","<p> Your goal in this round is to take care of lots of farm animals. </p></div>","","0","instructions","","","","","","","","","","",""
"learning-instructions","178","669279","0.0-11.0-1.0-0.1","5635","2","20","Female","approach_avoid_spark_v1","""event"",""trial"",""time""
""fullscreenenter"",""1"",""3769""
","
","
","""event"",""trial"",""time""
""fullscreenenter"",""1"",""3769""
","
","","","","","","3011.600000023842","<p> Some farm animals are hungry, while other farm animals are already full.  </p><p> On each turn, you will see a farm animal.   </p><p> You need to decide whether to feed it or not.  </p>","","0","instructions","","","","","","","","","","",""
"learning-instructions","179","676427","0.0-11.0-1.0-0.2","5635","2","20","Female","approach_avoid_spark_v1","""event"",""trial"",""time""
""fullscreenenter"",""1"",""3769""
","
","
","""event"",""trial"",""time""
""fullscreenenter"",""1"",""3769""
","
","","","","","","1028.8999999761581","<p> You can feed the farm animal by pressing 1 and leave the farm animal alone by pressing 0. </p><br><div class=""choice-instructions-grid""> <div class=""choice-option""><img src=""images/approach.png"" class=""choice-option-img"" stage=""instructions"" position=""0"" ><div class=""choice-option-text""> Press ""1."" </div></div><div class=""choice-option""><img src=""images/avoid.png"" class=""choice-option-img"" stage=""instructions"" position=""1"" ><div class=""choice-option-text""> Press ""0."" </div></div>","","0","instructions","","","","","","","","","","",""
"learning-instructions","180","687557","0.0-11.0-1.0-0.3","5635","2","20","Female","approach_avoid_spark_v1","""event"",""trial"",""time""
""fullscreenenter"",""1"",""3769""
","
","
","""event"",""trial"",""time""
""fullscreenenter"",""1"",""3769""
","
","","","","","","1489.300000011921","<p> If you feed a hungry farm animal, you will make it feel satisfied! </p><p> But if you feed the farm animal and it was already full, you will make it feel sick. </p>","","0","instructions","","","","","","","","","","",""
"learning-instructions","181","700868","0.0-11.0-1.0-0.4","5635","2","20","Female","approach_avoid_spark_v1","""event"",""trial"",""time""
""fullscreenenter"",""1"",""3769""
","
","
","""event"",""trial"",""time""
""fullscreenenter"",""1"",""3769""
","
","","","","","","740.1000000238419","<p> You will earn points based on how you made the farm animal feel. </p><p> If you made it satisfied, you will WIN anywhere from 1 - 9 points, </p><p> but if you made it sick, you will LOSE anywhere from 1 - 9 points. </p>","","0","instructions","","","","","","","","","","",""
"learning-instructions","182","707927","0.0-11.0-1.0-0.5","5635","2","20","Female","approach_avoid_spark_v1","""event"",""trial"",""time""
""fullscreenenter"",""1"",""3769""
","
","
","""event"",""trial"",""time""
""fullscreenenter"",""1"",""3769""
","
","","","","","","389","<p> You will see how many points you won or lost in the center of the screen. </p><p> Here is what you would see if you won 5 points: </p><p style=""color:green;font-size:50px;font-weight:bolder"">5</p>","","0","instructions","","","","","","","","","","",""
"learning-instructions","183","712477","0.0-11.0-1.0-0.6","5635","2","20","Female","approach_avoid_spark_v1","""event"",""trial"",""time""
""fullscreenenter"",""1"",""3769""
","
","
","""event"",""trial"",""time""
""fullscreenenter"",""1"",""3769""
","
","","","","","","1708.699999988079","<p> And here is what you would see if you lost 3 points: </p><p style=""color:red;font-size:50px;font-weight:bolder"">-3</p>","","0","instructions","","","","","","","","","","",""
"learning-instructions","184","730951","0.0-11.0-1.0-0.7","5635","2","20","Female","approach_avoid_spark_v1","""event"",""trial"",""time""
""fullscreenenter"",""1"",""3769""
","
","
","""event"",""trial"",""time""
""fullscreenenter"",""1"",""3769""
","
","","","","","","2299.199999988079","<p> Some farm animals will become very satisfied or very sick. </p><p> These farm animals will make you win or lose LOTS of points. </p><p> Other farm animals have less strong feelings. </p><p> These farm animals will make you win or lose small amounts of points. </p>","","0","instructions","","","","","","","","","","",""
"learning-instructions","185","745242","0.0-11.0-1.0-0.8","5635","2","20","Female","approach_avoid_spark_v1","""event"",""trial"",""time""
""fullscreenenter"",""1"",""3769""
","
","
","""event"",""trial"",""time""
""fullscreenenter"",""1"",""3769""
","
","","","","","","1869.8999999761581","<p> If you choose to leave the farm animal alone, you will not win or lose any points. </p><p>  However, in the center of the screen, you will see the number of points you WOULD HAVE won or lost if you had fed the farm animal. </p>","","0","instructions","","","","","","","","","","",""
"learning-instructions","186","760602","0.0-11.0-1.0-0.9","5635","2","20","Female","approach_avoid_spark_v1","""event"",""trial"",""time""
""fullscreenenter"",""1"",""3769""
","
","
","""event"",""trial"",""time""
""fullscreenenter"",""1"",""3769""
","
","","","","","","3779.400000035763","<p> Here is what you might see if you did not feed the farm animal but the animal was hungry: </p><p style=""color:grey; font-size:50px; display: inline-block; border-spacing: 15px; border-width:3px; border-style:solid; border-color:red"">  &nbsp; 6 &nbsp; </p><p> Remember, in this case, you would not win or lose ANY points because you did not feed the farm animal.  </p>","","0","instructions","","","","","","","","","","",""
"learning-instructions","187","803205","0.0-11.0-1.0-0.10","5635","2","20","Female","approach_avoid_spark_v1","""event"",""trial"",""time""
""fullscreenenter"",""1"",""3769""
","
","
","""event"",""trial"",""time""
""fullscreenenter"",""1"",""3769""
","
","","","","","","34468","<p> Try to make the best choice for each farm animal because </p><p> at the end of the game, you will earn bonus money based on how many points you earned. </p>","","0","instructions","","","","","","","","","","",""
"learning-instructions","188","812742","0.0-11.0-1.0-0.11","5635","2","20","Female","approach_avoid_spark_v1","""event"",""trial"",""time""
""fullscreenenter"",""1"",""3769""
","
","
","""event"",""trial"",""time""
""fullscreenenter"",""1"",""3769""
","
","","","","","","1349.1000000238419","<p> You will have 3 seconds to make each choice. Try to respond before time runs out! </p><p> You will lose 5 points each time you do not make a response. </p>","","0","instructions","","","","","","","","","","",""
"html-keyboard-response","189","813360","0.0-11.0-2.0-0.0","5635","2","20","Female","approach_avoid_spark_v1","""event"",""trial"",""time""
""fullscreenenter"",""1"",""3769""
","
","
","""event"",""trial"",""time""
""fullscreenenter"",""1"",""3769""
","
","","","","","","null","<div style=""font-size:60px;"">+</div>","null","","fixation","","","","","","","","","","",""
"aa-learning-trial","190","816367","0.0-11.0-2.0-1.0","5635","2","20","Female","approach_avoid_spark_v1","""event"",""trial"",""time""
""fullscreenenter"",""1"",""3769""
","
","
","""event"",""trial"",""time""
""fullscreenenter"",""1"",""3769""
","
","","","","","","1449.7000000476837","images/goat6.png","","","learning","[-1]","-1","1","1","goat","animals","1","1","","neutral","0"
"html-keyboard-response","191","816880","0.0-11.0-2.0-0.1","5635","2","20","Female","approach_avoid_spark_v1","""event"",""trial"",""time""
""fullscreenenter"",""1"",""3769""
","
","
","""event"",""trial"",""time""
""fullscreenenter"",""1"",""3769""
","
","","","","","","null","<div style=""font-size:60px;"">+</div>","null","","fixation","","","","","","","","","","",""
"aa-learning-trial","192","819890","0.0-11.0-2.0-1.1","5635","2","20","Female","approach_avoid_spark_v1","""event"",""trial"",""time""
""fullscreenenter"",""1"",""3769""
","
","
","""event"",""trial"",""time""
""fullscreenenter"",""1"",""3769""
","
","","","","","","769.6000000238419","images/goat4.png","","","learning","1","1","1","1","goat","animals","1","1","","neutral","0"
"html-keyboard-response","193","820410","0.0-11.0-2.0-0.2","5635","2","20","Female","approach_avoid_spark_v1","""event"",""trial"",""time""
""fullscreenenter"",""1"",""3769""
","
","
","""event"",""trial"",""time""
""fullscreenenter"",""1"",""3769""
","
","","","","","","null","<div style=""font-size:60px;"">+</div>","null","","fixation","","","","","","","","","","",""
"aa-learning-trial","194","823430","0.0-11.0-2.0-1.2","5635","2","20","Female","approach_avoid_spark_v1","""event"",""trial"",""time""
""fullscreenenter"",""1"",""3769""
","
","
","""event"",""trial"",""time""
""fullscreenenter"",""1"",""3769""
","
","","","","","","724.8000000119209","images/horse3.png","","","learning","3","3","1","1","horse","animals","1","1","","good","[3]"
"html-keyboard-response","195","823950","0.0-11.0-2.0-0.3","5635","2","20","Female","approach_avoid_spark_v1","""event"",""trial"",""time""
""fullscreenenter"",""1"",""3769""
","
","
","""event"",""trial"",""time""
""fullscreenenter"",""1"",""3769""
","
","","","","","","null","<div style=""font-size:60px;"">+</div>","null","","fixation","","","","","","","","","","",""
"aa-learning-trial","196","826970","0.0-11.0-2.0-1.3","5635","2","20","Female","approach_avoid_spark_v1","""event"",""trial"",""time""
""fullscreenenter"",""1"",""3769""
","
","
","""event"",""trial"",""time""
""fullscreenenter"",""1"",""3769""
","
","","","","","","742.8999999761581","images/goat6.png","","","learning","5","0","0","0","goat","animals","1","1","","neutral","0"
"html-keyboard-response","197","827490","0.0-11.0-2.0-0.4","5635","2","20","Female","approach_avoid_spark_v1","""event"",""trial"",""time""
""fullscreenenter"",""1"",""3769""
","
","
","""event"",""trial"",""time""
""fullscreenenter"",""1"",""3769""
","
","","","","","","null","<div style=""font-size:60px;"">+</div>","null","","fixation","","","","","","","","","","",""
"aa-learning-trial","198","830500","0.0-11.0-2.0-1.4","5635","2","20","Female","approach_avoid_spark_v1","""event"",""trial"",""time""
""fullscreenenter"",""1"",""3769""
","
","
","""event"",""trial"",""time""
""fullscreenenter"",""1"",""3769""
","
","","","","","","844.1000000238419","images/cow4.png","","","learning","-3","-3","1","1","cow","animals","1","1","","bad","[-5]"
"html-keyboard-response","199","831020","0.0-11.0-2.0-0.5","5635","2","20","Female","approach_avoid_spark_v1","""event"",""trial"",""time""
""fullscreenenter"",""1"",""3769""
","
","
","""event"",""trial"",""time""
""fullscreenenter"",""1"",""3769""
","
","","","","","","null","<div style=""font-size:60px;"">+</div>","null","","fixation","","","","","","","","","","",""
"aa-learning-trial","200","834040","0.0-11.0-2.0-1.5","5635","2","20","Female","approach_avoid_spark_v1","""event"",""trial"",""time""
""fullscreenenter"",""1"",""3769""
","
","
","""event"",""trial"",""time""
""fullscreenenter"",""1"",""3769""
","
","","","","","","707.1000000238419","images/cow7.png","","","learning","-6","0","0","0","cow","animals","1","1","","bad","[-5]"
"html-keyboard-response","201","834559","0.0-11.0-2.0-0.6","5635","2","20","Female","approach_avoid_spark_v1","""event"",""trial"",""time""
""fullscreenenter"",""1"",""3769""
","
","
","""event"",""trial"",""time""
""fullscreenenter"",""1"",""3769""
","
","","","","","","null","<div style=""font-size:60px;"">+</div>","null","","fixation","","","","","","","","","","",""
"aa-learning-trial","202","837571","0.0-11.0-2.0-1.6","5635","2","20","Female","approach_avoid_spark_v1","""event"",""trial"",""time""
""fullscreenenter"",""1"",""3769""
","
","
","""event"",""trial"",""time""
""fullscreenenter"",""1"",""3769""
","
","","","","","","815.8999999761581","images/cow3.png","","","learning","-4","0","0","0","cow","animals","1","1","","bad","[-5]"
"html-keyboard-response","203","838083","0.0-11.0-2.0-0.7","5635","2","20","Female","approach_avoid_spark_v1","""event"",""trial"",""time""
""fullscreenenter"",""1"",""3769""
","
","
","""event"",""trial"",""time""
""fullscreenenter"",""1"",""3769""
","
","","","","","","null","<div style=""font-size:60px;"">+</div>","null","","fixation","","","","","","","","","","",""
"aa-learning-trial","204","841091","0.0-11.0-2.0-1.7","5635","2","20","Female","approach_avoid_spark_v1","""event"",""trial"",""time""
""fullscreenenter"",""1"",""3769""
","
","
","""event"",""trial"",""time""
""fullscreenenter"",""1"",""3769""
","
","","","","","","1025.300000011921","images/goat7.png","","","learning","[1]","0","0","0","goat","animals","1","1","","neutral","0"
"html-keyboard-response","205","841600","0.0-11.0-2.0-0.8","5635","2","20","Female","approach_avoid_spark_v1","""event"",""trial"",""time""
""fullscreenenter"",""1"",""3769""
","
","
","""event"",""trial"",""time""
""fullscreenenter"",""1"",""3769""
","
","","","","","","null","<div style=""font-size:60px;"">+</div>","null","","fixation","","","","","","","","","","",""
"aa-learning-trial","206","844611","0.0-11.0-2.0-1.8","5635","2","20","Female","approach_avoid_spark_v1","""event"",""trial"",""time""
""fullscreenenter"",""1"",""3769""
","
","
","""event"",""trial"",""time""
""fullscreenenter"",""1"",""3769""
","
","","","","","","893.8000000119209","images/goat4.png","","","learning","[-1]","-1","1","1","goat","animals","1","1","","neutral","0"
"html-keyboard-response","207","845121","0.0-11.0-2.0-0.9","5635","2","20","Female","approach_avoid_spark_v1","""event"",""trial"",""time""
""fullscreenenter"",""1"",""3769""
","
","
","""event"",""trial"",""time""
""fullscreenenter"",""1"",""3769""
","
","","","","","","null","<div style=""font-size:60px;"">+</div>","null","","fixation","","","","","","","","","","",""
"aa-learning-trial","208","848133","0.0-11.0-2.0-1.9","5635","2","20","Female","approach_avoid_spark_v1","""event"",""trial"",""time""
""fullscreenenter"",""1"",""3769""
","
","
","""event"",""trial"",""time""
""fullscreenenter"",""1"",""3769""
","
","","","","","","872.3999999761581","images/horse7.png","","","learning","3","0","0","0","horse","animals","1","1","","good","[3]"
"html-keyboard-response","209","848642","0.0-11.0-2.0-0.10","5635","2","20","Female","approach_avoid_spark_v1","""event"",""trial"",""time""
""fullscreenenter"",""1"",""3769""
","
","
","""event"",""trial"",""time""
""fullscreenenter"",""1"",""3769""
","
","","","","","","null","<div style=""font-size:60px;"">+</div>","null","","fixation","","","","","","","","","","",""
"aa-learning-trial","210","851655","0.0-11.0-2.0-1.10","5635","2","20","Female","approach_avoid_spark_v1","""event"",""trial"",""time""
""fullscreenenter"",""1"",""3769""
","
","
","""event"",""trial"",""time""
""fullscreenenter"",""1"",""3769""
","
","","","","","","1096.199999988079","images/horse7.png","","","learning","5","0","0","0","horse","animals","1","1","","good","[3]"
"html-keyboard-response","211","852161","0.0-11.0-2.0-0.11","5635","2","20","Female","approach_avoid_spark_v1","""event"",""trial"",""time""
""fullscreenenter"",""1"",""3769""
","
","
","""event"",""trial"",""time""
""fullscreenenter"",""1"",""3769""
","
","","","","","","null","<div style=""font-size:60px;"">+</div>","null","","fixation","","","","","","","","","","",""
"aa-learning-trial","212","855171","0.0-11.0-2.0-1.11","5635","2","20","Female","approach_avoid_spark_v1","""event"",""trial"",""time""
""fullscreenenter"",""1"",""3769""
","
","
","""event"",""trial"",""time""
""fullscreenenter"",""1"",""3769""
","
","","","","","","1008.5","images/cow3.png","","","learning","-5","-5","1","1","cow","animals","1","1","","bad","[-5]"
"html-keyboard-response","213","855681","0.0-11.0-2.0-0.12","5635","2","20","Female","approach_avoid_spark_v1","""event"",""trial"",""time""
""fullscreenenter"",""1"",""3769""
","
","
","""event"",""trial"",""time""
""fullscreenenter"",""1"",""3769""
","
","","","","","","null","<div style=""font-size:60px;"">+</div>","null","","fixation","","","","","","","","","","",""
"aa-learning-trial","214","858688","0.0-11.0-2.0-1.12","5635","2","20","Female","approach_avoid_spark_v1","""event"",""trial"",""time""
""fullscreenenter"",""1"",""3769""
","
","
","""event"",""trial"",""time""
""fullscreenenter"",""1"",""3769""
","
","","","","","","1054","images/horse3.png","","","learning","4","4","1","1","horse","animals","1","1","","good","[3]"
"html-keyboard-response","215","859191","0.0-11.0-2.0-0.13","5635","2","20","Female","approach_avoid_spark_v1","""event"",""trial"",""time""
""fullscreenenter"",""1"",""3769""
","
","
","""event"",""trial"",""time""
""fullscreenenter"",""1"",""3769""
","
","","","","","","null","<div style=""font-size:60px;"">+</div>","null","","fixation","","","","","","","","","","",""
"aa-learning-trial","216","862211","0.0-11.0-2.0-1.13","5635","2","20","Female","approach_avoid_spark_v1","""event"",""trial"",""time""
""fullscreenenter"",""1"",""3769""
","
","
","""event"",""trial"",""time""
""fullscreenenter"",""1"",""3769""
","
","","","","","","1077.800000011921","images/cow7.png","","","learning","-6","-6","1","1","cow","animals","1","1","","bad","[-5]"
"html-keyboard-response","217","862720","0.0-11.0-2.0-0.14","5635","2","20","Female","approach_avoid_spark_v1","""event"",""trial"",""time""
""fullscreenenter"",""1"",""3769""
","
","
","""event"",""trial"",""time""
""fullscreenenter"",""1"",""3769""
","
","","","","","","null","<div style=""font-size:60px;"">+</div>","null","","fixation","","","","","","","","","","",""
"aa-learning-trial","218","865722","0.0-11.0-2.0-1.14","5635","2","20","Female","approach_avoid_spark_v1","""event"",""trial"",""time""
""fullscreenenter"",""1"",""3769""
","
","
","""event"",""trial"",""time""
""fullscreenenter"",""1"",""3769""
","
","","","","","","940","images/horse6.png","","","learning","1","1","1","1","horse","animals","1","1","","good","[3]"
"html-keyboard-response","219","866231","0.0-11.0-2.0-0.15","5635","2","20","Female","approach_avoid_spark_v1","""event"",""trial"",""time""
""fullscreenenter"",""1"",""3769""
","
","
","""event"",""trial"",""time""
""fullscreenenter"",""1"",""3769""
","
","","","","","","null","<div style=""font-size:60px;"">+</div>","null","","fixation","","","","","","","","","","",""
"aa-learning-trial","220","869248","0.0-11.0-2.0-1.15","5635","2","20","Female","approach_avoid_spark_v1","""event"",""trial"",""time""
""fullscreenenter"",""1"",""3769""
","
","
","""event"",""trial"",""time""
""fullscreenenter"",""1"",""3769""
","
","","","","","","889.1000000238419","images/cow3.png","","","learning","-3","0","0","0","cow","animals","1","1","","bad","[-5]"
"html-keyboard-response","221","869769","0.0-11.0-2.0-0.16","5635","2","20","Female","approach_avoid_spark_v1","""event"",""trial"",""time""
""fullscreenenter"",""1"",""3769""
","
","
","""event"",""trial"",""time""
""fullscreenenter"",""1"",""3769""
","
","","","","","","null","<div style=""font-size:60px;"">+</div>","null","","fixation","","","","","","","","","","",""
"aa-learning-trial","222","872784","0.0-11.0-2.0-1.16","5635","2","20","Female","approach_avoid_spark_v1","""event"",""trial"",""time""
""fullscreenenter"",""1"",""3769""
","
","
","""event"",""trial"",""time""
""fullscreenenter"",""1"",""3769""
","
","","","","","","866.2000000476837","images/horse5.png","","","learning","1","1","1","1","horse","animals","1","1","","good","[3]"
"html-keyboard-response","223","873297","0.0-11.0-2.0-0.17","5635","2","20","Female","approach_avoid_spark_v1","""event"",""trial"",""time""
""fullscreenenter"",""1"",""3769""
","
","
","""event"",""trial"",""time""
""fullscreenenter"",""1"",""3769""
","
","","","","","","null","<div style=""font-size:60px;"">+</div>","null","","fixation","","","","","","","","","","",""
"aa-learning-trial","224","876313","0.0-11.0-2.0-1.17","5635","2","20","Female","approach_avoid_spark_v1","""event"",""trial"",""time""
""fullscreenenter"",""1"",""3769""
","
","
","""event"",""trial"",""time""
""fullscreenenter"",""1"",""3769""
","
","","","","","","873.8999999761581","images/cow3.png","","","learning","-6","0","0","0","cow","animals","1","1","","bad","[-5]"
"html-keyboard-response","225","876829","0.0-11.0-2.0-0.18","5635","2","20","Female","approach_avoid_spark_v1","""event"",""trial"",""time""
""fullscreenenter"",""1"",""3769""
","
","
","""event"",""trial"",""time""
""fullscreenenter"",""1"",""3769""
","
","","","","","","null","<div style=""font-size:60px;"">+</div>","null","","fixation","","","","","","","","","","",""
"aa-learning-trial","226","879838","0.0-11.0-2.0-1.18","5635","2","20","Female","approach_avoid_spark_v1","""event"",""trial"",""time""
""fullscreenenter"",""1"",""3769""
","
","
","""event"",""trial"",""time""
""fullscreenenter"",""1"",""3769""
","
","","","","","","856.6999999880791","images/goat4.png","","","learning","[1]","0","0","0","goat","animals","1","1","","neutral","0"
"html-keyboard-response","227","880349","0.0-11.0-2.0-0.19","5635","2","20","Female","approach_avoid_spark_v1","""event"",""trial"",""time""
""fullscreenenter"",""1"",""3769""
","
","
","""event"",""trial"",""time""
""fullscreenenter"",""1"",""3769""
","
","","","","","","null","<div style=""font-size:60px;"">+</div>","null","","fixation","","","","","","","","","","",""
"aa-learning-trial","228","883362","0.0-11.0-2.0-1.19","5635","2","20","Female","approach_avoid_spark_v1","""event"",""trial"",""time""
""fullscreenenter"",""1"",""3769""
","
","
","""event"",""trial"",""time""
""fullscreenenter"",""1"",""3769""
","
","","","","","","1534.8999999761581","images/goat1.png","","","learning","2","0","0","0","goat","animals","1","1","","neutral","0"
"html-keyboard-response","229","883873","0.0-11.0-2.0-0.20","5635","2","20","Female","approach_avoid_spark_v1","""event"",""trial"",""time""
""fullscreenenter"",""1"",""3769""
","
","
","""event"",""trial"",""time""
""fullscreenenter"",""1"",""3769""
","
","","","","","","null","<div style=""font-size:60px;"">+</div>","null","","fixation","","","","","","","","","","",""
"aa-learning-trial","230","886895","0.0-11.0-2.0-1.20","5635","2","20","Female","approach_avoid_spark_v1","""event"",""trial"",""time""
""fullscreenenter"",""1"",""3769""
","
","
","""event"",""trial"",""time""
""fullscreenenter"",""1"",""3769""
","
","","","","","","709","images/horse6.png","","","learning","1","1","1","1","horse","animals","1","1","","good","[3]"
"html-keyboard-response","231","887408","0.0-11.0-2.0-0.21","5635","2","20","Female","approach_avoid_spark_v1","""event"",""trial"",""time""
""fullscreenenter"",""1"",""3769""
","
","
","""event"",""trial"",""time""
""fullscreenenter"",""1"",""3769""
","
","","","","","","null","<div style=""font-size:60px;"">+</div>","null","","fixation","","","","","","","","","","",""
"aa-learning-trial","232","890430","0.0-11.0-2.0-1.21","5635","2","20","Female","approach_avoid_spark_v1","""event"",""trial"",""time""
""fullscreenenter"",""1"",""3769""
","
","
","""event"",""trial"",""time""
""fullscreenenter"",""1"",""3769""
","
","","","","","","495.5","images/horse3.png","","","learning","3","3","1","1","horse","animals","1","1","","good","[3]"
"html-keyboard-response","233","890944","0.0-11.0-2.0-0.22","5635","2","20","Female","approach_avoid_spark_v1","""event"",""trial"",""time""
""fullscreenenter"",""1"",""3769""
","
","
","""event"",""trial"",""time""
""fullscreenenter"",""1"",""3769""
","
","","","","","","null","<div style=""font-size:60px;"">+</div>","null","","fixation","","","","","","","","","","",""
"aa-learning-trial","234","893956","0.0-11.0-2.0-1.22","5635","2","20","Female","approach_avoid_spark_v1","""event"",""trial"",""time""
""fullscreenenter"",""1"",""3769""
","
","
","""event"",""trial"",""time""
""fullscreenenter"",""1"",""3769""
","
","","","","","","1136","images/cow4.png","","","learning","-5","-5","1","1","cow","animals","1","1","","bad","[-5]"
"html-keyboard-response","235","894475","0.0-11.0-2.0-0.23","5635","2","20","Female","approach_avoid_spark_v1","""event"",""trial"",""time""
""fullscreenenter"",""1"",""3769""
","
","
","""event"",""trial"",""time""
""fullscreenenter"",""1"",""3769""
","
","","","","","","null","<div style=""font-size:60px;"">+</div>","null","","fixation","","","","","","","","","","",""
