"trial_type","trial_index","time_elapsed","internal_node_id","subject_id","task_condition","age","gender","task_version","interactions","blur_events","focus_events","fullscreenenter_events","fullscreenexit_events","success","timeout","failed_images","failed_audio","failed_video","rt","stimulus","response","button_pressed","task_part","approach_reward","points","key_press","option_selected","stim_cat","task_block","block_condition","block_number","correct","cat_type","mean_cat_reward"
"pavlovia","0","16","0.0-0.0","5878","1","14","Male","approach_avoid_spark_v1","""event"",""trial"",""time""
""fullscreenenter"",""1"",""3217""
","
","
","""event"",""trial"",""time""
""fullscreenenter"",""1"",""3217""
","
","","","","","","","","","","","","","","","","","","","","",""
"fullscreen","1","4167","0.0-1.0","5878","1","14","Male","approach_avoid_spark_v1","""event"",""trial"",""time""
""fullscreenenter"",""1"",""3217""
","
","
","""event"",""trial"",""time""
""fullscreenenter"",""1"",""3217""
","
","true","","","","","","","","","","","","","","","","","","","",""
"preload","2","11345","0.0-2.0","5878","1","14","Male","approach_avoid_spark_v1","""event"",""trial"",""time""
""fullscreenenter"",""1"",""3217""
","
","
","""event"",""trial"",""time""
""fullscreenenter"",""1"",""3217""
","
","true","false","[]","[]","[]","","","","","","","","","","","","","","","",""
"audio-keyboard-response","3","13811","0.0-3.0","5878","1","14","Male","approach_avoid_spark_v1","""event"",""trial"",""time""
""fullscreenenter"",""1"",""3217""
","
","
","""event"",""trial"",""time""
""fullscreenenter"",""1"",""3217""
","
","","","","","","2458.666666666666","audio/beep_loop.wav"," ","","","","","","","","","","","","",""
"audio-button-response","4","18908","0.0-4.0","5878","1","14","Male","approach_avoid_spark_v1","""event"",""trial"",""time""
""fullscreenenter"",""1"",""3217""
","
","
","""event"",""trial"",""time""
""fullscreenenter"",""1"",""3217""
","
","","","","","","5091","audio/shark.wav","0","","","","","","","","","","","","",""
"audio-button-response","5","21192","0.0-5.0","5878","1","14","Male","approach_avoid_spark_v1","""event"",""trial"",""time""
""fullscreenenter"",""1"",""3217""
","
","
","""event"",""trial"",""time""
""fullscreenenter"",""1"",""3217""
","
","","","","","","1261","audio/turtle.wav","1","","","","","","","","","","","","",""
"preload","6","24952","0.0-6.0","5878","1","14","Male","approach_avoid_spark_v1","""event"",""trial"",""time""
""fullscreenenter"",""1"",""3217""
","
","
","""event"",""trial"",""time""
""fullscreenenter"",""1"",""3217""
","
","true","false","[]","[]","[]","","","","","","","","","","","","","","","",""
"html-keyboard-response","7","26763","0.0-7.0","5878","1","14","Male","approach_avoid_spark_v1","""event"",""trial"",""time""
""fullscreenenter"",""1"",""3217""
","
","
","""event"",""trial"",""time""
""fullscreenenter"",""1"",""3217""
","
","","","","","","1808","Welcome to the experiment. Press any key to begin and to advance the instructions."," ","","","","","","","","","","","","",""
"learning-instructions","8","35029","0.0-8.0-0.0-0.0","5878","1","14","Male","approach_avoid_spark_v1","""event"",""trial"",""time""
""fullscreenenter"",""1"",""3217""
","
","
","""event"",""trial"",""time""
""fullscreenenter"",""1"",""3217""
","
","","","","","","1303.4000000953674","<p> Welcome! Today you are going to play 6 different rounds of a decision-making game. </p><p> Use the mouse to click next to continue. </p>","","0","instructions","","","","","","","","","","",""
"learning-instructions","9","37977","0.0-8.0-0.0-0.1","5878","1","14","Male","approach_avoid_spark_v1","""event"",""trial"",""time""
""fullscreenenter"",""1"",""3217""
","
","
","""event"",""trial"",""time""
""fullscreenenter"",""1"",""3217""
","
","","","","","","160.90000009536743","<p> You will start with a practice round to learn the rules. </p>","","0","instructions","","","","","","","","","","",""
"learning-instructions","10","43261","0.0-8.0-0.0-0.2","5878","1","14","Male","approach_avoid_spark_v1","""event"",""trial"",""time""
""fullscreenenter"",""1"",""3217""
","
","
","""event"",""trial"",""time""
""fullscreenenter"",""1"",""3217""
","
","","","","","","1825.7999997138977","<p> Your goal in this round is to give out sports equipment to kids. </p></div>","","0","instructions","","","","","","","","","","",""
"learning-instructions","11","51658","0.0-8.0-0.0-0.3","5878","1","14","Male","approach_avoid_spark_v1","""event"",""trial"",""time""
""fullscreenenter"",""1"",""3217""
","
","
","""event"",""trial"",""time""
""fullscreenenter"",""1"",""3217""
","
","","","","","","821.7000002861023","<p> The kids only like some of the equipment.  </p><p> On each turn, you will see a piece of sports equipment.   </p><p> You need to decide whether to give it to the kids or not.  </p>","","0","instructions","","","","","","","","","","",""
"learning-instructions","12","57611","0.0-8.0-0.0-0.4","5878","1","14","Male","approach_avoid_spark_v1","""event"",""trial"",""time""
""fullscreenenter"",""1"",""3217""
","
","
","""event"",""trial"",""time""
""fullscreenenter"",""1"",""3217""
","
","","","","","","1173.0999999046326","<p> You can give them the equipment by pressing 1 and choose not to give it to them by pressing 0. </p><br><div class=""choice-instructions-grid""> <div class=""choice-option""><img src=""images/approach.png"" class=""choice-option-img"" stage=""instructions"" position=""0"" ><div class=""choice-option-text""> Press ""1."" </div></div><div class=""choice-option""><img src=""images/avoid.png"" class=""choice-option-img"" stage=""instructions"" position=""1"" ><div class=""choice-option-text""> Press ""0."" </div></div>","","0","instructions","","","","","","","","","","",""
"learning-instructions","13","66473","0.0-8.0-0.0-0.5","5878","1","14","Male","approach_avoid_spark_v1","""event"",""trial"",""time""
""fullscreenenter"",""1"",""3217""
","
","
","""event"",""trial"",""time""
""fullscreenenter"",""1"",""3217""
","
","","","","","","1465.6999998092651","<p> If you give them a piece of equipment they like, they will be happy! </p><p> But if you give them a piece of equipment they do not like, they will be sad. </p>","","0","instructions","","","","","","","","","","",""
"learning-instructions","14","80256","0.0-8.0-0.0-0.6","5878","1","14","Male","approach_avoid_spark_v1","""event"",""trial"",""time""
""fullscreenenter"",""1"",""3217""
","
","
","""event"",""trial"",""time""
""fullscreenenter"",""1"",""3217""
","
","","","","","","3267.5","<p> You will earn points based on how you make kids feel. </p><p> If you make them happy, you will WIN anywhere from 1 - 9 points, </p><p> but if you make them sad, you will LOSE anywhere from 1 - 9 points. </p>","","0","instructions","","","","","","","","","","",""
"learning-instructions","15","90639","0.0-8.0-0.0-0.7","5878","1","14","Male","approach_avoid_spark_v1","""event"",""trial"",""time""
""fullscreenenter"",""1"",""3217""
","
","
","""event"",""trial"",""time""
""fullscreenenter"",""1"",""3217""
","
","","","","","","817.7000002861023","<p> You will see how many points you won or lost in the center of the screen. </p><p> Here is what you would see if you won 6 points: </p><p style=""color:green;font-size:50px;font-weight:bolder"">6</p><p style=""color:green"">The text is GREEN because you WON points.</p>","","0","instructions","","","","","","","","","","",""
"learning-instructions","16","96644","0.0-8.0-0.0-0.8","5878","1","14","Male","approach_avoid_spark_v1","""event"",""trial"",""time""
""fullscreenenter"",""1"",""3217""
","
","
","""event"",""trial"",""time""
""fullscreenenter"",""1"",""3217""
","
","","","","","","485.3999996185303","<p> And here is what you would see if you lost 4 points: </p><p style=""color:red;font-size:50px;font-weight:bolder"">-4</p><p style=""color:red"">The text is RED because you LOST points. </p>","","0","instructions","","","","","","","","","","",""
"learning-instructions","17","114380","0.0-8.0-0.0-0.9","5878","1","14","Male","approach_avoid_spark_v1","""event"",""trial"",""time""
""fullscreenenter"",""1"",""3217""
","
","
","""event"",""trial"",""time""
""fullscreenenter"",""1"",""3217""
","
","","","","","","3010.4000000953674","<p> Some of the equipment will make the kids VERY happy or sad. </p><p> These pieces of equipment will make you win or lose LOTS of points. </p><p> Other pieces of equipment will only make the kids a little happy or sad. </p><p> These pieces of equipment will make you win or lose small amounts of points. </p>","","0","instructions","","","","","","","","","","",""
"learning-instructions","18","128980","0.0-8.0-0.0-0.10","5878","1","14","Male","approach_avoid_spark_v1","""event"",""trial"",""time""
""fullscreenenter"",""1"",""3217""
","
","
","""event"",""trial"",""time""
""fullscreenenter"",""1"",""3217""
","
","","","","","","3959.5","<p> If you choose not to give them the equipment, you will not win or lose any points. </p><p>  However, in the center of the screen, you will see the number of points you WOULD HAVE won or lost if you had given them the equipment. </p>","","0","instructions","","","","","","","","","","",""
"learning-instructions","19","151453","0.0-8.0-0.0-0.11","5878","1","14","Male","approach_avoid_spark_v1","""event"",""trial"",""time""
""fullscreenenter"",""1"",""3217""
""blur"",""20"",""154829""
""focus"",""20"",""155163""
""blur"",""20"",""155195""
""focus"",""20"",""158636""
""blur"",""20"",""159733""
""focus"",""20"",""159878""
""blur"",""20"",""159913""
""focus"",""20"",""175143""
","""event"",""trial"",""time""
""blur"",""20"",""154829""
""blur"",""20"",""155195""
""blur"",""20"",""159733""
""blur"",""20"",""159913""
","""event"",""trial"",""time""
""focus"",""20"",""155163""
""focus"",""20"",""158636""
""focus"",""20"",""159878""
""focus"",""20"",""175143""
","""event"",""trial"",""time""
""fullscreenenter"",""1"",""3217""
","
","","","","","","942.9000000953674","<p> Here is what you might see if you did not give the equipment to the kids but it would have made them happy: </p><p style=""color:grey; font-size:50px; display: inline-block; border-spacing: 15px; border-width:3px; border-style:solid; border-color:red"">  &nbsp; 7 &nbsp; </p><p> Remember, in this case, you would not win or lose ANY points because you did not give them the equipment.  </p><p style=""color:grey"">The text is GREY because you earned ZERO points. </p><p style=""color:red"">However, choosing to give the kids the equipment would have made you win points. The box around the text is RED because you chose the worse option. </p>","","0","instructions","","","","","","","","","","",""
"learning-instructions","20","175246","0.0-8.0-0.0-0.12","5878","1","14","Male","approach_avoid_spark_v1","""event"",""trial"",""time""
""fullscreenenter"",""1"",""3217""
""blur"",""20"",""154829""
""focus"",""20"",""155163""
""blur"",""20"",""155195""
""focus"",""20"",""158636""
""blur"",""20"",""159733""
""focus"",""20"",""159878""
""blur"",""20"",""159913""
""focus"",""20"",""175143""
","""event"",""trial"",""time""
""blur"",""20"",""154829""
""blur"",""20"",""155195""
""blur"",""20"",""159733""
""blur"",""20"",""159913""
","""event"",""trial"",""time""
""focus"",""20"",""155163""
""focus"",""20"",""158636""
""focus"",""20"",""159878""
""focus"",""20"",""175143""
","""event"",""trial"",""time""
""fullscreenenter"",""1"",""3217""
","
","","","","","","2705","<p> Here is what you might see if you did not give the equipment to the kids but it would have made them sad: </p><p style=""color:grey;font-size:50px; display: inline-block; border-spacing: 15px; border-width:3px; border-style:solid; border-color:green"">  &nbsp; -8 &nbsp; </p><p> Remember, in this case, you would not win or lose ANY points because you did not give them the equipment.  </p><p style=""color:grey"">The text is GREY because you earned ZERO points. </p><p  style=""color:green""> Choosing to give the kids the equipment would have made you lose points. The box around the text is GREEN because you chose the better option.</p>","","0","instructions","","","","","","","","","","",""
"learning-instructions","21","187776","0.0-8.0-0.0-0.13","5878","1","14","Male","approach_avoid_spark_v1","""event"",""trial"",""time""
""fullscreenenter"",""1"",""3217""
""blur"",""20"",""154829""
""focus"",""20"",""155163""
""blur"",""20"",""155195""
""focus"",""20"",""158636""
""blur"",""20"",""159733""
""focus"",""20"",""159878""
""blur"",""20"",""159913""
""focus"",""20"",""175143""
","""event"",""trial"",""time""
""blur"",""20"",""154829""
""blur"",""20"",""155195""
""blur"",""20"",""159733""
""blur"",""20"",""159913""
","""event"",""trial"",""time""
""focus"",""20"",""155163""
""focus"",""20"",""158636""
""focus"",""20"",""159878""
""focus"",""20"",""175143""
","""event"",""trial"",""time""
""fullscreenenter"",""1"",""3217""
","
","","","","","","3133.800000190735","<p> You will have 3 seconds to make each choice. Try to respond before time runs out! </p><p> You will lose 5 points each time you do not make a response. </p>","","0","instructions","","","","","","","","","","",""
"learning-instructions","22","193936","0.0-8.0-0.0-0.14","5878","1","14","Male","approach_avoid_spark_v1","""event"",""trial"",""time""
""fullscreenenter"",""1"",""3217""
""blur"",""20"",""154829""
""focus"",""20"",""155163""
""blur"",""20"",""155195""
""focus"",""20"",""158636""
""blur"",""20"",""159733""
""focus"",""20"",""159878""
""blur"",""20"",""159913""
""focus"",""20"",""175143""
","""event"",""trial"",""time""
""blur"",""20"",""154829""
""blur"",""20"",""155195""
""blur"",""20"",""159733""
""blur"",""20"",""159913""
","""event"",""trial"",""time""
""focus"",""20"",""155163""
""focus"",""20"",""158636""
""focus"",""20"",""159878""
""focus"",""20"",""175143""
","""event"",""trial"",""time""
""fullscreenenter"",""1"",""3217""
","
","","","","","","704.5","<p> This is just a practice round, but in the real game, your bonus payment will depend on your total number of points.","","0","instructions","","","","","","","","","","",""
"learning-instructions","23","200553","0.0-8.0-0.0-0.15","5878","1","14","Male","approach_avoid_spark_v1","""event"",""trial"",""time""
""fullscreenenter"",""1"",""3217""
""blur"",""20"",""154829""
""focus"",""20"",""155163""
""blur"",""20"",""155195""
""focus"",""20"",""158636""
""blur"",""20"",""159733""
""focus"",""20"",""159878""
""blur"",""20"",""159913""
""focus"",""20"",""175143""
","""event"",""trial"",""time""
""blur"",""20"",""154829""
""blur"",""20"",""155195""
""blur"",""20"",""159733""
""blur"",""20"",""159913""
","""event"",""trial"",""time""
""focus"",""20"",""155163""
""focus"",""20"",""158636""
""focus"",""20"",""159878""
""focus"",""20"",""175143""
","""event"",""trial"",""time""
""fullscreenenter"",""1"",""3217""
","
","","","","","","838.9000000953674","<p> Remember, you can give them the equipment by pressing 1 and choose not to give it to them by pressing 0. </p><br><div class=""choice-instructions-grid""> <div class=""choice-option""><img src=""images/approach.png"" class=""choice-option-img"" stage=""instructions"" position=""0"" ><div class=""choice-option-text""> Press ""1."" </div></div><div class=""choice-option""><img src=""images/avoid.png"" class=""choice-option-img"" stage=""instructions"" position=""1"" ><div class=""choice-option-text""> Press ""0."" </div></div>","","0","instructions","","","","","","","","","","",""
"html-button-response","24","202814","0.0-8.0-1.0","5878","1","14","Male","approach_avoid_spark_v1","""event"",""trial"",""time""
""fullscreenenter"",""1"",""3217""
""blur"",""20"",""154829""
""focus"",""20"",""155163""
""blur"",""20"",""155195""
""focus"",""20"",""158636""
""blur"",""20"",""159733""
""focus"",""20"",""159878""
""blur"",""20"",""159913""
""focus"",""20"",""175143""
","""event"",""trial"",""time""
""blur"",""20"",""154829""
""blur"",""20"",""155195""
""blur"",""20"",""159733""
""blur"",""20"",""159913""
","""event"",""trial"",""time""
""focus"",""20"",""155163""
""focus"",""20"",""158636""
""focus"",""20"",""159878""
""focus"",""20"",""175143""
","""event"",""trial"",""time""
""fullscreenenter"",""1"",""3217""
","
","","","","","","2138.5","<p> Ready to practice? </p>","0","","","","","","","","","","","","",""
"html-keyboard-response","25","203425","0.0-8.0-2.0-0.0","5878","1","14","Male","approach_avoid_spark_v1","""event"",""trial"",""time""
""fullscreenenter"",""1"",""3217""
""blur"",""20"",""154829""
""focus"",""20"",""155163""
""blur"",""20"",""155195""
""focus"",""20"",""158636""
""blur"",""20"",""159733""
""focus"",""20"",""159878""
""blur"",""20"",""159913""
""focus"",""20"",""175143""
","""event"",""trial"",""time""
""blur"",""20"",""154829""
""blur"",""20"",""155195""
""blur"",""20"",""159733""
""blur"",""20"",""159913""
","""event"",""trial"",""time""
""focus"",""20"",""155163""
""focus"",""20"",""158636""
""focus"",""20"",""159878""
""focus"",""20"",""175143""
","""event"",""trial"",""time""
""fullscreenenter"",""1"",""3217""
","
","","","","","","null","<div style=""font-size:60px;"">+</div>","null","","fixation","","","","","","","","","","",""
"aa-learning-trial","26","206469","0.0-8.0-2.0-1.0","5878","1","14","Male","approach_avoid_spark_v1","""event"",""trial"",""time""
""fullscreenenter"",""1"",""3217""
""blur"",""20"",""154829""
""focus"",""20"",""155163""
""blur"",""20"",""155195""
""focus"",""20"",""158636""
""blur"",""20"",""159733""
""focus"",""20"",""159878""
""blur"",""20"",""159913""
""focus"",""20"",""175143""
","""event"",""trial"",""time""
""blur"",""20"",""154829""
""blur"",""20"",""155195""
""blur"",""20"",""159733""
""blur"",""20"",""159913""
","""event"",""trial"",""time""
""focus"",""20"",""155163""
""focus"",""20"",""158636""
""focus"",""20"",""159878""
""focus"",""20"",""175143""
","""event"",""trial"",""time""
""fullscreenenter"",""1"",""3217""
","
","","","","","","null","images/ball4.png","","","learning","-5","-5","","null","practice","practice","practice","-1","","",""
"html-keyboard-response","27","206988","0.0-8.0-2.0-0.1","5878","1","14","Male","approach_avoid_spark_v1","""event"",""trial"",""time""
""fullscreenenter"",""1"",""3217""
""blur"",""20"",""154829""
""focus"",""20"",""155163""
""blur"",""20"",""155195""
""focus"",""20"",""158636""
""blur"",""20"",""159733""
""focus"",""20"",""159878""
""blur"",""20"",""159913""
""focus"",""20"",""175143""
","""event"",""trial"",""time""
""blur"",""20"",""154829""
""blur"",""20"",""155195""
""blur"",""20"",""159733""
""blur"",""20"",""159913""
","""event"",""trial"",""time""
""focus"",""20"",""155163""
""focus"",""20"",""158636""
""focus"",""20"",""159878""
""focus"",""20"",""175143""
","""event"",""trial"",""time""
""fullscreenenter"",""1"",""3217""
","
","","","","","","null","<div style=""font-size:60px;"">+</div>","null","","fixation","","","","","","","","","","",""
"aa-learning-trial","28","210013","0.0-8.0-2.0-1.1","5878","1","14","Male","approach_avoid_spark_v1","""event"",""trial"",""time""
""fullscreenenter"",""1"",""3217""
""blur"",""20"",""154829""
""focus"",""20"",""155163""
""blur"",""20"",""155195""
""focus"",""20"",""158636""
""blur"",""20"",""159733""
""focus"",""20"",""159878""
""blur"",""20"",""159913""
""focus"",""20"",""175143""
","""event"",""trial"",""time""
""blur"",""20"",""154829""
""blur"",""20"",""155195""
""blur"",""20"",""159733""
""blur"",""20"",""159913""
","""event"",""trial"",""time""
""focus"",""20"",""155163""
""focus"",""20"",""158636""
""focus"",""20"",""159878""
""focus"",""20"",""175143""
","""event"",""trial"",""time""
""fullscreenenter"",""1"",""3217""
","
","","","","","","973.1999998092651","images/racket4.png","","","learning","-7","-7","1","1","practice","practice","practice","-1","","",""
"html-keyboard-response","29","210549","0.0-8.0-2.0-0.2","5878","1","14","Male","approach_avoid_spark_v1","""event"",""trial"",""time""
""fullscreenenter"",""1"",""3217""
""blur"",""20"",""154829""
""focus"",""20"",""155163""
""blur"",""20"",""155195""
""focus"",""20"",""158636""
""blur"",""20"",""159733""
""focus"",""20"",""159878""
""blur"",""20"",""159913""
""focus"",""20"",""175143""
","""event"",""trial"",""time""
""blur"",""20"",""154829""
""blur"",""20"",""155195""
""blur"",""20"",""159733""
""blur"",""20"",""159913""
","""event"",""trial"",""time""
""focus"",""20"",""155163""
""focus"",""20"",""158636""
""focus"",""20"",""159878""
""focus"",""20"",""175143""
","""event"",""trial"",""time""
""fullscreenenter"",""1"",""3217""
","
","","","","","","null","<div style=""font-size:60px;"">+</div>","null","","fixation","","","","","","","","","","",""
"aa-learning-trial","30","213595","0.0-8.0-2.0-1.2","5878","1","14","Male","approach_avoid_spark_v1","""event"",""trial"",""time""
""fullscreenenter"",""1"",""3217""
""blur"",""20"",""154829""
""focus"",""20"",""155163""
""blur"",""20"",""155195""
""focus"",""20"",""158636""
""blur"",""20"",""159733""
""focus"",""20"",""159878""
""blur"",""20"",""159913""
""focus"",""20"",""175143""
","""event"",""trial"",""time""
""blur"",""20"",""154829""
""blur"",""20"",""155195""
""blur"",""20"",""159733""
""blur"",""20"",""159913""
","""event"",""trial"",""time""
""focus"",""20"",""155163""
""focus"",""20"",""158636""
""focus"",""20"",""159878""
""focus"",""20"",""175143""
","""event"",""trial"",""time""
""fullscreenenter"",""1"",""3217""
","
","","","","","","796.5999999046326","images/racket4.png","","","learning","-1","0","0","0","practice","practice","practice","-1","","",""
"html-keyboard-response","31","214141","0.0-8.0-2.0-0.3","5878","1","14","Male","approach_avoid_spark_v1","""event"",""trial"",""time""
""fullscreenenter"",""1"",""3217""
""blur"",""20"",""154829""
""focus"",""20"",""155163""
""blur"",""20"",""155195""
""focus"",""20"",""158636""
""blur"",""20"",""159733""
""focus"",""20"",""159878""
""blur"",""20"",""159913""
""focus"",""20"",""175143""
","""event"",""trial"",""time""
""blur"",""20"",""154829""
""blur"",""20"",""155195""
""blur"",""20"",""159733""
""blur"",""20"",""159913""
","""event"",""trial"",""time""
""focus"",""20"",""155163""
""focus"",""20"",""158636""
""focus"",""20"",""159878""
""focus"",""20"",""175143""
","""event"",""trial"",""time""
""fullscreenenter"",""1"",""3217""
","
","","","","","","null","<div style=""font-size:60px;"">+</div>","null","","fixation","","","","","","","","","","",""
"aa-learning-trial","32","217176","0.0-8.0-2.0-1.3","5878","1","14","Male","approach_avoid_spark_v1","""event"",""trial"",""time""
""fullscreenenter"",""1"",""3217""
""blur"",""20"",""154829""
""focus"",""20"",""155163""
""blur"",""20"",""155195""
""focus"",""20"",""158636""
""blur"",""20"",""159733""
""focus"",""20"",""159878""
""blur"",""20"",""159913""
""focus"",""20"",""175143""
","""event"",""trial"",""time""
""blur"",""20"",""154829""
""blur"",""20"",""155195""
""blur"",""20"",""159733""
""blur"",""20"",""159913""
","""event"",""trial"",""time""
""focus"",""20"",""155163""
""focus"",""20"",""158636""
""focus"",""20"",""159878""
""focus"",""20"",""175143""
","""event"",""trial"",""time""
""fullscreenenter"",""1"",""3217""
","
","","","","","","1105.2999997138977","images/racket3.png","","","learning","-5","-5","1","1","practice","practice","practice","-1","","",""
"html-keyboard-response","33","217696","0.0-8.0-2.0-0.4","5878","1","14","Male","approach_avoid_spark_v1","""event"",""trial"",""time""
""fullscreenenter"",""1"",""3217""
""blur"",""20"",""154829""
""focus"",""20"",""155163""
""blur"",""20"",""155195""
""focus"",""20"",""158636""
""blur"",""20"",""159733""
""focus"",""20"",""159878""
""blur"",""20"",""159913""
""focus"",""20"",""175143""
","""event"",""trial"",""time""
""blur"",""20"",""154829""
""blur"",""20"",""155195""
""blur"",""20"",""159733""
""blur"",""20"",""159913""
","""event"",""trial"",""time""
""focus"",""20"",""155163""
""focus"",""20"",""158636""
""focus"",""20"",""159878""
""focus"",""20"",""175143""
","""event"",""trial"",""time""
""fullscreenenter"",""1"",""3217""
","
","","","","","","null","<div style=""font-size:60px;"">+</div>","null","","fixation","","","","","","","","","","",""
"aa-learning-trial","34","220730","0.0-8.0-2.0-1.4","5878","1","14","Male","approach_avoid_spark_v1","""event"",""trial"",""time""
""fullscreenenter"",""1"",""3217""
""blur"",""20"",""154829""
""focus"",""20"",""155163""
""blur"",""20"",""155195""
""focus"",""20"",""158636""
""blur"",""20"",""159733""
""focus"",""20"",""159878""
""blur"",""20"",""159913""
""focus"",""20"",""175143""
","""event"",""trial"",""time""
""blur"",""20"",""154829""
""blur"",""20"",""155195""
""blur"",""20"",""159733""
""blur"",""20"",""159913""
","""event"",""trial"",""time""
""focus"",""20"",""155163""
""focus"",""20"",""158636""
""focus"",""20"",""159878""
""focus"",""20"",""175143""
","""event"",""trial"",""time""
""fullscreenenter"",""1"",""3217""
","
","","","","","","1453.3000001907349","images/ball1.png","","","learning","-7","-7","1","1","practice","practice","practice","-1","","",""
"html-keyboard-response","35","221251","0.0-8.0-2.0-0.5","5878","1","14","Male","approach_avoid_spark_v1","""event"",""trial"",""time""
""fullscreenenter"",""1"",""3217""
""blur"",""20"",""154829""
""focus"",""20"",""155163""
""blur"",""20"",""155195""
""focus"",""20"",""158636""
""blur"",""20"",""159733""
""focus"",""20"",""159878""
""blur"",""20"",""159913""
""focus"",""20"",""175143""
","""event"",""trial"",""time""
""blur"",""20"",""154829""
""blur"",""20"",""155195""
""blur"",""20"",""159733""
""blur"",""20"",""159913""
","""event"",""trial"",""time""
""focus"",""20"",""155163""
""focus"",""20"",""158636""
""focus"",""20"",""159878""
""focus"",""20"",""175143""
","""event"",""trial"",""time""
""fullscreenenter"",""1"",""3217""
","
","","","","","","null","<div style=""font-size:60px;"">+</div>","null","","fixation","","","","","","","","","","",""
"aa-learning-trial","36","224275","0.0-8.0-2.0-1.5","5878","1","14","Male","approach_avoid_spark_v1","""event"",""trial"",""time""
""fullscreenenter"",""1"",""3217""
""blur"",""20"",""154829""
""focus"",""20"",""155163""
""blur"",""20"",""155195""
""focus"",""20"",""158636""
""blur"",""20"",""159733""
""focus"",""20"",""159878""
""blur"",""20"",""159913""
""focus"",""20"",""175143""
","""event"",""trial"",""time""
""blur"",""20"",""154829""
""blur"",""20"",""155195""
""blur"",""20"",""159733""
""blur"",""20"",""159913""
","""event"",""trial"",""time""
""focus"",""20"",""155163""
""focus"",""20"",""158636""
""focus"",""20"",""159878""
""focus"",""20"",""175143""
","""event"",""trial"",""time""
""fullscreenenter"",""1"",""3217""
","
","","","","","","1530","images/racket4.png","","","learning","-2","0","0","0","practice","practice","practice","-1","","",""
"html-keyboard-response","37","224795","0.0-8.0-2.0-0.6","5878","1","14","Male","approach_avoid_spark_v1","""event"",""trial"",""time""
""fullscreenenter"",""1"",""3217""
""blur"",""20"",""154829""
""focus"",""20"",""155163""
""blur"",""20"",""155195""
""focus"",""20"",""158636""
""blur"",""20"",""159733""
""focus"",""20"",""159878""
""blur"",""20"",""159913""
""focus"",""20"",""175143""
","""event"",""trial"",""time""
""blur"",""20"",""154829""
""blur"",""20"",""155195""
""blur"",""20"",""159733""
""blur"",""20"",""159913""
","""event"",""trial"",""time""
""focus"",""20"",""155163""
""focus"",""20"",""158636""
""focus"",""20"",""159878""
""focus"",""20"",""175143""
","""event"",""trial"",""time""
""fullscreenenter"",""1"",""3217""
","
","","","","","","null","<div style=""font-size:60px;"">+</div>","null","","fixation","","","","","","","","","","",""
"aa-learning-trial","38","227822","0.0-8.0-2.0-1.6","5878","1","14","Male","approach_avoid_spark_v1","""event"",""trial"",""time""
""fullscreenenter"",""1"",""3217""
""blur"",""20"",""154829""
""focus"",""20"",""155163""
""blur"",""20"",""155195""
""focus"",""20"",""158636""
""blur"",""20"",""159733""
""focus"",""20"",""159878""
""blur"",""20"",""159913""
""focus"",""20"",""175143""
","""event"",""trial"",""time""
""blur"",""20"",""154829""
""blur"",""20"",""155195""
""blur"",""20"",""159733""
""blur"",""20"",""159913""
","""event"",""trial"",""time""
""focus"",""20"",""155163""
""focus"",""20"",""158636""
""focus"",""20"",""159878""
""focus"",""20"",""175143""
","""event"",""trial"",""time""
""fullscreenenter"",""1"",""3217""
","
","","","","","","2632.0999999046326","images/racket1.png","","","learning","-6","0","0","0","practice","practice","practice","-1","","",""
"html-keyboard-response","39","228333","0.0-8.0-2.0-0.7","5878","1","14","Male","approach_avoid_spark_v1","""event"",""trial"",""time""
""fullscreenenter"",""1"",""3217""
""blur"",""20"",""154829""
""focus"",""20"",""155163""
""blur"",""20"",""155195""
""focus"",""20"",""158636""
""blur"",""20"",""159733""
""focus"",""20"",""159878""
""blur"",""20"",""159913""
""focus"",""20"",""175143""
","""event"",""trial"",""time""
""blur"",""20"",""154829""
""blur"",""20"",""155195""
""blur"",""20"",""159733""
""blur"",""20"",""159913""
","""event"",""trial"",""time""
""focus"",""20"",""155163""
""focus"",""20"",""158636""
""focus"",""20"",""159878""
""focus"",""20"",""175143""
","""event"",""trial"",""time""
""fullscreenenter"",""1"",""3217""
","
","","","","","","null","<div style=""font-size:60px;"">+</div>","null","","fixation","","","","","","","","","","",""
"aa-learning-trial","40","231345","0.0-8.0-2.0-1.7","5878","1","14","Male","approach_avoid_spark_v1","""event"",""trial"",""time""
""fullscreenenter"",""1"",""3217""
""blur"",""20"",""154829""
""focus"",""20"",""155163""
""blur"",""20"",""155195""
""focus"",""20"",""158636""
""blur"",""20"",""159733""
""focus"",""20"",""159878""
""blur"",""20"",""159913""
""focus"",""20"",""175143""
","""event"",""trial"",""time""
""blur"",""20"",""154829""
""blur"",""20"",""155195""
""blur"",""20"",""159733""
""blur"",""20"",""159913""
","""event"",""trial"",""time""
""focus"",""20"",""155163""
""focus"",""20"",""158636""
""focus"",""20"",""159878""
""focus"",""20"",""175143""
","""event"",""trial"",""time""
""fullscreenenter"",""1"",""3217""
","
","","","","","","2714.199999809265","images/racket2.png","","","learning","-3","-3","1","1","practice","practice","practice","-1","","",""
"html-keyboard-response","41","231856","0.0-8.0-2.0-0.8","5878","1","14","Male","approach_avoid_spark_v1","""event"",""trial"",""time""
""fullscreenenter"",""1"",""3217""
""blur"",""20"",""154829""
""focus"",""20"",""155163""
""blur"",""20"",""155195""
""focus"",""20"",""158636""
""blur"",""20"",""159733""
""focus"",""20"",""159878""
""blur"",""20"",""159913""
""focus"",""20"",""175143""
","""event"",""trial"",""time""
""blur"",""20"",""154829""
""blur"",""20"",""155195""
""blur"",""20"",""159733""
""blur"",""20"",""159913""
","""event"",""trial"",""time""
""focus"",""20"",""155163""
""focus"",""20"",""158636""
""focus"",""20"",""159878""
""focus"",""20"",""175143""
","""event"",""trial"",""time""
""fullscreenenter"",""1"",""3217""
","
","","","","","","null","<div style=""font-size:60px;"">+</div>","null","","fixation","","","","","","","","","","",""
"aa-learning-trial","42","234865","0.0-8.0-2.0-1.8","5878","1","14","Male","approach_avoid_spark_v1","""event"",""trial"",""time""
""fullscreenenter"",""1"",""3217""
""blur"",""20"",""154829""
""focus"",""20"",""155163""
""blur"",""20"",""155195""
""focus"",""20"",""158636""
""blur"",""20"",""159733""
""focus"",""20"",""159878""
""blur"",""20"",""159913""
""focus"",""20"",""175143""
","""event"",""trial"",""time""
""blur"",""20"",""154829""
""blur"",""20"",""155195""
""blur"",""20"",""159733""
""blur"",""20"",""159913""
","""event"",""trial"",""time""
""focus"",""20"",""155163""
""focus"",""20"",""158636""
""focus"",""20"",""159878""
""focus"",""20"",""175143""
","""event"",""trial"",""time""
""fullscreenenter"",""1"",""3217""
","
","","","","","","2070","images/ball4.png","","","learning","2","2","1","1","practice","practice","practice","-1","","",""
"html-keyboard-response","43","235381","0.0-8.0-2.0-0.9","5878","1","14","Male","approach_avoid_spark_v1","""event"",""trial"",""time""
""fullscreenenter"",""1"",""3217""
""blur"",""20"",""154829""
""focus"",""20"",""155163""
""blur"",""20"",""155195""
""focus"",""20"",""158636""
""blur"",""20"",""159733""
""focus"",""20"",""159878""
""blur"",""20"",""159913""
""focus"",""20"",""175143""
","""event"",""trial"",""time""
""blur"",""20"",""154829""
""blur"",""20"",""155195""
""blur"",""20"",""159733""
""blur"",""20"",""159913""
","""event"",""trial"",""time""
""focus"",""20"",""155163""
""focus"",""20"",""158636""
""focus"",""20"",""159878""
""focus"",""20"",""175143""
","""event"",""trial"",""time""
""fullscreenenter"",""1"",""3217""
","
","","","","","","null","<div style=""font-size:60px;"">+</div>","null","","fixation","","","","","","","","","","",""
"aa-learning-trial","44","238425","0.0-8.0-2.0-1.9","5878","1","14","Male","approach_avoid_spark_v1","""event"",""trial"",""time""
""fullscreenenter"",""1"",""3217""
""blur"",""20"",""154829""
""focus"",""20"",""155163""
""blur"",""20"",""155195""
""focus"",""20"",""158636""
""blur"",""20"",""159733""
""focus"",""20"",""159878""
""blur"",""20"",""159913""
""focus"",""20"",""175143""
","""event"",""trial"",""time""
""blur"",""20"",""154829""
""blur"",""20"",""155195""
""blur"",""20"",""159733""
""blur"",""20"",""159913""
","""event"",""trial"",""time""
""focus"",""20"",""155163""
""focus"",""20"",""158636""
""focus"",""20"",""159878""
""focus"",""20"",""175143""
","""event"",""trial"",""time""
""fullscreenenter"",""1"",""3217""
","
","","","","","","1020.7999997138977","images/ball2.png","","","learning","2","2","1","1","practice","practice","practice","-1","","",""
"html-keyboard-response","45","238948","0.0-8.0-2.0-0.10","5878","1","14","Male","approach_avoid_spark_v1","""event"",""trial"",""time""
""fullscreenenter"",""1"",""3217""
""blur"",""20"",""154829""
""focus"",""20"",""155163""
""blur"",""20"",""155195""
""focus"",""20"",""158636""
""blur"",""20"",""159733""
""focus"",""20"",""159878""
""blur"",""20"",""159913""
""focus"",""20"",""175143""
","""event"",""trial"",""time""
""blur"",""20"",""154829""
""blur"",""20"",""155195""
""blur"",""20"",""159733""
""blur"",""20"",""159913""
","""event"",""trial"",""time""
""focus"",""20"",""155163""
""focus"",""20"",""158636""
""focus"",""20"",""159878""
""focus"",""20"",""175143""
","""event"",""trial"",""time""
""fullscreenenter"",""1"",""3217""
","
","","","","","","null","<div style=""font-size:60px;"">+</div>","null","","fixation","","","","","","","","","","",""
"aa-learning-trial","46","241978","0.0-8.0-2.0-1.10","5878","1","14","Male","approach_avoid_spark_v1","""event"",""trial"",""time""
""fullscreenenter"",""1"",""3217""
""blur"",""20"",""154829""
""focus"",""20"",""155163""
""blur"",""20"",""155195""
""focus"",""20"",""158636""
""blur"",""20"",""159733""
""focus"",""20"",""159878""
""blur"",""20"",""159913""
""focus"",""20"",""175143""
","""event"",""trial"",""time""
""blur"",""20"",""154829""
""blur"",""20"",""155195""
""blur"",""20"",""159733""
""blur"",""20"",""159913""
","""event"",""trial"",""time""
""focus"",""20"",""155163""
""focus"",""20"",""158636""
""focus"",""20"",""159878""
""focus"",""20"",""175143""
","""event"",""trial"",""time""
""fullscreenenter"",""1"",""3217""
","
","","","","","","2112.699999809265","images/ball1.png","","","learning","3","0","0","0","practice","practice","practice","-1","","",""
"html-keyboard-response","47","242488","0.0-8.0-2.0-0.11","5878","1","14","Male","approach_avoid_spark_v1","""event"",""trial"",""time""
""fullscreenenter"",""1"",""3217""
""blur"",""20"",""154829""
""focus"",""20"",""155163""
""blur"",""20"",""155195""
""focus"",""20"",""158636""
""blur"",""20"",""159733""
""focus"",""20"",""159878""
""blur"",""20"",""159913""
""focus"",""20"",""175143""
","""event"",""trial"",""time""
""blur"",""20"",""154829""
""blur"",""20"",""155195""
""blur"",""20"",""159733""
""blur"",""20"",""159913""
","""event"",""trial"",""time""
""focus"",""20"",""155163""
""focus"",""20"",""158636""
""focus"",""20"",""159878""
""focus"",""20"",""175143""
","""event"",""trial"",""time""
""fullscreenenter"",""1"",""3217""
","
","","","","","","null","<div style=""font-size:60px;"">+</div>","null","","fixation","","","","","","","","","","",""
"aa-learning-trial","48","245497","0.0-8.0-2.0-1.11","5878","1","14","Male","approach_avoid_spark_v1","""event"",""trial"",""time""
""fullscreenenter"",""1"",""3217""
""blur"",""20"",""154829""
""focus"",""20"",""155163""
""blur"",""20"",""155195""
""focus"",""20"",""158636""
""blur"",""20"",""159733""
""focus"",""20"",""159878""
""blur"",""20"",""159913""
""focus"",""20"",""175143""
","""event"",""trial"",""time""
""blur"",""20"",""154829""
""blur"",""20"",""155195""
""blur"",""20"",""159733""
""blur"",""20"",""159913""
","""event"",""trial"",""time""
""focus"",""20"",""155163""
""focus"",""20"",""158636""
""focus"",""20"",""159878""
""focus"",""20"",""175143""
","""event"",""trial"",""time""
""fullscreenenter"",""1"",""3217""
","
","","","","","","1822.3000001907349","images/ball2.png","","","learning","-7","-7","1","1","practice","practice","practice","-1","","",""
"html-button-response","49","247885","0.0-8.0-3.0","5878","1","14","Male","approach_avoid_spark_v1","""event"",""trial"",""time""
""fullscreenenter"",""1"",""3217""
""blur"",""20"",""154829""
""focus"",""20"",""155163""
""blur"",""20"",""155195""
""focus"",""20"",""158636""
""blur"",""20"",""159733""
""focus"",""20"",""159878""
""blur"",""20"",""159913""
""focus"",""20"",""175143""
","""event"",""trial"",""time""
""blur"",""20"",""154829""
""blur"",""20"",""155195""
""blur"",""20"",""159733""
""blur"",""20"",""159913""
","""event"",""trial"",""time""
""focus"",""20"",""155163""
""focus"",""20"",""158636""
""focus"",""20"",""159878""
""focus"",""20"",""175143""
","""event"",""trial"",""time""
""fullscreenenter"",""1"",""3217""
","
","","","","","","2355.0999999046326","<p> You earned -30 points in the practice round! </p>","0","","break","","","","","","","","","","",""
"learning-instructions","50","255981","0.0-8.0-4.0-0.0","5878","1","14","Male","approach_avoid_spark_v1","""event"",""trial"",""time""
""fullscreenenter"",""1"",""3217""
""blur"",""20"",""154829""
""focus"",""20"",""155163""
""blur"",""20"",""155195""
""focus"",""20"",""158636""
""blur"",""20"",""159733""
""focus"",""20"",""159878""
""blur"",""20"",""159913""
""focus"",""20"",""175143""
","""event"",""trial"",""time""
""blur"",""20"",""154829""
""blur"",""20"",""155195""
""blur"",""20"",""159733""
""blur"",""20"",""159913""
","""event"",""trial"",""time""
""focus"",""20"",""155163""
""focus"",""20"",""158636""
""focus"",""20"",""159878""
""focus"",""20"",""175143""
","""event"",""trial"",""time""
""fullscreenenter"",""1"",""3217""
","
","","","","","","1303.2999997138977","<p> It's almost time to start the real game. </p><p> Before you start, we're going to ask you a few questions about how the game works. </p>","","0","instructions","","","","","","","","","","",""
"preload","51","257950","0.0-8.0-5.0","5878","1","14","Male","approach_avoid_spark_v1","""event"",""trial"",""time""
""fullscreenenter"",""1"",""3217""
""blur"",""20"",""154829""
""focus"",""20"",""155163""
""blur"",""20"",""155195""
""focus"",""20"",""158636""
""blur"",""20"",""159733""
""focus"",""20"",""159878""
""blur"",""20"",""159913""
""focus"",""20"",""175143""
","""event"",""trial"",""time""
""blur"",""20"",""154829""
""blur"",""20"",""155195""
""blur"",""20"",""159733""
""blur"",""20"",""159913""
","""event"",""trial"",""time""
""focus"",""20"",""155163""
""focus"",""20"",""158636""
""focus"",""20"",""159878""
""focus"",""20"",""175143""
","""event"",""trial"",""time""
""fullscreenenter"",""1"",""3217""
","
","true","false","[]","[]","[]","","","","","","","","","","","","","","","",""
"comp-q","52","264299","0.0-8.0-6.0-0.0","5878","1","14","Male","approach_avoid_spark_v1","""event"",""trial"",""time""
""fullscreenenter"",""1"",""3217""
""blur"",""20"",""154829""
""focus"",""20"",""155163""
""blur"",""20"",""155195""
""focus"",""20"",""158636""
""blur"",""20"",""159733""
""focus"",""20"",""159878""
""blur"",""20"",""159913""
""focus"",""20"",""175143""
","""event"",""trial"",""time""
""blur"",""20"",""154829""
""blur"",""20"",""155195""
""blur"",""20"",""159733""
""blur"",""20"",""159913""
","""event"",""trial"",""time""
""focus"",""20"",""155163""
""focus"",""20"",""158636""
""focus"",""20"",""159878""
""focus"",""20"",""175143""
","""event"",""trial"",""time""
""fullscreenenter"",""1"",""3217""
","
","","","","","","1341.5","<p> <b> True or False? </b> </p><p> If you see a number in GREY, that means you earned that many points. </p>","","1","comp_question","","","","","","","","","true","",""
"comp-q","53","276439","0.0-8.0-6.0-1.0","5878","1","14","Male","approach_avoid_spark_v1","""event"",""trial"",""time""
""fullscreenenter"",""1"",""3217""
""blur"",""20"",""154829""
""focus"",""20"",""155163""
""blur"",""20"",""155195""
""focus"",""20"",""158636""
""blur"",""20"",""159733""
""focus"",""20"",""159878""
""blur"",""20"",""159913""
""focus"",""20"",""175143""
","""event"",""trial"",""time""
""blur"",""20"",""154829""
""blur"",""20"",""155195""
""blur"",""20"",""159733""
""blur"",""20"",""159913""
","""event"",""trial"",""time""
""focus"",""20"",""155163""
""focus"",""20"",""158636""
""focus"",""20"",""159878""
""focus"",""20"",""175143""
","""event"",""trial"",""time""
""fullscreenenter"",""1"",""3217""
","
","","","","","","3771.9000000953674","<p><b> That's right! </b> If you see a grey number, it means you earned ZERO points. <br> The grey numbers show the points you WOULD HAVE earned if you had made the other choice. </p>","","0","comp_answer","","","","","","","","","","",""
"comp-q","54","281888","0.0-8.0-7.0-0.0","5878","1","14","Male","approach_avoid_spark_v1","""event"",""trial"",""time""
""fullscreenenter"",""1"",""3217""
""blur"",""20"",""154829""
""focus"",""20"",""155163""
""blur"",""20"",""155195""
""focus"",""20"",""158636""
""blur"",""20"",""159733""
""focus"",""20"",""159878""
""blur"",""20"",""159913""
""focus"",""20"",""175143""
","""event"",""trial"",""time""
""blur"",""20"",""154829""
""blur"",""20"",""155195""
""blur"",""20"",""159733""
""blur"",""20"",""159913""
","""event"",""trial"",""time""
""focus"",""20"",""155163""
""focus"",""20"",""158636""
""focus"",""20"",""159878""
""focus"",""20"",""175143""
","""event"",""trial"",""time""
""fullscreenenter"",""1"",""3217""
","
","","","","","","740.3000001907349","<p> <b> True or False? </b> </p><p> You will have as much time as you want to make each choice. </p>","","1","comp_question","","","","","","","","","true","",""
"comp-q","55","286768","0.0-8.0-7.0-1.0","5878","1","14","Male","approach_avoid_spark_v1","""event"",""trial"",""time""
""fullscreenenter"",""1"",""3217""
""blur"",""20"",""154829""
""focus"",""20"",""155163""
""blur"",""20"",""155195""
""focus"",""20"",""158636""
""blur"",""20"",""159733""
""focus"",""20"",""159878""
""blur"",""20"",""159913""
""focus"",""20"",""175143""
","""event"",""trial"",""time""
""blur"",""20"",""154829""
""blur"",""20"",""155195""
""blur"",""20"",""159733""
""blur"",""20"",""159913""
","""event"",""trial"",""time""
""focus"",""20"",""155163""
""focus"",""20"",""158636""
""focus"",""20"",""159878""
""focus"",""20"",""175143""
","""event"",""trial"",""time""
""fullscreenenter"",""1"",""3217""
","
","","","","","","838.2999997138977","<p> <b> That's right! </b> You will only have 3 seconds to make each choice. </p>","","0","comp_answer","","","","","","","","","","",""
"comp-q","56","292049","0.0-8.0-8.0-0.0","5878","1","14","Male","approach_avoid_spark_v1","""event"",""trial"",""time""
""fullscreenenter"",""1"",""3217""
""blur"",""20"",""154829""
""focus"",""20"",""155163""
""blur"",""20"",""155195""
""focus"",""20"",""158636""
""blur"",""20"",""159733""
""focus"",""20"",""159878""
""blur"",""20"",""159913""
""focus"",""20"",""175143""
","""event"",""trial"",""time""
""blur"",""20"",""154829""
""blur"",""20"",""155195""
""blur"",""20"",""159733""
""blur"",""20"",""159913""
","""event"",""trial"",""time""
""focus"",""20"",""155163""
""focus"",""20"",""158636""
""focus"",""20"",""159878""
""focus"",""20"",""175143""
","""event"",""trial"",""time""
""fullscreenenter"",""1"",""3217""
","
","","","","","","608.3999996185303","<p> <b> True or False? </b> </p><p> You should use the '1' and '0' keys to make your choices. </p>","","0","comp_question","","","","","","","","","true","",""
"comp-q","57","302077","0.0-8.0-8.0-1.0","5878","1","14","Male","approach_avoid_spark_v1","""event"",""trial"",""time""
""fullscreenenter"",""1"",""3217""
""blur"",""20"",""154829""
""focus"",""20"",""155163""
""blur"",""20"",""155195""
""focus"",""20"",""158636""
""blur"",""20"",""159733""
""focus"",""20"",""159878""
""blur"",""20"",""159913""
""focus"",""20"",""175143""
","""event"",""trial"",""time""
""blur"",""20"",""154829""
""blur"",""20"",""155195""
""blur"",""20"",""159733""
""blur"",""20"",""159913""
","""event"",""trial"",""time""
""focus"",""20"",""155163""
""focus"",""20"",""158636""
""focus"",""20"",""159878""
""focus"",""20"",""175143""
","""event"",""trial"",""time""
""fullscreenenter"",""1"",""3217""
","
","","","","","","5418.099999904633","<p> <b> That's right! </b> You should use the '1' and '0' keys to make each choice. </p>","","0","comp_answer","","","","","","","","","","",""
"learning-instructions","58","309276","0.0-8.0-9.0-0.0","5878","1","14","Male","approach_avoid_spark_v1","""event"",""trial"",""time""
""fullscreenenter"",""1"",""3217""
""blur"",""20"",""154829""
""focus"",""20"",""155163""
""blur"",""20"",""155195""
""focus"",""20"",""158636""
""blur"",""20"",""159733""
""focus"",""20"",""159878""
""blur"",""20"",""159913""
""focus"",""20"",""175143""
","""event"",""trial"",""time""
""blur"",""20"",""154829""
""blur"",""20"",""155195""
""blur"",""20"",""159733""
""blur"",""20"",""159913""
","""event"",""trial"",""time""
""focus"",""20"",""155163""
""focus"",""20"",""158636""
""focus"",""20"",""159878""
""focus"",""20"",""175143""
","""event"",""trial"",""time""
""fullscreenenter"",""1"",""3217""
","
","","","","","","907.1000003814697","<p> It's now time to start the real game. </p>Do your best, because the points you earn in the next rounds will influence your bonus payment. </p>","","0","instructions","","","","","","","","","","",""
"preload","59","309494","0.0-9.0-0.0","5878","1","14","Male","approach_avoid_spark_v1","""event"",""trial"",""time""
""fullscreenenter"",""1"",""3217""
""blur"",""20"",""154829""
""focus"",""20"",""155163""
""blur"",""20"",""155195""
""focus"",""20"",""158636""
""blur"",""20"",""159733""
""focus"",""20"",""159878""
""blur"",""20"",""159913""
""focus"",""20"",""175143""
","""event"",""trial"",""time""
""blur"",""20"",""154829""
""blur"",""20"",""155195""
""blur"",""20"",""159733""
""blur"",""20"",""159913""
","""event"",""trial"",""time""
""focus"",""20"",""155163""
""focus"",""20"",""158636""
""focus"",""20"",""159878""
""focus"",""20"",""175143""
","""event"",""trial"",""time""
""fullscreenenter"",""1"",""3217""
","
","true","false","[]","[]","[]","","","","","","","","","","","","","","","",""
"learning-instructions","60","316209","0.0-9.0-1.0-0.0","5878","1","14","Male","approach_avoid_spark_v1","""event"",""trial"",""time""
""fullscreenenter"",""1"",""3217""
""blur"",""20"",""154829""
""focus"",""20"",""155163""
""blur"",""20"",""155195""
""focus"",""20"",""158636""
""blur"",""20"",""159733""
""focus"",""20"",""159878""
""blur"",""20"",""159913""
""focus"",""20"",""175143""
","""event"",""trial"",""time""
""blur"",""20"",""154829""
""blur"",""20"",""155195""
""blur"",""20"",""159733""
""blur"",""20"",""159913""
","""event"",""trial"",""time""
""focus"",""20"",""155163""
""focus"",""20"",""158636""
""focus"",""20"",""159878""
""focus"",""20"",""175143""
","""event"",""trial"",""time""
""fullscreenenter"",""1"",""3217""
","
","","","","","","1210.5","<p> Your goal in this round is to sell different plants to a picky customer. </p></div>","","0","instructions","","","","","","","","","","",""
"learning-instructions","61","326404","0.0-9.0-1.0-0.1","5878","1","14","Male","approach_avoid_spark_v1","""event"",""trial"",""time""
""fullscreenenter"",""1"",""3217""
""blur"",""20"",""154829""
""focus"",""20"",""155163""
""blur"",""20"",""155195""
""focus"",""20"",""158636""
""blur"",""20"",""159733""
""focus"",""20"",""159878""
""blur"",""20"",""159913""
""focus"",""20"",""175143""
","""event"",""trial"",""time""
""blur"",""20"",""154829""
""blur"",""20"",""155195""
""blur"",""20"",""159733""
""blur"",""20"",""159913""
","""event"",""trial"",""time""
""focus"",""20"",""155163""
""focus"",""20"",""158636""
""focus"",""20"",""159878""
""focus"",""20"",""175143""
","""event"",""trial"",""time""
""fullscreenenter"",""1"",""3217""
","
","","","","","","524.5","<p> The customer likes some plants and dislikes others.  </p><p> On each turn, you will see a plant.   </p><p> You need to decide whether to offer it to the customer or not.  </p>","","0","instructions","","","","","","","","","","",""
"learning-instructions","62","332935","0.0-9.0-1.0-0.2","5878","1","14","Male","approach_avoid_spark_v1","""event"",""trial"",""time""
""fullscreenenter"",""1"",""3217""
""blur"",""20"",""154829""
""focus"",""20"",""155163""
""blur"",""20"",""155195""
""focus"",""20"",""158636""
""blur"",""20"",""159733""
""focus"",""20"",""159878""
""blur"",""20"",""159913""
""focus"",""20"",""175143""
","""event"",""trial"",""time""
""blur"",""20"",""154829""
""blur"",""20"",""155195""
""blur"",""20"",""159733""
""blur"",""20"",""159913""
","""event"",""trial"",""time""
""focus"",""20"",""155163""
""focus"",""20"",""158636""
""focus"",""20"",""159878""
""focus"",""20"",""175143""
","""event"",""trial"",""time""
""fullscreenenter"",""1"",""3217""
","
","","","","","","584.3999996185303","<p> You can offer the plant by pressing 1 and decide to not offer it by pressing 0. </p><br><div class=""choice-instructions-grid""> <div class=""choice-option""><img src=""images/approach.png"" class=""choice-option-img"" stage=""instructions"" position=""0"" ><div class=""choice-option-text""> Press ""1."" </div></div><div class=""choice-option""><img src=""images/avoid.png"" class=""choice-option-img"" stage=""instructions"" position=""1"" ><div class=""choice-option-text""> Press ""0."" </div></div>","","0","instructions","","","","","","","","","","",""
"learning-instructions","63","343078","0.0-9.0-1.0-0.3","5878","1","14","Male","approach_avoid_spark_v1","""event"",""trial"",""time""
""fullscreenenter"",""1"",""3217""
""blur"",""20"",""154829""
""focus"",""20"",""155163""
""blur"",""20"",""155195""
""focus"",""20"",""158636""
""blur"",""20"",""159733""
""focus"",""20"",""159878""
""blur"",""20"",""159913""
""focus"",""20"",""175143""
","""event"",""trial"",""time""
""blur"",""20"",""154829""
""blur"",""20"",""155195""
""blur"",""20"",""159733""
""blur"",""20"",""159913""
","""event"",""trial"",""time""
""focus"",""20"",""155163""
""focus"",""20"",""158636""
""focus"",""20"",""159878""
""focus"",""20"",""175143""
","""event"",""trial"",""time""
""fullscreenenter"",""1"",""3217""
","
","","","","","","978.2999997138977","<p> If you offer a plant to the customer that she likes, she will be very pleased! </p><p> But if you offer a plant that she does NOT like, she will be annoyed. </p>","","0","instructions","","","","","","","","","","",""
"learning-instructions","64","356900","0.0-9.0-1.0-0.4","5878","1","14","Male","approach_avoid_spark_v1","""event"",""trial"",""time""
""fullscreenenter"",""1"",""3217""
""blur"",""20"",""154829""
""focus"",""20"",""155163""
""blur"",""20"",""155195""
""focus"",""20"",""158636""
""blur"",""20"",""159733""
""focus"",""20"",""159878""
""blur"",""20"",""159913""
""focus"",""20"",""175143""
","""event"",""trial"",""time""
""blur"",""20"",""154829""
""blur"",""20"",""155195""
""blur"",""20"",""159733""
""blur"",""20"",""159913""
","""event"",""trial"",""time""
""focus"",""20"",""155163""
""focus"",""20"",""158636""
""focus"",""20"",""159878""
""focus"",""20"",""175143""
","""event"",""trial"",""time""
""fullscreenenter"",""1"",""3217""
","
","","","","","","919.4000000953674","<p> You will earn points based on how you made the customer feel. </p><p> If you made her pleased, you will WIN anywhere from 1 - 9 points, </p><p> but if you made her annoyed, you will LOSE anywhere from 1 - 9 points. </p>","","0","instructions","","","","","","","","","","",""
"learning-instructions","65","366108","0.0-9.0-1.0-0.5","5878","1","14","Male","approach_avoid_spark_v1","""event"",""trial"",""time""
""fullscreenenter"",""1"",""3217""
""blur"",""20"",""154829""
""focus"",""20"",""155163""
""blur"",""20"",""155195""
""focus"",""20"",""158636""
""blur"",""20"",""159733""
""focus"",""20"",""159878""
""blur"",""20"",""159913""
""focus"",""20"",""175143""
","""event"",""trial"",""time""
""blur"",""20"",""154829""
""blur"",""20"",""155195""
""blur"",""20"",""159733""
""blur"",""20"",""159913""
","""event"",""trial"",""time""
""focus"",""20"",""155163""
""focus"",""20"",""158636""
""focus"",""20"",""159878""
""focus"",""20"",""175143""
","""event"",""trial"",""time""
""fullscreenenter"",""1"",""3217""
","
","","","","","","1418","<p> You will see how many points you won or lost in the center of the screen. </p><p> Here is what you would see if you won 5 points: </p><p style=""color:green;font-size:50px;font-weight:bolder"">5</p>","","0","instructions","","","","","","","","","","",""
"learning-instructions","66","370591","0.0-9.0-1.0-0.6","5878","1","14","Male","approach_avoid_spark_v1","""event"",""trial"",""time""
""fullscreenenter"",""1"",""3217""
""blur"",""20"",""154829""
""focus"",""20"",""155163""
""blur"",""20"",""155195""
""focus"",""20"",""158636""
""blur"",""20"",""159733""
""focus"",""20"",""159878""
""blur"",""20"",""159913""
""focus"",""20"",""175143""
","""event"",""trial"",""time""
""blur"",""20"",""154829""
""blur"",""20"",""155195""
""blur"",""20"",""159733""
""blur"",""20"",""159913""
","""event"",""trial"",""time""
""focus"",""20"",""155163""
""focus"",""20"",""158636""
""focus"",""20"",""159878""
""focus"",""20"",""175143""
","""event"",""trial"",""time""
""fullscreenenter"",""1"",""3217""
","
","","","","","","740.7999997138977","<p> And here is what you would see if you lost 3 points: </p><p style=""color:red;font-size:50px;font-weight:bolder"">-3</p>","","0","instructions","","","","","","","","","","",""
"learning-instructions","67","386207","0.0-9.0-1.0-0.7","5878","1","14","Male","approach_avoid_spark_v1","""event"",""trial"",""time""
""fullscreenenter"",""1"",""3217""
""blur"",""20"",""154829""
""focus"",""20"",""155163""
""blur"",""20"",""155195""
""focus"",""20"",""158636""
""blur"",""20"",""159733""
""focus"",""20"",""159878""
""blur"",""20"",""159913""
""focus"",""20"",""175143""
","""event"",""trial"",""time""
""blur"",""20"",""154829""
""blur"",""20"",""155195""
""blur"",""20"",""159733""
""blur"",""20"",""159913""
","""event"",""trial"",""time""
""focus"",""20"",""155163""
""focus"",""20"",""158636""
""focus"",""20"",""159878""
""focus"",""20"",""175143""
","""event"",""trial"",""time""
""fullscreenenter"",""1"",""3217""
","
","","","","","","705.5","<p> Some plants will make the customer VERY pleased or annoyed. </p><p> These plants will make you win or lose LOTS of points. </p><p> The customer will have less strong feelings about other plants. </p><p> These plants will make you win or lose small amounts of points. </p>","","0","instructions","","","","","","","","","","",""
"learning-instructions","68","399860","0.0-9.0-1.0-0.8","5878","1","14","Male","approach_avoid_spark_v1","""event"",""trial"",""time""
""fullscreenenter"",""1"",""3217""
""blur"",""20"",""154829""
""focus"",""20"",""155163""
""blur"",""20"",""155195""
""focus"",""20"",""158636""
""blur"",""20"",""159733""
""focus"",""20"",""159878""
""blur"",""20"",""159913""
""focus"",""20"",""175143""
","""event"",""trial"",""time""
""blur"",""20"",""154829""
""blur"",""20"",""155195""
""blur"",""20"",""159733""
""blur"",""20"",""159913""
","""event"",""trial"",""time""
""focus"",""20"",""155163""
""focus"",""20"",""158636""
""focus"",""20"",""159878""
""focus"",""20"",""175143""
","""event"",""trial"",""time""
""fullscreenenter"",""1"",""3217""
","
","","","","","","699.1000003814697","<p> If you choose to not offer the plant to the customer, you will not win or lose any points. </p><p>  However, in the center of the screen, you will see the number of points you WOULD HAVE won or lost if you had offered the plant. </p>","","0","instructions","","","","","","","","","","",""
"learning-instructions","69","412316","0.0-9.0-1.0-0.9","5878","1","14","Male","approach_avoid_spark_v1","""event"",""trial"",""time""
""fullscreenenter"",""1"",""3217""
""blur"",""20"",""154829""
""focus"",""20"",""155163""
""blur"",""20"",""155195""
""focus"",""20"",""158636""
""blur"",""20"",""159733""
""focus"",""20"",""159878""
""blur"",""20"",""159913""
""focus"",""20"",""175143""
","""event"",""trial"",""time""
""blur"",""20"",""154829""
""blur"",""20"",""155195""
""blur"",""20"",""159733""
""blur"",""20"",""159913""
","""event"",""trial"",""time""
""focus"",""20"",""155163""
""focus"",""20"",""158636""
""focus"",""20"",""159878""
""focus"",""20"",""175143""
","""event"",""trial"",""time""
""fullscreenenter"",""1"",""3217""
","
","","","","","","603.5999999046326","<p> Here is what you might see if you did not offer the plant but the customer would have liked it: </p><p style=""color:grey; font-size:50px; display: inline-block; border-spacing: 15px; border-width:3px; border-style:solid; border-color:red"">  &nbsp; 6 &nbsp; </p><p> Remember, in this case, you would not win or lose ANY points because you did not offer the plant.  </p>","","0","instructions","","","","","","","","","","",""
"learning-instructions","70","420721","0.0-9.0-1.0-0.10","5878","1","14","Male","approach_avoid_spark_v1","""event"",""trial"",""time""
""fullscreenenter"",""1"",""3217""
""blur"",""20"",""154829""
""focus"",""20"",""155163""
""blur"",""20"",""155195""
""focus"",""20"",""158636""
""blur"",""20"",""159733""
""focus"",""20"",""159878""
""blur"",""20"",""159913""
""focus"",""20"",""175143""
","""event"",""trial"",""time""
""blur"",""20"",""154829""
""blur"",""20"",""155195""
""blur"",""20"",""159733""
""blur"",""20"",""159913""
","""event"",""trial"",""time""
""focus"",""20"",""155163""
""focus"",""20"",""158636""
""focus"",""20"",""159878""
""focus"",""20"",""175143""
","""event"",""trial"",""time""
""fullscreenenter"",""1"",""3217""
","
","","","","","","467.19999980926514","<p> Try to make the best choice for each plant because </p><p> at the end of the game, you will earn bonus money based on how many points you earned. </p>","","0","instructions","","","","","","","","","","",""
"learning-instructions","71","429325","0.0-9.0-1.0-0.11","5878","1","14","Male","approach_avoid_spark_v1","""event"",""trial"",""time""
""fullscreenenter"",""1"",""3217""
""blur"",""20"",""154829""
""focus"",""20"",""155163""
""blur"",""20"",""155195""
""focus"",""20"",""158636""
""blur"",""20"",""159733""
""focus"",""20"",""159878""
""blur"",""20"",""159913""
""focus"",""20"",""175143""
","""event"",""trial"",""time""
""blur"",""20"",""154829""
""blur"",""20"",""155195""
""blur"",""20"",""159733""
""blur"",""20"",""159913""
","""event"",""trial"",""time""
""focus"",""20"",""155163""
""focus"",""20"",""158636""
""focus"",""20"",""159878""
""focus"",""20"",""175143""
","""event"",""trial"",""time""
""fullscreenenter"",""1"",""3217""
","
","","","","","","392.2000002861023","<p> You will have 3 seconds to make each choice. Try to respond before time runs out! </p><p> You will lose 5 points each time you do not make a response. </p>","","0","instructions","","","","","","","","","","",""
"html-keyboard-response","72","429950","0.0-9.0-2.0-0.0","5878","1","14","Male","approach_avoid_spark_v1","""event"",""trial"",""time""
""fullscreenenter"",""1"",""3217""
""blur"",""20"",""154829""
""focus"",""20"",""155163""
""blur"",""20"",""155195""
""focus"",""20"",""158636""
""blur"",""20"",""159733""
""focus"",""20"",""159878""
""blur"",""20"",""159913""
""focus"",""20"",""175143""
","""event"",""trial"",""time""
""blur"",""20"",""154829""
""blur"",""20"",""155195""
""blur"",""20"",""159733""
""blur"",""20"",""159913""
","""event"",""trial"",""time""
""focus"",""20"",""155163""
""focus"",""20"",""158636""
""focus"",""20"",""159878""
""focus"",""20"",""175143""
","""event"",""trial"",""time""
""fullscreenenter"",""1"",""3217""
","
","","","","","","null","<div style=""font-size:60px;"">+</div>","null","","fixation","","","","","","","","","","",""
"aa-learning-trial","73","432974","0.0-9.0-2.0-1.0","5878","1","14","Male","approach_avoid_spark_v1","""event"",""trial"",""time""
""fullscreenenter"",""1"",""3217""
""blur"",""20"",""154829""
""focus"",""20"",""155163""
""blur"",""20"",""155195""
""focus"",""20"",""158636""
""blur"",""20"",""159733""
""focus"",""20"",""159878""
""blur"",""20"",""159913""
""focus"",""20"",""175143""
","""event"",""trial"",""time""
""blur"",""20"",""154829""
""blur"",""20"",""155195""
""blur"",""20"",""159733""
""blur"",""20"",""159913""
","""event"",""trial"",""time""
""focus"",""20"",""155163""
""focus"",""20"",""158636""
""focus"",""20"",""159878""
""focus"",""20"",""175143""
","""event"",""trial"",""time""
""fullscreenenter"",""1"",""3217""
","
","","","","","","2079.9000000953674","images/cactus7.png","","","learning","1","0","0","0","cactus","plants","1","0","","neutral","0"
"html-keyboard-response","74","433499","0.0-9.0-2.0-0.1","5878","1","14","Male","approach_avoid_spark_v1","""event"",""trial"",""time""
""fullscreenenter"",""1"",""3217""
""blur"",""20"",""154829""
""focus"",""20"",""155163""
""blur"",""20"",""155195""
""focus"",""20"",""158636""
""blur"",""20"",""159733""
""focus"",""20"",""159878""
""blur"",""20"",""159913""
""focus"",""20"",""175143""
","""event"",""trial"",""time""
""blur"",""20"",""154829""
""blur"",""20"",""155195""
""blur"",""20"",""159733""
""blur"",""20"",""159913""
","""event"",""trial"",""time""
""focus"",""20"",""155163""
""focus"",""20"",""158636""
""focus"",""20"",""159878""
""focus"",""20"",""175143""
","""event"",""trial"",""time""
""fullscreenenter"",""1"",""3217""
","
","","","","","","null","<div style=""font-size:60px;"">+</div>","null","","fixation","","","","","","","","","","",""
"aa-learning-trial","75","436518","0.0-9.0-2.0-1.1","5878","1","14","Male","approach_avoid_spark_v1","""event"",""trial"",""time""
""fullscreenenter"",""1"",""3217""
""blur"",""20"",""154829""
""focus"",""20"",""155163""
""blur"",""20"",""155195""
""focus"",""20"",""158636""
""blur"",""20"",""159733""
""focus"",""20"",""159878""
""blur"",""20"",""159913""
""focus"",""20"",""175143""
","""event"",""trial"",""time""
""blur"",""20"",""154829""
""blur"",""20"",""155195""
""blur"",""20"",""159733""
""blur"",""20"",""159913""
","""event"",""trial"",""time""
""focus"",""20"",""155163""
""focus"",""20"",""158636""
""focus"",""20"",""159878""
""focus"",""20"",""175143""
","""event"",""trial"",""time""
""fullscreenenter"",""1"",""3217""
","
","","","","","","1757","images/bush6.png","","","learning","5","5","1","1","bush","plants","1","0","","good","[3]"
"html-keyboard-response","76","437045","0.0-9.0-2.0-0.2","5878","1","14","Male","approach_avoid_spark_v1","""event"",""trial"",""time""
""fullscreenenter"",""1"",""3217""
""blur"",""20"",""154829""
""focus"",""20"",""155163""
""blur"",""20"",""155195""
""focus"",""20"",""158636""
""blur"",""20"",""159733""
""focus"",""20"",""159878""
""blur"",""20"",""159913""
""focus"",""20"",""175143""
","""event"",""trial"",""time""
""blur"",""20"",""154829""
""blur"",""20"",""155195""
""blur"",""20"",""159733""
""blur"",""20"",""159913""
","""event"",""trial"",""time""
""focus"",""20"",""155163""
""focus"",""20"",""158636""
""focus"",""20"",""159878""
""focus"",""20"",""175143""
","""event"",""trial"",""time""
""fullscreenenter"",""1"",""3217""
","
","","","","","","null","<div style=""font-size:60px;"">+</div>","null","","fixation","","","","","","","","","","",""
"aa-learning-trial","77","440075","0.0-9.0-2.0-1.2","5878","1","14","Male","approach_avoid_spark_v1","""event"",""trial"",""time""
""fullscreenenter"",""1"",""3217""
""blur"",""20"",""154829""
""focus"",""20"",""155163""
""blur"",""20"",""155195""
""focus"",""20"",""158636""
""blur"",""20"",""159733""
""focus"",""20"",""159878""
""blur"",""20"",""159913""
""focus"",""20"",""175143""
","""event"",""trial"",""time""
""blur"",""20"",""154829""
""blur"",""20"",""155195""
""blur"",""20"",""159733""
""blur"",""20"",""159913""
","""event"",""trial"",""time""
""focus"",""20"",""155163""
""focus"",""20"",""158636""
""focus"",""20"",""159878""
""focus"",""20"",""175143""
","""event"",""trial"",""time""
""fullscreenenter"",""1"",""3217""
","
","","","","","","1334.4000000953674","images/tree3.png","","","learning","-5","0","0","0","tree","plants","1","0","","bad","[-4]"
"html-keyboard-response","78","440586","0.0-9.0-2.0-0.3","5878","1","14","Male","approach_avoid_spark_v1","""event"",""trial"",""time""
""fullscreenenter"",""1"",""3217""
""blur"",""20"",""154829""
""focus"",""20"",""155163""
""blur"",""20"",""155195""
""focus"",""20"",""158636""
""blur"",""20"",""159733""
""focus"",""20"",""159878""
""blur"",""20"",""159913""
""focus"",""20"",""175143""
","""event"",""trial"",""time""
""blur"",""20"",""154829""
""blur"",""20"",""155195""
""blur"",""20"",""159733""
""blur"",""20"",""159913""
","""event"",""trial"",""time""
""focus"",""20"",""155163""
""focus"",""20"",""158636""
""focus"",""20"",""159878""
""focus"",""20"",""175143""
","""event"",""trial"",""time""
""fullscreenenter"",""1"",""3217""
","
","","","","","","null","<div style=""font-size:60px;"">+</div>","null","","fixation","","","","","","","","","","",""
"aa-learning-trial","79","443597","0.0-9.0-2.0-1.3","5878","1","14","Male","approach_avoid_spark_v1","""event"",""trial"",""time""
""fullscreenenter"",""1"",""3217""
""blur"",""20"",""154829""
""focus"",""20"",""155163""
""blur"",""20"",""155195""
""focus"",""20"",""158636""
""blur"",""20"",""159733""
""focus"",""20"",""159878""
""blur"",""20"",""159913""
""focus"",""20"",""175143""
","""event"",""trial"",""time""
""blur"",""20"",""154829""
""blur"",""20"",""155195""
""blur"",""20"",""159733""
""blur"",""20"",""159913""
","""event"",""trial"",""time""
""focus"",""20"",""155163""
""focus"",""20"",""158636""
""focus"",""20"",""159878""
""focus"",""20"",""175143""
","""event"",""trial"",""time""
""fullscreenenter"",""1"",""3217""
","
","","","","","","1224.9000000953674","images/tree1.png","","","learning","-2","-2","1","1","tree","plants","1","0","","bad","[-4]"
"html-keyboard-response","80","444114","0.0-9.0-2.0-0.4","5878","1","14","Male","approach_avoid_spark_v1","""event"",""trial"",""time""
""fullscreenenter"",""1"",""3217""
""blur"",""20"",""154829""
""focus"",""20"",""155163""
""blur"",""20"",""155195""
""focus"",""20"",""158636""
""blur"",""20"",""159733""
""focus"",""20"",""159878""
""blur"",""20"",""159913""
""focus"",""20"",""175143""
","""event"",""trial"",""time""
""blur"",""20"",""154829""
""blur"",""20"",""155195""
""blur"",""20"",""159733""
""blur"",""20"",""159913""
","""event"",""trial"",""time""
""focus"",""20"",""155163""
""focus"",""20"",""158636""
""focus"",""20"",""159878""
""focus"",""20"",""175143""
","""event"",""trial"",""time""
""fullscreenenter"",""1"",""3217""
","
","","","","","","null","<div style=""font-size:60px;"">+</div>","null","","fixation","","","","","","","","","","",""
"aa-learning-trial","81","447130","0.0-9.0-2.0-1.4","5878","1","14","Male","approach_avoid_spark_v1","""event"",""trial"",""time""
""fullscreenenter"",""1"",""3217""
""blur"",""20"",""154829""
""focus"",""20"",""155163""
""blur"",""20"",""155195""
""focus"",""20"",""158636""
""blur"",""20"",""159733""
""focus"",""20"",""159878""
""blur"",""20"",""159913""
""focus"",""20"",""175143""
","""event"",""trial"",""time""
""blur"",""20"",""154829""
""blur"",""20"",""155195""
""blur"",""20"",""159733""
""blur"",""20"",""159913""
","""event"",""trial"",""time""
""focus"",""20"",""155163""
""focus"",""20"",""158636""
""focus"",""20"",""159878""
""focus"",""20"",""175143""
","""event"",""trial"",""time""
""fullscreenenter"",""1"",""3217""
","
","","","","","","1215.6999998092651","images/bush5.png","","","learning","2","2","1","1","bush","plants","1","0","","good","[3]"
"html-keyboard-response","82","447655","0.0-9.0-2.0-0.5","5878","1","14","Male","approach_avoid_spark_v1","""event"",""trial"",""time""
""fullscreenenter"",""1"",""3217""
""blur"",""20"",""154829""
""focus"",""20"",""155163""
""blur"",""20"",""155195""
""focus"",""20"",""158636""
""blur"",""20"",""159733""
""focus"",""20"",""159878""
""blur"",""20"",""159913""
""focus"",""20"",""175143""
","""event"",""trial"",""time""
""blur"",""20"",""154829""
""blur"",""20"",""155195""
""blur"",""20"",""159733""
""blur"",""20"",""159913""
","""event"",""trial"",""time""
""focus"",""20"",""155163""
""focus"",""20"",""158636""
""focus"",""20"",""159878""
""focus"",""20"",""175143""
","""event"",""trial"",""time""
""fullscreenenter"",""1"",""3217""
","
","","","","","","null","<div style=""font-size:60px;"">+</div>","null","","fixation","","","","","","","","","","",""
"aa-learning-trial","83","450675","0.0-9.0-2.0-1.5","5878","1","14","Male","approach_avoid_spark_v1","""event"",""trial"",""time""
""fullscreenenter"",""1"",""3217""
""blur"",""20"",""154829""
""focus"",""20"",""155163""
""blur"",""20"",""155195""
""focus"",""20"",""158636""
""blur"",""20"",""159733""
""focus"",""20"",""159878""
""blur"",""20"",""159913""
""focus"",""20"",""175143""
","""event"",""trial"",""time""
""blur"",""20"",""154829""
""blur"",""20"",""155195""
""blur"",""20"",""159733""
""blur"",""20"",""159913""
","""event"",""trial"",""time""
""focus"",""20"",""155163""
""focus"",""20"",""158636""
""focus"",""20"",""159878""
""focus"",""20"",""175143""
","""event"",""trial"",""time""
""fullscreenenter"",""1"",""3217""
","
","","","","","","1566.9000000953674","images/cactus8.png","","","learning","[-1]","0","0","0","cactus","plants","1","0","","neutral","0"
"html-keyboard-response","84","451195","0.0-9.0-2.0-0.6","5878","1","14","Male","approach_avoid_spark_v1","""event"",""trial"",""time""
""fullscreenenter"",""1"",""3217""
""blur"",""20"",""154829""
""focus"",""20"",""155163""
""blur"",""20"",""155195""
""focus"",""20"",""158636""
""blur"",""20"",""159733""
""focus"",""20"",""159878""
""blur"",""20"",""159913""
""focus"",""20"",""175143""
","""event"",""trial"",""time""
""blur"",""20"",""154829""
""blur"",""20"",""155195""
""blur"",""20"",""159733""
""blur"",""20"",""159913""
","""event"",""trial"",""time""
""focus"",""20"",""155163""
""focus"",""20"",""158636""
""focus"",""20"",""159878""
""focus"",""20"",""175143""
","""event"",""trial"",""time""
""fullscreenenter"",""1"",""3217""
","
","","","","","","null","<div style=""font-size:60px;"">+</div>","null","","fixation","","","","","","","","","","",""
"aa-learning-trial","85","454218","0.0-9.0-2.0-1.6","5878","1","14","Male","approach_avoid_spark_v1","""event"",""trial"",""time""
""fullscreenenter"",""1"",""3217""
""blur"",""20"",""154829""
""focus"",""20"",""155163""
""blur"",""20"",""155195""
""focus"",""20"",""158636""
""blur"",""20"",""159733""
""focus"",""20"",""159878""
""blur"",""20"",""159913""
""focus"",""20"",""175143""
","""event"",""trial"",""time""
""blur"",""20"",""154829""
""blur"",""20"",""155195""
""blur"",""20"",""159733""
""blur"",""20"",""159913""
","""event"",""trial"",""time""
""focus"",""20"",""155163""
""focus"",""20"",""158636""
""focus"",""20"",""159878""
""focus"",""20"",""175143""
","""event"",""trial"",""time""
""fullscreenenter"",""1"",""3217""
","
","","","","","","1351.9000000953674","images/bush5.png","","","learning","3","3","1","1","bush","plants","1","0","","good","[3]"
"html-keyboard-response","86","454730","0.0-9.0-2.0-0.7","5878","1","14","Male","approach_avoid_spark_v1","""event"",""trial"",""time""
""fullscreenenter"",""1"",""3217""
""blur"",""20"",""154829""
""focus"",""20"",""155163""
""blur"",""20"",""155195""
""focus"",""20"",""158636""
""blur"",""20"",""159733""
""focus"",""20"",""159878""
""blur"",""20"",""159913""
""focus"",""20"",""175143""
","""event"",""trial"",""time""
""blur"",""20"",""154829""
""blur"",""20"",""155195""
""blur"",""20"",""159733""
""blur"",""20"",""159913""
","""event"",""trial"",""time""
""focus"",""20"",""155163""
""focus"",""20"",""158636""
""focus"",""20"",""159878""
""focus"",""20"",""175143""
","""event"",""trial"",""time""
""fullscreenenter"",""1"",""3217""
","
","","","","","","null","<div style=""font-size:60px;"">+</div>","null","","fixation","","","","","","","","","","",""
"aa-learning-trial","87","457736","0.0-9.0-2.0-1.7","5878","1","14","Male","approach_avoid_spark_v1","""event"",""trial"",""time""
""fullscreenenter"",""1"",""3217""
""blur"",""20"",""154829""
""focus"",""20"",""155163""
""blur"",""20"",""155195""
""focus"",""20"",""158636""
""blur"",""20"",""159733""
""focus"",""20"",""159878""
""blur"",""20"",""159913""
""focus"",""20"",""175143""
","""event"",""trial"",""time""
""blur"",""20"",""154829""
""blur"",""20"",""155195""
""blur"",""20"",""159733""
""blur"",""20"",""159913""
","""event"",""trial"",""time""
""focus"",""20"",""155163""
""focus"",""20"",""158636""
""focus"",""20"",""159878""
""focus"",""20"",""175143""
","""event"",""trial"",""time""
""fullscreenenter"",""1"",""3217""
","
","","","","","","900.5","images/tree3.png","","","learning","-5","0","0","0","tree","plants","1","0","","bad","[-4]"
"html-keyboard-response","88","458246","0.0-9.0-2.0-0.8","5878","1","14","Male","approach_avoid_spark_v1","""event"",""trial"",""time""
""fullscreenenter"",""1"",""3217""
""blur"",""20"",""154829""
""focus"",""20"",""155163""
""blur"",""20"",""155195""
""focus"",""20"",""158636""
""blur"",""20"",""159733""
""focus"",""20"",""159878""
""blur"",""20"",""159913""
""focus"",""20"",""175143""
","""event"",""trial"",""time""
""blur"",""20"",""154829""
""blur"",""20"",""155195""
""blur"",""20"",""159733""
""blur"",""20"",""159913""
","""event"",""trial"",""time""
""focus"",""20"",""155163""
""focus"",""20"",""158636""
""focus"",""20"",""159878""
""focus"",""20"",""175143""
","""event"",""trial"",""time""
""fullscreenenter"",""1"",""3217""
","
","","","","","","null","<div style=""font-size:60px;"">+</div>","null","","fixation","","","","","","","","","","",""
"aa-learning-trial","89","461257","0.0-9.0-2.0-1.8","5878","1","14","Male","approach_avoid_spark_v1","""event"",""trial"",""time""
""fullscreenenter"",""1"",""3217""
""blur"",""20"",""154829""
""focus"",""20"",""155163""
""blur"",""20"",""155195""
""focus"",""20"",""158636""
""blur"",""20"",""159733""
""focus"",""20"",""159878""
""blur"",""20"",""159913""
""focus"",""20"",""175143""
","""event"",""trial"",""time""
""blur"",""20"",""154829""
""blur"",""20"",""155195""
""blur"",""20"",""159733""
""blur"",""20"",""159913""
","""event"",""trial"",""time""
""focus"",""20"",""155163""
""focus"",""20"",""158636""
""focus"",""20"",""159878""
""focus"",""20"",""175143""
","""event"",""trial"",""time""
""fullscreenenter"",""1"",""3217""
","
","","","","","","1321.5","images/cactus7.png","","","learning","[-1]","0","0","0","cactus","plants","1","0","","neutral","0"
"html-keyboard-response","90","461761","0.0-9.0-2.0-0.9","5878","1","14","Male","approach_avoid_spark_v1","""event"",""trial"",""time""
""fullscreenenter"",""1"",""3217""
""blur"",""20"",""154829""
""focus"",""20"",""155163""
""blur"",""20"",""155195""
""focus"",""20"",""158636""
""blur"",""20"",""159733""
""focus"",""20"",""159878""
""blur"",""20"",""159913""
""focus"",""20"",""175143""
","""event"",""trial"",""time""
""blur"",""20"",""154829""
""blur"",""20"",""155195""
""blur"",""20"",""159733""
""blur"",""20"",""159913""
","""event"",""trial"",""time""
""focus"",""20"",""155163""
""focus"",""20"",""158636""
""focus"",""20"",""159878""
""focus"",""20"",""175143""
","""event"",""trial"",""time""
""fullscreenenter"",""1"",""3217""
","
","","","","","","null","<div style=""font-size:60px;"">+</div>","null","","fixation","","","","","","","","","","",""
"aa-learning-trial","91","464768","0.0-9.0-2.0-1.9","5878","1","14","Male","approach_avoid_spark_v1","""event"",""trial"",""time""
""fullscreenenter"",""1"",""3217""
""blur"",""20"",""154829""
""focus"",""20"",""155163""
""blur"",""20"",""155195""
""focus"",""20"",""158636""
""blur"",""20"",""159733""
""focus"",""20"",""159878""
""blur"",""20"",""159913""
""focus"",""20"",""175143""
","""event"",""trial"",""time""
""blur"",""20"",""154829""
""blur"",""20"",""155195""
""blur"",""20"",""159733""
""blur"",""20"",""159913""
","""event"",""trial"",""time""
""focus"",""20"",""155163""
""focus"",""20"",""158636""
""focus"",""20"",""159878""
""focus"",""20"",""175143""
","""event"",""trial"",""time""
""fullscreenenter"",""1"",""3217""
","
","","","","","","982.2000002861023","images/tree8.png","","","learning","-4","0","0","0","tree","plants","1","0","","bad","[-4]"
"html-keyboard-response","92","465276","0.0-9.0-2.0-0.10","5878","1","14","Male","approach_avoid_spark_v1","""event"",""trial"",""time""
""fullscreenenter"",""1"",""3217""
""blur"",""20"",""154829""
""focus"",""20"",""155163""
""blur"",""20"",""155195""
""focus"",""20"",""158636""
""blur"",""20"",""159733""
""focus"",""20"",""159878""
""blur"",""20"",""159913""
""focus"",""20"",""175143""
","""event"",""trial"",""time""
""blur"",""20"",""154829""
""blur"",""20"",""155195""
""blur"",""20"",""159733""
""blur"",""20"",""159913""
","""event"",""trial"",""time""
""focus"",""20"",""155163""
""focus"",""20"",""158636""
""focus"",""20"",""159878""
""focus"",""20"",""175143""
","""event"",""trial"",""time""
""fullscreenenter"",""1"",""3217""
","
","","","","","","null","<div style=""font-size:60px;"">+</div>","null","","fixation","","","","","","","","","","",""
"aa-learning-trial","93","468288","0.0-9.0-2.0-1.10","5878","1","14","Male","approach_avoid_spark_v1","""event"",""trial"",""time""
""fullscreenenter"",""1"",""3217""
""blur"",""20"",""154829""
""focus"",""20"",""155163""
""blur"",""20"",""155195""
""focus"",""20"",""158636""
""blur"",""20"",""159733""
""focus"",""20"",""159878""
""blur"",""20"",""159913""
""focus"",""20"",""175143""
","""event"",""trial"",""time""
""blur"",""20"",""154829""
""blur"",""20"",""155195""
""blur"",""20"",""159733""
""blur"",""20"",""159913""
","""event"",""trial"",""time""
""focus"",""20"",""155163""
""focus"",""20"",""158636""
""focus"",""20"",""159878""
""focus"",""20"",""175143""
","""event"",""trial"",""time""
""fullscreenenter"",""1"",""3217""
","
","","","","","","1631.5","images/cactus4.png","","","learning","-1","-1","1","1","cactus","plants","1","0","","neutral","0"
"html-keyboard-response","94","468793","0.0-9.0-2.0-0.11","5878","1","14","Male","approach_avoid_spark_v1","""event"",""trial"",""time""
""fullscreenenter"",""1"",""3217""
""blur"",""20"",""154829""
""focus"",""20"",""155163""
""blur"",""20"",""155195""
""focus"",""20"",""158636""
""blur"",""20"",""159733""
""focus"",""20"",""159878""
""blur"",""20"",""159913""
""focus"",""20"",""175143""
","""event"",""trial"",""time""
""blur"",""20"",""154829""
""blur"",""20"",""155195""
""blur"",""20"",""159733""
""blur"",""20"",""159913""
","""event"",""trial"",""time""
""focus"",""20"",""155163""
""focus"",""20"",""158636""
""focus"",""20"",""159878""
""focus"",""20"",""175143""
","""event"",""trial"",""time""
""fullscreenenter"",""1"",""3217""
","
","","","","","","null","<div style=""font-size:60px;"">+</div>","null","","fixation","","","","","","","","","","",""
"aa-learning-trial","95","471802","0.0-9.0-2.0-1.11","5878","1","14","Male","approach_avoid_spark_v1","""event"",""trial"",""time""
""fullscreenenter"",""1"",""3217""
""blur"",""20"",""154829""
""focus"",""20"",""155163""
""blur"",""20"",""155195""
""focus"",""20"",""158636""
""blur"",""20"",""159733""
""focus"",""20"",""159878""
""blur"",""20"",""159913""
""focus"",""20"",""175143""
","""event"",""trial"",""time""
""blur"",""20"",""154829""
""blur"",""20"",""155195""
""blur"",""20"",""159733""
""blur"",""20"",""159913""
","""event"",""trial"",""time""
""focus"",""20"",""155163""
""focus"",""20"",""158636""
""focus"",""20"",""159878""
""focus"",""20"",""175143""
","""event"",""trial"",""time""
""fullscreenenter"",""1"",""3217""
","
","","","","","","1224.4000000953674","images/tree8.png","","","learning","-5","-5","1","1","tree","plants","1","0","","bad","[-4]"
"html-keyboard-response","96","472308","0.0-9.0-2.0-0.12","5878","1","14","Male","approach_avoid_spark_v1","""event"",""trial"",""time""
""fullscreenenter"",""1"",""3217""
""blur"",""20"",""154829""
""focus"",""20"",""155163""
""blur"",""20"",""155195""
""focus"",""20"",""158636""
""blur"",""20"",""159733""
""focus"",""20"",""159878""
""blur"",""20"",""159913""
""focus"",""20"",""175143""
","""event"",""trial"",""time""
""blur"",""20"",""154829""
""blur"",""20"",""155195""
""blur"",""20"",""159733""
""blur"",""20"",""159913""
","""event"",""trial"",""time""
""focus"",""20"",""155163""
""focus"",""20"",""158636""
""focus"",""20"",""159878""
""focus"",""20"",""175143""
","""event"",""trial"",""time""
""fullscreenenter"",""1"",""3217""
","
","","","","","","null","<div style=""font-size:60px;"">+</div>","null","","fixation","","","","","","","","","","",""
"aa-learning-trial","97","475330","0.0-9.0-2.0-1.12","5878","1","14","Male","approach_avoid_spark_v1","""event"",""trial"",""time""
""fullscreenenter"",""1"",""3217""
""blur"",""20"",""154829""
""focus"",""20"",""155163""
""blur"",""20"",""155195""
""focus"",""20"",""158636""
""blur"",""20"",""159733""
""focus"",""20"",""159878""
""blur"",""20"",""159913""
""focus"",""20"",""175143""
","""event"",""trial"",""time""
""blur"",""20"",""154829""
""blur"",""20"",""155195""
""blur"",""20"",""159733""
""blur"",""20"",""159913""
","""event"",""trial"",""time""
""focus"",""20"",""155163""
""focus"",""20"",""158636""
""focus"",""20"",""159878""
""focus"",""20"",""175143""
","""event"",""trial"",""time""
""fullscreenenter"",""1"",""3217""
","
","","","","","","2173.199999809265","images/bush1.png","","","learning","1","0","0","0","bush","plants","1","0","","good","[3]"
"html-keyboard-response","98","475841","0.0-9.0-2.0-0.13","5878","1","14","Male","approach_avoid_spark_v1","""event"",""trial"",""time""
""fullscreenenter"",""1"",""3217""
""blur"",""20"",""154829""
""focus"",""20"",""155163""
""blur"",""20"",""155195""
""focus"",""20"",""158636""
""blur"",""20"",""159733""
""focus"",""20"",""159878""
""blur"",""20"",""159913""
""focus"",""20"",""175143""
","""event"",""trial"",""time""
""blur"",""20"",""154829""
""blur"",""20"",""155195""
""blur"",""20"",""159733""
""blur"",""20"",""159913""
","""event"",""trial"",""time""
""focus"",""20"",""155163""
""focus"",""20"",""158636""
""focus"",""20"",""159878""
""focus"",""20"",""175143""
","""event"",""trial"",""time""
""fullscreenenter"",""1"",""3217""
","
","","","","","","null","<div style=""font-size:60px;"">+</div>","null","","fixation","","","","","","","","","","",""
"aa-learning-trial","99","478848","0.0-9.0-2.0-1.13","5878","1","14","Male","approach_avoid_spark_v1","""event"",""trial"",""time""
""fullscreenenter"",""1"",""3217""
""blur"",""20"",""154829""
""focus"",""20"",""155163""
""blur"",""20"",""155195""
""focus"",""20"",""158636""
""blur"",""20"",""159733""
""focus"",""20"",""159878""
""blur"",""20"",""159913""
""focus"",""20"",""175143""
","""event"",""trial"",""time""
""blur"",""20"",""154829""
""blur"",""20"",""155195""
""blur"",""20"",""159733""
""blur"",""20"",""159913""
","""event"",""trial"",""time""
""focus"",""20"",""155163""
""focus"",""20"",""158636""
""focus"",""20"",""159878""
""focus"",""20"",""175143""
","""event"",""trial"",""time""
""fullscreenenter"",""1"",""3217""
","
","","","","","","2299.5","images/bush1.png","","","learning","1","1","1","1","bush","plants","1","0","","good","[3]"
"html-keyboard-response","100","479353","0.0-9.0-2.0-0.14","5878","1","14","Male","approach_avoid_spark_v1","""event"",""trial"",""time""
""fullscreenenter"",""1"",""3217""
""blur"",""20"",""154829""
""focus"",""20"",""155163""
""blur"",""20"",""155195""
""focus"",""20"",""158636""
""blur"",""20"",""159733""
""focus"",""20"",""159878""
""blur"",""20"",""159913""
""focus"",""20"",""175143""
","""event"",""trial"",""time""
""blur"",""20"",""154829""
""blur"",""20"",""155195""
""blur"",""20"",""159733""
""blur"",""20"",""159913""
","""event"",""trial"",""time""
""focus"",""20"",""155163""
""focus"",""20"",""158636""
""focus"",""20"",""159878""
""focus"",""20"",""175143""
","""event"",""trial"",""time""
""fullscreenenter"",""1"",""3217""
","
","","","","","","null","<div style=""font-size:60px;"">+</div>","null","","fixation","","","","","","","","","","",""
"aa-learning-trial","101","482361","0.0-9.0-2.0-1.14","5878","1","14","Male","approach_avoid_spark_v1","""event"",""trial"",""time""
""fullscreenenter"",""1"",""3217""
""blur"",""20"",""154829""
""focus"",""20"",""155163""
""blur"",""20"",""155195""
""focus"",""20"",""158636""
""blur"",""20"",""159733""
""focus"",""20"",""159878""
""blur"",""20"",""159913""
""focus"",""20"",""175143""
","""event"",""trial"",""time""
""blur"",""20"",""154829""
""blur"",""20"",""155195""
""blur"",""20"",""159733""
""blur"",""20"",""159913""
","""event"",""trial"",""time""
""focus"",""20"",""155163""
""focus"",""20"",""158636""
""focus"",""20"",""159878""
""focus"",""20"",""175143""
","""event"",""trial"",""time""
""fullscreenenter"",""1"",""3217""
","
","","","","","","1820.6999998092651","images/cactus4.png","","","learning","-1","-1","1","1","cactus","plants","1","0","","neutral","0"
"html-keyboard-response","102","482865","0.0-9.0-2.0-0.15","5878","1","14","Male","approach_avoid_spark_v1","""event"",""trial"",""time""
""fullscreenenter"",""1"",""3217""
""blur"",""20"",""154829""
""focus"",""20"",""155163""
""blur"",""20"",""155195""
""focus"",""20"",""158636""
""blur"",""20"",""159733""
""focus"",""20"",""159878""
""blur"",""20"",""159913""
""focus"",""20"",""175143""
","""event"",""trial"",""time""
""blur"",""20"",""154829""
""blur"",""20"",""155195""
""blur"",""20"",""159733""
""blur"",""20"",""159913""
","""event"",""trial"",""time""
""focus"",""20"",""155163""
""focus"",""20"",""158636""
""focus"",""20"",""159878""
""focus"",""20"",""175143""
","""event"",""trial"",""time""
""fullscreenenter"",""1"",""3217""
","
","","","","","","null","<div style=""font-size:60px;"">+</div>","null","","fixation","","","","","","","","","","",""
"aa-learning-trial","103","485874","0.0-9.0-2.0-1.15","5878","1","14","Male","approach_avoid_spark_v1","""event"",""trial"",""time""
""fullscreenenter"",""1"",""3217""
""blur"",""20"",""154829""
""focus"",""20"",""155163""
""blur"",""20"",""155195""
""focus"",""20"",""158636""
""blur"",""20"",""159733""
""focus"",""20"",""159878""
""blur"",""20"",""159913""
""focus"",""20"",""175143""
","""event"",""trial"",""time""
""blur"",""20"",""154829""
""blur"",""20"",""155195""
""blur"",""20"",""159733""
""blur"",""20"",""159913""
","""event"",""trial"",""time""
""focus"",""20"",""155163""
""focus"",""20"",""158636""
""focus"",""20"",""159878""
""focus"",""20"",""175143""
","""event"",""trial"",""time""
""fullscreenenter"",""1"",""3217""
","
","","","","","","1180.5","images/tree2.png","","","learning","-1","-1","1","1","tree","plants","1","0","","bad","[-4]"
"html-keyboard-response","104","486386","0.0-9.0-2.0-0.16","5878","1","14","Male","approach_avoid_spark_v1","""event"",""trial"",""time""
""fullscreenenter"",""1"",""3217""
""blur"",""20"",""154829""
""focus"",""20"",""155163""
""blur"",""20"",""155195""
""focus"",""20"",""158636""
""blur"",""20"",""159733""
""focus"",""20"",""159878""
""blur"",""20"",""159913""
""focus"",""20"",""175143""
","""event"",""trial"",""time""
""blur"",""20"",""154829""
""blur"",""20"",""155195""
""blur"",""20"",""159733""
""blur"",""20"",""159913""
","""event"",""trial"",""time""
""focus"",""20"",""155163""
""focus"",""20"",""158636""
""focus"",""20"",""159878""
""focus"",""20"",""175143""
","""event"",""trial"",""time""
""fullscreenenter"",""1"",""3217""
","
","","","","","","null","<div style=""font-size:60px;"">+</div>","null","","fixation","","","","","","","","","","",""
"aa-learning-trial","105","489400","0.0-9.0-2.0-1.16","5878","1","14","Male","approach_avoid_spark_v1","""event"",""trial"",""time""
""fullscreenenter"",""1"",""3217""
""blur"",""20"",""154829""
""focus"",""20"",""155163""
""blur"",""20"",""155195""
""focus"",""20"",""158636""
""blur"",""20"",""159733""
""focus"",""20"",""159878""
""blur"",""20"",""159913""
""focus"",""20"",""175143""
","""event"",""trial"",""time""
""blur"",""20"",""154829""
""blur"",""20"",""155195""
""blur"",""20"",""159733""
""blur"",""20"",""159913""
","""event"",""trial"",""time""
""focus"",""20"",""155163""
""focus"",""20"",""158636""
""focus"",""20"",""159878""
""focus"",""20"",""175143""
","""event"",""trial"",""time""
""fullscreenenter"",""1"",""3217""
","
","","","","","","2464.4000000953674","images/bush1.png","","","learning","2","2","1","1","bush","plants","1","0","","good","[3]"
"html-keyboard-response","106","489905","0.0-9.0-2.0-0.17","5878","1","14","Male","approach_avoid_spark_v1","""event"",""trial"",""time""
""fullscreenenter"",""1"",""3217""
""blur"",""20"",""154829""
""focus"",""20"",""155163""
""blur"",""20"",""155195""
""focus"",""20"",""158636""
""blur"",""20"",""159733""
""focus"",""20"",""159878""
""blur"",""20"",""159913""
""focus"",""20"",""175143""
","""event"",""trial"",""time""
""blur"",""20"",""154829""
""blur"",""20"",""155195""
""blur"",""20"",""159733""
""blur"",""20"",""159913""
","""event"",""trial"",""time""
""focus"",""20"",""155163""
""focus"",""20"",""158636""
""focus"",""20"",""159878""
""focus"",""20"",""175143""
","""event"",""trial"",""time""
""fullscreenenter"",""1"",""3217""
","
","","","","","","null","<div style=""font-size:60px;"">+</div>","null","","fixation","","","","","","","","","","",""
"aa-learning-trial","107","492913","0.0-9.0-2.0-1.17","5878","1","14","Male","approach_avoid_spark_v1","""event"",""trial"",""time""
""fullscreenenter"",""1"",""3217""
""blur"",""20"",""154829""
""focus"",""20"",""155163""
""blur"",""20"",""155195""
""focus"",""20"",""158636""
""blur"",""20"",""159733""
""focus"",""20"",""159878""
""blur"",""20"",""159913""
""focus"",""20"",""175143""
","""event"",""trial"",""time""
""blur"",""20"",""154829""
""blur"",""20"",""155195""
""blur"",""20"",""159733""
""blur"",""20"",""159913""
","""event"",""trial"",""time""
""focus"",""20"",""155163""
""focus"",""20"",""158636""
""focus"",""20"",""159878""
""focus"",""20"",""175143""
","""event"",""trial"",""time""
""fullscreenenter"",""1"",""3217""
","
","","","","","","2125.2999997138977","images/cactus2.png","","","learning","-1","0","0","0","cactus","plants","1","0","","neutral","0"
"html-keyboard-response","108","493416","0.0-9.0-2.0-0.18","5878","1","14","Male","approach_avoid_spark_v1","""event"",""trial"",""time""
""fullscreenenter"",""1"",""3217""
""blur"",""20"",""154829""
""focus"",""20"",""155163""
""blur"",""20"",""155195""
""focus"",""20"",""158636""
""blur"",""20"",""159733""
""focus"",""20"",""159878""
""blur"",""20"",""159913""
""focus"",""20"",""175143""
","""event"",""trial"",""time""
""blur"",""20"",""154829""
""blur"",""20"",""155195""
""blur"",""20"",""159733""
""blur"",""20"",""159913""
","""event"",""trial"",""time""
""focus"",""20"",""155163""
""focus"",""20"",""158636""
""focus"",""20"",""159878""
""focus"",""20"",""175143""
","""event"",""trial"",""time""
""fullscreenenter"",""1"",""3217""
","
","","","","","","null","<div style=""font-size:60px;"">+</div>","null","","fixation","","","","","","","","","","",""
"aa-learning-trial","109","496424","0.0-9.0-2.0-1.18","5878","1","14","Male","approach_avoid_spark_v1","""event"",""trial"",""time""
""fullscreenenter"",""1"",""3217""
""blur"",""20"",""154829""
""focus"",""20"",""155163""
""blur"",""20"",""155195""
""focus"",""20"",""158636""
""blur"",""20"",""159733""
""focus"",""20"",""159878""
""blur"",""20"",""159913""
""focus"",""20"",""175143""
","""event"",""trial"",""time""
""blur"",""20"",""154829""
""blur"",""20"",""155195""
""blur"",""20"",""159733""
""blur"",""20"",""159913""
","""event"",""trial"",""time""
""focus"",""20"",""155163""
""focus"",""20"",""158636""
""focus"",""20"",""159878""
""focus"",""20"",""175143""
","""event"",""trial"",""time""
""fullscreenenter"",""1"",""3217""
","
","","","","","","1612.1999998092651","images/bush1.png","","","learning","2","2","1","1","bush","plants","1","0","","good","[3]"
"html-keyboard-response","110","496930","0.0-9.0-2.0-0.19","5878","1","14","Male","approach_avoid_spark_v1","""event"",""trial"",""time""
""fullscreenenter"",""1"",""3217""
""blur"",""20"",""154829""
""focus"",""20"",""155163""
""blur"",""20"",""155195""
""focus"",""20"",""158636""
""blur"",""20"",""159733""
""focus"",""20"",""159878""
""blur"",""20"",""159913""
""focus"",""20"",""175143""
","""event"",""trial"",""time""
""blur"",""20"",""154829""
""blur"",""20"",""155195""
""blur"",""20"",""159733""
""blur"",""20"",""159913""
","""event"",""trial"",""time""
""focus"",""20"",""155163""
""focus"",""20"",""158636""
""focus"",""20"",""159878""
""focus"",""20"",""175143""
","""event"",""trial"",""time""
""fullscreenenter"",""1"",""3217""
","
","","","","","","null","<div style=""font-size:60px;"">+</div>","null","","fixation","","","","","","","","","","",""
"aa-learning-trial","111","499937","0.0-9.0-2.0-1.19","5878","1","14","Male","approach_avoid_spark_v1","""event"",""trial"",""time""
""fullscreenenter"",""1"",""3217""
""blur"",""20"",""154829""
""focus"",""20"",""155163""
""blur"",""20"",""155195""
""focus"",""20"",""158636""
""blur"",""20"",""159733""
""focus"",""20"",""159878""
""blur"",""20"",""159913""
""focus"",""20"",""175143""
","""event"",""trial"",""time""
""blur"",""20"",""154829""
""blur"",""20"",""155195""
""blur"",""20"",""159733""
""blur"",""20"",""159913""
","""event"",""trial"",""time""
""focus"",""20"",""155163""
""focus"",""20"",""158636""
""focus"",""20"",""159878""
""focus"",""20"",""175143""
","""event"",""trial"",""time""
""fullscreenenter"",""1"",""3217""
","
","","","","","","1127.5999999046326","images/cactus7.png","","","learning","-1","-1","1","1","cactus","plants","1","0","","neutral","0"
"html-keyboard-response","112","500441","0.0-9.0-2.0-0.20","5878","1","14","Male","approach_avoid_spark_v1","""event"",""trial"",""time""
""fullscreenenter"",""1"",""3217""
""blur"",""20"",""154829""
""focus"",""20"",""155163""
""blur"",""20"",""155195""
""focus"",""20"",""158636""
""blur"",""20"",""159733""
""focus"",""20"",""159878""
""blur"",""20"",""159913""
""focus"",""20"",""175143""
","""event"",""trial"",""time""
""blur"",""20"",""154829""
""blur"",""20"",""155195""
""blur"",""20"",""159733""
""blur"",""20"",""159913""
","""event"",""trial"",""time""
""focus"",""20"",""155163""
""focus"",""20"",""158636""
""focus"",""20"",""159878""
""focus"",""20"",""175143""
","""event"",""trial"",""time""
""fullscreenenter"",""1"",""3217""
","
","","","","","","null","<div style=""font-size:60px;"">+</div>","null","","fixation","","","","","","","","","","",""
"aa-learning-trial","113","503449","0.0-9.0-2.0-1.20","5878","1","14","Male","approach_avoid_spark_v1","""event"",""trial"",""time""
""fullscreenenter"",""1"",""3217""
""blur"",""20"",""154829""
""focus"",""20"",""155163""
""blur"",""20"",""155195""
""focus"",""20"",""158636""
""blur"",""20"",""159733""
""focus"",""20"",""159878""
""blur"",""20"",""159913""
""focus"",""20"",""175143""
","""event"",""trial"",""time""
""blur"",""20"",""154829""
""blur"",""20"",""155195""
""blur"",""20"",""159733""
""blur"",""20"",""159913""
","""event"",""trial"",""time""
""focus"",""20"",""155163""
""focus"",""20"",""158636""
""focus"",""20"",""159878""
""focus"",""20"",""175143""
","""event"",""trial"",""time""
""fullscreenenter"",""1"",""3217""
","
","","","","","","1580.2000002861023","images/tree8.png","","","learning","-6","0","0","0","tree","plants","1","0","","bad","[-4]"
"html-keyboard-response","114","503953","0.0-9.0-2.0-0.21","5878","1","14","Male","approach_avoid_spark_v1","""event"",""trial"",""time""
""fullscreenenter"",""1"",""3217""
""blur"",""20"",""154829""
""focus"",""20"",""155163""
""blur"",""20"",""155195""
""focus"",""20"",""158636""
""blur"",""20"",""159733""
""focus"",""20"",""159878""
""blur"",""20"",""159913""
""focus"",""20"",""175143""
","""event"",""trial"",""time""
""blur"",""20"",""154829""
""blur"",""20"",""155195""
""blur"",""20"",""159733""
""blur"",""20"",""159913""
","""event"",""trial"",""time""
""focus"",""20"",""155163""
""focus"",""20"",""158636""
""focus"",""20"",""159878""
""focus"",""20"",""175143""
","""event"",""trial"",""time""
""fullscreenenter"",""1"",""3217""
","
","","","","","","null","<div style=""font-size:60px;"">+</div>","null","","fixation","","","","","","","","","","",""
"aa-learning-trial","115","506960","0.0-9.0-2.0-1.21","5878","1","14","Male","approach_avoid_spark_v1","""event"",""trial"",""time""
""fullscreenenter"",""1"",""3217""
