"trial_type","trial_index","time_elapsed","internal_node_id","subject_id","task_condition","age","gender","task_version","interactions","blur_events","focus_events","fullscreenenter_events","fullscreenexit_events","success","timeout","failed_images","failed_audio","failed_video","rt","stimulus","response","button_pressed","task_part","approach_reward","points","key_press","option_selected","stim_cat","task_block","block_condition","block_number","correct","cat_type","mean_cat_reward"
"pavlovia","0","8","0.0-0.0","6381","1","9","Male","approach_avoid_spark_v1","""event"",""trial"",""time""
""fullscreenenter"",""1"",""3237""
","
","
","""event"",""trial"",""time""
""fullscreenenter"",""1"",""3237""
","
","","","","","","","","","","","","","","","","","","","","",""
"fullscreen","1","4224","0.0-1.0","6381","1","9","Male","approach_avoid_spark_v1","""event"",""trial"",""time""
""fullscreenenter"",""1"",""3237""
","
","
","""event"",""trial"",""time""
""fullscreenenter"",""1"",""3237""
","
","true","","","","","","","","","","","","","","","","","","","",""
"preload","2","101749","0.0-2.0","6381","1","9","Male","approach_avoid_spark_v1","""event"",""trial"",""time""
""fullscreenenter"",""1"",""3237""
","
","
","""event"",""trial"",""time""
""fullscreenenter"",""1"",""3237""
","
","true","false","[]","[]","[]","","","","","","","","","","","","","","","",""
"audio-keyboard-response","3","114161","0.0-3.0","6381","1","9","Male","approach_avoid_spark_v1","""event"",""trial"",""time""
""fullscreenenter"",""1"",""3237""
","
","
","""event"",""trial"",""time""
""fullscreenenter"",""1"",""3237""
","
","","","","","","12320.000000000007","audio/beep_loop.wav"," ","","","","","","","","","","","","",""
"audio-button-response","4","122750","0.0-4.0","6381","1","9","Male","approach_avoid_spark_v1","""event"",""trial"",""time""
""fullscreenenter"",""1"",""3237""
","
","
","""event"",""trial"",""time""
""fullscreenenter"",""1"",""3237""
","
","","","","","","8576","audio/shark.wav","0","","","","","","","","","","","","",""
"audio-button-response","5","124966","0.0-5.0","6381","1","9","Male","approach_avoid_spark_v1","""event"",""trial"",""time""
""fullscreenenter"",""1"",""3237""
","
","
","""event"",""trial"",""time""
""fullscreenenter"",""1"",""3237""
","
","","","","","","1205","audio/turtle.wav","1","","","","","","","","","","","","",""
"preload","6","157922","0.0-6.0","6381","1","9","Male","approach_avoid_spark_v1","""event"",""trial"",""time""
""fullscreenenter"",""1"",""3237""
","
","
","""event"",""trial"",""time""
""fullscreenenter"",""1"",""3237""
","
","true","false","[]","[]","[]","","","","","","","","","","","","","","","",""
"html-keyboard-response","7","184173","0.0-7.0","6381","1","9","Male","approach_avoid_spark_v1","""event"",""trial"",""time""
""fullscreenenter"",""1"",""3237""
","
","
","""event"",""trial"",""time""
""fullscreenenter"",""1"",""3237""
","
","","","","","","26248.5","Welcome to the experiment. Press any key to begin and to advance the instructions."," ","","","","","","","","","","","","",""
"learning-instructions","8","196764","0.0-8.0-0.0-0.0","6381","1","9","Male","approach_avoid_spark_v1","""event"",""trial"",""time""
""fullscreenenter"",""1"",""3237""
","
","
","""event"",""trial"",""time""
""fullscreenenter"",""1"",""3237""
","
","","","","","","5540.5","<p> Welcome! Today you are going to play 6 different rounds of a decision-making game. </p><p> Use the mouse to click next to continue. </p>","","0","instructions","","","","","","","","","","",""
"learning-instructions","9","206605","0.0-8.0-0.0-0.1","6381","1","9","Male","approach_avoid_spark_v1","""event"",""trial"",""time""
""fullscreenenter"",""1"",""3237""
","
","
","""event"",""trial"",""time""
""fullscreenenter"",""1"",""3237""
","
","","","","","","7115.300000000745","<p> You will start with a practice round to learn the rules. </p>","","0","instructions","","","","","","","","","","",""
"learning-instructions","10","211296","0.0-8.0-0.0-0.2","6381","1","9","Male","approach_avoid_spark_v1","""event"",""trial"",""time""
""fullscreenenter"",""1"",""3237""
","
","
","""event"",""trial"",""time""
""fullscreenenter"",""1"",""3237""
","
","","","","","","1235.199999999255","<p> Your goal in this round is to give out sports equipment to kids. </p></div>","","0","instructions","","","","","","","","","","",""
"learning-instructions","11","220636","0.0-8.0-0.0-0.3","6381","1","9","Male","approach_avoid_spark_v1","""event"",""trial"",""time""
""fullscreenenter"",""1"",""3237""
","
","
","""event"",""trial"",""time""
""fullscreenenter"",""1"",""3237""
","
","","","","","","1796.699999999255","<p> The kids only like some of the equipment.  </p><p> On each turn, you will see a piece of sports equipment.   </p><p> You need to decide whether to give it to the kids or not.  </p>","","0","instructions","","","","","","","","","","",""
"learning-instructions","12","227009","0.0-8.0-0.0-0.4","6381","1","9","Male","approach_avoid_spark_v1","""event"",""trial"",""time""
""fullscreenenter"",""1"",""3237""
","
","
","""event"",""trial"",""time""
""fullscreenenter"",""1"",""3237""
","
","","","","","","1619.699999999255","<p> You can give them the equipment by pressing 1 and choose not to give it to them by pressing 0. </p><br><div class=""choice-instructions-grid""> <div class=""choice-option""><img src=""images/approach.png"" class=""choice-option-img"" stage=""instructions"" position=""0"" ><div class=""choice-option-text""> Press ""1."" </div></div><div class=""choice-option""><img src=""images/avoid.png"" class=""choice-option-img"" stage=""instructions"" position=""1"" ><div class=""choice-option-text""> Press ""0."" </div></div>","","0","instructions","","","","","","","","","","",""
"learning-instructions","13","235681","0.0-8.0-0.0-0.5","6381","1","9","Male","approach_avoid_spark_v1","""event"",""trial"",""time""
""fullscreenenter"",""1"",""3237""
","
","
","""event"",""trial"",""time""
""fullscreenenter"",""1"",""3237""
","
","","","","","","1289.1000000014901","<p> If you give them a piece of equipment they like, they will be happy! </p><p> But if you give them a piece of equipment they do not like, they will be sad. </p>","","0","instructions","","","","","","","","","","",""
"learning-instructions","14","248580","0.0-8.0-0.0-0.6","6381","1","9","Male","approach_avoid_spark_v1","""event"",""trial"",""time""
""fullscreenenter"",""1"",""3237""
","
","
","""event"",""trial"",""time""
""fullscreenenter"",""1"",""3237""
","
","","","","","","2390.800000000745","<p> You will earn points based on how you make kids feel. </p><p> If you make them happy, you will WIN anywhere from 1 - 9 points, </p><p> but if you make them sad, you will LOSE anywhere from 1 - 9 points. </p>","","0","instructions","","","","","","","","","","",""
"learning-instructions","15","259445","0.0-8.0-0.0-0.7","6381","1","9","Male","approach_avoid_spark_v1","""event"",""trial"",""time""
""fullscreenenter"",""1"",""3237""
","
","
","""event"",""trial"",""time""
""fullscreenenter"",""1"",""3237""
","
","","","","","","1318","<p> You will see how many points you won or lost in the center of the screen. </p><p> Here is what you would see if you won 6 points: </p><p style=""color:green;font-size:50px;font-weight:bolder"">6</p><p style=""color:green"">The text is GREEN because you WON points.</p>","","0","instructions","","","","","","","","","","",""
"learning-instructions","16","266295","0.0-8.0-0.0-0.8","6381","1","9","Male","approach_avoid_spark_v1","""event"",""trial"",""time""
""fullscreenenter"",""1"",""3237""
","
","
","""event"",""trial"",""time""
""fullscreenenter"",""1"",""3237""
","
","","","","","","1332.7999999970198","<p> And here is what you would see if you lost 4 points: </p><p style=""color:red;font-size:50px;font-weight:bolder"">-4</p><p style=""color:red"">The text is RED because you LOST points. </p>","","0","instructions","","","","","","","","","","",""
"learning-instructions","17","285125","0.0-8.0-0.0-0.9","6381","1","9","Male","approach_avoid_spark_v1","""event"",""trial"",""time""
""fullscreenenter"",""1"",""3237""
","
","
","""event"",""trial"",""time""
""fullscreenenter"",""1"",""3237""
","
","","","","","","4110","<p> Some of the equipment will make the kids VERY happy or sad. </p><p> These pieces of equipment will make you win or lose LOTS of points. </p><p> Other pieces of equipment will only make the kids a little happy or sad. </p><p> These pieces of equipment will make you win or lose small amounts of points. </p>","","0","instructions","","","","","","","","","","",""
"learning-instructions","18","297701","0.0-8.0-0.0-0.10","6381","1","9","Male","approach_avoid_spark_v1","""event"",""trial"",""time""
""fullscreenenter"",""1"",""3237""
","
","
","""event"",""trial"",""time""
""fullscreenenter"",""1"",""3237""
","
","","","","","","1943.800000000745","<p> If you choose not to give them the equipment, you will not win or lose any points. </p><p>  However, in the center of the screen, you will see the number of points you WOULD HAVE won or lost if you had given them the equipment. </p>","","0","instructions","","","","","","","","","","",""
"learning-instructions","19","321631","0.0-8.0-0.0-0.11","6381","1","9","Male","approach_avoid_spark_v1","""event"",""trial"",""time""
""fullscreenenter"",""1"",""3237""
","
","
","""event"",""trial"",""time""
""fullscreenenter"",""1"",""3237""
","
","","","","","","2397.300000000745","<p> Here is what you might see if you did not give the equipment to the kids but it would have made them happy: </p><p style=""color:grey; font-size:50px; display: inline-block; border-spacing: 15px; border-width:3px; border-style:solid; border-color:red"">  &nbsp; 7 &nbsp; </p><p> Remember, in this case, you would not win or lose ANY points because you did not give them the equipment.  </p><p style=""color:grey"">The text is GREY because you earned ZERO points. </p><p style=""color:red"">However, choosing to give the kids the equipment would have made you win points. The box around the text is RED because you chose the worse option. </p>","","0","instructions","","","","","","","","","","",""
"learning-instructions","20","347365","0.0-8.0-0.0-0.12","6381","1","9","Male","approach_avoid_spark_v1","""event"",""trial"",""time""
""fullscreenenter"",""1"",""3237""
","
","
","""event"",""trial"",""time""
""fullscreenenter"",""1"",""3237""
","
","","","","","","4663.400000002235","<p> Here is what you might see if you did not give the equipment to the kids but it would have made them sad: </p><p style=""color:grey;font-size:50px; display: inline-block; border-spacing: 15px; border-width:3px; border-style:solid; border-color:green"">  &nbsp; -8 &nbsp; </p><p> Remember, in this case, you would not win or lose ANY points because you did not give them the equipment.  </p><p style=""color:grey"">The text is GREY because you earned ZERO points. </p><p  style=""color:green""> Choosing to give the kids the equipment would have made you lose points. The box around the text is GREEN because you chose the better option.</p>","","0","instructions","","","","","","","","","","",""
"learning-instructions","21","368025","0.0-8.0-0.0-0.13","6381","1","9","Male","approach_avoid_spark_v1","""event"",""trial"",""time""
""fullscreenenter"",""1"",""3237""
","
","
","""event"",""trial"",""time""
""fullscreenenter"",""1"",""3237""
","
","","","","","","6987.099999997765","<p> You will have 3 seconds to make each choice. Try to respond before time runs out! </p><p> You will lose 5 points each time you do not make a response. </p>","","0","instructions","","","","","","","","","","",""
"learning-instructions","22","378819","0.0-8.0-0.0-0.14","6381","1","9","Male","approach_avoid_spark_v1","""event"",""trial"",""time""
""fullscreenenter"",""1"",""3237""
","
","
","""event"",""trial"",""time""
""fullscreenenter"",""1"",""3237""
","
","","","","","","5377.099999997765","<p> This is just a practice round, but in the real game, your bonus payment will depend on your total number of points.","","0","instructions","","","","","","","","","","",""
"learning-instructions","23","387354","0.0-8.0-0.0-0.15","6381","1","9","Male","approach_avoid_spark_v1","""event"",""trial"",""time""
""fullscreenenter"",""1"",""3237""
","
","
","""event"",""trial"",""time""
""fullscreenenter"",""1"",""3237""
","
","","","","","","2775.300000000745","<p> Remember, you can give them the equipment by pressing 1 and choose not to give it to them by pressing 0. </p><br><div class=""choice-instructions-grid""> <div class=""choice-option""><img src=""images/approach.png"" class=""choice-option-img"" stage=""instructions"" position=""0"" ><div class=""choice-option-text""> Press ""1."" </div></div><div class=""choice-option""><img src=""images/avoid.png"" class=""choice-option-img"" stage=""instructions"" position=""1"" ><div class=""choice-option-text""> Press ""0."" </div></div>","","0","instructions","","","","","","","","","","",""
"html-button-response","24","388849","0.0-8.0-1.0","6381","1","9","Male","approach_avoid_spark_v1","""event"",""trial"",""time""
""fullscreenenter"",""1"",""3237""
","
","
","""event"",""trial"",""time""
""fullscreenenter"",""1"",""3237""
","
","","","","","","1390.699999999255","<p> Ready to practice? </p>","0","","","","","","","","","","","","",""
"html-keyboard-response","25","389456","0.0-8.0-2.0-0.0","6381","1","9","Male","approach_avoid_spark_v1","""event"",""trial"",""time""
""fullscreenenter"",""1"",""3237""
","
","
","""event"",""trial"",""time""
""fullscreenenter"",""1"",""3237""
","
","","","","","","null","<div style=""font-size:60px;"">+</div>","null","","fixation","","","","","","","","","","",""
"aa-learning-trial","26","392464","0.0-8.0-2.0-1.0","6381","1","9","Male","approach_avoid_spark_v1","""event"",""trial"",""time""
""fullscreenenter"",""1"",""3237""
","
","
","""event"",""trial"",""time""
""fullscreenenter"",""1"",""3237""
","
","","","","","","null","images/racket3.png","","","learning","-6","-5","","null","practice","practice","practice","-1","","",""
"html-keyboard-response","27","392968","0.0-8.0-2.0-0.1","6381","1","9","Male","approach_avoid_spark_v1","""event"",""trial"",""time""
""fullscreenenter"",""1"",""3237""
","
","
","""event"",""trial"",""time""
""fullscreenenter"",""1"",""3237""
","
","","","","","","null","<div style=""font-size:60px;"">+</div>","null","","fixation","","","","","","","","","","",""
"aa-learning-trial","28","395976","0.0-8.0-2.0-1.1","6381","1","9","Male","approach_avoid_spark_v1","""event"",""trial"",""time""
""fullscreenenter"",""1"",""3237""
","
","
","""event"",""trial"",""time""
""fullscreenenter"",""1"",""3237""
","
","","","","","","null","images/ball4.png","","","learning","-7","-5","","null","practice","practice","practice","-1","","",""
"html-keyboard-response","29","396480","0.0-8.0-2.0-0.2","6381","1","9","Male","approach_avoid_spark_v1","""event"",""trial"",""time""
""fullscreenenter"",""1"",""3237""
","
","
","""event"",""trial"",""time""
""fullscreenenter"",""1"",""3237""
","
","","","","","","null","<div style=""font-size:60px;"">+</div>","null","","fixation","","","","","","","","","","",""
"aa-learning-trial","30","399488","0.0-8.0-2.0-1.2","6381","1","9","Male","approach_avoid_spark_v1","""event"",""trial"",""time""
""fullscreenenter"",""1"",""3237""
","
","
","""event"",""trial"",""time""
""fullscreenenter"",""1"",""3237""
","
","","","","","","null","images/ball1.png","","","learning","7","-5","","null","practice","practice","practice","-1","","",""
"html-keyboard-response","31","399992","0.0-8.0-2.0-0.3","6381","1","9","Male","approach_avoid_spark_v1","""event"",""trial"",""time""
""fullscreenenter"",""1"",""3237""
","
","
","""event"",""trial"",""time""
""fullscreenenter"",""1"",""3237""
","
","","","","","","null","<div style=""font-size:60px;"">+</div>","null","","fixation","","","","","","","","","","",""
"aa-learning-trial","32","403000","0.0-8.0-2.0-1.3","6381","1","9","Male","approach_avoid_spark_v1","""event"",""trial"",""time""
""fullscreenenter"",""1"",""3237""
","
","
","""event"",""trial"",""time""
""fullscreenenter"",""1"",""3237""
","
","","","","","","null","images/racket1.png","","","learning","1","-5","","null","practice","practice","practice","-1","","",""
"html-keyboard-response","33","403504","0.0-8.0-2.0-0.4","6381","1","9","Male","approach_avoid_spark_v1","""event"",""trial"",""time""
""fullscreenenter"",""1"",""3237""
","
","
","""event"",""trial"",""time""
""fullscreenenter"",""1"",""3237""
","
","","","","","","null","<div style=""font-size:60px;"">+</div>","null","","fixation","","","","","","","","","","",""
"aa-learning-trial","34","406512","0.0-8.0-2.0-1.4","6381","1","9","Male","approach_avoid_spark_v1","""event"",""trial"",""time""
""fullscreenenter"",""1"",""3237""
","
","
","""event"",""trial"",""time""
""fullscreenenter"",""1"",""3237""
","
","","","","","","700.8999999985099","images/ball3.png","","","learning","9","9","1","1","practice","practice","practice","-1","","",""
"html-keyboard-response","35","407016","0.0-8.0-2.0-0.5","6381","1","9","Male","approach_avoid_spark_v1","""event"",""trial"",""time""
""fullscreenenter"",""1"",""3237""
","
","
","""event"",""trial"",""time""
""fullscreenenter"",""1"",""3237""
","
","","","","","","null","<div style=""font-size:60px;"">+</div>","null","","fixation","","","","","","","","","","",""
"aa-learning-trial","36","410024","0.0-8.0-2.0-1.5","6381","1","9","Male","approach_avoid_spark_v1","""event"",""trial"",""time""
""fullscreenenter"",""1"",""3237""
","
","
","""event"",""trial"",""time""
""fullscreenenter"",""1"",""3237""
","
","","","","","","635.3000000007451","images/racket3.png","","","learning","-5","-5","1","1","practice","practice","practice","-1","","",""
"html-keyboard-response","37","410528","0.0-8.0-2.0-0.6","6381","1","9","Male","approach_avoid_spark_v1","""event"",""trial"",""time""
""fullscreenenter"",""1"",""3237""
","
","
","""event"",""trial"",""time""
""fullscreenenter"",""1"",""3237""
","
","","","","","","null","<div style=""font-size:60px;"">+</div>","null","","fixation","","","","","","","","","","",""
"aa-learning-trial","38","413536","0.0-8.0-2.0-1.6","6381","1","9","Male","approach_avoid_spark_v1","""event"",""trial"",""time""
""fullscreenenter"",""1"",""3237""
","
","
","""event"",""trial"",""time""
""fullscreenenter"",""1"",""3237""
","
","","","","","","708","images/ball2.png","","","learning","2","2","1","1","practice","practice","practice","-1","","",""
"html-keyboard-response","39","414040","0.0-8.0-2.0-0.7","6381","1","9","Male","approach_avoid_spark_v1","""event"",""trial"",""time""
""fullscreenenter"",""1"",""3237""
","
","
","""event"",""trial"",""time""
""fullscreenenter"",""1"",""3237""
","
","","","","","","null","<div style=""font-size:60px;"">+</div>","null","","fixation","","","","","","","","","","",""
"aa-learning-trial","40","417049","0.0-8.0-2.0-1.7","6381","1","9","Male","approach_avoid_spark_v1","""event"",""trial"",""time""
""fullscreenenter"",""1"",""3237""
","
","
","""event"",""trial"",""time""
""fullscreenenter"",""1"",""3237""
","
","","","","","","897.8000000007451","images/ball2.png","","","learning","-5","-5","1","1","practice","practice","practice","-1","","",""
"html-keyboard-response","41","417552","0.0-8.0-2.0-0.8","6381","1","9","Male","approach_avoid_spark_v1","""event"",""trial"",""time""
""fullscreenenter"",""1"",""3237""
","
","
","""event"",""trial"",""time""
""fullscreenenter"",""1"",""3237""
","
","","","","","","null","<div style=""font-size:60px;"">+</div>","null","","fixation","","","","","","","","","","",""
"aa-learning-trial","42","420560","0.0-8.0-2.0-1.8","6381","1","9","Male","approach_avoid_spark_v1","""event"",""trial"",""time""
""fullscreenenter"",""1"",""3237""
","
","
","""event"",""trial"",""time""
""fullscreenenter"",""1"",""3237""
","
","","","","","","820","images/ball4.png","","","learning","-6","-6","1","1","practice","practice","practice","-1","","",""
"html-keyboard-response","43","421064","0.0-8.0-2.0-0.9","6381","1","9","Male","approach_avoid_spark_v1","""event"",""trial"",""time""
""fullscreenenter"",""1"",""3237""
","
","
","""event"",""trial"",""time""
""fullscreenenter"",""1"",""3237""
","
","","","","","","null","<div style=""font-size:60px;"">+</div>","null","","fixation","","","","","","","","","","",""
"aa-learning-trial","44","424072","0.0-8.0-2.0-1.9","6381","1","9","Male","approach_avoid_spark_v1","""event"",""trial"",""time""
""fullscreenenter"",""1"",""3237""
","
","
","""event"",""trial"",""time""
""fullscreenenter"",""1"",""3237""
","
","","","","","","1359.5","images/ball3.png","","","learning","-6","-5","2","","practice","practice","practice","-1","","",""
"html-keyboard-response","45","424577","0.0-8.0-2.0-0.10","6381","1","9","Male","approach_avoid_spark_v1","""event"",""trial"",""time""
""fullscreenenter"",""1"",""3237""
","
","
","""event"",""trial"",""time""
""fullscreenenter"",""1"",""3237""
","
","","","","","","null","<div style=""font-size:60px;"">+</div>","null","","fixation","","","","","","","","","","",""
"aa-learning-trial","46","427584","0.0-8.0-2.0-1.10","6381","1","9","Male","approach_avoid_spark_v1","""event"",""trial"",""time""
""fullscreenenter"",""1"",""3237""
","
","
","""event"",""trial"",""time""
""fullscreenenter"",""1"",""3237""
","
","","","","","","62.30000000074506","images/racket3.png","","","learning","2","0","0","0","practice","practice","practice","-1","","",""
"html-keyboard-response","47","428088","0.0-8.0-2.0-0.11","6381","1","9","Male","approach_avoid_spark_v1","""event"",""trial"",""time""
""fullscreenenter"",""1"",""3237""
","
","
","""event"",""trial"",""time""
""fullscreenenter"",""1"",""3237""
","
","","","","","","null","<div style=""font-size:60px;"">+</div>","null","","fixation","","","","","","","","","","",""
"aa-learning-trial","48","431096","0.0-8.0-2.0-1.11","6381","1","9","Male","approach_avoid_spark_v1","""event"",""trial"",""time""
""fullscreenenter"",""1"",""3237""
","
","
","""event"",""trial"",""time""
""fullscreenenter"",""1"",""3237""
","
","","","","","","622.2000000029802","images/ball3.png","","","learning","2","2","1","1","practice","practice","practice","-1","","",""
"html-button-response","49","434572","0.0-8.0-3.0","6381","1","9","Male","approach_avoid_spark_v1","""event"",""trial"",""time""
""fullscreenenter"",""1"",""3237""
","
","
","""event"",""trial"",""time""
""fullscreenenter"",""1"",""3237""
","
","","","","","","3473.39999999851","<p> You earned -28 points in the practice round! </p>","0","","break","","","","","","","","","","",""
"learning-instructions","50","442665","0.0-8.0-4.0-0.0","6381","1","9","Male","approach_avoid_spark_v1","""event"",""trial"",""time""
""fullscreenenter"",""1"",""3237""
","
","
","""event"",""trial"",""time""
""fullscreenenter"",""1"",""3237""
","
","","","","","","2041.5","<p> It's almost time to start the real game. </p><p> Before you start, we're going to ask you a few questions about how the game works. </p>","","0","instructions","","","","","","","","","","",""
"preload","51","456173","0.0-8.0-5.0","6381","1","9","Male","approach_avoid_spark_v1","""event"",""trial"",""time""
""fullscreenenter"",""1"",""3237""
","
","
","""event"",""trial"",""time""
""fullscreenenter"",""1"",""3237""
","
","true","false","[]","[]","[]","","","","","","","","","","","","","","","",""
"comp-q","52","465814","0.0-8.0-6.0-0.0","6381","1","9","Male","approach_avoid_spark_v1","""event"",""trial"",""time""
""fullscreenenter"",""1"",""3237""
","
","
","""event"",""trial"",""time""
""fullscreenenter"",""1"",""3237""
","
","","","","","","4635.60000000149","<p> <b> True or False? </b> </p><p> If you see a number in GREY, that means you earned that many points. </p>","","1","comp_question","","","","","","","","","true","",""
"comp-q","53","476536","0.0-8.0-6.0-1.0","6381","1","9","Male","approach_avoid_spark_v1","""event"",""trial"",""time""
""fullscreenenter"",""1"",""3237""
","
","
","""event"",""trial"",""time""
""fullscreenenter"",""1"",""3237""
","
","","","","","","2365.89999999851","<p><b> That's right! </b> If you see a grey number, it means you earned ZERO points. <br> The grey numbers show the points you WOULD HAVE earned if you had made the other choice. </p>","","0","comp_answer","","","","","","","","","","",""
"comp-q","54","483164","0.0-8.0-7.0-0.0","6381","1","9","Male","approach_avoid_spark_v1","""event"",""trial"",""time""
""fullscreenenter"",""1"",""3237""
","
","
","""event"",""trial"",""time""
""fullscreenenter"",""1"",""3237""
","
","","","","","","1933.0999999977648","<p> <b> True or False? </b> </p><p> You will have as much time as you want to make each choice. </p>","","1","comp_question","","","","","","","","","true","",""
"comp-q","55","488641","0.0-8.0-7.0-1.0","6381","1","9","Male","approach_avoid_spark_v1","""event"",""trial"",""time""
""fullscreenenter"",""1"",""3237""
","
","
","""event"",""trial"",""time""
""fullscreenenter"",""1"",""3237""
","
","","","","","","1437.300000000745","<p> <b> That's right! </b> You will only have 3 seconds to make each choice. </p>","","0","comp_answer","","","","","","","","","","",""
"comp-q","56","494854","0.0-8.0-8.0-0.0","6381","1","9","Male","approach_avoid_spark_v1","""event"",""trial"",""time""
""fullscreenenter"",""1"",""3237""
","
","
","""event"",""trial"",""time""
""fullscreenenter"",""1"",""3237""
","
","","","","","","1559.199999999255","<p> <b> True or False? </b> </p><p> You should use the '1' and '0' keys to make your choices. </p>","","0","comp_question","","","","","","","","","true","",""
"comp-q","57","502218","0.0-8.0-8.0-1.0","6381","1","9","Male","approach_avoid_spark_v1","""event"",""trial"",""time""
""fullscreenenter"",""1"",""3237""
","
","
","""event"",""trial"",""time""
""fullscreenenter"",""1"",""3237""
","
","","","","","","2746.800000000745","<p> <b> That's right! </b> You should use the '1' and '0' keys to make each choice. </p>","","0","comp_answer","","","","","","","","","","",""
"learning-instructions","58","510928","0.0-8.0-9.0-0.0","6381","1","9","Male","approach_avoid_spark_v1","""event"",""trial"",""time""
""fullscreenenter"",""1"",""3237""
","
","
","""event"",""trial"",""time""
""fullscreenenter"",""1"",""3237""
","
","","","","","","2443.89999999851","<p> It's now time to start the real game. </p>Do your best, because the points you earn in the next rounds will influence your bonus payment. </p>","","0","instructions","","","","","","","","","","",""
"preload","59","511065","0.0-9.0-0.0","6381","1","9","Male","approach_avoid_spark_v1","""event"",""trial"",""time""
""fullscreenenter"",""1"",""3237""
","
","
","""event"",""trial"",""time""
""fullscreenenter"",""1"",""3237""
","
","true","false","[]","[]","[]","","","","","","","","","","","","","","","",""
"learning-instructions","60","518602","0.0-9.0-1.0-0.0","6381","1","9","Male","approach_avoid_spark_v1","""event"",""trial"",""time""
""fullscreenenter"",""1"",""3237""
","
","
","""event"",""trial"",""time""
""fullscreenenter"",""1"",""3237""
","
","","","","","","1861.800000000745","<p> Your goal in this round is to sell different plants to a picky customer. </p></div>","","0","instructions","","","","","","","","","","",""
"learning-instructions","61","534182","0.0-9.0-1.0-0.1","6381","1","9","Male","approach_avoid_spark_v1","""event"",""trial"",""time""
""fullscreenenter"",""1"",""3237""
","
","
","""event"",""trial"",""time""
""fullscreenenter"",""1"",""3237""
","
","","","","","","4939.60000000149","<p> The customer likes some plants and dislikes others.  </p><p> On each turn, you will see a plant.   </p><p> You need to decide whether to offer it to the customer or not.  </p>","","0","instructions","","","","","","","","","","",""
"learning-instructions","62","543164","0.0-9.0-1.0-0.2","6381","1","9","Male","approach_avoid_spark_v1","""event"",""trial"",""time""
""fullscreenenter"",""1"",""3237""
","
","
","""event"",""trial"",""time""
""fullscreenenter"",""1"",""3237""
","
","","","","","","2646.300000000745","<p> You can offer the plant by pressing 1 and decide to not offer it by pressing 0. </p><br><div class=""choice-instructions-grid""> <div class=""choice-option""><img src=""images/approach.png"" class=""choice-option-img"" stage=""instructions"" position=""0"" ><div class=""choice-option-text""> Press ""1."" </div></div><div class=""choice-option""><img src=""images/avoid.png"" class=""choice-option-img"" stage=""instructions"" position=""1"" ><div class=""choice-option-text""> Press ""0."" </div></div>","","0","instructions","","","","","","","","","","",""
"learning-instructions","63","554574","0.0-9.0-1.0-0.3","6381","1","9","Male","approach_avoid_spark_v1","""event"",""trial"",""time""
""fullscreenenter"",""1"",""3237""
","
","
","""event"",""trial"",""time""
""fullscreenenter"",""1"",""3237""
","
","","","","","","1257.2999999970198","<p> If you offer a plant to the customer that she likes, she will be very pleased! </p><p> But if you offer a plant that she does NOT like, she will be annoyed. </p>","","0","instructions","","","","","","","","","","",""
"learning-instructions","64","570210","0.0-9.0-1.0-0.4","6381","1","9","Male","approach_avoid_spark_v1","""event"",""trial"",""time""
""fullscreenenter"",""1"",""3237""
","
","
","""event"",""trial"",""time""
""fullscreenenter"",""1"",""3237""
","
","","","","","","1533.2999999970198","<p> You will earn points based on how you made the customer feel. </p><p> If you made her pleased, you will WIN anywhere from 1 - 9 points, </p><p> but if you made her annoyed, you will LOSE anywhere from 1 - 9 points. </p>","","0","instructions","","","","","","","","","","",""
"learning-instructions","65","579716","0.0-9.0-1.0-0.5","6381","1","9","Male","approach_avoid_spark_v1","""event"",""trial"",""time""
""fullscreenenter"",""1"",""3237""
","
","
","""event"",""trial"",""time""
""fullscreenenter"",""1"",""3237""
","
","","","","","","1269","<p> You will see how many points you won or lost in the center of the screen. </p><p> Here is what you would see if you won 5 points: </p><p style=""color:green;font-size:50px;font-weight:bolder"">5</p>","","0","instructions","","","","","","","","","","",""
"learning-instructions","66","585696","0.0-9.0-1.0-0.6","6381","1","9","Male","approach_avoid_spark_v1","""event"",""trial"",""time""
""fullscreenenter"",""1"",""3237""
","
","
","""event"",""trial"",""time""
""fullscreenenter"",""1"",""3237""
","
","","","","","","1766.1000000014901","<p> And here is what you would see if you lost 3 points: </p><p style=""color:red;font-size:50px;font-weight:bolder"">-3</p>","","0","instructions","","","","","","","","","","",""
"learning-instructions","67","603491","0.0-9.0-1.0-0.7","6381","1","9","Male","approach_avoid_spark_v1","""event"",""trial"",""time""
""fullscreenenter"",""1"",""3237""
","
","
","""event"",""trial"",""time""
""fullscreenenter"",""1"",""3237""
","
","","","","","","1129.0999999977648","<p> Some plants will make the customer VERY pleased or annoyed. </p><p> These plants will make you win or lose LOTS of points. </p><p> The customer will have less strong feelings about other plants. </p><p> These plants will make you win or lose small amounts of points. </p>","","0","instructions","","","","","","","","","","",""
"learning-instructions","68","619269","0.0-9.0-1.0-0.8","6381","1","9","Male","approach_avoid_spark_v1","""event"",""trial"",""time""
""fullscreenenter"",""1"",""3237""
","
","
","""event"",""trial"",""time""
""fullscreenenter"",""1"",""3237""
","
","","","","","","1141.7000000029802","<p> If you choose to not offer the plant to the customer, you will not win or lose any points. </p><p>  However, in the center of the screen, you will see the number of points you WOULD HAVE won or lost if you had offered the plant. </p>","","0","instructions","","","","","","","","","","",""
"learning-instructions","69","633366","0.0-9.0-1.0-0.9","6381","1","9","Male","approach_avoid_spark_v1","""event"",""trial"",""time""
""fullscreenenter"",""1"",""3237""
","
","
","""event"",""trial"",""time""
""fullscreenenter"",""1"",""3237""
","
","","","","","","753.8000000007451","<p> Here is what you might see if you did not offer the plant but the customer would have liked it: </p><p style=""color:grey; font-size:50px; display: inline-block; border-spacing: 15px; border-width:3px; border-style:solid; border-color:red"">  &nbsp; 6 &nbsp; </p><p> Remember, in this case, you would not win or lose ANY points because you did not offer the plant.  </p>","","0","instructions","","","","","","","","","","",""
"learning-instructions","70","645125","0.0-9.0-1.0-0.10","6381","1","9","Male","approach_avoid_spark_v1","""event"",""trial"",""time""
""fullscreenenter"",""1"",""3237""
","
","
","""event"",""trial"",""time""
""fullscreenenter"",""1"",""3237""
","
","","","","","","2986.400000002235","<p> Try to make the best choice for each plant because </p><p> at the end of the game, you will earn bonus money based on how many points you earned. </p>","","0","instructions","","","","","","","","","","",""
"learning-instructions","71","655807","0.0-9.0-1.0-0.11","6381","1","9","Male","approach_avoid_spark_v1","""event"",""trial"",""time""
""fullscreenenter"",""1"",""3237""
","
","
","""event"",""trial"",""time""
""fullscreenenter"",""1"",""3237""
","
","","","","","","2490","<p> You will have 3 seconds to make each choice. Try to respond before time runs out! </p><p> You will lose 5 points each time you do not make a response. </p>","","0","instructions","","","","","","","","","","",""
"html-keyboard-response","72","656416","0.0-9.0-2.0-0.0","6381","1","9","Male","approach_avoid_spark_v1","""event"",""trial"",""time""
""fullscreenenter"",""1"",""3237""
","
","
","""event"",""trial"",""time""
""fullscreenenter"",""1"",""3237""
","
","","","","","","null","<div style=""font-size:60px;"">+</div>","null","","fixation","","","","","","","","","","",""
"aa-learning-trial","73","659424","0.0-9.0-2.0-1.0","6381","1","9","Male","approach_avoid_spark_v1","""event"",""trial"",""time""
""fullscreenenter"",""1"",""3237""
","
","
","""event"",""trial"",""time""
""fullscreenenter"",""1"",""3237""
","
","","","","","","1052.4000000022352","images/cactus8.png","","","learning","-2","-2","1","1","cactus","plants","1","0","","neutral","0"
"html-keyboard-response","74","659928","0.0-9.0-2.0-0.1","6381","1","9","Male","approach_avoid_spark_v1","""event"",""trial"",""time""
""fullscreenenter"",""1"",""3237""
","
","
","""event"",""trial"",""time""
""fullscreenenter"",""1"",""3237""
","
","","","","","","null","<div style=""font-size:60px;"">+</div>","null","","fixation","","","","","","","","","","",""
"aa-learning-trial","75","662937","0.0-9.0-2.0-1.1","6381","1","9","Male","approach_avoid_spark_v1","""event"",""trial"",""time""
""fullscreenenter"",""1"",""3237""
","
","
","""event"",""trial"",""time""
""fullscreenenter"",""1"",""3237""
","
","","","","","","1142.7000000029802","images/bush1.png","","","learning","-5","-5","1","1","bush","plants","1","0","","bad","[-6]"
"html-keyboard-response","76","663440","0.0-9.0-2.0-0.2","6381","1","9","Male","approach_avoid_spark_v1","""event"",""trial"",""time""
""fullscreenenter"",""1"",""3237""
","
","
","""event"",""trial"",""time""
""fullscreenenter"",""1"",""3237""
","
","","","","","","null","<div style=""font-size:60px;"">+</div>","null","","fixation","","","","","","","","","","",""
"aa-learning-trial","77","666448","0.0-9.0-2.0-1.2","6381","1","9","Male","approach_avoid_spark_v1","""event"",""trial"",""time""
""fullscreenenter"",""1"",""3237""
","
","
","""event"",""trial"",""time""
""fullscreenenter"",""1"",""3237""
","
","","","","","","1233.4000000022352","images/tree8.png","","","learning","5","0","0","0","tree","plants","1","0","","good","[3]"
"html-keyboard-response","78","666952","0.0-9.0-2.0-0.3","6381","1","9","Male","approach_avoid_spark_v1","""event"",""trial"",""time""
""fullscreenenter"",""1"",""3237""
","
","
","""event"",""trial"",""time""
""fullscreenenter"",""1"",""3237""
","
","","","","","","null","<div style=""font-size:60px;"">+</div>","null","","fixation","","","","","","","","","","",""
"aa-learning-trial","79","669961","0.0-9.0-2.0-1.3","6381","1","9","Male","approach_avoid_spark_v1","""event"",""trial"",""time""
""fullscreenenter"",""1"",""3237""
","
","
","""event"",""trial"",""time""
""fullscreenenter"",""1"",""3237""
","
","","","","","","660.0999999977648","images/cactus2.png","","","learning","-1","-1","1","1","cactus","plants","1","0","","neutral","0"
"html-keyboard-response","80","670464","0.0-9.0-2.0-0.4","6381","1","9","Male","approach_avoid_spark_v1","""event"",""trial"",""time""
""fullscreenenter"",""1"",""3237""
","
","
","""event"",""trial"",""time""
""fullscreenenter"",""1"",""3237""
","
","","","","","","null","<div style=""font-size:60px;"">+</div>","null","","fixation","","","","","","","","","","",""
"aa-learning-trial","81","673472","0.0-9.0-2.0-1.4","6381","1","9","Male","approach_avoid_spark_v1","""event"",""trial"",""time""
""fullscreenenter"",""1"",""3237""
","
","
","""event"",""trial"",""time""
""fullscreenenter"",""1"",""3237""
","
","","","","","","1202.5","images/bush2.png","","","learning","-3","-3","1","1","bush","plants","1","0","","bad","[-6]"
"html-keyboard-response","82","673977","0.0-9.0-2.0-0.5","6381","1","9","Male","approach_avoid_spark_v1","""event"",""trial"",""time""
""fullscreenenter"",""1"",""3237""
","
","
","""event"",""trial"",""time""
""fullscreenenter"",""1"",""3237""
","
","","","","","","null","<div style=""font-size:60px;"">+</div>","null","","fixation","","","","","","","","","","",""
"aa-learning-trial","83","676985","0.0-9.0-2.0-1.5","6381","1","9","Male","approach_avoid_spark_v1","""event"",""trial"",""time""
""fullscreenenter"",""1"",""3237""
","
","
","""event"",""trial"",""time""
""fullscreenenter"",""1"",""3237""
","
","","","","","","522.8000000007451","images/cactus8.png","","","learning","1","0","0","0","cactus","plants","1","0","","neutral","0"
"html-keyboard-response","84","677488","0.0-9.0-2.0-0.6","6381","1","9","Male","approach_avoid_spark_v1","""event"",""trial"",""time""
""fullscreenenter"",""1"",""3237""
","
","
","""event"",""trial"",""time""
""fullscreenenter"",""1"",""3237""
","
","","","","","","null","<div style=""font-size:60px;"">+</div>","null","","fixation","","","","","","","","","","",""
"aa-learning-trial","85","680497","0.0-9.0-2.0-1.6","6381","1","9","Male","approach_avoid_spark_v1","""event"",""trial"",""time""
""fullscreenenter"",""1"",""3237""
","
","
","""event"",""trial"",""time""
""fullscreenenter"",""1"",""3237""
","
","","","","","","1245.0999999977648","images/tree3.png","","","learning","3","3","1","1","tree","plants","1","0","","good","[3]"
"html-keyboard-response","86","681000","0.0-9.0-2.0-0.7","6381","1","9","Male","approach_avoid_spark_v1","""event"",""trial"",""time""
""fullscreenenter"",""1"",""3237""
","
","
","""event"",""trial"",""time""
""fullscreenenter"",""1"",""3237""
","
","","","","","","null","<div style=""font-size:60px;"">+</div>","null","","fixation","","","","","","","","","","",""
"aa-learning-trial","87","684009","0.0-9.0-2.0-1.7","6381","1","9","Male","approach_avoid_spark_v1","""event"",""trial"",""time""
""fullscreenenter"",""1"",""3237""
","
","
","""event"",""trial"",""time""
""fullscreenenter"",""1"",""3237""
","
","","","","","","1273.0999999977648","images/cactus2.png","","","learning","2","0","0","0","cactus","plants","1","0","","neutral","0"
"html-keyboard-response","88","684513","0.0-9.0-2.0-0.8","6381","1","9","Male","approach_avoid_spark_v1","""event"",""trial"",""time""
""fullscreenenter"",""1"",""3237""
","
","
","""event"",""trial"",""time""
""fullscreenenter"",""1"",""3237""
","
","","","","","","null","<div style=""font-size:60px;"">+</div>","null","","fixation","","","","","","","","","","",""
"aa-learning-trial","89","687517","0.0-9.0-2.0-1.8","6381","1","9","Male","approach_avoid_spark_v1","""event"",""trial"",""time""
""fullscreenenter"",""1"",""3237""
","
","
","""event"",""trial"",""time""
""fullscreenenter"",""1"",""3237""
","
","","","","","","1347.6000000014901","images/bush1.png","","","learning","-4","-4","1","1","bush","plants","1","0","","bad","[-6]"
"html-keyboard-response","90","688024","0.0-9.0-2.0-0.9","6381","1","9","Male","approach_avoid_spark_v1","""event"",""trial"",""time""
""fullscreenenter"",""1"",""3237""
","
","
","""event"",""trial"",""time""
""fullscreenenter"",""1"",""3237""
","
","","","","","","null","<div style=""font-size:60px;"">+</div>","null","","fixation","","","","","","","","","","",""
"aa-learning-trial","91","691032","0.0-9.0-2.0-1.9","6381","1","9","Male","approach_avoid_spark_v1","""event"",""trial"",""time""
""fullscreenenter"",""1"",""3237""
","
","
","""event"",""trial"",""time""
""fullscreenenter"",""1"",""3237""
","
","","","","","","1212.3999999985099","images/cactus6.png","","","learning","-2","0","0","0","cactus","plants","1","0","","neutral","0"
"html-keyboard-response","92","691536","0.0-9.0-2.0-0.10","6381","1","9","Male","approach_avoid_spark_v1","""event"",""trial"",""time""
""fullscreenenter"",""1"",""3237""
","
","
","""event"",""trial"",""time""
""fullscreenenter"",""1"",""3237""
","
","","","","","","null","<div style=""font-size:60px;"">+</div>","null","","fixation","","","","","","","","","","",""
"aa-learning-trial","93","694545","0.0-9.0-2.0-1.10","6381","1","9","Male","approach_avoid_spark_v1","""event"",""trial"",""time""
""fullscreenenter"",""1"",""3237""
","
","
","""event"",""trial"",""time""
""fullscreenenter"",""1"",""3237""
","
","","","","","","804.5","images/tree4.png","","","learning","3","3","1","1","tree","plants","1","0","","good","[3]"
"html-keyboard-response","94","695049","0.0-9.0-2.0-0.11","6381","1","9","Male","approach_avoid_spark_v1","""event"",""trial"",""time""
""fullscreenenter"",""1"",""3237""
","
","
","""event"",""trial"",""time""
""fullscreenenter"",""1"",""3237""
","
","","","","","","null","<div style=""font-size:60px;"">+</div>","null","","fixation","","","","","","","","","","",""
"aa-learning-trial","95","698057","0.0-9.0-2.0-1.11","6381","1","9","Male","approach_avoid_spark_v1","""event"",""trial"",""time""
""fullscreenenter"",""1"",""3237""
","
","
","""event"",""trial"",""time""
""fullscreenenter"",""1"",""3237""
","
","","","","","","1327.0999999977648","images/tree8.png","","","learning","6","6","1","1","tree","plants","1","0","","good","[3]"
"html-keyboard-response","96","698560","0.0-9.0-2.0-0.12","6381","1","9","Male","approach_avoid_spark_v1","""event"",""trial"",""time""
""fullscreenenter"",""1"",""3237""
","
","
","""event"",""trial"",""time""
""fullscreenenter"",""1"",""3237""
","
","","","","","","null","<div style=""font-size:60px;"">+</div>","null","","fixation","","","","","","","","","","",""
"aa-learning-trial","97","701569","0.0-9.0-2.0-1.12","6381","1","9","Male","approach_avoid_spark_v1","""event"",""trial"",""time""
""fullscreenenter"",""1"",""3237""
","
","
","""event"",""trial"",""time""
""fullscreenenter"",""1"",""3237""
","
","","","","","","1102.199999999255","images/bush2.png","","","learning","-6","0","0","0","bush","plants","1","0","","bad","[-6]"
"html-keyboard-response","98","702072","0.0-9.0-2.0-0.13","6381","1","9","Male","approach_avoid_spark_v1","""event"",""trial"",""time""
""fullscreenenter"",""1"",""3237""
","
","
","""event"",""trial"",""time""
""fullscreenenter"",""1"",""3237""
","
","","","","","","null","<div style=""font-size:60px;"">+</div>","null","","fixation","","","","","","","","","","",""
"aa-learning-trial","99","705081","0.0-9.0-2.0-1.13","6381","1","9","Male","approach_avoid_spark_v1","""event"",""trial"",""time""
""fullscreenenter"",""1"",""3237""
","
","
","""event"",""trial"",""time""
""fullscreenenter"",""1"",""3237""
","
","","","","","","1060.699999999255","images/bush7.png","","","learning","-6","0","0","0","bush","plants","1","0","","bad","[-6]"
"html-keyboard-response","100","705584","0.0-9.0-2.0-0.14","6381","1","9","Male","approach_avoid_spark_v1","""event"",""trial"",""time""
""fullscreenenter"",""1"",""3237""
","
","
","""event"",""trial"",""time""
""fullscreenenter"",""1"",""3237""
","
","","","","","","null","<div style=""font-size:60px;"">+</div>","null","","fixation","","","","","","","","","","",""
"aa-learning-trial","101","708592","0.0-9.0-2.0-1.14","6381","1","9","Male","approach_avoid_spark_v1","""event"",""trial"",""time""
""fullscreenenter"",""1"",""3237""
","
","
","""event"",""trial"",""time""
""fullscreenenter"",""1"",""3237""
","
","","","","","","875.1999999992549","images/tree4.png","","","learning","1","1","1","1","tree","plants","1","0","","good","[3]"
"html-keyboard-response","102","709096","0.0-9.0-2.0-0.15","6381","1","9","Male","approach_avoid_spark_v1","""event"",""trial"",""time""
""fullscreenenter"",""1"",""3237""
","
","
","""event"",""trial"",""time""
""fullscreenenter"",""1"",""3237""
","
","","","","","","null","<div style=""font-size:60px;"">+</div>","null","","fixation","","","","","","","","","","",""
"aa-learning-trial","103","712104","0.0-9.0-2.0-1.15","6381","1","9","Male","approach_avoid_spark_v1","""event"",""trial"",""time""
""fullscreenenter"",""1"",""3237""
","
","
","""event"",""trial"",""time""
""fullscreenenter"",""1"",""3237""
","
","","","","","","1240.5","images/cactus8.png","","","learning","1","0","0","0","cactus","plants","1","0","","neutral","0"
"html-keyboard-response","104","712609","0.0-9.0-2.0-0.16","6381","1","9","Male","approach_avoid_spark_v1","""event"",""trial"",""time""
""fullscreenenter"",""1"",""3237""
","
","
","""event"",""trial"",""time""
""fullscreenenter"",""1"",""3237""
","
","","","","","","null","<div style=""font-size:60px;"">+</div>","null","","fixation","","","","","","","","","","",""
"aa-learning-trial","105","715616","0.0-9.0-2.0-1.16","6381","1","9","Male","approach_avoid_spark_v1","""event"",""trial"",""time""
""fullscreenenter"",""1"",""3237""
","
","
","""event"",""trial"",""time""
""fullscreenenter"",""1"",""3237""
","
","","","","","","1206.199999999255","images/tree4.png","","","learning","2","2","1","1","tree","plants","1","0","","good","[3]"
"html-keyboard-response","106","716120","0.0-9.0-2.0-0.17","6381","1","9","Male","approach_avoid_spark_v1","""event"",""trial"",""time""
""fullscreenenter"",""1"",""3237""
","
","
","""event"",""trial"",""time""
""fullscreenenter"",""1"",""3237""
","
","","","","","","null","<div style=""font-size:60px;"">+</div>","null","","fixation","","","","","","","","","","",""
"aa-learning-trial","107","719128","0.0-9.0-2.0-1.17","6381","1","9","Male","approach_avoid_spark_v1","""event"",""trial"",""time""
""fullscreenenter"",""1"",""3237""
","
","
","""event"",""trial"",""time""
""fullscreenenter"",""1"",""3237""
","
","","","","","","761.2000000029802","images/cactus2.png","","","learning","[1]","0","0","0","cactus","plants","1","0","","neutral","0"
"html-keyboard-response","108","719632","0.0-9.0-2.0-0.18","6381","1","9","Male","approach_avoid_spark_v1","""event"",""trial"",""time""
""fullscreenenter"",""1"",""3237""
","
","
","""event"",""trial"",""time""
""fullscreenenter"",""1"",""3237""
","
","","","","","","null","<div style=""font-size:60px;"">+</div>","null","","fixation","","","","","","","","","","",""
"aa-learning-trial","109","722640","0.0-9.0-2.0-1.18","6381","1","9","Male","approach_avoid_spark_v1","""event"",""trial"",""time""
""fullscreenenter"",""1"",""3237""
","
","
","""event"",""trial"",""time""
""fullscreenenter"",""1"",""3237""
","
","","","","","","1069.9000000022352","images/tree4.png","","","learning","3","3","1","1","tree","plants","1","0","","good","[3]"
"html-keyboard-response","110","723144","0.0-9.0-2.0-0.19","6381","1","9","Male","approach_avoid_spark_v1","""event"",""trial"",""time""
""fullscreenenter"",""1"",""3237""
","
","
","""event"",""trial"",""time""
""fullscreenenter"",""1"",""3237""
","
","","","","","","null","<div style=""font-size:60px;"">+</div>","null","","fixation","","","","","","","","","","",""
"aa-learning-trial","111","726152","0.0-9.0-2.0-1.19","6381","1","9","Male","approach_avoid_spark_v1","""event"",""trial"",""time""
""fullscreenenter"",""1"",""3237""
","
","
","""event"",""trial"",""time""
""fullscreenenter"",""1"",""3237""
","
","","","","","","725.0999999977648","images/cactus6.png","","","learning","2","0","0","0","cactus","plants","1","0","","neutral","0"
"html-keyboard-response","112","726656","0.0-9.0-2.0-0.20","6381","1","9","Male","approach_avoid_spark_v1","""event"",""trial"",""time""
""fullscreenenter"",""1"",""3237""
","
","
","""event"",""trial"",""time""
""fullscreenenter"",""1"",""3237""
","
","","","","","","null","<div style=""font-size:60px;"">+</div>","null","","fixation","","","","","","","","","","",""
"aa-learning-trial","113","729664","0.0-9.0-2.0-1.20","6381","1","9","Male","approach_avoid_spark_v1","""event"",""trial"",""time""
""fullscreenenter"",""1"",""3237""
","
","
","""event"",""trial"",""time""
""fullscreenenter"",""1"",""3237""
","
","","","","","","716.6000000014901","images/cactus8.png","","","learning","-1","-1","1","1","cactus","plants","1","0","","neutral","0"
"html-keyboard-response","114","730168","0.0-9.0-2.0-0.21","6381","1","9","Male","approach_avoid_spark_v1","""event"",""trial"",""time""
""fullscreenenter"",""1"",""3237""
","
","
","""event"",""trial"",""time""
""fullscreenenter"",""1"",""3237""
","
","","","","","","null","<div style=""font-size:60px;"">+</div>","null","","fixation","","","","","","","","","","",""
"aa-learning-trial","115","733176","0.0-9.0-2.0-1.21","6381","1","9","Male","approach_avoid_spark_v1","""event"",""trial"",""time""
""fullscreenenter"",""1"",""3237""
","
","
","""event"",""trial"",""time""
""fullscreenenter"",""1"",""3237""
","
","","","","","","1535.3999999985099","images/tree4.png","","","learning","2","2","1","1","tree","plants","1","0","","good","[3]"
"html-keyboard-response","116","733680","0.0-9.0-2.0-0.22","6381","1","9","Male","approach_avoid_spark_v1","""event"",""trial"",""time""
""fullscreenenter"",""1"",""3237""
","
","
","""event"",""trial"",""time""
""fullscreenenter"",""1"",""3237""
","
","","","","","","null","<div style=""font-size:60px;"">+</div>","null","","fixation","","","","","","","","","","",""
"aa-learning-trial","117","736688","0.0-9.0-2.0-1.22","6381","1","9","Male","approach_avoid_spark_v1","""event"",""trial"",""time""
""fullscreenenter"",""1"",""3237""
","
","
","""event"",""trial"",""time""
""fullscreenenter"",""1"",""3237""
","
","","","","","","650.5","images/cactus6.png","","","learning","-1","0","0","0","cactus","plants","1","0","","neutral","0"
"html-keyboard-response","118","737192","0.0-9.0-2.0-0.23","6381","1","9","Male","approach_avoid_spark_v1","""event"",""trial"",""time""
""fullscreenenter"",""1"",""3237""
","
","
","""event"",""trial"",""time""
""fullscreenenter"",""1"",""3237""
","
","","","","","","null","<div style=""font-size:60px;"">+</div>","null","","fixation","","","","","","","","","","",""
"aa-learning-trial","119","740200","0.0-9.0-2.0-1.23","6381","1","9","Male","approach_avoid_spark_v1","""event"",""trial"",""time""
""fullscreenenter"",""1"",""3237""
","
","
","""event"",""trial"",""time""
""fullscreenenter"",""1"",""3237""
","
","","","","","","906.6000000014901","images/cactus7.png","","","learning","-2","0","0","0","cactus","plants","1","0","","neutral","0"
"html-keyboard-response","120","740704","0.0-9.0-2.0-0.24","6381","1","9","Male","approach_avoid_spark_v1","""event"",""trial"",""time""
""fullscreenenter"",""1"",""3237""
","
","
","""event"",""trial"",""time""
""fullscreenenter"",""1"",""3237""
","
","","","","","","null","<div style=""font-size:60px;"">+</div>","null","","fixation","","","","","","","","","","",""
"aa-learning-trial","121","743712","0.0-9.0-2.0-1.24","6381","1","9","Male","approach_avoid_spark_v1","""event"",""trial"",""time""
""fullscreenenter"",""1"",""3237""
","
","
","""event"",""trial"",""time""
""fullscreenenter"",""1"",""3237""
","
","","","","","","1259.5","images/bush1.png","","","learning","-8","0","0","0","bush","plants","1","0","","bad","[-6]"
"html-keyboard-response","122","744216","0.0-9.0-2.0-0.25","6381","1","9","Male","approach_avoid_spark_v1","""event"",""trial"",""time""
""fullscreenenter"",""1"",""3237""
","
","
","""event"",""trial"",""time""
""fullscreenenter"",""1"",""3237""
","
","","","","","","null","<div style=""font-size:60px;"">+</div>","null","","fixation","","","","","","","","","","",""
"aa-learning-trial","123","747224","0.0-9.0-2.0-1.25","6381","1","9","Male","approach_avoid_spark_v1","""event"",""trial"",""time""
""fullscreenenter"",""1"",""3237""
","
","
","""event"",""trial"",""time""
""fullscreenenter"",""1"",""3237""
","
","","","","","","1459.8999999985099","images/bush2.png","","","learning","-8","-8","1","1","bush","plants","1","0","","bad","[-6]"
"html-keyboard-response","124","747728","0.0-9.0-2.0-0.26","6381","1","9","Male","approach_avoid_spark_v1","""event"",""trial"",""time""
""fullscreenenter"",""1"",""3237""
","
","
","""event"",""trial"",""time""
""fullscreenenter"",""1"",""3237""
","
","","","","","","null","<div style=""font-size:60px;"">+</div>","null","","fixation","","","","","","","","","","",""
"aa-learning-trial","125","750736","0.0-9.0-2.0-1.26","6381","1","9","Male","approach_avoid_spark_v1","""event"",""trial"",""time""
""fullscreenenter"",""1"",""3237""
","
","
","""event"",""trial"",""time""
""fullscreenenter"",""1"",""3237""
","
","","","","","","1544.800000000745","images/tree3.png","","","learning","3","3","1","1","tree","plants","1","0","","good","[3]"
"html-keyboard-response","126","751240","0.0-9.0-2.0-0.27","6381","1","9","Male","approach_avoid_spark_v1","""event"",""trial"",""time""
""fullscreenenter"",""1"",""3237""
","
","
","""event"",""trial"",""time""
""fullscreenenter"",""1"",""3237""
","
","","","","","","null","<div style=""font-size:60px;"">+</div>","null","","fixation","","","","","","","","","","",""
"aa-learning-trial","127","754248","0.0-9.0-2.0-1.27","6381","1","9","Male","approach_avoid_spark_v1","""event"",""trial"",""time""
""fullscreenenter"",""1"",""3237""
","
","
","""event"",""trial"",""time""
""fullscreenenter"",""1"",""3237""
","
","","","","","","2744.10000000149","images/bush7.png","","","learning","-6","-6","1","1","bush","plants","1","0","","bad","[-6]"
"html-keyboard-response","128","754752","0.0-9.0-2.0-0.28","6381","1","9","Male","approach_avoid_spark_v1","""event"",""trial"",""time""
""fullscreenenter"",""1"",""3237""
","
","
","""event"",""trial"",""time""
""fullscreenenter"",""1"",""3237""
","
","","","","","","null","<div style=""font-size:60px;"">+</div>","null","","fixation","","","","","","","","","","",""
"aa-learning-trial","129","757760","0.0-9.0-2.0-1.28","6381","1","9","Male","approach_avoid_spark_v1","""event"",""trial"",""time""
""fullscreenenter"",""1"",""3237""
","
","
","""event"",""trial"",""time""
""fullscreenenter"",""1"",""3237""
","
","","","","","","null","images/bush1.png","","","learning","-7","-5","","null","bush","plants","1","0","","bad","[-6]"
"html-keyboard-response","130","758264","0.0-9.0-2.0-0.29","6381","1","9","Male","approach_avoid_spark_v1","""event"",""trial"",""time""
""fullscreenenter"",""1"",""3237""
","
","
","""event"",""trial"",""time""
""fullscreenenter"",""1"",""3237""
","
","","","","","","null","<div style=""font-size:60px;"">+</div>","null","","fixation","","","","","","","","","","",""
"aa-learning-trial","131","761272","0.0-9.0-2.0-1.29","6381","1","9","Male","approach_avoid_spark_v1","""event"",""trial"",""time""
""fullscreenenter"",""1"",""3237""
","
","
","""event"",""trial"",""time""
""fullscreenenter"",""1"",""3237""
","
","","","","","","928","images/bush7.png","","","learning","-10","0","0","0","bush","plants","1","0","","bad","[-6]"
"html-keyboard-response","132","761776","0.0-9.0-2.0-0.30","6381","1","9","Male","approach_avoid_spark_v1","""event"",""trial"",""time""
""fullscreenenter"",""1"",""3237""
","
","
","""event"",""trial"",""time""
""fullscreenenter"",""1"",""3237""
","
","","","","","","null","<div style=""font-size:60px;"">+</div>","null","","fixation","","","","","","","","","","",""
"aa-learning-trial","133","764784","0.0-9.0-2.0-1.30","6381","1","9","Male","approach_avoid_spark_v1","""event"",""trial"",""time""
""fullscreenenter"",""1"",""3237""
","
","
","""event"",""trial"",""time""
""fullscreenenter"",""1"",""3237""
","
","","","","","","1251.699999999255","images/bush2.png","","","learning","-3","0","0","0","bush","plants","1","0","","bad","[-6]"
"html-keyboard-response","134","765288","0.0-9.0-2.0-0.31","6381","1","9","Male","approach_avoid_spark_v1","""event"",""trial"",""time""
""fullscreenenter"",""1"",""3237""
","
","
","""event"",""trial"",""time""
""fullscreenenter"",""1"",""3237""
","
","","","","","","null","<div style=""font-size:60px;"">+</div>","null","","fixation","","","","","","","","","","",""
"aa-learning-trial","135","768291","0.0-9.0-2.0-1.31","6381","1","9","Male","approach_avoid_spark_v1","""event"",""trial"",""time""
""fullscreenenter"",""1"",""3237""
","
","
","""event"",""trial"",""time""
""fullscreenenter"",""1"",""3237""
","
","","","","","","2699.300000000745","images/bush3.png","","","learning","-7","0","0","0","bush","plants","1","0","","bad","[-6]"
"html-keyboard-response","136","768794","0.0-9.0-2.0-0.32","6381","1","9","Male","approach_avoid_spark_v1","""event"",""trial"",""time""
""fullscreenenter"",""1"",""3237""
","
","
","""event"",""trial"",""time""
""fullscreenenter"",""1"",""3237""
","
","","","","","","null","<div style=""font-size:60px;"">+</div>","null","","fixation","","","","","","","","","","",""
"aa-learning-trial","137","771800","0.0-9.0-2.0-1.32","6381","1","9","Male","approach_avoid_spark_v1","""event"",""trial"",""time""
""fullscreenenter"",""1"",""3237""
","
","
","""event"",""trial"",""time""
""fullscreenenter"",""1"",""3237""
","
","","","","","","1518.0999999977648","images/tree8.png","","","learning","3","3","1","1","tree","plants","1","0","","good","[3]"
"html-keyboard-response","138","772304","0.0-9.0-2.0-0.33","6381","1","9","Male","approach_avoid_spark_v1","""event"",""trial"",""time""
""fullscreenenter"",""1"",""3237""
","
","
","""event"",""trial"",""time""
""fullscreenenter"",""1"",""3237""
","
","","","","","","null","<div style=""font-size:60px;"">+</div>","null","","fixation","","","","","","","","","","",""
"aa-learning-trial","139","775312","0.0-9.0-2.0-1.33","6381","1","9","Male","approach_avoid_spark_v1","""event"",""trial"",""time""
""fullscreenenter"",""1"",""3237""
","
","
","""event"",""trial"",""time""
""fullscreenenter"",""1"",""3237""
","
","","","","","","986.8999999985099","images/bush8.png","","","learning","-6","0","0","0","bush","plants","1","0","","bad","[-6]"
"html-keyboard-response","140","775816","0.0-9.0-2.0-0.34","6381","1","9","Male","approach_avoid_spark_v1","""event"",""trial"",""time""
""fullscreenenter"",""1"",""3237""
","
","
","""event"",""trial"",""time""
""fullscreenenter"",""1"",""3237""
","
","","","","","","null","<div style=""font-size:60px;"">+</div>","null","","fixation","","","","","","","","","","",""
"aa-learning-trial","141","778822","0.0-9.0-2.0-1.34","6381","1","9","Male","approach_avoid_spark_v1","""event"",""trial"",""time""
""fullscreenenter"",""1"",""3237""
","
","
","""event"",""trial"",""time""
""fullscreenenter"",""1"",""3237""
","
","","","","","","1358.5","images/bush1.png","","","learning","-8","-8","1","1","bush","plants","1","0","","bad","[-6]"
"html-keyboard-response","142","779328","0.0-9.0-2.0-0.35","6381","1","9","Male","approach_avoid_spark_v1","""event"",""trial"",""time""
""fullscreenenter"",""1"",""3237""
","
","
","""event"",""trial"",""time""
""fullscreenenter"",""1"",""3237""
","
","","","","","","null","<div style=""font-size:60px;"">+</div>","null","","fixation","","","","","","","","","","",""
"aa-learning-trial","143","782336","0.0-9.0-2.0-1.35","6381","1","9","Male","approach_avoid_spark_v1","""event"",""trial"",""time""
""fullscreenenter"",""1"",""3237""
","
","
","""event"",""trial"",""time""
""fullscreenenter"",""1"",""3237""
","
","","","","","","1333.699999999255","images/bush1.png","","","learning","-6","0","0","0","bush","plants","1","0","","bad","[-6]"
"html-keyboard-response","144","782841","0.0-9.0-2.0-0.36","6381","1","9","Male","approach_avoid_spark_v1","""event"",""trial"",""time""
""fullscreenenter"",""1"",""3237""
","
","
","""event"",""trial"",""time""
""fullscreenenter"",""1"",""3237""
","
","","","","","","null","<div style=""font-size:60px;"">+</div>","null","","fixation","","","","","","","","","","",""
"aa-learning-trial","145","785849","0.0-9.0-2.0-1.36","6381","1","9","Male","approach_avoid_spark_v1","""event"",""trial"",""time""
""fullscreenenter"",""1"",""3237""
","
","
","""event"",""trial"",""time""
""fullscreenenter"",""1"",""3237""
","
","","","","","","852.6999999992549","images/cactus8.png","","","learning","1","0","0","0","cactus","plants","1","0","","neutral","0"
"html-keyboard-response","146","786352","0.0-9.0-2.0-0.37","6381","1","9","Male","approach_avoid_spark_v1","""event"",""trial"",""time""
""fullscreenenter"",""1"",""3237""
","
","
","""event"",""trial"",""time""
""fullscreenenter"",""1"",""3237""
","
","","","","","","null","<div style=""font-size:60px;"">+</div>","null","","fixation","","","","","","","","","","",""
"aa-learning-trial","147","789360","0.0-9.0-2.0-1.37","6381","1","9","Male","approach_avoid_spark_v1","""event"",""trial"",""time""
""fullscreenenter"",""1"",""3237""
","
","
","""event"",""trial"",""time""
""fullscreenenter"",""1"",""3237""
","
","","","","","","1081.0999999977648","images/cactus2.png","","","learning","[-1]","-1","1","1","cactus","plants","1","0","","neutral","0"
"html-keyboard-response","148","789864","0.0-9.0-2.0-0.38","6381","1","9","Male","approach_avoid_spark_v1","""event"",""trial"",""time""
""fullscreenenter"",""1"",""3237""
","
","
","""event"",""trial"",""time""
""fullscreenenter"",""1"",""3237""
","
","","","","","","null","<div style=""font-size:60px;"">+</div>","null","","fixation","","","","","","","","","","",""
"aa-learning-trial","149","792872","0.0-9.0-2.0-1.38","6381","1","9","Male","approach_avoid_spark_v1","""event"",""trial"",""time""
""fullscreenenter"",""1"",""3237""
","
","
","""event"",""trial"",""time""
""fullscreenenter"",""1"",""3237""
","
","","","","","","1511.5999999977648","images/bush2.png","","","learning","-6","0","0","0","bush","plants","1","0","","bad","[-6]"
"html-keyboard-response","150","793376","0.0-9.0-2.0-0.39","6381","1","9","Male","approach_avoid_spark_v1","""event"",""trial"",""time""
""fullscreenenter"",""1"",""3237""
","
","
","""event"",""trial"",""time""
""fullscreenenter"",""1"",""3237""
","
","","","","","","null","<div style=""font-size:60px;"">+</div>","null","","fixation","","","","","","","","","","",""
"aa-learning-trial","151","796384","0.0-9.0-2.0-1.39","6381","1","9","Male","approach_avoid_spark_v1","""event"",""trial"",""time""
""fullscreenenter"",""1"",""3237""
","
","
","""event"",""trial"",""time""
""fullscreenenter"",""1"",""3237""
","
","","","","","","915.7000000029802","images/bush2.png","","","learning","-4","0","0","0","bush","plants","1","0","","bad","[-6]"
"html-keyboard-response","152","796888","0.0-9.0-2.0-0.40","6381","1","9","Male","approach_avoid_spark_v1","""event"",""trial"",""time""
""fullscreenenter"",""1"",""3237""
","
","
","""event"",""trial"",""time""
""fullscreenenter"",""1"",""3237""
","
","","","","","","null","<div style=""font-size:60px;"">+</div>","null","","fixation","","","","","","","","","","",""
"aa-learning-trial","153","799896","0.0-9.0-2.0-1.40","6381","1","9","Male","approach_avoid_spark_v1","""event"",""trial"",""time""
""fullscreenenter"",""1"",""3237""
","
","
","""event"",""trial"",""time""
""fullscreenenter"",""1"",""3237""
","
","","","","","","700.3999999985099","images/cactus2.png","","","learning","2","0","0","0","cactus","plants","1","0","","neutral","0"
"html-keyboard-response","154","800400","0.0-9.0-2.0-0.41","6381","1","9","Male","approach_avoid_spark_v1","""event"",""trial"",""time""
""fullscreenenter"",""1"",""3237""
","
","
","""event"",""trial"",""time""
""fullscreenenter"",""1"",""3237""
","
","","","","","","null","<div style=""font-size:60px;"">+</div>","null","","fixation","","","","","","","","","","",""
"aa-learning-trial","155","803403","0.0-9.0-2.0-1.41","6381","1","9","Male","approach_avoid_spark_v1","""event"",""trial"",""time""
""fullscreenenter"",""1"",""3237""
","
","
","""event"",""trial"",""time""
""fullscreenenter"",""1"",""3237""
","
","","","","","","2506.10000000149","images/tree8.png","","","learning","2","2","1","1","tree","plants","1","0","","good","[3]"
"html-keyboard-response","156","803912","0.0-9.0-2.0-0.42","6381","1","9","Male","approach_avoid_spark_v1","""event"",""trial"",""time""
""fullscreenenter"",""1"",""3237""
","
","
","""event"",""trial"",""time""
""fullscreenenter"",""1"",""3237""
","
","","","","","","null","<div style=""font-size:60px;"">+</div>","null","","fixation","","","","","","","","","","",""
"aa-learning-trial","157","806921","0.0-9.0-2.0-1.42","6381","1","9","Male","approach_avoid_spark_v1","""event"",""trial"",""time""
""fullscreenenter"",""1"",""3237""
","
","
","""event"",""trial"",""time""
""fullscreenenter"",""1"",""3237""
","
","","","","","","1679.800000000745","images/cactus8.png","","","learning","-1","0","0","0","cactus","plants","1","0","","neutral","0"
"html-keyboard-response","158","807424","0.0-9.0-2.0-0.43","6381","1","9","Male","approach_avoid_spark_v1","""event"",""trial"",""time""
""fullscreenenter"",""1"",""3237""
","
","
","""event"",""trial"",""time""
""fullscreenenter"",""1"",""3237""
","
","","","","","","null","<div style=""font-size:60px;"">+</div>","null","","fixation","","","","","","","","","","",""
"aa-learning-trial","159","810433","0.0-9.0-2.0-1.43","6381","1","9","Male","approach_avoid_spark_v1","""event"",""trial"",""time""
""fullscreenenter"",""1"",""3237""
","
","
","""event"",""trial"",""time""
""fullscreenenter"",""1"",""3237""
","
","","","","","","786.3999999985099","images/tree7.png","","","learning","3","3","1","1","tree","plants","1","0","","good","[3]"
"html-keyboard-response","160","810936","0.0-9.0-2.0-0.44","6381","1","9","Male","approach_avoid_spark_v1","""event"",""trial"",""time""
""fullscreenenter"",""1"",""3237""
","
","
","""event"",""trial"",""time""
""fullscreenenter"",""1"",""3237""
","
","","","","","","null","<div style=""font-size:60px;"">+</div>","null","","fixation","","","","","","","","","","",""
"aa-learning-trial","161","813944","0.0-9.0-2.0-1.44","6381","1","9","Male","approach_avoid_spark_v1","""event"",""trial"",""time""
""fullscreenenter"",""1"",""3237""
","
","
","""event"",""trial"",""time""
""fullscreenenter"",""1"",""3237""
","
","","","","","","981.3000000007451","images/tree8.png","","","learning","2","2","1","1","tree","plants","1","0","","good","[3]"
"html-keyboard-response","162","814448","0.0-9.0-2.0-0.45","6381","1","9","Male","approach_avoid_spark_v1","""event"",""trial"",""time""
""fullscreenenter"",""1"",""3237""
","
","
","""event"",""trial"",""time""
""fullscreenenter"",""1"",""3237""
","
","","","","","","null","<div style=""font-size:60px;"">+</div>","null","","fixation","","","","","","","","","","",""
"aa-learning-trial","163","817457","0.0-9.0-2.0-1.45","6381","1","9","Male","approach_avoid_spark_v1","""event"",""trial"",""time""
""fullscreenenter"",""1"",""3237""
","
","
","""event"",""trial"",""time""
""fullscreenenter"",""1"",""3237""
","
","","","","","","722.7999999970198","images/tree4.png","","","learning","5","5","1","1","tree","plants","1","0","","good","[3]"
"html-keyboard-response","164","817960","0.0-9.0-2.0-0.46","6381","1","9","Male","approach_avoid_spark_v1","""event"",""trial"",""time""
""fullscreenenter"",""1"",""3237""
","
","
","""event"",""trial"",""time""
""fullscreenenter"",""1"",""3237""
","
","","","","","","null","<div style=""font-size:60px;"">+</div>","null","","fixation","","","","","","","","","","",""
"aa-learning-trial","165","820968","0.0-9.0-2.0-1.46","6381","1","9","Male","approach_avoid_spark_v1","""event"",""trial"",""time""
""fullscreenenter"",""1"",""3237""
","
","
","""event"",""trial"",""time""
""fullscreenenter"",""1"",""3237""
","
","","","","","","1573.800000000745","images/tree1.png","","","learning","3","3","1","1","tree","plants","1","0","","good","[3]"
"html-keyboard-response","166","821472","0.0-9.0-2.0-0.47","6381","1","9","Male","approach_avoid_spark_v1","""event"",""trial"",""time""
""fullscreenenter"",""1"",""3237""
","
","
","""event"",""trial"",""time""
""fullscreenenter"",""1"",""3237""
","
","","","","","","null","<div style=""font-size:60px;"">+</div>","null","","fixation","","","","","","","","","","",""
"aa-learning-trial","167","824480","0.0-9.0-2.0-1.47","6381","1","9","Male","approach_avoid_spark_v1","""event"",""trial"",""time""
""fullscreenenter"",""1"",""3237""
","
","
","""event"",""trial"",""time""
""fullscreenenter"",""1"",""3237""
","
","","","","","","726.8000000007451","images/tree8.png","","","learning","1","1","1","1","tree","plants","1","0","","good","[3]"
"html-keyboard-response","168","824984","0.0-9.0-2.0-0.48","6381","1","9","Male","approach_avoid_spark_v1","""event"",""trial"",""time""
""fullscreenenter"",""1"",""3237""
","
","
","""event"",""trial"",""time""
""fullscreenenter"",""1"",""3237""
","
","","","","","","null","<div style=""font-size:60px;"">+</div>","null","","fixation","","","","","","","","","","",""
"aa-learning-trial","169","827992","0.0-9.0-2.0-1.48","6381","1","9","Male","approach_avoid_spark_v1","""event"",""trial"",""time""
""fullscreenenter"",""1"",""3237""
","
","
","""event"",""trial"",""time""
""fullscreenenter"",""1"",""3237""
","
","","","","","","798.6999999992549","images/cactus2.png","","","learning","1","0","0","0","cactus","plants","1","0","","neutral","0"
"html-keyboard-response","170","828496","0.0-9.0-2.0-0.49","6381","1","9","Male","approach_avoid_spark_v1","""event"",""trial"",""time""
""fullscreenenter"",""1"",""3237""
","
","
","""event"",""trial"",""time""
""fullscreenenter"",""1"",""3237""
","
","","","","","","null","<div style=""font-size:60px;"">+</div>","null","","fixation","","","","","","","","","","",""
"aa-learning-trial","171","831505","0.0-9.0-2.0-1.49","6381","1","9","Male","approach_avoid_spark_v1","""event"",""trial"",""time""
""fullscreenenter"",""1"",""3237""
","
","
","""event"",""trial"",""time""
""fullscreenenter"",""1"",""3237""
","
","","","","","","765.8000000007451","images/tree3.png","","","learning","3","3","1","1","tree","plants","1","0","","good","[3]"
"html-keyboard-response","172","832008","0.0-9.0-2.0-0.50","6381","1","9","Male","approach_avoid_spark_v1","""event"",""trial"",""time""
""fullscreenenter"",""1"",""3237""
","
","
","""event"",""trial"",""time""
""fullscreenenter"",""1"",""3237""
","
","","","","","","null","<div style=""font-size:60px;"">+</div>","null","","fixation","","","","","","","","","","",""
"aa-learning-trial","173","835017","0.0-9.0-2.0-1.50","6381","1","9","Male","approach_avoid_spark_v1","""event"",""trial"",""time""
""fullscreenenter"",""1"",""3237""
","
","
","""event"",""trial"",""time""
""fullscreenenter"",""1"",""3237""
","
","","","","","","695.9000000022352","images/cactus1.png","","","learning","1","0","0","0","cactus","plants","1","0","","neutral","0"
"html-button-response","174","842092","0.0-9.0-3.0","6381","1","9","Male","approach_avoid_spark_v1","""event"",""trial"",""time""
""fullscreenenter"",""1"",""3237""
","
","
","""event"",""trial"",""time""
""fullscreenenter"",""1"",""3237""
","
","","","","","","7073.300000000745","<p> You have completed the round! <p> In this round, you earned 1 points! </p>","0","","break","","","","","","","","","","",""
"html-button-response","175","843588","0.0-10.0","6381","1","9","Male","approach_avoid_spark_v1","""event"",""trial"",""time""
""fullscreenenter"",""1"",""3237""
","
","
","""event"",""trial"",""time""
""fullscreenenter"",""1"",""3237""
","
","","","","","","1494.300000000745","<p> Now it's time to play another round. </p>","0","","transition_screen","","","","","","","","","","",""
"preload","176","843726","0.0-11.0-0.0","6381","1","9","Male","approach_avoid_spark_v1","""event"",""trial"",""time""
""fullscreenenter"",""1"",""3237""
","
","
","""event"",""trial"",""time""
""fullscreenenter"",""1"",""3237""
","
","true","false","[]","[]","[]","","","","","","","","","","","","","","","",""
"learning-instructions","177","854651","0.0-11.0-1.0-0.0","6381","1","9","Male","approach_avoid_spark_v1","""event"",""trial"",""time""
""fullscreenenter"",""1"",""3237""
","
","
","""event"",""trial"",""time""
""fullscreenenter"",""1"",""3237""
","
","","","","","","4753.900000002235","<p> Your goal in this round is to eat tasty fruit. </p></div>","","0","instructions","","","","","","","","","","",""
"learning-instructions","178","874189","0.0-11.0-1.0-0.1","6381","1","9","Male","approach_avoid_spark_v1","""event"",""trial"",""time""
""fullscreenenter"",""1"",""3237""
","
","
","""event"",""trial"",""time""
""fullscreenenter"",""1"",""3237""
","
","","","","","","2414.199999999255","<p> Some of the fruits you will see are tasty. Others are rotten on the inside.  </p><p> On each turn, you will see a fruit.   </p><p> You need to decide whether to eat it or not.  </p>","","0","instructions","","","","","","","","","","",""
"learning-instructions","179","882249","0.0-11.0-1.0-0.2","6381","1","9","Male","approach_avoid_spark_v1","""event"",""trial"",""time""
""fullscreenenter"",""1"",""3237""
","
","
","""event"",""trial"",""time""
""fullscreenenter"",""1"",""3237""
","
","","","","","","1588.300000000745","<p> You can eat the fruit by pressing 1 and choose not to eat it by pressing 0. </p><br><div class=""choice-instructions-grid""> <div class=""choice-option""><img src=""images/approach.png"" class=""choice-option-img"" stage=""instructions"" position=""0"" ><div class=""choice-option-text""> Press ""1."" </div></div><div class=""choice-option""><img src=""images/avoid.png"" class=""choice-option-img"" stage=""instructions"" position=""1"" ><div class=""choice-option-text""> Press ""0."" </div></div>","","0","instructions","","","","","","","","","","",""
"learning-instructions","180","893811","0.0-11.0-1.0-0.3","6381","1","9","Male","approach_avoid_spark_v1","""event"",""trial"",""time""
""fullscreenenter"",""1"",""3237""
","
","
","""event"",""trial"",""time""
""fullscreenenter"",""1"",""3237""
","
","","","","","","863.5","<p> If you eat the fruit and it was tasty, you will win points! </p><p> But if you eat the fruit and it was rotten, you will lose points. </p>","","0","instructions","","","","","","","","","","",""
"learning-instructions","181","918871","0.0-11.0-1.0-0.4","6381","1","9","Male","approach_avoid_spark_v1","""event"",""trial"",""time""
""fullscreenenter"",""1"",""3237""
","
","
","""event"",""trial"",""time""
""fullscreenenter"",""1"",""3237""
","
","","","","","","4697.099999997765","<p> You will earn points based on how tasty or rotten the fruit was. </p><p> If it was tasty, you will WIN anywhere from 1 - 9 points, </p><p> but if it was rotten, you will LOSE anywhere from 1 - 9 points. </p>","","0","instructions","","","","","","","","","","",""
"learning-instructions","182","929213","0.0-11.0-1.0-0.5","6381","1","9","Male","approach_avoid_spark_v1","""event"",""trial"",""time""
""fullscreenenter"",""1"",""3237""
","
","
","""event"",""trial"",""time""
""fullscreenenter"",""1"",""3237""
","
","","","","","","3689.89999999851","<p> You will see how many points you won or lost in the center of the screen. </p><p> Here is what you would see if you earned 5 points: </p><p style=""color:green;font-size:50px;font-weight:bolder"">5</p>","","0","instructions","","","","","","","","","","",""
"learning-instructions","183","944477","0.0-11.0-1.0-0.6","6381","1","9","Male","approach_avoid_spark_v1","""event"",""trial"",""time""
""fullscreenenter"",""1"",""3237""
","
","
","""event"",""trial"",""time""
""fullscreenenter"",""1"",""3237""
","
","","","","","","12425.800000000745","<p> And here is what you would see if you lost 3 points: </p><p style=""color:red;font-size:50px;font-weight:bolder"">-3</p>","","0","instructions","","","","","","","","","","",""
"learning-instructions","184","966233","0.0-11.0-1.0-0.7","6381","1","9","Male","approach_avoid_spark_v1","""event"",""trial"",""time""
""fullscreenenter"",""1"",""3237""
","
","
","""event"",""trial"",""time""
""fullscreenenter"",""1"",""3237""
","
","","","","","","3204.89999999851","<p> Some fruit is very tasty or very rotten. </p><p> These fruits will make you win or lose LOTS of points. </p><p> Other fruits are only kind of tasty or kind of rotten. </p><p> These fruits will make you win or lose small amounts of points. </p>","","0","instructions","","","","","","","","","","",""
"learning-instructions","185","982506","0.0-11.0-1.0-0.8","6381","1","9","Male","approach_avoid_spark_v1","""event"",""trial"",""time""
""fullscreenenter"",""1"",""3237""
","
","
","""event"",""trial"",""time""
""fullscreenenter"",""1"",""3237""
","
","","","","","","2445","<p> If you choose to not eat the fruit, you will not win or lose any points. </p><p>  However, in the center of the screen, you will see the number of points you WOULD HAVE earned if you had eaten the fruit. </p>","","0","instructions","","","","","","","","","","",""
"learning-instructions","186","997053","0.0-11.0-1.0-0.9","6381","1","9","Male","approach_avoid_spark_v1","""event"",""trial"",""time""
""fullscreenenter"",""1"",""3237""
","
","
","""event"",""trial"",""time""
""fullscreenenter"",""1"",""3237""
","
","","","","","","2857.89999999851","<p> Here is what you might see if you did not eat the fruit but the fruit was tasty: </p><p style=""color:grey; font-size:50px; display: inline-block; border-spacing: 15px; border-width:3px; border-style:solid; border-color:red"">  &nbsp; 6 &nbsp; </p><p> Remember, in this case, you would not win or lose ANY points because you did not eat the fruit.  </p>","","0","instructions","","","","","","","","","","",""
"learning-instructions","187","1008178","0.0-11.0-1.0-0.10","6381","1","9","Male","approach_avoid_spark_v1","""event"",""trial"",""time""
""fullscreenenter"",""1"",""3237""
","
","
","""event"",""trial"",""time""
""fullscreenenter"",""1"",""3237""
","
","","","","","","2206.5","<p> Try to make the best choice for each fruit because </p><p> at the end of the game, you will earn bonus money based on how many points you earned. </p>","","0","instructions","","","","","","","","","","",""
"learning-instructions","188","1017446","0.0-11.0-1.0-0.11","6381","1","9","Male","approach_avoid_spark_v1","""event"",""trial"",""time""
""fullscreenenter"",""1"",""3237""
","
","
","""event"",""trial"",""time""
""fullscreenenter"",""1"",""3237""
","
","","","","","","1085.5999999977648","<p> You will have 3 seconds to make each choice. Try to respond before time runs out! </p><p> You will lose 5 points each time you do not make a response. </p>","","0","instructions","","","","","","","","","","",""
"html-keyboard-response","189","1018056","0.0-11.0-2.0-0.0","6381","1","9","Male","approach_avoid_spark_v1","""event"",""trial"",""time""
""fullscreenenter"",""1"",""3237""
","
","
","""event"",""trial"",""time""
""fullscreenenter"",""1"",""3237""
","
","","","","","","null","<div style=""font-size:60px;"">+</div>","null","","fixation","","","","","","","","","","",""
"aa-learning-trial","190","1021064","0.0-11.0-2.0-1.0","6381","1","9","Male","approach_avoid_spark_v1","""event"",""trial"",""time""
""fullscreenenter"",""1"",""3237""
","
","
","""event"",""trial"",""time""
""fullscreenenter"",""1"",""3237""
","
","","","","","","null","images/orange2.png","","","learning","-4","-5","","null","orange","fruit","2","1","","bad","[-3]"
"html-keyboard-response","191","1021568","0.0-11.0-2.0-0.1","6381","1","9","Male","approach_avoid_spark_v1","""event"",""trial"",""time""
""fullscreenenter"",""1"",""3237""
","
","
","""event"",""trial"",""time""
""fullscreenenter"",""1"",""3237""
","
","","","","","","null","<div style=""font-size:60px;"">+</div>","null","","fixation","","","","","","","","","","",""
"aa-learning-trial","192","1024576","0.0-11.0-2.0-1.1","6381","1","9","Male","approach_avoid_spark_v1","""event"",""trial"",""time""
""fullscreenenter"",""1"",""3237""
","
","
","""event"",""trial"",""time""
""fullscreenenter"",""1"",""3237""
","
","","","","","","1309.800000000745","images/orange7.png","","","learning","-7","-7","1","1","orange","fruit","2","1","","bad","[-3]"
"html-keyboard-response","193","1025080","0.0-11.0-2.0-0.2","6381","1","9","Male","approach_avoid_spark_v1","""event"",""trial"",""time""
""fullscreenenter"",""1"",""3237""
","
","
","""event"",""trial"",""time""
""fullscreenenter"",""1"",""3237""
","
","","","","","","null","<div style=""font-size:60px;"">+</div>","null","","fixation","","","","","","","","","","",""
"aa-learning-trial","194","1028089","0.0-11.0-2.0-1.2","6381","1","9","Male","approach_avoid_spark_v1","""event"",""trial"",""time""
""fullscreenenter"",""1"",""3237""
","
","
","""event"",""trial"",""time""
""fullscreenenter"",""1"",""3237""
","
","","","","","","1395.8999999985099","images/banana7.png","","","learning","6","6","1","1","banana","fruit","2","1","","neutral","0"
"html-keyboard-response","195","1028594","0.0-11.0-2.0-0.3","6381","1","9","Male","approach_avoid_spark_v1","""event"",""trial"",""time""
""fullscreenenter"",""1"",""3237""
","
","
","""event"",""trial"",""time""
""fullscreenenter"",""1"",""3237""
","
","","","","","","null","<div style=""font-size:60px;"">+</div>","null","","fixation","","","","","","","","","","",""
"aa-learning-trial","196","1031600","0.0-11.0-2.0-1.3","6381","1","9","Male","approach_avoid_spark_v1","""event"",""trial"",""time""
""fullscreenenter"",""1"",""3237""
","
","
","""event"",""trial"",""time""
""fullscreenenter"",""1"",""3237""
","
","","","","","","1458.6000000014901","images/orange7.png","","","learning","-7","-7","1","1","orange","fruit","2","1","","bad","[-3]"
"html-keyboard-response","197","1032104","0.0-11.0-2.0-0.4","6381","1","9","Male","approach_avoid_spark_v1","""event"",""trial"",""time""
""fullscreenenter"",""1"",""3237""
","
","
","""event"",""trial"",""time""
""fullscreenenter"",""1"",""3237""
","
","","","","","","null","<div style=""font-size:60px;"">+</div>","null","","fixation","","","","","","","","","","",""
"aa-learning-trial","198","1035112","0.0-11.0-2.0-1.4","6381","1","9","Male","approach_avoid_spark_v1","""event"",""trial"",""time""
""fullscreenenter"",""1"",""3237""
","
","
","""event"",""trial"",""time""
""fullscreenenter"",""1"",""3237""
","
","","","","","","1532","images/orange2.png","","","learning","-4","-4","1","1","orange","fruit","2","1","","bad","[-3]"
"html-keyboard-response","199","1035616","0.0-11.0-2.0-0.5","6381","1","9","Male","approach_avoid_spark_v1","""event"",""trial"",""time""
""fullscreenenter"",""1"",""3237""
","
","
","""event"",""trial"",""time""
""fullscreenenter"",""1"",""3237""
","
","","","","","","null","<div style=""font-size:60px;"">+</div>","null","","fixation","","","","","","","","","","",""
"aa-learning-trial","200","1038624","0.0-11.0-2.0-1.5","6381","1","9","Male","approach_avoid_spark_v1","""event"",""trial"",""time""
""fullscreenenter"",""1"",""3237""
","
","
","""event"",""trial"",""time""
""fullscreenenter"",""1"",""3237""
","
","","","","","","1314.9000000022352","images/banana3.png","","","learning","1","1","1","1","banana","fruit","2","1","","neutral","0"
"html-keyboard-response","201","1039128","0.0-11.0-2.0-0.6","6381","1","9","Male","approach_avoid_spark_v1","""event"",""trial"",""time""
""fullscreenenter"",""1"",""3237""
","
","
","""event"",""trial"",""time""
""fullscreenenter"",""1"",""3237""
","
","","","","","","null","<div style=""font-size:60px;"">+</div>","null","","fixation","","","","","","","","","","",""
"aa-learning-trial","202","1042137","0.0-11.0-2.0-1.6","6381","1","9","Male","approach_avoid_spark_v1","""event"",""trial"",""time""
""fullscreenenter"",""1"",""3237""
","
","
","""event"",""trial"",""time""
""fullscreenenter"",""1"",""3237""
","
","","","","","","2095.199999999255","images/apple8.png","","","learning","-1","-1","1","1","apple","fruit","2","1","","good","[3]"
"html-keyboard-response","203","1042640","0.0-11.0-2.0-0.7","6381","1","9","Male","approach_avoid_spark_v1","""event"",""trial"",""time""
""fullscreenenter"",""1"",""3237""
","
","
","""event"",""trial"",""time""
""fullscreenenter"",""1"",""3237""
","
","","","","","","null","<div style=""font-size:60px;"">+</div>","null","","fixation","","","","","","","","","","",""
"aa-learning-trial","204","1045648","0.0-11.0-2.0-1.7","6381","1","9","Male","approach_avoid_spark_v1","""event"",""trial"",""time""
""fullscreenenter"",""1"",""3237""
","
","
","""event"",""trial"",""time""
""fullscreenenter"",""1"",""3237""
","
","","","","","","null","images/apple3.png","","","learning","5","-5","","null","apple","fruit","2","1","","good","[3]"
"html-keyboard-response","205","1046152","0.0-11.0-2.0-0.8","6381","1","9","Male","approach_avoid_spark_v1","""event"",""trial"",""time""
""fullscreenenter"",""1"",""3237""
","
","
","""event"",""trial"",""time""
""fullscreenenter"",""1"",""3237""
","
","","","","","","null","<div style=""font-size:60px;"">+</div>","null","","fixation","","","","","","","","","","",""
"aa-learning-trial","206","1049161","0.0-11.0-2.0-1.8","6381","1","9","Male","approach_avoid_spark_v1","""event"",""trial"",""time""
""fullscreenenter"",""1"",""3237""
","
","
","""event"",""trial"",""time""
""fullscreenenter"",""1"",""3237""
","
","","","","","","1235","images/orange5.png","","","learning","4","4","1","1","orange","fruit","2","1","","bad","[-3]"
"html-keyboard-response","207","1049665","0.0-11.0-2.0-0.9","6381","1","9","Male","approach_avoid_spark_v1","""event"",""trial"",""time""
""fullscreenenter"",""1"",""3237""
","
","
","""event"",""trial"",""time""
""fullscreenenter"",""1"",""3237""
","
","","","","","","null","<div style=""font-size:60px;"">+</div>","null","","fixation","","","","","","","","","","",""
"aa-learning-trial","208","1052672","0.0-11.0-2.0-1.9","6381","1","9","Male","approach_avoid_spark_v1","""event"",""trial"",""time""
""fullscreenenter"",""1"",""3237""
","
","
","""event"",""trial"",""time""
""fullscreenenter"",""1"",""3237""
","
","","","","","","928.7000000029802","images/banana5.png","","","learning","-3","-3","1","1","banana","fruit","2","1","","neutral","0"
"html-keyboard-response","209","1053176","0.0-11.0-2.0-0.10","6381","1","9","Male","approach_avoid_spark_v1","""event"",""trial"",""time""
""fullscreenenter"",""1"",""3237""
","
","
","""event"",""trial"",""time""
""fullscreenenter"",""1"",""3237""
","
","","","","","","null","<div style=""font-size:60px;"">+</div>","null","","fixation","","","","","","","","","","",""
"aa-learning-trial","210","1056180","0.0-11.0-2.0-1.10","6381","1","9","Male","approach_avoid_spark_v1","""event"",""trial"",""time""
""fullscreenenter"",""1"",""3237""
","
","
","""event"",""trial"",""time""
""fullscreenenter"",""1"",""3237""
","
","","","","","","1486.0999999977648","images/banana7.png","","","learning","6","6","1","1","banana","fruit","2","1","","neutral","0"
"html-keyboard-response","211","1056688","0.0-11.0-2.0-0.11","6381","1","9","Male","approach_avoid_spark_v1","""event"",""trial"",""time""
""fullscreenenter"",""1"",""3237""
","
","
","""event"",""trial"",""time""
""fullscreenenter"",""1"",""3237""
","
","","","","","","null","<div style=""font-size:60px;"">+</div>","null","","fixation","","","","","","","","","","",""
"aa-learning-trial","212","1059697","0.0-11.0-2.0-1.11","6381","1","9","Male","approach_avoid_spark_v1","""event"",""trial"",""time""
""fullscreenenter"",""1"",""3237""
","
","
","""event"",""trial"",""time""
""fullscreenenter"",""1"",""3237""
","
","","","","","","1713.0999999977648","images/apple1.png","","","learning","-8","-8","1","1","apple","fruit","2","1","","good","[3]"
"html-keyboard-response","213","1060200","0.0-11.0-2.0-0.12","6381","1","9","Male","approach_avoid_spark_v1","""event"",""trial"",""time""
""fullscreenenter"",""1"",""3237""
","
","
","""event"",""trial"",""time""
""fullscreenenter"",""1"",""3237""
","
","","","","","","null","<div style=""font-size:60px;"">+</div>","null","","fixation","","","","","","","","","","",""
"aa-learning-trial","214","1063209","0.0-11.0-2.0-1.12","6381","1","9","Male","approach_avoid_spark_v1","""event"",""trial"",""time""
""fullscreenenter"",""1"",""3237""
","
","
","""event"",""trial"",""time""
""fullscreenenter"",""1"",""3237""
","
","","","","","","1413.5","images/apple3.png","","","learning","5","0","0","0","apple","fruit","2","1","","good","[3]"
"html-keyboard-response","215","1063712","0.0-11.0-2.0-0.13","6381","1","9","Male","approach_avoid_spark_v1","""event"",""trial"",""time""
""fullscreenenter"",""1"",""3237""
","
","
","""event"",""trial"",""time""
""fullscreenenter"",""1"",""3237""
","
","","","","","","null","<div style=""font-size:60px;"">+</div>","null","","fixation","","","","","","","","","","",""
"aa-learning-trial","216","1066721","0.0-11.0-2.0-1.13","6381","1","9","Male","approach_avoid_spark_v1","""event"",""trial"",""time""
""fullscreenenter"",""1"",""3237""
","
","
","""event"",""trial"",""time""
""fullscreenenter"",""1"",""3237""
","
","","","","","","1063.0999999977648","images/banana5.png","","","learning","-3","-3","1","1","banana","fruit","2","1","","neutral","0"
"html-keyboard-response","217","1067224","0.0-11.0-2.0-0.14","6381","1","9","Male","approach_avoid_spark_v1","""event"",""trial"",""time""
""fullscreenenter"",""1"",""3237""
","
","
","""event"",""trial"",""time""
""fullscreenenter"",""1"",""3237""
","
","","","","","","null","<div style=""font-size:60px;"">+</div>","null","","fixation","","","","","","","","","","",""
"aa-learning-trial","218","1070233","0.0-11.0-2.0-1.14","6381","1","9","Male","approach_avoid_spark_v1","""event"",""trial"",""time""
""fullscreenenter"",""1"",""3237""
","
","
","""event"",""trial"",""time""
""fullscreenenter"",""1"",""3237""
","
","","","","","","2165.300000000745","images/apple1.png","","","learning","-8","0","0","0","apple","fruit","2","1","","good","[3]"
"html-keyboard-response","219","1070737","0.0-11.0-2.0-0.15","6381","1","9","Male","approach_avoid_spark_v1","""event"",""trial"",""time""
""fullscreenenter"",""1"",""3237""
","
","
","""event"",""trial"",""time""
""fullscreenenter"",""1"",""3237""
","
","","","","","","null","<div style=""font-size:60px;"">+</div>","null","","fixation","","","","","","","","","","",""
"aa-learning-trial","220","1073744","0.0-11.0-2.0-1.15","6381","1","9","Male","approach_avoid_spark_v1","""event"",""trial"",""time""
""fullscreenenter"",""1"",""3237""
","
","
","""event"",""trial"",""time""
""fullscreenenter"",""1"",""3237""
","
","","","","","","1479.300000000745","images/apple1.png","","","learning","-8","-8","1","1","apple","fruit","2","1","","good","[3]"
"html-keyboard-response","221","1074248","0.0-11.0-2.0-0.16","6381","1","9","Male","approach_avoid_spark_v1","""event"",""trial"",""time""
""fullscreenenter"",""1"",""3237""
","
","
","""event"",""trial"",""time""
""fullscreenenter"",""1"",""3237""
","
","","","","","","null","<div style=""font-size:60px;"">+</div>","null","","fixation","","","","","","","","","","",""
"aa-learning-trial","222","1077257","0.0-11.0-2.0-1.16","6381","1","9","Male","approach_avoid_spark_v1","""event"",""trial"",""time""
""fullscreenenter"",""1"",""3237""
","
","
","""event"",""trial"",""time""
""fullscreenenter"",""1"",""3237""
","
","","","","","","1592.199999999255","images/apple3.png","","","learning","5","5","1","1","apple","fruit","2","1","","good","[3]"
"html-keyboard-response","223","1077760","0.0-11.0-2.0-0.17","6381","1","9","Male","approach_avoid_spark_v1","""event"",""trial"",""time""
""fullscreenenter"",""1"",""3237""
","
","
","""event"",""trial"",""time""
""fullscreenenter"",""1"",""3237""
","
","","","","","","null","<div style=""font-size:60px;"">+</div>","null","","fixation","","","","","","","","","","",""
"aa-learning-trial","224","1080769","0.0-11.0-2.0-1.17","6381","1","9","Male","approach_avoid_spark_v1","""event"",""trial"",""time""
""fullscreenenter"",""1"",""3237""
","
","
","""event"",""trial"",""time""
""fullscreenenter"",""1"",""3237""
","
","","","","","","1592.6000000014901","images/orange2.png","","","learning","-4","0","0","0","orange","fruit","2","1","","bad","[-3]"
"html-keyboard-response","225","1081272","0.0-11.0-2.0-0.18","6381","1","9","Male","approach_avoid_spark_v1","""event"",""trial"",""time""
""fullscreenenter"",""1"",""3237""
","
","
","""event"",""trial"",""time""
""fullscreenenter"",""1"",""3237""
","
","","","","","","null","<div style=""font-size:60px;"">+</div>","null","","fixation","","","","","","","","","","",""
"aa-learning-trial","226","1084281","0.0-11.0-2.0-1.18","6381","1","9","Male","approach_avoid_spark_v1","""event"",""trial"",""time""
""fullscreenenter"",""1"",""3237""
","
","
","""event"",""trial"",""time""
""fullscreenenter"",""1"",""3237""
","
","","","","","","1178.199999999255","images/banana7.png","","","learning","6","6","1","1","banana","fruit","2","1","","neutral","0"
"html-keyboard-response","227","1084784","0.0-11.0-2.0-0.19","6381","1","9","Male","approach_avoid_spark_v1","""event"",""trial"",""time""
""fullscreenenter"",""1"",""3237""
","
","
","""event"",""trial"",""time""
""fullscreenenter"",""1"",""3237""
","
","","","","","","null","<div style=""font-size:60px;"">+</div>","null","","fixation","","","","","","","","","","",""
"aa-learning-trial","228","1087793","0.0-11.0-2.0-1.19","6381","1","9","Male","approach_avoid_spark_v1","""event"",""trial"",""time""
""fullscreenenter"",""1"",""3237""
","
","
","""event"",""trial"",""time""
""fullscreenenter"",""1"",""3237""
","
","","","","","","1195.7000000029802","images/orange7.png","","","learning","-7","0","0","0","orange","fruit","2","1","","bad","[-3]"
"html-keyboard-response","229","1088296","0.0-11.0-2.0-0.20","6381","1","9","Male","approach_avoid_spark_v1","""event"",""trial"",""time""
""fullscreenenter"",""1"",""3237""
","
","
","""event"",""trial"",""time""
""fullscreenenter"",""1"",""3237""
","
","","","","","","null","<div style=""font-size:60px;"">+</div>","null","","fixation","","","","","","","","","","",""
"aa-learning-trial","230","1091305","0.0-11.0-2.0-1.20","6381","1","9","Male","approach_avoid_spark_v1","""event"",""trial"",""time""
""fullscreenenter"",""1"",""3237""
","
","
","""event"",""trial"",""time""
""fullscreenenter"",""1"",""3237""
","
","","","","","","1006.5","images/apple3.png","","","learning","5","5","1","1","apple","fruit","2","1","","good","[3]"
"html-keyboard-response","231","1091808","0.0-11.0-2.0-0.21","6381","1","9","Male","approach_avoid_spark_v1","""event"",""trial"",""time""
""fullscreenenter"",""1"",""3237""
","
","
","""event"",""trial"",""time""
""fullscreenenter"",""1"",""3237""
","
","","","","","","null","<div style=""font-size:60px;"">+</div>","null","","fixation","","","","","","","","","","",""
"aa-learning-trial","232","1094817","0.0-11.0-2.0-1.21","6381","1","9","Male","approach_avoid_spark_v1","""event"",""trial"",""time""
""fullscreenenter"",""1"",""3237""
","
","
","""event"",""trial"",""time""
""fullscreenenter"",""1"",""3237""
","
","","","","","","1163.800000000745","images/apple3.png","","","learning","5","5","1","1","apple","fruit","2","1","","good","[3]"
"html-keyboard-response","233","1095320","0.0-11.0-2.0-0.22","6381","1","9","Male","approach_avoid_spark_v1","""event"",""trial"",""time""
""fullscreenenter"",""1"",""3237""
","
","
","""event"",""trial"",""time""
""fullscreenenter"",""1"",""3237""
","
","","","","","","null","<div style=""font-size:60px;"">+</div>","null","","fixation","","","","","","","","","","",""
"aa-learning-trial","234","1098328","0.0-11.0-2.0-1.22","6381","1","9","Male","approach_avoid_spark_v1","""event"",""trial"",""time""
""fullscreenenter"",""1"",""3237""
","
","
","""event"",""trial"",""time""
""fullscreenenter"",""1"",""3237""
","
","","","","","","2201.5","images/banana8.png","","","learning","3","3","1","1","banana","fruit","2","1","","neutral","0"
"html-keyboard-response","235","1098832","0.0-11.0-2.0-0.23","6381","1","9","Male","approach_avoid_spark_v1","""event"",""trial"",""time""
""fullscreenenter"",""1"",""3237""
","
","
","""event"",""trial"",""time""
""fullscreenenter"",""1"",""3237""
","
","","","","","","null","<div style=""font-size:60px;"">+</div>","null","","fixation","","","","","","","","","","",""
"aa-learning-trial","236","1101840","0.0-11.0-2.0-1.23","6381","1","9","Male","approach_avoid_spark_v1","""event"",""trial"",""time""
""fullscreenenter"",""1"",""3237""
","
","
","""event"",""trial"",""time""
""fullscreenenter"",""1"",""3237""
","
","","","","","","1880","images/orange2.png","","","learning","-4","0","0","0","orange","fruit","2","1","","bad","[-3]"
"html-keyboard-response","237","1102344","0.0-11.0-2.0-0.24","6381","1","9","Male","approach_avoid_spark_v1","""event"",""trial"",""time""
""fullscreenenter"",""1"",""3237""
","
","
","""event"",""trial"",""time""
""fullscreenenter"",""1"",""3237""
","
","","","","","","null","<div style=""font-size:60px;"">+</div>","null","","fixation","","","","","","","","","","",""
"aa-learning-trial","238","1105353","0.0-11.0-2.0-1.24","6381","1","9","Male","approach_avoid_spark_v1","""event"",""trial"",""time""
""fullscreenenter"",""1"",""3237""
","
","
","""event"",""trial"",""time""
""fullscreenenter"",""1"",""3237""
","
