"trial_type","trial_index","time_elapsed","internal_node_id","subject_id","task_condition","age","gender","task_version","interactions","blur_events","focus_events","fullscreenenter_events","fullscreenexit_events","success","timeout","failed_images","failed_audio","failed_video","rt","stimulus","response","button_pressed","task_part","approach_reward","points","key_press","option_selected","stim_cat","task_block","block_condition","block_number","correct","cat_type","mean_cat_reward"
"pavlovia","0","3","0.0-0.0","5641","1","24","Female","approach_avoid_spark_v1","""event"",""trial"",""time""
""fullscreenenter"",""1"",""3292""
","
","
","""event"",""trial"",""time""
""fullscreenenter"",""1"",""3292""
","
","","","","","","","","","","","","","","","","","","","","",""
"fullscreen","1","4283","0.0-1.0","5641","1","24","Female","approach_avoid_spark_v1","""event"",""trial"",""time""
""fullscreenenter"",""1"",""3292""
","
","
","""event"",""trial"",""time""
""fullscreenenter"",""1"",""3292""
","
","true","","","","","","","","","","","","","","","","","","","",""
"preload","2","7337","0.0-2.0","5641","1","24","Female","approach_avoid_spark_v1","""event"",""trial"",""time""
""fullscreenenter"",""1"",""3292""
","
","
","""event"",""trial"",""time""
""fullscreenenter"",""1"",""3292""
","
","true","false","[]","[]","[]","","","","","","","","","","","","","","","",""
"audio-keyboard-response","3","9917","0.0-3.0","5641","1","24","Female","approach_avoid_spark_v1","""event"",""trial"",""time""
""fullscreenenter"",""1"",""3292""
","
","
","""event"",""trial"",""time""
""fullscreenenter"",""1"",""3292""
","
","","","","","","2576","audio/beep_loop.wav","m","","","","","","","","","","","","",""
"audio-button-response","4","11311","0.0-4.0","5641","1","24","Female","approach_avoid_spark_v1","""event"",""trial"",""time""
""fullscreenenter"",""1"",""3292""
","
","
","""event"",""trial"",""time""
""fullscreenenter"",""1"",""3292""
","
","","","","","","1387","audio/shark.wav","4","","","","","","","","","","","","",""
"audio-button-response","5","13344","0.0-5.0","5641","1","24","Female","approach_avoid_spark_v1","""event"",""trial"",""time""
""fullscreenenter"",""1"",""3292""
","
","
","""event"",""trial"",""time""
""fullscreenenter"",""1"",""3292""
","
","","","","","","1029","audio/turtle.wav","1","","","","","","","","","","","","",""
"preload","6","16146","0.0-6.0","5641","1","24","Female","approach_avoid_spark_v1","""event"",""trial"",""time""
""fullscreenenter"",""1"",""3292""
","
","
","""event"",""trial"",""time""
""fullscreenenter"",""1"",""3292""
","
","true","false","[]","[]","[]","","","","","","","","","","","","","","","",""
"html-keyboard-response","7","19146","0.0-7.0","5641","1","24","Female","approach_avoid_spark_v1","""event"",""trial"",""time""
""fullscreenenter"",""1"",""3292""
","
","
","""event"",""trial"",""time""
""fullscreenenter"",""1"",""3292""
","
","","","","","","2999.6999999999534","Welcome to the experiment. Press any key to begin and to advance the instructions."," ","","","","","","","","","","","","",""
"learning-instructions","8","27255","0.0-8.0-0.0-0.0","5641","1","24","Female","approach_avoid_spark_v1","""event"",""trial"",""time""
""fullscreenenter"",""1"",""3292""
","
","
","""event"",""trial"",""time""
""fullscreenenter"",""1"",""3292""
","
","","","","","","1153.2999999999302","<p> Welcome! Today you are going to play 6 different rounds of a decision-making game. </p><p> Use the mouse to click next to continue. </p>","","0","instructions","","","","","","","","","","",""
"learning-instructions","9","30708","0.0-8.0-0.0-0.1","5641","1","24","Female","approach_avoid_spark_v1","""event"",""trial"",""time""
""fullscreenenter"",""1"",""3292""
","
","
","""event"",""trial"",""time""
""fullscreenenter"",""1"",""3292""
","
","","","","","","724.5","<p> You will start with a practice round to learn the rules. </p>","","0","instructions","","","","","","","","","","",""
"learning-instructions","10","34717","0.0-8.0-0.0-0.2","5641","1","24","Female","approach_avoid_spark_v1","""event"",""trial"",""time""
""fullscreenenter"",""1"",""3292""
","
","
","""event"",""trial"",""time""
""fullscreenenter"",""1"",""3292""
","
","","","","","","562.0999999999767","<p> Your goal in this round is to give out sports equipment to kids. </p></div>","","0","instructions","","","","","","","","","","",""
"learning-instructions","11","42635","0.0-8.0-0.0-0.3","5641","1","24","Female","approach_avoid_spark_v1","""event"",""trial"",""time""
""fullscreenenter"",""1"",""3292""
","
","
","""event"",""trial"",""time""
""fullscreenenter"",""1"",""3292""
","
","","","","","","368.39999999990687","<p> The kids only like some of the equipment.  </p><p> On each turn, you will see a piece of sports equipment.   </p><p> You need to decide whether to give it to the kids or not.  </p>","","0","instructions","","","","","","","","","","",""
"learning-instructions","12","47776","0.0-8.0-0.0-0.4","5641","1","24","Female","approach_avoid_spark_v1","""event"",""trial"",""time""
""fullscreenenter"",""1"",""3292""
","
","
","""event"",""trial"",""time""
""fullscreenenter"",""1"",""3292""
","
","","","","","","388.19999999995343","<p> You can give them the equipment by pressing 1 and choose not to give it to them by pressing 0. </p><br><div class=""choice-instructions-grid""> <div class=""choice-option""><img src=""images/approach.png"" class=""choice-option-img"" stage=""instructions"" position=""0"" ><div class=""choice-option-text""> Press ""1."" </div></div><div class=""choice-option""><img src=""images/avoid.png"" class=""choice-option-img"" stage=""instructions"" position=""1"" ><div class=""choice-option-text""> Press ""0."" </div></div>","","0","instructions","","","","","","","","","","",""
"learning-instructions","13","55504","0.0-8.0-0.0-0.5","5641","1","24","Female","approach_avoid_spark_v1","""event"",""trial"",""time""
""fullscreenenter"",""1"",""3292""
","
","
","""event"",""trial"",""time""
""fullscreenenter"",""1"",""3292""
","
","","","","","","346.5999999999767","<p> If you give them a piece of equipment they like, they will be happy! </p><p> But if you give them a piece of equipment they do not like, they will be sad. </p>","","0","instructions","","","","","","","","","","",""
"learning-instructions","14","66318","0.0-8.0-0.0-0.6","5641","1","24","Female","approach_avoid_spark_v1","""event"",""trial"",""time""
""fullscreenenter"",""1"",""3292""
","
","
","""event"",""trial"",""time""
""fullscreenenter"",""1"",""3292""
","
","","","","","","307.5","<p> You will earn points based on how you make kids feel. </p><p> If you make them happy, you will WIN anywhere from 1 - 9 points, </p><p> but if you make them sad, you will LOSE anywhere from 1 - 9 points. </p>","","0","instructions","","","","","","","","","","",""
"learning-instructions","15","76318","0.0-8.0-0.0-0.7","5641","1","24","Female","approach_avoid_spark_v1","""event"",""trial"",""time""
""fullscreenenter"",""1"",""3292""
","
","
","""event"",""trial"",""time""
""fullscreenenter"",""1"",""3292""
","
","","","","","","444.9000000000233","<p> You will see how many points you won or lost in the center of the screen. </p><p> Here is what you would see if you won 6 points: </p><p style=""color:green;font-size:50px;font-weight:bolder"">6</p><p style=""color:green"">The text is GREEN because you WON points.</p>","","0","instructions","","","","","","","","","","",""
"learning-instructions","16","82588","0.0-8.0-0.0-0.8","5641","1","24","Female","approach_avoid_spark_v1","""event"",""trial"",""time""
""fullscreenenter"",""1"",""3292""
","
","
","""event"",""trial"",""time""
""fullscreenenter"",""1"",""3292""
","
","","","","","","763.3000000000466","<p> And here is what you would see if you lost 4 points: </p><p style=""color:red;font-size:50px;font-weight:bolder"">-4</p><p style=""color:red"">The text is RED because you LOST points. </p>","","0","instructions","","","","","","","","","","",""
"learning-instructions","17","98412","0.0-8.0-0.0-0.9","5641","1","24","Female","approach_avoid_spark_v1","""event"",""trial"",""time""
""fullscreenenter"",""1"",""3292""
","
","
","""event"",""trial"",""time""
""fullscreenenter"",""1"",""3292""
","
","","","","","","1110.9000000000233","<p> Some of the equipment will make the kids VERY happy or sad. </p><p> These pieces of equipment will make you win or lose LOTS of points. </p><p> Other pieces of equipment will only make the kids a little happy or sad. </p><p> These pieces of equipment will make you win or lose small amounts of points. </p>","","0","instructions","","","","","","","","","","",""
"learning-instructions","18","109387","0.0-8.0-0.0-0.10","5641","1","24","Female","approach_avoid_spark_v1","""event"",""trial"",""time""
""fullscreenenter"",""1"",""3292""
","
","
","""event"",""trial"",""time""
""fullscreenenter"",""1"",""3292""
","
","","","","","","347.30000000004657","<p> If you choose not to give them the equipment, you will not win or lose any points. </p><p>  However, in the center of the screen, you will see the number of points you WOULD HAVE won or lost if you had given them the equipment. </p>","","0","instructions","","","","","","","","","","",""
"learning-instructions","19","131320","0.0-8.0-0.0-0.11","5641","1","24","Female","approach_avoid_spark_v1","""event"",""trial"",""time""
""fullscreenenter"",""1"",""3292""
","
","
","""event"",""trial"",""time""
""fullscreenenter"",""1"",""3292""
","
","","","","","","408.29999999993015","<p> Here is what you might see if you did not give the equipment to the kids but it would have made them happy: </p><p style=""color:grey; font-size:50px; display: inline-block; border-spacing: 15px; border-width:3px; border-style:solid; border-color:red"">  &nbsp; 7 &nbsp; </p><p> Remember, in this case, you would not win or lose ANY points because you did not give them the equipment.  </p><p style=""color:grey"">The text is GREY because you earned ZERO points. </p><p style=""color:red"">However, choosing to give the kids the equipment would have made you win points. The box around the text is RED because you chose the worse option. </p>","","0","instructions","","","","","","","","","","",""
"learning-instructions","20","152840","0.0-8.0-0.0-0.12","5641","1","24","Female","approach_avoid_spark_v1","""event"",""trial"",""time""
""fullscreenenter"",""1"",""3292""
","
","
","""event"",""trial"",""time""
""fullscreenenter"",""1"",""3292""
","
","","","","","","445.0999999999767","<p> Here is what you might see if you did not give the equipment to the kids but it would have made them sad: </p><p style=""color:grey;font-size:50px; display: inline-block; border-spacing: 15px; border-width:3px; border-style:solid; border-color:green"">  &nbsp; -8 &nbsp; </p><p> Remember, in this case, you would not win or lose ANY points because you did not give them the equipment.  </p><p style=""color:grey"">The text is GREY because you earned ZERO points. </p><p  style=""color:green""> Choosing to give the kids the equipment would have made you lose points. The box around the text is GREEN because you chose the better option.</p>","","0","instructions","","","","","","","","","","",""
"learning-instructions","21","162646","0.0-8.0-0.0-0.13","5641","1","24","Female","approach_avoid_spark_v1","""event"",""trial"",""time""
""fullscreenenter"",""1"",""3292""
","
","
","""event"",""trial"",""time""
""fullscreenenter"",""1"",""3292""
","
","","","","","","608","<p> You will have 3 seconds to make each choice. Try to respond before time runs out! </p><p> You will lose 5 points each time you do not make a response. </p>","","0","instructions","","","","","","","","","","",""
"learning-instructions","22","168438","0.0-8.0-0.0-0.14","5641","1","24","Female","approach_avoid_spark_v1","""event"",""trial"",""time""
""fullscreenenter"",""1"",""3292""
","
","
","""event"",""trial"",""time""
""fullscreenenter"",""1"",""3292""
","
","","","","","","384.60000000009313","<p> This is just a practice round, but in the real game, your bonus payment will depend on your total number of points.","","0","instructions","","","","","","","","","","",""
"learning-instructions","23","174709","0.0-8.0-0.0-0.15","5641","1","24","Female","approach_avoid_spark_v1","""event"",""trial"",""time""
""fullscreenenter"",""1"",""3292""
","
","
","""event"",""trial"",""time""
""fullscreenenter"",""1"",""3292""
","
","","","","","","504.9000000000233","<p> Remember, you can give them the equipment by pressing 1 and choose not to give it to them by pressing 0. </p><br><div class=""choice-instructions-grid""> <div class=""choice-option""><img src=""images/approach.png"" class=""choice-option-img"" stage=""instructions"" position=""0"" ><div class=""choice-option-text""> Press ""1."" </div></div><div class=""choice-option""><img src=""images/avoid.png"" class=""choice-option-img"" stage=""instructions"" position=""1"" ><div class=""choice-option-text""> Press ""0."" </div></div>","","0","instructions","","","","","","","","","","",""
"html-button-response","24","176122","0.0-8.0-1.0","5641","1","24","Female","approach_avoid_spark_v1","""event"",""trial"",""time""
""fullscreenenter"",""1"",""3292""
","
","
","""event"",""trial"",""time""
""fullscreenenter"",""1"",""3292""
","
","","","","","","1309","<p> Ready to practice? </p>","0","","","","","","","","","","","","",""
"html-keyboard-response","25","176728","0.0-8.0-2.0-0.0","5641","1","24","Female","approach_avoid_spark_v1","""event"",""trial"",""time""
""fullscreenenter"",""1"",""3292""
","
","
","""event"",""trial"",""time""
""fullscreenenter"",""1"",""3292""
","
","","","","","","null","<div style=""font-size:60px;"">+</div>","null","","fixation","","","","","","","","","","",""
"aa-learning-trial","26","179737","0.0-8.0-2.0-1.0","5641","1","24","Female","approach_avoid_spark_v1","""event"",""trial"",""time""
""fullscreenenter"",""1"",""3292""
","
","
","""event"",""trial"",""time""
""fullscreenenter"",""1"",""3292""
","
","","","","","","950.6999999999534","images/racket2.png","","","learning","-9","0","0","0","practice","practice","practice","-1","","",""
"html-keyboard-response","27","180243","0.0-8.0-2.0-0.1","5641","1","24","Female","approach_avoid_spark_v1","""event"",""trial"",""time""
""fullscreenenter"",""1"",""3292""
","
","
","""event"",""trial"",""time""
""fullscreenenter"",""1"",""3292""
","
","","","","","","null","<div style=""font-size:60px;"">+</div>","null","","fixation","","","","","","","","","","",""
"aa-learning-trial","28","183249","0.0-8.0-2.0-1.1","5641","1","24","Female","approach_avoid_spark_v1","""event"",""trial"",""time""
""fullscreenenter"",""1"",""3292""
","
","
","""event"",""trial"",""time""
""fullscreenenter"",""1"",""3292""
","
","","","","","","905.4000000000233","images/racket1.png","","","learning","-5","0","0","0","practice","practice","practice","-1","","",""
"html-keyboard-response","29","183754","0.0-8.0-2.0-0.2","5641","1","24","Female","approach_avoid_spark_v1","""event"",""trial"",""time""
""fullscreenenter"",""1"",""3292""
","
","
","""event"",""trial"",""time""
""fullscreenenter"",""1"",""3292""
","
","","","","","","null","<div style=""font-size:60px;"">+</div>","null","","fixation","","","","","","","","","","",""
"aa-learning-trial","30","186761","0.0-8.0-2.0-1.2","5641","1","24","Female","approach_avoid_spark_v1","""event"",""trial"",""time""
""fullscreenenter"",""1"",""3292""
","
","
","""event"",""trial"",""time""
""fullscreenenter"",""1"",""3292""
","
","","","","","","941.8000000000466","images/racket3.png","","","learning","-1","0","0","0","practice","practice","practice","-1","","",""
"html-keyboard-response","31","187267","0.0-8.0-2.0-0.3","5641","1","24","Female","approach_avoid_spark_v1","""event"",""trial"",""time""
""fullscreenenter"",""1"",""3292""
","
","
","""event"",""trial"",""time""
""fullscreenenter"",""1"",""3292""
","
","","","","","","null","<div style=""font-size:60px;"">+</div>","null","","fixation","","","","","","","","","","",""
"aa-learning-trial","32","190276","0.0-8.0-2.0-1.3","5641","1","24","Female","approach_avoid_spark_v1","""event"",""trial"",""time""
""fullscreenenter"",""1"",""3292""
","
","
","""event"",""trial"",""time""
""fullscreenenter"",""1"",""3292""
","
","","","","","","614.0999999999767","images/ball3.png","","","learning","2","2","1","1","practice","practice","practice","-1","","",""
"html-keyboard-response","33","190778","0.0-8.0-2.0-0.4","5641","1","24","Female","approach_avoid_spark_v1","""event"",""trial"",""time""
""fullscreenenter"",""1"",""3292""
","
","
","""event"",""trial"",""time""
""fullscreenenter"",""1"",""3292""
","
","","","","","","null","<div style=""font-size:60px;"">+</div>","null","","fixation","","","","","","","","","","",""
"aa-learning-trial","34","193784","0.0-8.0-2.0-1.4","5641","1","24","Female","approach_avoid_spark_v1","""event"",""trial"",""time""
""fullscreenenter"",""1"",""3292""
","
","
","""event"",""trial"",""time""
""fullscreenenter"",""1"",""3292""
","
","","","","","","487.5","images/ball2.png","","","learning","-4","-4","1","1","practice","practice","practice","-1","","",""
"html-keyboard-response","35","194287","0.0-8.0-2.0-0.5","5641","1","24","Female","approach_avoid_spark_v1","""event"",""trial"",""time""
""fullscreenenter"",""1"",""3292""
","
","
","""event"",""trial"",""time""
""fullscreenenter"",""1"",""3292""
","
","","","","","","null","<div style=""font-size:60px;"">+</div>","null","","fixation","","","","","","","","","","",""
"aa-learning-trial","36","197295","0.0-8.0-2.0-1.5","5641","1","24","Female","approach_avoid_spark_v1","""event"",""trial"",""time""
""fullscreenenter"",""1"",""3292""
","
","
","""event"",""trial"",""time""
""fullscreenenter"",""1"",""3292""
","
","","","","","","624","images/racket2.png","","","learning","9","0","0","0","practice","practice","practice","-1","","",""
"html-keyboard-response","37","197799","0.0-8.0-2.0-0.6","5641","1","24","Female","approach_avoid_spark_v1","""event"",""trial"",""time""
""fullscreenenter"",""1"",""3292""
","
","
","""event"",""trial"",""time""
""fullscreenenter"",""1"",""3292""
","
","","","","","","null","<div style=""font-size:60px;"">+</div>","null","","fixation","","","","","","","","","","",""
"aa-learning-trial","38","200807","0.0-8.0-2.0-1.6","5641","1","24","Female","approach_avoid_spark_v1","""event"",""trial"",""time""
""fullscreenenter"",""1"",""3292""
","
","
","""event"",""trial"",""time""
""fullscreenenter"",""1"",""3292""
","
","","","","","","887.3000000000466","images/racket1.png","","","learning","3","0","0","0","practice","practice","practice","-1","","",""
"html-keyboard-response","39","201313","0.0-8.0-2.0-0.7","5641","1","24","Female","approach_avoid_spark_v1","""event"",""trial"",""time""
""fullscreenenter"",""1"",""3292""
","
","
","""event"",""trial"",""time""
""fullscreenenter"",""1"",""3292""
","
","","","","","","null","<div style=""font-size:60px;"">+</div>","null","","fixation","","","","","","","","","","",""
"aa-learning-trial","40","204320","0.0-8.0-2.0-1.7","5641","1","24","Female","approach_avoid_spark_v1","""event"",""trial"",""time""
""fullscreenenter"",""1"",""3292""
","
","
","""event"",""trial"",""time""
""fullscreenenter"",""1"",""3292""
","
","","","","","","1169.2999999999302","images/ball2.png","","","learning","5","0","0","0","practice","practice","practice","-1","","",""
"html-keyboard-response","41","204827","0.0-8.0-2.0-0.8","5641","1","24","Female","approach_avoid_spark_v1","""event"",""trial"",""time""
""fullscreenenter"",""1"",""3292""
","
","
","""event"",""trial"",""time""
""fullscreenenter"",""1"",""3292""
","
","","","","","","null","<div style=""font-size:60px;"">+</div>","null","","fixation","","","","","","","","","","",""
"aa-learning-trial","42","207835","0.0-8.0-2.0-1.8","5641","1","24","Female","approach_avoid_spark_v1","""event"",""trial"",""time""
""fullscreenenter"",""1"",""3292""
","
","
","""event"",""trial"",""time""
""fullscreenenter"",""1"",""3292""
","
","","","","","","860.0999999999767","images/ball1.png","","","learning","-6","-6","1","1","practice","practice","practice","-1","","",""
"html-keyboard-response","43","208341","0.0-8.0-2.0-0.9","5641","1","24","Female","approach_avoid_spark_v1","""event"",""trial"",""time""
""fullscreenenter"",""1"",""3292""
","
","
","""event"",""trial"",""time""
""fullscreenenter"",""1"",""3292""
","
","","","","","","null","<div style=""font-size:60px;"">+</div>","null","","fixation","","","","","","","","","","",""
"aa-learning-trial","44","211349","0.0-8.0-2.0-1.9","5641","1","24","Female","approach_avoid_spark_v1","""event"",""trial"",""time""
""fullscreenenter"",""1"",""3292""
","
","
","""event"",""trial"",""time""
""fullscreenenter"",""1"",""3292""
","
","","","","","","487.80000000004657","images/ball1.png","","","learning","-7","-7","1","1","practice","practice","practice","-1","","",""
"html-keyboard-response","45","211851","0.0-8.0-2.0-0.10","5641","1","24","Female","approach_avoid_spark_v1","""event"",""trial"",""time""
""fullscreenenter"",""1"",""3292""
","
","
","""event"",""trial"",""time""
""fullscreenenter"",""1"",""3292""
","
","","","","","","null","<div style=""font-size:60px;"">+</div>","null","","fixation","","","","","","","","","","",""
"aa-learning-trial","46","214859","0.0-8.0-2.0-1.10","5641","1","24","Female","approach_avoid_spark_v1","""event"",""trial"",""time""
""fullscreenenter"",""1"",""3292""
","
","
","""event"",""trial"",""time""
""fullscreenenter"",""1"",""3292""
","
","","","","","","852.4000000000233","images/racket2.png","","","learning","-6","-6","1","1","practice","practice","practice","-1","","",""
"html-keyboard-response","47","215365","0.0-8.0-2.0-0.11","5641","1","24","Female","approach_avoid_spark_v1","""event"",""trial"",""time""
""fullscreenenter"",""1"",""3292""
","
","
","""event"",""trial"",""time""
""fullscreenenter"",""1"",""3292""
","
","","","","","","null","<div style=""font-size:60px;"">+</div>","null","","fixation","","","","","","","","","","",""
"aa-learning-trial","48","218373","0.0-8.0-2.0-1.11","5641","1","24","Female","approach_avoid_spark_v1","""event"",""trial"",""time""
""fullscreenenter"",""1"",""3292""
","
","
","""event"",""trial"",""time""
""fullscreenenter"",""1"",""3292""
","
","","","","","","1257.7000000000698","images/racket3.png","","","learning","-1","-1","1","1","practice","practice","practice","-1","","",""
"html-button-response","49","219756","0.0-8.0-3.0","5641","1","24","Female","approach_avoid_spark_v1","""event"",""trial"",""time""
""fullscreenenter"",""1"",""3292""
","
","
","""event"",""trial"",""time""
""fullscreenenter"",""1"",""3292""
","
","","","","","","1379.5999999999767","<p> You earned -22 points in the practice round! </p>","0","","break","","","","","","","","","","",""
"learning-instructions","50","227365","0.0-8.0-4.0-0.0","5641","1","24","Female","approach_avoid_spark_v1","""event"",""trial"",""time""
""fullscreenenter"",""1"",""3292""
","
","
","""event"",""trial"",""time""
""fullscreenenter"",""1"",""3292""
","
","","","","","","1618.2999999999302","<p> It's almost time to start the real game. </p><p> Before you start, we're going to ask you a few questions about how the game works. </p>","","0","instructions","","","","","","","","","","",""
"preload","51","228992","0.0-8.0-5.0","5641","1","24","Female","approach_avoid_spark_v1","""event"",""trial"",""time""
""fullscreenenter"",""1"",""3292""
","
","
","""event"",""trial"",""time""
""fullscreenenter"",""1"",""3292""
","
","true","false","[]","[]","[]","","","","","","","","","","","","","","","",""
"comp-q","52","234627","0.0-8.0-6.0-0.0","5641","1","24","Female","approach_avoid_spark_v1","""event"",""trial"",""time""
""fullscreenenter"",""1"",""3292""
","
","
","""event"",""trial"",""time""
""fullscreenenter"",""1"",""3292""
","
","","","","","","639.2999999999302","<p> <b> True or False? </b> </p><p> If you see a number in GREY, that means you earned that many points. </p>","","1","comp_question","","","","","","","","","true","",""
"comp-q","53","244190","0.0-8.0-6.0-1.0","5641","1","24","Female","approach_avoid_spark_v1","""event"",""trial"",""time""
""fullscreenenter"",""1"",""3292""
","
","
","""event"",""trial"",""time""
""fullscreenenter"",""1"",""3292""
","
","","","","","","1205.3999999999069","<p><b> That's right! </b> If you see a grey number, it means you earned ZERO points. <br> The grey numbers show the points you WOULD HAVE earned if you had made the other choice. </p>","","0","comp_answer","","","","","","","","","","",""
"comp-q","54","249484","0.0-8.0-7.0-0.0","5641","1","24","Female","approach_avoid_spark_v1","""event"",""trial"",""time""
""fullscreenenter"",""1"",""3292""
","
","
","""event"",""trial"",""time""
""fullscreenenter"",""1"",""3292""
","
","","","","","","600.5999999999767","<p> <b> True or False? </b> </p><p> You will have as much time as you want to make each choice. </p>","","1","comp_question","","","","","","","","","true","",""
"comp-q","55","254229","0.0-8.0-7.0-1.0","5641","1","24","Female","approach_avoid_spark_v1","""event"",""trial"",""time""
""fullscreenenter"",""1"",""3292""
","
","
","""event"",""trial"",""time""
""fullscreenenter"",""1"",""3292""
","
","","","","","","705.5999999999767","<p> <b> That's right! </b> You will only have 3 seconds to make each choice. </p>","","0","comp_answer","","","","","","","","","","",""
"comp-q","56","259459","0.0-8.0-8.0-0.0","5641","1","24","Female","approach_avoid_spark_v1","""event"",""trial"",""time""
""fullscreenenter"",""1"",""3292""
","
","
","""event"",""trial"",""time""
""fullscreenenter"",""1"",""3292""
","
","","","","","","570.6000000000931","<p> <b> True or False? </b> </p><p> You should use the '1' and '0' keys to make your choices. </p>","","0","comp_question","","","","","","","","","true","",""
"comp-q","57","264595","0.0-8.0-8.0-1.0","5641","1","24","Female","approach_avoid_spark_v1","""event"",""trial"",""time""
""fullscreenenter"",""1"",""3292""
","
","
","""event"",""trial"",""time""
""fullscreenenter"",""1"",""3292""
","
","","","","","","527.3000000000466","<p> <b> That's right! </b> You should use the '1' and '0' keys to make each choice. </p>","","0","comp_answer","","","","","","","","","","",""
"learning-instructions","58","272461","0.0-8.0-9.0-0.0","5641","1","24","Female","approach_avoid_spark_v1","""event"",""trial"",""time""
""fullscreenenter"",""1"",""3292""
","
","
","""event"",""trial"",""time""
""fullscreenenter"",""1"",""3292""
","
","","","","","","1593.6999999999534","<p> It's now time to start the real game. </p>Do your best, because the points you earn in the next rounds will influence your bonus payment. </p>","","0","instructions","","","","","","","","","","",""
"preload","59","272579","0.0-9.0-0.0","5641","1","24","Female","approach_avoid_spark_v1","""event"",""trial"",""time""
""fullscreenenter"",""1"",""3292""
","
","
","""event"",""trial"",""time""
""fullscreenenter"",""1"",""3292""
","
","true","false","[]","[]","[]","","","","","","","","","","","","","","","",""
"learning-instructions","60","278116","0.0-9.0-1.0-0.0","5641","1","24","Female","approach_avoid_spark_v1","""event"",""trial"",""time""
""fullscreenenter"",""1"",""3292""
","
","
","""event"",""trial"",""time""
""fullscreenenter"",""1"",""3292""
","
","","","","","","848.5999999999767","<p> Your goal in this round is to decorate your friend's new house with furniture. </p></div>","","0","instructions","","","","","","","","","","",""
"learning-instructions","61","288333","0.0-9.0-1.0-0.1","5641","1","24","Female","approach_avoid_spark_v1","""event"",""trial"",""time""
""fullscreenenter"",""1"",""3292""
","
","
","""event"",""trial"",""time""
""fullscreenenter"",""1"",""3292""
","
","","","","","","361.79999999993015","<p> Your friend likes some pieces of furniture but not others.  </p><p> On each turn, you will see a piece of furniture.   </p><p> You need to decide whether to put it in your friend's house or not.  </p>","","0","instructions","","","","","","","","","","",""
"learning-instructions","62","294442","0.0-9.0-1.0-0.2","5641","1","24","Female","approach_avoid_spark_v1","""event"",""trial"",""time""
""fullscreenenter"",""1"",""3292""
","
","
","""event"",""trial"",""time""
""fullscreenenter"",""1"",""3292""
","
","","","","","","326.0999999999767","<p> You can put the furniture in her house by pressing 1 and deliver it elsewhere by pressing 0. </p><br><div class=""choice-instructions-grid""> <div class=""choice-option""><img src=""images/approach.png"" class=""choice-option-img"" stage=""instructions"" position=""0"" ><div class=""choice-option-text""> Press ""1."" </div></div><div class=""choice-option""><img src=""images/avoid.png"" class=""choice-option-img"" stage=""instructions"" position=""1"" ><div class=""choice-option-text""> Press ""0."" </div></div>","","0","instructions","","","","","","","","","","",""
"learning-instructions","63","303624","0.0-9.0-1.0-0.3","5641","1","24","Female","approach_avoid_spark_v1","""event"",""trial"",""time""
""fullscreenenter"",""1"",""3292""
","
","
","""event"",""trial"",""time""
""fullscreenenter"",""1"",""3292""
","
","","","","","","308.60000000009313","<p> If you decorate your friend's house with furniture she likes, she will be happy! </p><p> But if you give her furniture that she does not like, she will be annoyed. </p>","","0","instructions","","","","","","","","","","",""
"learning-instructions","64","316142","0.0-9.0-1.0-0.4","5641","1","24","Female","approach_avoid_spark_v1","""event"",""trial"",""time""
""fullscreenenter"",""1"",""3292""
","
","
","""event"",""trial"",""time""
""fullscreenenter"",""1"",""3292""
","
","","","","","","319.4000000000233","<p> You will earn points based on how you made your friend feel. </p><p> If you made her happy, you will WIN anywhere from 1 - 9 points, </p><p> but if you made her annoyed you will LOSE anywhere from 1 - 9 points. </p>","","0","instructions","","","","","","","","","","",""
"learning-instructions","65","324576","0.0-9.0-1.0-0.5","5641","1","24","Female","approach_avoid_spark_v1","""event"",""trial"",""time""
""fullscreenenter"",""1"",""3292""
","
","
","""event"",""trial"",""time""
""fullscreenenter"",""1"",""3292""
","
","","","","","","753.0999999999767","<p> You will see how many points you won or lost in the center of the screen. </p><p> Here is what you would see if you won 5 points: </p><p style=""color:green;font-size:50px;font-weight:bolder"">5</p>","","0","instructions","","","","","","","","","","",""
"learning-instructions","66","328481","0.0-9.0-1.0-0.6","5641","1","24","Female","approach_avoid_spark_v1","""event"",""trial"",""time""
""fullscreenenter"",""1"",""3292""
","
","
","""event"",""trial"",""time""
""fullscreenenter"",""1"",""3292""
","
","","","","","","403.20000000006985","<p> And here is what you would see if you lost 3 points: </p><p style=""color:red;font-size:50px;font-weight:bolder"">-3</p>","","0","instructions","","","","","","","","","","",""
"learning-instructions","67","346090","0.0-9.0-1.0-0.7","5641","1","24","Female","approach_avoid_spark_v1","""event"",""trial"",""time""
""fullscreenenter"",""1"",""3292""
","
","
","""event"",""trial"",""time""
""fullscreenenter"",""1"",""3292""
","
","","","","","","256.9000000000233","<p> Some pieces of furniture will make her feel very happy or very annoyed. </p><p> These pieces of furniture will make you win or lose LOTS of points. </p><p> Other pieces of furniture will only make her feel a little happy or a little annoyed. </p><p> These pieces of furniture will make you win or lose small amounts of points. </p>","","0","instructions","","","","","","","","","","",""
"learning-instructions","68","359309","0.0-9.0-1.0-0.8","5641","1","24","Female","approach_avoid_spark_v1","""event"",""trial"",""time""
""fullscreenenter"",""1"",""3292""
","
","
","""event"",""trial"",""time""
""fullscreenenter"",""1"",""3292""
","
","","","","","","435.4000000000233","<p> If you choose to deliver a piece of furniture elsewhere, you will not win or lose any points. </p><p>  However, in the center of the screen, you will see the number of points you WOULD HAVE won or lost if you had given the furniture to your friend. </p>","","0","instructions","","","","","","","","","","",""
"learning-instructions","69","371325","0.0-9.0-1.0-0.9","5641","1","24","Female","approach_avoid_spark_v1","""event"",""trial"",""time""
""fullscreenenter"",""1"",""3292""
","
","
","""event"",""trial"",""time""
""fullscreenenter"",""1"",""3292""
","
","","","","","","521","<p> Here is what you might see if you did not give a piece of furniture to your friend that would have made her happy: </p><p style=""color:grey; font-size:50px; display: inline-block; border-spacing: 15px; border-width:3px; border-style:solid; border-color:red"">  &nbsp; 6 &nbsp; </p><p> Remember, in this case, you would not win or lose ANY points because you did not give her the furniture.  </p>","","0","instructions","","","","","","","","","","",""
"learning-instructions","70","379378","0.0-9.0-1.0-0.10","5641","1","24","Female","approach_avoid_spark_v1","""event"",""trial"",""time""
""fullscreenenter"",""1"",""3292""
","
","
","""event"",""trial"",""time""
""fullscreenenter"",""1"",""3292""
","
","","","","","","366.80000000004657","<p> Try to make the best choice for each piece of furniture because </p><p> at the end of the game, you will earn bonus money based on how many points you earned. </p>","","0","instructions","","","","","","","","","","",""
"learning-instructions","71","387940","0.0-9.0-1.0-0.11","5641","1","24","Female","approach_avoid_spark_v1","""event"",""trial"",""time""
""fullscreenenter"",""1"",""3292""
","
","
","""event"",""trial"",""time""
""fullscreenenter"",""1"",""3292""
","
","","","","","","374.19999999995343","<p> You will have 3 seconds to make each choice. Try to respond before time runs out! </p><p> You will lose 5 points each time you do not make a response. </p>","","0","instructions","","","","","","","","","","",""
"html-keyboard-response","72","388551","0.0-9.0-2.0-0.0","5641","1","24","Female","approach_avoid_spark_v1","""event"",""trial"",""time""
""fullscreenenter"",""1"",""3292""
","
","
","""event"",""trial"",""time""
""fullscreenenter"",""1"",""3292""
","
","","","","","","null","<div style=""font-size:60px;"">+</div>","null","","fixation","","","","","","","","","","",""
"aa-learning-trial","73","391559","0.0-9.0-2.0-1.0","5641","1","24","Female","approach_avoid_spark_v1","""event"",""trial"",""time""
""fullscreenenter"",""1"",""3292""
","
","
","""event"",""trial"",""time""
""fullscreenenter"",""1"",""3292""
","
","","","","","","968.4000000000233","images/chair2.png","","","learning","5","0","0","0","chair","furniture","1","0","","good","[6]"
"html-keyboard-response","74","392061","0.0-9.0-2.0-0.1","5641","1","24","Female","approach_avoid_spark_v1","""event"",""trial"",""time""
""fullscreenenter"",""1"",""3292""
","
","
","""event"",""trial"",""time""
""fullscreenenter"",""1"",""3292""
","
","","","","","","null","<div style=""font-size:60px;"">+</div>","null","","fixation","","","","","","","","","","",""
"aa-learning-trial","75","395068","0.0-9.0-2.0-1.1","5641","1","24","Female","approach_avoid_spark_v1","""event"",""trial"",""time""
""fullscreenenter"",""1"",""3292""
","
","
","""event"",""trial"",""time""
""fullscreenenter"",""1"",""3292""
","
","","","","","","1012.7000000000698","images/sofa3.png","","","learning","[1]","1","1","1","sofa","furniture","1","0","","neutral","0"
"html-keyboard-response","76","395570","0.0-9.0-2.0-0.2","5641","1","24","Female","approach_avoid_spark_v1","""event"",""trial"",""time""
""fullscreenenter"",""1"",""3292""
","
","
","""event"",""trial"",""time""
""fullscreenenter"",""1"",""3292""
","
","","","","","","null","<div style=""font-size:60px;"">+</div>","null","","fixation","","","","","","","","","","",""
"aa-learning-trial","77","398576","0.0-9.0-2.0-1.2","5641","1","24","Female","approach_avoid_spark_v1","""event"",""trial"",""time""
""fullscreenenter"",""1"",""3292""
","
","
","""event"",""trial"",""time""
""fullscreenenter"",""1"",""3292""
","
","","","","","","619.1999999999534","images/chair6.png","","","learning","7","0","0","0","chair","furniture","1","0","","good","[6]"
"html-keyboard-response","78","399081","0.0-9.0-2.0-0.3","5641","1","24","Female","approach_avoid_spark_v1","""event"",""trial"",""time""
""fullscreenenter"",""1"",""3292""
","
","
","""event"",""trial"",""time""
""fullscreenenter"",""1"",""3292""
","
","","","","","","null","<div style=""font-size:60px;"">+</div>","null","","fixation","","","","","","","","","","",""
"aa-learning-trial","79","402086","0.0-9.0-2.0-1.3","5641","1","24","Female","approach_avoid_spark_v1","""event"",""trial"",""time""
""fullscreenenter"",""1"",""3292""
","
","
","""event"",""trial"",""time""
""fullscreenenter"",""1"",""3292""
","
","","","","","","709.4000000000233","images/chair8.png","","","learning","5","5","1","1","chair","furniture","1","0","","good","[6]"
"html-keyboard-response","80","402588","0.0-9.0-2.0-0.4","5641","1","24","Female","approach_avoid_spark_v1","""event"",""trial"",""time""
""fullscreenenter"",""1"",""3292""
","
","
","""event"",""trial"",""time""
""fullscreenenter"",""1"",""3292""
","
","","","","","","null","<div style=""font-size:60px;"">+</div>","null","","fixation","","","","","","","","","","",""
"aa-learning-trial","81","405596","0.0-9.0-2.0-1.4","5641","1","24","Female","approach_avoid_spark_v1","""event"",""trial"",""time""
""fullscreenenter"",""1"",""3292""
","
","
","""event"",""trial"",""time""
""fullscreenenter"",""1"",""3292""
","
","","","","","","464.29999999993015","images/sofa5.png","","","learning","-1","-1","1","1","sofa","furniture","1","0","","neutral","0"
"html-keyboard-response","82","406101","0.0-9.0-2.0-0.5","5641","1","24","Female","approach_avoid_spark_v1","""event"",""trial"",""time""
""fullscreenenter"",""1"",""3292""
","
","
","""event"",""trial"",""time""
""fullscreenenter"",""1"",""3292""
","
","","","","","","null","<div style=""font-size:60px;"">+</div>","null","","fixation","","","","","","","","","","",""
"aa-learning-trial","83","409104","0.0-9.0-2.0-1.5","5641","1","24","Female","approach_avoid_spark_v1","""event"",""trial"",""time""
""fullscreenenter"",""1"",""3292""
","
","
","""event"",""trial"",""time""
""fullscreenenter"",""1"",""3292""
","
","","","","","","749.6999999999534","images/sofa7.png","","","learning","[1]","1","1","1","sofa","furniture","1","0","","neutral","0"
"html-keyboard-response","84","409611","0.0-9.0-2.0-0.6","5641","1","24","Female","approach_avoid_spark_v1","""event"",""trial"",""time""
""fullscreenenter"",""1"",""3292""
","
","
","""event"",""trial"",""time""
""fullscreenenter"",""1"",""3292""
","
","","","","","","null","<div style=""font-size:60px;"">+</div>","null","","fixation","","","","","","","","","","",""
"aa-learning-trial","85","412617","0.0-9.0-2.0-1.6","5641","1","24","Female","approach_avoid_spark_v1","""event"",""trial"",""time""
""fullscreenenter"",""1"",""3292""
","
","
","""event"",""trial"",""time""
""fullscreenenter"",""1"",""3292""
","
","","","","","","612.6999999999534","images/sofa5.png","","","learning","[-1]","-1","1","1","sofa","furniture","1","0","","neutral","0"
"html-keyboard-response","86","413123","0.0-9.0-2.0-0.7","5641","1","24","Female","approach_avoid_spark_v1","""event"",""trial"",""time""
""fullscreenenter"",""1"",""3292""
","
","
","""event"",""trial"",""time""
""fullscreenenter"",""1"",""3292""
","
","","","","","","null","<div style=""font-size:60px;"">+</div>","null","","fixation","","","","","","","","","","",""
"aa-learning-trial","87","416131","0.0-9.0-2.0-1.7","5641","1","24","Female","approach_avoid_spark_v1","""event"",""trial"",""time""
""fullscreenenter"",""1"",""3292""
","
","
","""event"",""trial"",""time""
""fullscreenenter"",""1"",""3292""
","
","","","","","","376.69999999995343","images/chair2.png","","","learning","5","5","1","1","chair","furniture","1","0","","good","[6]"
"html-keyboard-response","88","416633","0.0-9.0-2.0-0.8","5641","1","24","Female","approach_avoid_spark_v1","""event"",""trial"",""time""
""fullscreenenter"",""1"",""3292""
","
","
","""event"",""trial"",""time""
""fullscreenenter"",""1"",""3292""
","
","","","","","","null","<div style=""font-size:60px;"">+</div>","null","","fixation","","","","","","","","","","",""
"aa-learning-trial","89","419641","0.0-9.0-2.0-1.8","5641","1","24","Female","approach_avoid_spark_v1","""event"",""trial"",""time""
""fullscreenenter"",""1"",""3292""
","
","
","""event"",""trial"",""time""
""fullscreenenter"",""1"",""3292""
","
","","","","","","553.7999999999302","images/table4.png","","","learning","-4","-4","1","1","table","furniture","1","0","","bad","[-5]"
"html-keyboard-response","90","420147","0.0-9.0-2.0-0.9","5641","1","24","Female","approach_avoid_spark_v1","""event"",""trial"",""time""
""fullscreenenter"",""1"",""3292""
","
","
","""event"",""trial"",""time""
""fullscreenenter"",""1"",""3292""
","
","","","","","","null","<div style=""font-size:60px;"">+</div>","null","","fixation","","","","","","","","","","",""
"aa-learning-trial","91","423155","0.0-9.0-2.0-1.9","5641","1","24","Female","approach_avoid_spark_v1","""event"",""trial"",""time""
""fullscreenenter"",""1"",""3292""
","
","
","""event"",""trial"",""time""
""fullscreenenter"",""1"",""3292""
","
","","","","","","796.2999999999302","images/table7.png","","","learning","-7","-7","1","1","table","furniture","1","0","","bad","[-5]"
"html-keyboard-response","92","423662","0.0-9.0-2.0-0.10","5641","1","24","Female","approach_avoid_spark_v1","""event"",""trial"",""time""
""fullscreenenter"",""1"",""3292""
","
","
","""event"",""trial"",""time""
""fullscreenenter"",""1"",""3292""
","
","","","","","","null","<div style=""font-size:60px;"">+</div>","null","","fixation","","","","","","","","","","",""
"aa-learning-trial","93","426670","0.0-9.0-2.0-1.10","5641","1","24","Female","approach_avoid_spark_v1","""event"",""trial"",""time""
""fullscreenenter"",""1"",""3292""
","
","
","""event"",""trial"",""time""
""fullscreenenter"",""1"",""3292""
","
","","","","","","454","images/table6.png","","","learning","-6","0","0","0","table","furniture","1","0","","bad","[-5]"
"html-keyboard-response","94","427176","0.0-9.0-2.0-0.11","5641","1","24","Female","approach_avoid_spark_v1","""event"",""trial"",""time""
""fullscreenenter"",""1"",""3292""
","
","
","""event"",""trial"",""time""
""fullscreenenter"",""1"",""3292""
","
","","","","","","null","<div style=""font-size:60px;"">+</div>","null","","fixation","","","","","","","","","","",""
"aa-learning-trial","95","430179","0.0-9.0-2.0-1.11","5641","1","24","Female","approach_avoid_spark_v1","""event"",""trial"",""time""
""fullscreenenter"",""1"",""3292""
","
","
","""event"",""trial"",""time""
""fullscreenenter"",""1"",""3292""
","
","","","","","","513.0999999999767","images/sofa7.png","","","learning","-1","0","0","0","sofa","furniture","1","0","","neutral","0"
"html-keyboard-response","96","430680","0.0-9.0-2.0-0.12","5641","1","24","Female","approach_avoid_spark_v1","""event"",""trial"",""time""
""fullscreenenter"",""1"",""3292""
","
","
","""event"",""trial"",""time""
""fullscreenenter"",""1"",""3292""
","
","","","","","","null","<div style=""font-size:60px;"">+</div>","null","","fixation","","","","","","","","","","",""
"aa-learning-trial","97","433688","0.0-9.0-2.0-1.12","5641","1","24","Female","approach_avoid_spark_v1","""event"",""trial"",""time""
""fullscreenenter"",""1"",""3292""
","
","
","""event"",""trial"",""time""
""fullscreenenter"",""1"",""3292""
","
","","","","","","677.9000000000233","images/table4.png","","","learning","-8","0","0","0","table","furniture","1","0","","bad","[-5]"
"html-keyboard-response","98","434195","0.0-9.0-2.0-0.13","5641","1","24","Female","approach_avoid_spark_v1","""event"",""trial"",""time""
""fullscreenenter"",""1"",""3292""
","
","
","""event"",""trial"",""time""
""fullscreenenter"",""1"",""3292""
","
","","","","","","null","<div style=""font-size:60px;"">+</div>","null","","fixation","","","","","","","","","","",""
"aa-learning-trial","99","437203","0.0-9.0-2.0-1.13","5641","1","24","Female","approach_avoid_spark_v1","""event"",""trial"",""time""
""fullscreenenter"",""1"",""3292""
","
","
","""event"",""trial"",""time""
""fullscreenenter"",""1"",""3292""
","
","","","","","","978.5999999999767","images/chair8.png","","","learning","5","5","1","1","chair","furniture","1","0","","good","[6]"
"html-keyboard-response","100","437704","0.0-9.0-2.0-0.14","5641","1","24","Female","approach_avoid_spark_v1","""event"",""trial"",""time""
""fullscreenenter"",""1"",""3292""
","
","
","""event"",""trial"",""time""
""fullscreenenter"",""1"",""3292""
","
","","","","","","null","<div style=""font-size:60px;"">+</div>","null","","fixation","","","","","","","","","","",""
"aa-learning-trial","101","440712","0.0-9.0-2.0-1.14","5641","1","24","Female","approach_avoid_spark_v1","""event"",""trial"",""time""
""fullscreenenter"",""1"",""3292""
","
","
","""event"",""trial"",""time""
""fullscreenenter"",""1"",""3292""
","
","","","","","","640.3999999999069","images/table6.png","","","learning","-5","0","0","0","table","furniture","1","0","","bad","[-5]"
"html-keyboard-response","102","441218","0.0-9.0-2.0-0.15","5641","1","24","Female","approach_avoid_spark_v1","""event"",""trial"",""time""
""fullscreenenter"",""1"",""3292""
","
","
","""event"",""trial"",""time""
""fullscreenenter"",""1"",""3292""
","
","","","","","","null","<div style=""font-size:60px;"">+</div>","null","","fixation","","","","","","","","","","",""
"aa-learning-trial","103","444221","0.0-9.0-2.0-1.15","5641","1","24","Female","approach_avoid_spark_v1","""event"",""trial"",""time""
""fullscreenenter"",""1"",""3292""
","
","
","""event"",""trial"",""time""
""fullscreenenter"",""1"",""3292""
","
","","","","","","1061.2999999999302","images/table6.png","","","learning","-8","0","0","0","table","furniture","1","0","","bad","[-5]"
"html-keyboard-response","104","444727","0.0-9.0-2.0-0.16","5641","1","24","Female","approach_avoid_spark_v1","""event"",""trial"",""time""
""fullscreenenter"",""1"",""3292""
","
","
","""event"",""trial"",""time""
""fullscreenenter"",""1"",""3292""
","
","","","","","","null","<div style=""font-size:60px;"">+</div>","null","","fixation","","","","","","","","","","",""
"aa-learning-trial","105","447731","0.0-9.0-2.0-1.16","5641","1","24","Female","approach_avoid_spark_v1","""event"",""trial"",""time""
""fullscreenenter"",""1"",""3292""
","
","
","""event"",""trial"",""time""
""fullscreenenter"",""1"",""3292""
","
","","","","","","514.5999999999767","images/sofa7.png","","","learning","-3","-3","1","1","sofa","furniture","1","0","","neutral","0"
"html-keyboard-response","106","448237","0.0-9.0-2.0-0.17","5641","1","24","Female","approach_avoid_spark_v1","""event"",""trial"",""time""
""fullscreenenter"",""1"",""3292""
","
","
","""event"",""trial"",""time""
""fullscreenenter"",""1"",""3292""
","
","","","","","","null","<div style=""font-size:60px;"">+</div>","null","","fixation","","","","","","","","","","",""
"aa-learning-trial","107","451245","0.0-9.0-2.0-1.17","5641","1","24","Female","approach_avoid_spark_v1","""event"",""trial"",""time""
""fullscreenenter"",""1"",""3292""
","
","
","""event"",""trial"",""time""
""fullscreenenter"",""1"",""3292""
","
","","","","","","434.29999999993015","images/table4.png","","","learning","-3","0","0","0","table","furniture","1","0","","bad","[-5]"
"html-keyboard-response","108","451752","0.0-9.0-2.0-0.18","5641","1","24","Female","approach_avoid_spark_v1","""event"",""trial"",""time""
""fullscreenenter"",""1"",""3292""
","
","
","""event"",""trial"",""time""
""fullscreenenter"",""1"",""3292""
","
","","","","","","null","<div style=""font-size:60px;"">+</div>","null","","fixation","","","","","","","","","","",""
"aa-learning-trial","109","454760","0.0-9.0-2.0-1.18","5641","1","24","Female","approach_avoid_spark_v1","""event"",""trial"",""time""
""fullscreenenter"",""1"",""3292""
","
","
","""event"",""trial"",""time""
""fullscreenenter"",""1"",""3292""
","
","","","","","","693.3000000000466","images/sofa5.png","","","learning","2","2","1","1","sofa","furniture","1","0","","neutral","0"
"html-keyboard-response","110","455262","0.0-9.0-2.0-0.19","5641","1","24","Female","approach_avoid_spark_v1","""event"",""trial"",""time""
""fullscreenenter"",""1"",""3292""
","
","
","""event"",""trial"",""time""
""fullscreenenter"",""1"",""3292""
","
","","","","","","null","<div style=""font-size:60px;"">+</div>","null","","fixation","","","","","","","","","","",""
"aa-learning-trial","111","458269","0.0-9.0-2.0-1.19","5641","1","24","Female","approach_avoid_spark_v1","""event"",""trial"",""time""
""fullscreenenter"",""1"",""3292""
","
","
","""event"",""trial"",""time""
""fullscreenenter"",""1"",""3292""
","
","","","","","","1165.5","images/sofa7.png","","","learning","-1","0","0","0","sofa","furniture","1","0","","neutral","0"
"html-keyboard-response","112","458776","0.0-9.0-2.0-0.20","5641","1","24","Female","approach_avoid_spark_v1","""event"",""trial"",""time""
""fullscreenenter"",""1"",""3292""
","
","
","""event"",""trial"",""time""
""fullscreenenter"",""1"",""3292""
","
","","","","","","null","<div style=""font-size:60px;"">+</div>","null","","fixation","","","","","","","","","","",""
"aa-learning-trial","113","461784","0.0-9.0-2.0-1.20","5641","1","24","Female","approach_avoid_spark_v1","""event"",""trial"",""time""
""fullscreenenter"",""1"",""3292""
","
","
","""event"",""trial"",""time""
""fullscreenenter"",""1"",""3292""
","
","","","","","","636.7999999999302","images/sofa3.png","","","learning","[-1]","-1","1","1","sofa","furniture","1","0","","neutral","0"
"html-keyboard-response","114","462286","0.0-9.0-2.0-0.21","5641","1","24","Female","approach_avoid_spark_v1","""event"",""trial"",""time""
""fullscreenenter"",""1"",""3292""
","
","
","""event"",""trial"",""time""
""fullscreenenter"",""1"",""3292""
","
","","","","","","null","<div style=""font-size:60px;"">+</div>","null","","fixation","","","","","","","","","","",""
"aa-learning-trial","115","465293","0.0-9.0-2.0-1.21","5641","1","24","Female","approach_avoid_spark_v1","""event"",""trial"",""time""
""fullscreenenter"",""1"",""3292""
","
","
","""event"",""trial"",""time""
""fullscreenenter"",""1"",""3292""
","
","","","","","","801.5","images/sofa5.png","","","learning","-1","-1","1","1","sofa","furniture","1","0","","neutral","0"
"html-keyboard-response","116","465800","0.0-9.0-2.0-0.22","5641","1","24","Female","approach_avoid_spark_v1","""event"",""trial"",""time""
""fullscreenenter"",""1"",""3292""
","
","
","""event"",""trial"",""time""
""fullscreenenter"",""1"",""3292""
","
","","","","","","null","<div style=""font-size:60px;"">+</div>","null","","fixation","","","","","","","","","","",""
"aa-learning-trial","117","468808","0.0-9.0-2.0-1.22","5641","1","24","Female","approach_avoid_spark_v1","""event"",""trial"",""time""
""fullscreenenter"",""1"",""3292""
","
","
","""event"",""trial"",""time""
""fullscreenenter"",""1"",""3292""
","
","","","","","","737.2000000000698","images/sofa5.png","","","learning","-2","-2","1","1","sofa","furniture","1","0","","neutral","0"
"html-keyboard-response","118","469310","0.0-9.0-2.0-0.23","5641","1","24","Female","approach_avoid_spark_v1","""event"",""trial"",""time""
""fullscreenenter"",""1"",""3292""
","
","
","""event"",""trial"",""time""
""fullscreenenter"",""1"",""3292""
","
","","","","","","null","<div style=""font-size:60px;"">+</div>","null","","fixation","","","","","","","","","","",""
"aa-learning-trial","119","472317","0.0-9.0-2.0-1.23","5641","1","24","Female","approach_avoid_spark_v1","""event"",""trial"",""time""
""fullscreenenter"",""1"",""3292""
","
","
","""event"",""trial"",""time""
""fullscreenenter"",""1"",""3292""
","
","","","","","","603.5","images/chair2.png","","","learning","7","7","1","1","chair","furniture","1","0","","good","[6]"
"html-keyboard-response","120","472824","0.0-9.0-2.0-0.24","5641","1","24","Female","approach_avoid_spark_v1","""event"",""trial"",""time""
""fullscreenenter"",""1"",""3292""
","
","
","""event"",""trial"",""time""
""fullscreenenter"",""1"",""3292""
","
","","","","","","null","<div style=""font-size:60px;"">+</div>","null","","fixation","","","","","","","","","","",""
"aa-learning-trial","121","475832","0.0-9.0-2.0-1.24","5641","1","24","Female","approach_avoid_spark_v1","""event"",""trial"",""time""
""fullscreenenter"",""1"",""3292""
","
","
","""event"",""trial"",""time""
""fullscreenenter"",""1"",""3292""
","
","","","","","","492.20000000006985","images/table4.png","","","learning","-5","0","0","0","table","furniture","1","0","","bad","[-5]"
"html-keyboard-response","122","476338","0.0-9.0-2.0-0.25","5641","1","24","Female","approach_avoid_spark_v1","""event"",""trial"",""time""
""fullscreenenter"",""1"",""3292""
","
","
","""event"",""trial"",""time""
""fullscreenenter"",""1"",""3292""
","
","","","","","","null","<div style=""font-size:60px;"">+</div>","null","","fixation","","","","","","","","","","",""
"aa-learning-trial","123","479347","0.0-9.0-2.0-1.25","5641","1","24","Female","approach_avoid_spark_v1","""event"",""trial"",""time""
""fullscreenenter"",""1"",""3292""
","
","
","""event"",""trial"",""time""
""fullscreenenter"",""1"",""3292""
","
","","","","","","453.80000000004657","images/table6.png","","","learning","-7","0","0","0","table","furniture","1","0","","bad","[-5]"
"html-keyboard-response","124","479853","0.0-9.0-2.0-0.26","5641","1","24","Female","approach_avoid_spark_v1","""event"",""trial"",""time""
""fullscreenenter"",""1"",""3292""
","
","
","""event"",""trial"",""time""
""fullscreenenter"",""1"",""3292""
","
","","","","","","null","<div style=""font-size:60px;"">+</div>","null","","fixation","","","","","","","","","","",""
"aa-learning-trial","125","482861","0.0-9.0-2.0-1.26","5641","1","24","Female","approach_avoid_spark_v1","""event"",""trial"",""time""
""fullscreenenter"",""1"",""3292""
","
","
","""event"",""trial"",""time""
""fullscreenenter"",""1"",""3292""
","
","","","","","","671.5","images/chair2.png","","","learning","7","7","1","1","chair","furniture","1","0","","good","[6]"
"html-keyboard-response","126","483362","0.0-9.0-2.0-0.27","5641","1","24","Female","approach_avoid_spark_v1","""event"",""trial"",""time""
""fullscreenenter"",""1"",""3292""
","
","
","""event"",""trial"",""time""
""fullscreenenter"",""1"",""3292""
","
","","","","","","null","<div style=""font-size:60px;"">+</div>","null","","fixation","","","","","","","","","","",""
"aa-learning-trial","127","486371","0.0-9.0-2.0-1.27","5641","1","24","Female","approach_avoid_spark_v1","""event"",""trial"",""time""
""fullscreenenter"",""1"",""3292""
","
","
","""event"",""trial"",""time""
""fullscreenenter"",""1"",""3292""
","
","","","","","","778.5","images/chair8.png","","","learning","4","4","1","1","chair","furniture","1","0","","good","[6]"
"html-keyboard-response","128","486877","0.0-9.0-2.0-0.28","5641","1","24","Female","approach_avoid_spark_v1","""event"",""trial"",""time""
""fullscreenenter"",""1"",""3292""
","
","
","""event"",""trial"",""time""
""fullscreenenter"",""1"",""3292""
","
","","","","","","null","<div style=""font-size:60px;"">+</div>","null","","fixation","","","","","","","","","","",""
"aa-learning-trial","129","489886","0.0-9.0-2.0-1.28","5641","1","24","Female","approach_avoid_spark_v1","""event"",""trial"",""time""
""fullscreenenter"",""1"",""3292""
","
","
","""event"",""trial"",""time""
""fullscreenenter"",""1"",""3292""
","
","","","","","","948.3999999999069","images/table7.png","","","learning","-4","0","0","0","table","furniture","1","0","","bad","[-5]"
"html-keyboard-response","130","490392","0.0-9.0-2.0-0.29","5641","1","24","Female","approach_avoid_spark_v1","""event"",""trial"",""time""
""fullscreenenter"",""1"",""3292""
","
","
","""event"",""trial"",""time""
""fullscreenenter"",""1"",""3292""
","
","","","","","","null","<div style=""font-size:60px;"">+</div>","null","","fixation","","","","","","","","","","",""
"aa-learning-trial","131","493400","0.0-9.0-2.0-1.29","5641","1","24","Female","approach_avoid_spark_v1","""event"",""trial"",""time""
""fullscreenenter"",""1"",""3292""
","
","
","""event"",""trial"",""time""
""fullscreenenter"",""1"",""3292""
","
","","","","","","1228.8000000000466","images/sofa3.png","","","learning","-3","-3","1","1","sofa","furniture","1","0","","neutral","0"
"html-keyboard-response","132","493902","0.0-9.0-2.0-0.30","5641","1","24","Female","approach_avoid_spark_v1","""event"",""trial"",""time""
""fullscreenenter"",""1"",""3292""
","
","
","""event"",""trial"",""time""
""fullscreenenter"",""1"",""3292""
","
","","","","","","null","<div style=""font-size:60px;"">+</div>","null","","fixation","","","","","","","","","","",""
"aa-learning-trial","133","496909","0.0-9.0-2.0-1.30","5641","1","24","Female","approach_avoid_spark_v1","""event"",""trial"",""time""
""fullscreenenter"",""1"",""3292""
","
","
","""event"",""trial"",""time""
""fullscreenenter"",""1"",""3292""
","
","","","","","","542.5","images/table4.png","","","learning","-5","0","0","0","table","furniture","1","0","","bad","[-5]"
"html-keyboard-response","134","497416","0.0-9.0-2.0-0.31","5641","1","24","Female","approach_avoid_spark_v1","""event"",""trial"",""time""
""fullscreenenter"",""1"",""3292""
","
","
","""event"",""trial"",""time""
""fullscreenenter"",""1"",""3292""
","
","","","","","","null","<div style=""font-size:60px;"">+</div>","null","","fixation","","","","","","","","","","",""
"aa-learning-trial","135","500419","0.0-9.0-2.0-1.31","5641","1","24","Female","approach_avoid_spark_v1","""event"",""trial"",""time""
""fullscreenenter"",""1"",""3292""
","
","
","""event"",""trial"",""time""
""fullscreenenter"",""1"",""3292""
","
","","","","","","488.89999999990687","images/table6.png","","","learning","-6","0","0","0","table","furniture","1","0","","bad","[-5]"
"html-keyboard-response","136","500925","0.0-9.0-2.0-0.32","5641","1","24","Female","approach_avoid_spark_v1","""event"",""trial"",""time""
""fullscreenenter"",""1"",""3292""
","
","
","""event"",""trial"",""time""
""fullscreenenter"",""1"",""3292""
","
","","","","","","null","<div style=""font-size:60px;"">+</div>","null","","fixation","","","","","","","","","","",""
"aa-learning-trial","137","503933","0.0-9.0-2.0-1.32","5641","1","24","Female","approach_avoid_spark_v1","""event"",""trial"",""time""
""fullscreenenter"",""1"",""3292""
","
","
","""event"",""trial"",""time""
""fullscreenenter"",""1"",""3292""
","
","","","","","","708.6999999999534","images/chair8.png","","","learning","5","5","1","1","chair","furniture","1","0","","good","[6]"
"html-keyboard-response","138","504435","0.0-9.0-2.0-0.33","5641","1","24","Female","approach_avoid_spark_v1","""event"",""trial"",""time""
""fullscreenenter"",""1"",""3292""
","
","
","""event"",""trial"",""time""
""fullscreenenter"",""1"",""3292""
","
","","","","","","null","<div style=""font-size:60px;"">+</div>","null","","fixation","","","","","","","","","","",""
"aa-learning-trial","139","507443","0.0-9.0-2.0-1.33","5641","1","24","Female","approach_avoid_spark_v1","""event"",""trial"",""time""
""fullscreenenter"",""1"",""3292""
","
","
","""event"",""trial"",""time""
""fullscreenenter"",""1"",""3292""
","
","","","","","","632.6000000000931","images/chair4.png","","","learning","7","7","1","1","chair","furniture","1","0","","good","[6]"
"html-keyboard-response","140","507949","0.0-9.0-2.0-0.34","5641","1","24","Female","approach_avoid_spark_v1","""event"",""trial"",""time""
""fullscreenenter"",""1"",""3292""
","
","
","""event"",""trial"",""time""
""fullscreenenter"",""1"",""3292""
","
","","","","","","null","<div style=""font-size:60px;"">+</div>","null","","fixation","","","","","","","","","","",""
"aa-learning-trial","141","510957","0.0-9.0-2.0-1.34","5641","1","24","Female","approach_avoid_spark_v1","""event"",""trial"",""time""
""fullscreenenter"",""1"",""3292""
","
","
","""event"",""trial"",""time""
""fullscreenenter"",""1"",""3292""
","
","","","","","","800.6999999999534","images/chair2.png","","","learning","7","7","1","1","chair","furniture","1","0","","good","[6]"
"html-keyboard-response","142","511461","0.0-9.0-2.0-0.35","5641","1","24","Female","approach_avoid_spark_v1","""event"",""trial"",""time""
""fullscreenenter"",""1"",""3292""
","
","
","""event"",""trial"",""time""
""fullscreenenter"",""1"",""3292""
","
","","","","","","null","<div style=""font-size:60px;"">+</div>","null","","fixation","","","","","","","","","","",""
"aa-learning-trial","143","514467","0.0-9.0-2.0-1.35","5641","1","24","Female","approach_avoid_spark_v1","""event"",""trial"",""time""
""fullscreenenter"",""1"",""3292""
","
","
","""event"",""trial"",""time""
""fullscreenenter"",""1"",""3292""
","
","","","","","","470","images/table6.png","","","learning","-5","0","0","0","table","furniture","1","0","","bad","[-5]"
"html-keyboard-response","144","514973","0.0-9.0-2.0-0.36","5641","1","24","Female","approach_avoid_spark_v1","""event"",""trial"",""time""
""fullscreenenter"",""1"",""3292""
","
","
","""event"",""trial"",""time""
""fullscreenenter"",""1"",""3292""
","
","","","","","","null","<div style=""font-size:60px;"">+</div>","null","","fixation","","","","","","","","","","",""
"aa-learning-trial","145","517981","0.0-9.0-2.0-1.36","5641","1","24","Female","approach_avoid_spark_v1","""event"",""trial"",""time""
""fullscreenenter"",""1"",""3292""
","
","
","""event"",""trial"",""time""
""fullscreenenter"",""1"",""3292""
","
","","","","","","803","images/table5.png","","","learning","-6","0","0","0","table","furniture","1","0","","bad","[-5]"
"html-keyboard-response","146","518486","0.0-9.0-2.0-0.37","5641","1","24","Female","approach_avoid_spark_v1","""event"",""trial"",""time""
""fullscreenenter"",""1"",""3292""
","
","
","""event"",""trial"",""time""
""fullscreenenter"",""1"",""3292""
","
","","","","","","null","<div style=""font-size:60px;"">+</div>","null","","fixation","","","","","","","","","","",""
"aa-learning-trial","147","521491","0.0-9.0-2.0-1.37","5641","1","24","Female","approach_avoid_spark_v1","""event"",""trial"",""time""
""fullscreenenter"",""1"",""3292""
","
","
","""event"",""trial"",""time""
""fullscreenenter"",""1"",""3292""
","
","","","","","","837.4000000001397","images/sofa8.png","","","learning","1","1","1","1","sofa","furniture","1","0","","neutral","0"
"html-keyboard-response","148","521997","0.0-9.0-2.0-0.38","5641","1","24","Female","approach_avoid_spark_v1","""event"",""trial"",""time""
""fullscreenenter"",""1"",""3292""
","
","
","""event"",""trial"",""time""
""fullscreenenter"",""1"",""3292""
","
","","","","","","null","<div style=""font-size:60px;"">+</div>","null","","fixation","","","","","","","","","","",""
"aa-learning-trial","149","525005","0.0-9.0-2.0-1.38","5641","1","24","Female","approach_avoid_spark_v1","""event"",""trial"",""time""
""fullscreenenter"",""1"",""3292""
","
","
","""event"",""trial"",""time""
""fullscreenenter"",""1"",""3292""
","
","","","","","","524.3000000000466","images/sofa1.png","","","learning","[1]","1","1","1","sofa","furniture","1","0","","neutral","0"
"html-keyboard-response","150","525511","0.0-9.0-2.0-0.39","5641","1","24","Female","approach_avoid_spark_v1","""event"",""trial"",""time""
""fullscreenenter"",""1"",""3292""
","
","
","""event"",""trial"",""time""
""fullscreenenter"",""1"",""3292""
","
","","","","","","null","<div style=""font-size:60px;"">+</div>","null","","fixation","","","","","","","","","","",""
"aa-learning-trial","151","528515","0.0-9.0-2.0-1.39","5641","1","24","Female","approach_avoid_spark_v1","""event"",""trial"",""time""
""fullscreenenter"",""1"",""3292""
","
","
","""event"",""trial"",""time""
""fullscreenenter"",""1"",""3292""
","
","","","","","","745.4000000001397","images/sofa5.png","","","learning","[1]","1","1","1","sofa","furniture","1","0","","neutral","0"
"html-keyboard-response","152","529021","0.0-9.0-2.0-0.40","5641","1","24","Female","approach_avoid_spark_v1","""event"",""trial"",""time""
""fullscreenenter"",""1"",""3292""
","
","
","""event"",""trial"",""time""
""fullscreenenter"",""1"",""3292""
","
","","","","","","null","<div style=""font-size:60px;"">+</div>","null","","fixation","","","","","","","","","","",""
"aa-learning-trial","153","532029","0.0-9.0-2.0-1.40","5641","1","24","Female","approach_avoid_spark_v1","""event"",""trial"",""time""
""fullscreenenter"",""1"",""3292""
","
","
","""event"",""trial"",""time""
""fullscreenenter"",""1"",""3292""
","
","","","","","","591","images/table4.png","","","learning","-8","0","0","0","table","furniture","1","0","","bad","[-5]"
"html-keyboard-response","154","532536","0.0-9.0-2.0-0.41","5641","1","24","Female","approach_avoid_spark_v1","""event"",""trial"",""time""
""fullscreenenter"",""1"",""3292""
","
","
","""event"",""trial"",""time""
""fullscreenenter"",""1"",""3292""
","
","","","","","","null","<div style=""font-size:60px;"">+</div>","null","","fixation","","","","","","","","","","",""
"aa-learning-trial","155","535544","0.0-9.0-2.0-1.41","5641","1","24","Female","approach_avoid_spark_v1","""event"",""trial"",""time""
""fullscreenenter"",""1"",""3292""
","
","
","""event"",""trial"",""time""
""fullscreenenter"",""1"",""3292""
","
","","","","","","991.8000000000466","images/sofa7.png","","","learning","3","0","0","0","sofa","furniture","1","0","","neutral","0"
"html-keyboard-response","156","536046","0.0-9.0-2.0-0.42","5641","1","24","Female","approach_avoid_spark_v1","""event"",""trial"",""time""
""fullscreenenter"",""1"",""3292""
","
","
","""event"",""trial"",""time""
""fullscreenenter"",""1"",""3292""
","
","","","","","","null","<div style=""font-size:60px;"">+</div>","null","","fixation","","","","","","","","","","",""
"aa-learning-trial","157","539050","0.0-9.0-2.0-1.42","5641","1","24","Female","approach_avoid_spark_v1","""event"",""trial"",""time""
""fullscreenenter"",""1"",""3292""
","
","
","""event"",""trial"",""time""
""fullscreenenter"",""1"",""3292""
","
","","","","","","832.3999999999069","images/chair8.png","","","learning","7","7","1","1","chair","furniture","1","0","","good","[6]"
"html-keyboard-response","158","539554","0.0-9.0-2.0-0.43","5641","1","24","Female","approach_avoid_spark_v1","""event"",""trial"",""time""
""fullscreenenter"",""1"",""3292""
","
","
","""event"",""trial"",""time""
""fullscreenenter"",""1"",""3292""
","
","","","","","","null","<div style=""font-size:60px;"">+</div>","null","","fixation","","","","","","","","","","",""
"aa-learning-trial","159","542559","0.0-9.0-2.0-1.43","5641","1","24","Female","approach_avoid_spark_v1","""event"",""trial"",""time""
""fullscreenenter"",""1"",""3292""
","
","
","""event"",""trial"",""time""
""fullscreenenter"",""1"",""3292""
","
","","","","","","581.5","images/chair8.png","","","learning","5","5","1","1","chair","furniture","1","0","","good","[6]"
"html-keyboard-response","160","543061","0.0-9.0-2.0-0.44","5641","1","24","Female","approach_avoid_spark_v1","""event"",""trial"",""time""
""fullscreenenter"",""1"",""3292""
","
","
","""event"",""trial"",""time""
""fullscreenenter"",""1"",""3292""
","
","","","","","","null","<div style=""font-size:60px;"">+</div>","null","","fixation","","","","","","","","","","",""
"aa-learning-trial","161","546067","0.0-9.0-2.0-1.44","5641","1","24","Female","approach_avoid_spark_v1","""event"",""trial"",""time""
""fullscreenenter"",""1"",""3292""
","
","
","""event"",""trial"",""time""
""fullscreenenter"",""1"",""3292""
","
","","","","","","511.69999999995343","images/sofa7.png","","","learning","-1","-1","1","1","sofa","furniture","1","0","","neutral","0"
"html-keyboard-response","162","546573","0.0-9.0-2.0-0.45","5641","1","24","Female","approach_avoid_spark_v1","""event"",""trial"",""time""
""fullscreenenter"",""1"",""3292""
","
","
","""event"",""trial"",""time""
""fullscreenenter"",""1"",""3292""
","
","","","","","","null","<div style=""font-size:60px;"">+</div>","null","","fixation","","","","","","","","","","",""
"aa-learning-trial","163","549581","0.0-9.0-2.0-1.45","5641","1","24","Female","approach_avoid_spark_v1","""event"",""trial"",""time""
""fullscreenenter"",""1"",""3292""
","
","
","""event"",""trial"",""time""
""fullscreenenter"",""1"",""3292""
","
","","","","","","556.8000000000466","images/chair6.png","","","learning","6","6","1","1","chair","furniture","1","0","","good","[6]"
"html-keyboard-response","164","550083","0.0-9.0-2.0-0.46","5641","1","24","Female","approach_avoid_spark_v1","""event"",""trial"",""time""
""fullscreenenter"",""1"",""3292""
","
","
","""event"",""trial"",""time""
""fullscreenenter"",""1"",""3292""
","
","","","","","","null","<div style=""font-size:60px;"">+</div>","null","","fixation","","","","","","","","","","",""
"aa-learning-trial","165","553091","0.0-9.0-2.0-1.46","5641","1","24","Female","approach_avoid_spark_v1","""event"",""trial"",""time""
""fullscreenenter"",""1"",""3292""
","
","
","""event"",""trial"",""time""
""fullscreenenter"",""1"",""3292""
","
","","","","","","681.3999999999069","images/table2.png","","","learning","-6","0","0","0","table","furniture","1","0","","bad","[-5]"
"html-keyboard-response","166","553597","0.0-9.0-2.0-0.47","5641","1","24","Female","approach_avoid_spark_v1","""event"",""trial"",""time""
""fullscreenenter"",""1"",""3292""
","
","
","""event"",""trial"",""time""
""fullscreenenter"",""1"",""3292""
","
","","","","","","null","<div style=""font-size:60px;"">+</div>","null","","fixation","","","","","","","","","","",""
"aa-learning-trial","167","556605","0.0-9.0-2.0-1.47","5641","1","24","Female","approach_avoid_spark_v1","""event"",""trial"",""time""
""fullscreenenter"",""1"",""3292""
","
","
","""event"",""trial"",""time""
""fullscreenenter"",""1"",""3292""
","
","","","","","","602.7999999998137","images/chair6.png","","","learning","8","8","1","1","chair","furniture","1","0","","good","[6]"
"html-keyboard-response","168","557107","0.0-9.0-2.0-0.48","5641","1","24","Female","approach_avoid_spark_v1","""event"",""trial"",""time""
""fullscreenenter"",""1"",""3292""
","
","
","""event"",""trial"",""time""
""fullscreenenter"",""1"",""3292""
","
","","","","","","null","<div style=""font-size:60px;"">+</div>","null","","fixation","","","","","","","","","","",""
"aa-learning-trial","169","560114","0.0-9.0-2.0-1.48","5641","1","24","Female","approach_avoid_spark_v1","""event"",""trial"",""time""
""fullscreenenter"",""1"",""3292""
","
","
","""event"",""trial"",""time""
""fullscreenenter"",""1"",""3292""
","
","","","","","","581.8999999999069","images/table7.png","","","learning","-6","0","0","0","table","furniture","1","0","","bad","[-5]"
"html-keyboard-response","170","560621","0.0-9.0-2.0-0.49","5641","1","24","Female","approach_avoid_spark_v1","""event"",""trial"",""time""
""fullscreenenter"",""1"",""3292""
","
","
","""event"",""trial"",""time""
""fullscreenenter"",""1"",""3292""
","
","","","","","","null","<div style=""font-size:60px;"">+</div>","null","","fixation","","","","","","","","","","",""
"aa-learning-trial","171","563629","0.0-9.0-2.0-1.49","5641","1","24","Female","approach_avoid_spark_v1","""event"",""trial"",""time""
""fullscreenenter"",""1"",""3292""
","
","
","""event"",""trial"",""time""
""fullscreenenter"",""1"",""3292""
","
","","","","","","460.0999999998603","images/chair2.png","","","learning","4","4","1","1","chair","furniture","1","0","","good","[6]"
"html-keyboard-response","172","564130","0.0-9.0-2.0-0.50","5641","1","24","Female","approach_avoid_spark_v1","""event"",""trial"",""time""
""fullscreenenter"",""1"",""3292""
","
","
","""event"",""trial"",""time""
""fullscreenenter"",""1"",""3292""
","
","","","","","","null","<div style=""font-size:60px;"">+</div>","null","","fixation","","","","","","","","","","",""
"aa-learning-trial","173","567138","0.0-9.0-2.0-1.50","5641","1","24","Female","approach_avoid_spark_v1","""event"",""trial"",""time""
""fullscreenenter"",""1"",""3292""
","
","
","""event"",""trial"",""time""
""fullscreenenter"",""1"",""3292""
","
","","","","","","642.4000000001397","images/chair3.png","","","learning","8","8","1","1","chair","furniture","1","0","","good","[6]"
"html-button-response","174","569015","0.0-9.0-3.0","5641","1","24","Female","approach_avoid_spark_v1","""event"",""trial"",""time""
""fullscreenenter"",""1"",""3292""
","
","
","""event"",""trial"",""time""
""fullscreenenter"",""1"",""3292""
","
","","","","","","1874.5","<p> You have completed the round! <p> In this round, you earned 73 points! </p>","0","","break","","","","","","","","","","",""
"html-button-response","175","570218","0.0-10.0","5641","1","24","Female","approach_avoid_spark_v1","""event"",""trial"",""time""
""fullscreenenter"",""1"",""3292""
","
","
","""event"",""trial"",""time""
""fullscreenenter"",""1"",""3292""
","
","","","","","","1200.8000000000466","<p> Now it's time to play another round. </p>","0","","transition_screen","","","","","","","","","","",""
"preload","176","570340","0.0-11.0-0.0","5641","1","24","Female","approach_avoid_spark_v1","""event"",""trial"",""time""
""fullscreenenter"",""1"",""3292""
","
","
","""event"",""trial"",""time""
""fullscreenenter"",""1"",""3292""
","
","true","false","[]","[]","[]","","","","","","","","","","","","","","","",""
"learning-instructions","177","577506","0.0-11.0-1.0-0.0","5641","1","24","Female","approach_avoid_spark_v1","""event"",""trial"",""time""
""fullscreenenter"",""1"",""3292""
","
","
","""event"",""trial"",""time""
""fullscreenenter"",""1"",""3292""
","
","","","","","","1545","<p> Your goal in this round is to take your friend for rides in different vehicles. </p></div>","","0","instructions","","","","","","","","","","",""
"learning-instructions","178","588012","0.0-11.0-1.0-0.1","5641","1","24","Female","approach_avoid_spark_v1","""event"",""trial"",""time""
""fullscreenenter"",""1"",""3292""
","
","
","""event"",""trial"",""time""
""fullscreenenter"",""1"",""3292""
","
","","","","","","349.60000000009313","<p> Your friend enjoys riding in some vehicles but not in others.  </p><p> On each turn, you will see a vehicle.   </p><p> You need to decide whether to take your friend for a ride or not.  </p>","","0","instructions","","","","","","","","","","",""
"learning-instructions","179","595090","0.0-11.0-1.0-0.2","5641","1","24","Female","approach_avoid_spark_v1","""event"",""trial"",""time""
""fullscreenenter"",""1"",""3292""
","
","
","""event"",""trial"",""time""
""fullscreenenter"",""1"",""3292""
","
","","","","","","387.39999999990687","<p> You can take your friend for a ride in the vehicle by pressing 1 and skip the ride by pressing 0. </p><br><div class=""choice-instructions-grid""> <div class=""choice-option""><img src=""images/approach.png"" class=""choice-option-img"" stage=""instructions"" position=""0"" ><div class=""choice-option-text""> Press ""1."" </div></div><div class=""choice-option""><img src=""images/avoid.png"" class=""choice-option-img"" stage=""instructions"" position=""1"" ><div class=""choice-option-text""> Press ""0."" </div></div>","","0","instructions","","","","","","","","","","",""
"learning-instructions","180","604396","0.0-11.0-1.0-0.3","5641","1","24","Female","approach_avoid_spark_v1","""event"",""trial"",""time""
""fullscreenenter"",""1"",""3292""
","
","
","""event"",""trial"",""time""
""fullscreenenter"",""1"",""3292""
","
","","","","","","296.69999999995343","<p> If you take them for a ride in a vehicle they like, they will be thrilled! </p><p> But if you take them for a ride in a vehicle they do not like, they will be upset. </p>","","0","instructions","","","","","","","","","","",""
"learning-instructions","181","616613","0.0-11.0-1.0-0.4","5641","1","24","Female","approach_avoid_spark_v1","""event"",""trial"",""time""
""fullscreenenter"",""1"",""3292""
","
","
","""event"",""trial"",""time""
""fullscreenenter"",""1"",""3292""
","
","","","","","","269.19999999995343","<p> You will earn points based on how you made your friend feel. </p><p> If you made him thrilled, you will WIN anywhere from 1 - 9 points, </p><p> but if you made him upset, you will LOSE anywhere from 1 - 9 points. </p>","","0","instructions","","","","","","","","","","",""
"learning-instructions","182","623636","0.0-11.0-1.0-0.5","5641","1","24","Female","approach_avoid_spark_v1","""event"",""trial"",""time""
""fullscreenenter"",""1"",""3292""
","
","
","""event"",""trial"",""time""
""fullscreenenter"",""1"",""3292""
","
","","","","","","368.5","<p> You will see how many points you won or lost in the center of the screen. </p><p> Here is what you would see if you won 5 points: </p><p style=""color:green;font-size:50px;font-weight:bolder"">5</p>","","0","instructions","","","","","","","","","","",""
"learning-instructions","183","626856","0.0-11.0-1.0-0.6","5641","1","24","Female","approach_avoid_spark_v1","""event"",""trial"",""time""
""fullscreenenter"",""1"",""3292""
","
","
","""event"",""trial"",""time""
""fullscreenenter"",""1"",""3292""
","
","","","","","","388.29999999981374","<p> And here is what you would see if you lost 3 points: </p><p style=""color:red;font-size:50px;font-weight:bolder"">-3</p>","","0","instructions","","","","","","","","","","",""
"learning-instructions","184","642738","0.0-11.0-1.0-0.7","5641","1","24","Female","approach_avoid_spark_v1","""event"",""trial"",""time""
""fullscreenenter"",""1"",""3292""
","
","
","""event"",""trial"",""time""
""fullscreenenter"",""1"",""3292""
","
","","","","","","361.30000000004657","<p> Some vehicles will make your friend REALLY thrilled or upset. </p><p> These vehicles will make you win or lose LOTS of points. </p><p> Other vehicles will only make him feel a little thrilled or upset. </p><p> These vehicles will make you win or lose small amounts of points. </p>","","0","instructions","","","","","","","","","","",""
"learning-instructions","185","655125","0.0-11.0-1.0-0.8","5641","1","24","Female","approach_avoid_spark_v1","""event"",""trial"",""time""
""fullscreenenter"",""1"",""3292""
","
","
","""event"",""trial"",""time""
""fullscreenenter"",""1"",""3292""
","
","","","","","","380.80000000004657","<p> If you choose to skip the ride, you will not win or lose any points. </p><p>  However, in the center of the screen, you will see the number of points you WOULD HAVE won or lost if you had taken your friend for a ride. </p>","","0","instructions","","","","","","","","","","",""
"learning-instructions","186","666455","0.0-11.0-1.0-0.9","5641","1","24","Female","approach_avoid_spark_v1","""event"",""trial"",""time""
""fullscreenenter"",""1"",""3292""
","
","
","""event"",""trial"",""time""
""fullscreenenter"",""1"",""3292""
","
","","","","","","329.10000000009313","<p> Here is what you might see if you did not take your friend for a ride but he would have enjoyed it: </p><p style=""color:grey; font-size:50px; display: inline-block; border-spacing: 15px; border-width:3px; border-style:solid; border-color:red"">  &nbsp; 6 &nbsp; </p><p> Remember, in this case, you would not win or lose ANY points because you skipped the ride.  </p>","","0","instructions","","","","","","","","","","",""
"learning-instructions","187","674872","0.0-11.0-1.0-0.10","5641","1","24","Female","approach_avoid_spark_v1","""event"",""trial"",""time""
""fullscreenenter"",""1"",""3292""
","
","
","""event"",""trial"",""time""
""fullscreenenter"",""1"",""3292""
","
","","","","","","596.3000000000466","<p> Try to make the best choice for each vehicle because </p><p> at the end of the game, you will earn bonus money based on how many points you earned. </p>","","0","instructions","","","","","","","","","","",""
"learning-instructions","188","683515","0.0-11.0-1.0-0.11","5641","1","24","Female","approach_avoid_spark_v1","""event"",""trial"",""time""
""fullscreenenter"",""1"",""3292""
","
","
","""event"",""trial"",""time""
""fullscreenenter"",""1"",""3292""
","
","","","","","","455.0999999998603","<p> You will have 3 seconds to make each choice. Try to respond before time runs out! </p><p> You will lose 5 points each time you do not make a response. </p>","","0","instructions","","","","","","","","","","",""
"html-keyboard-response","189","684125","0.0-11.0-2.0-0.0","5641","1","24","Female","approach_avoid_spark_v1","""event"",""trial"",""time""
""fullscreenenter"",""1"",""3292""
","
","
","""event"",""trial"",""time""
""fullscreenenter"",""1"",""3292""
","
","","","","","","null","<div style=""font-size:60px;"">+</div>","null","","fixation","","","","","","","","","","",""
"aa-learning-trial","190","687134","0.0-11.0-2.0-1.0","5641","1","24","Female","approach_avoid_spark_v1","""event"",""trial"",""time""
""fullscreenenter"",""1"",""3292""
","
","
","""event"",""trial"",""time""
""fullscreenenter"",""1"",""3292""
","
","","","","","","783.8000000000466","images/plane8.png","","","learning","4","0","0","0","plane","vehicles","2","1","","neutral","0"
"html-keyboard-response","191","687636","0.0-11.0-2.0-0.1","5641","1","24","Female","approach_avoid_spark_v1","""event"",""trial"",""time""
""fullscreenenter"",""1"",""3292""
","
","
","""event"",""trial"",""time""
""fullscreenenter"",""1"",""3292""
","
","","","","","","null","<div style=""font-size:60px;"">+</div>","null","","fixation","","","","","","","","","","",""
"aa-learning-trial","192","690644","0.0-11.0-2.0-1.1","5641","1","24","Female","approach_avoid_spark_v1","""event"",""trial"",""time""
""fullscreenenter"",""1"",""3292""
","
","
","""event"",""trial"",""time""
""fullscreenenter"",""1"",""3292""
","
","","","","","","616.2999999998137","images/train1.png","","","learning","-9","0","0","0","train","vehicles","2","1","","good","[5]"
"html-keyboard-response","193","691151","0.0-11.0-2.0-0.2","5641","1","24","Female","approach_avoid_spark_v1","""event"",""trial"",""time""
""fullscreenenter"",""1"",""3292""
","
","
","""event"",""trial"",""time""
""fullscreenenter"",""1"",""3292""
","
","","","","","","null","<div style=""font-size:60px;"">+</div>","null","","fixation","","","","","","","","","","",""
"aa-learning-trial","194","694155","0.0-11.0-2.0-1.2","5641","1","24","Female","approach_avoid_spark_v1","""event"",""trial"",""time""
""fullscreenenter"",""1"",""3292""
","
","
","""event"",""trial"",""time""
""fullscreenenter"",""1"",""3292""
","
","","","","","","610.5999999998603","images/train6.png","","","learning","-4","0","0","0","train","vehicles","2","1","","good","[5]"
"html-keyboard-response","195","694660","0.0-11.0-2.0-0.3","5641","1","24","Female","approach_avoid_spark_v1","""event"",""trial"",""time""
""fullscreenenter"",""1"",""3292""
","
","
","""event"",""trial"",""time""
""fullscreenenter"",""1"",""3292""
","
","","","","","","null","<div style=""font-size:60px;"">+</div>","null","","fixation","","","","","","","","","","",""
"aa-learning-trial","196","697669","0.0-11.0-2.0-1.3","5641","1","24","Female","approach_avoid_spark_v1","""event"",""trial"",""time""
""fullscreenenter"",""1"",""3292""
","
","
","""event"",""trial"",""time""
""fullscreenenter"",""1"",""3292""
","
","","","","","","492","images/truck2.png","","","learning","8","0","0","0","truck","vehicles","2","1","","bad","[-6]"
"html-keyboard-response","197","698173","0.0-11.0-2.0-0.4","5641","1","24","Female","approach_avoid_spark_v1","""event"",""trial"",""time""
""fullscreenenter"",""1"",""3292""
","
","
","""event"",""trial"",""time""
""fullscreenenter"",""1"",""3292""
","
","","","","","","null","<div style=""font-size:60px;"">+</div>","null","","fixation","","","","","","","","","","",""
"aa-learning-trial","198","701181","0.0-11.0-2.0-1.4","5641","1","24","Female","approach_avoid_spark_v1","""event"",""trial"",""time""
""fullscreenenter"",""1"",""3292""
","
","
","""event"",""trial"",""time""
""fullscreenenter"",""1"",""3292""
","
","","","","","","662.6999999999534","images/plane4.png","","","learning","-3","-3","1","1","plane","vehicles","2","1","","neutral","0"
"html-keyboard-response","199","701683","0.0-11.0-2.0-0.5","5641","1","24","Female","approach_avoid_spark_v1","""event"",""trial"",""time""
""fullscreenenter"",""1"",""3292""
","
","
","""event"",""trial"",""time""
""fullscreenenter"",""1"",""3292""
","
","","","","","","null","<div style=""font-size:60px;"">+</div>","null","","fixation","","","","","","","","","","",""
"aa-learning-trial","200","704688","0.0-11.0-2.0-1.5","5641","1","24","Female","approach_avoid_spark_v1","""event"",""trial"",""time""
""fullscreenenter"",""1"",""3292""
","
","
","""event"",""trial"",""time""
""fullscreenenter"",""1"",""3292""
","
","","","","","","675.3000000000466","images/plane7.png","","","learning","-8","-8","1","1","plane","vehicles","2","1","","neutral","0"
"html-keyboard-response","201","705192","0.0-11.0-2.0-0.6","5641","1","24","Female","approach_avoid_spark_v1","""event"",""trial"",""time""
""fullscreenenter"",""1"",""3292""
","
","
","""event"",""trial"",""time""
""fullscreenenter"",""1"",""3292""
","
","","","","","","null","<div style=""font-size:60px;"">+</div>","null","","fixation","","","","","","","","","","",""
"aa-learning-trial","202","708197","0.0-11.0-2.0-1.6","5641","1","24","Female","approach_avoid_spark_v1","""event"",""trial"",""time""
""fullscreenenter"",""1"",""3292""
","
","
","""event"",""trial"",""time""
""fullscreenenter"",""1"",""3292""
","
","","","","","","906.5999999998603","images/truck4.png","","","learning","-5","-5","1","1","truck","vehicles","2","1","","bad","[-6]"
"html-keyboard-response","203","708703","0.0-11.0-2.0-0.7","5641","1","24","Female","approach_avoid_spark_v1","""event"",""trial"",""time""
""fullscreenenter"",""1"",""3292""
","
","
","""event"",""trial"",""time""
""fullscreenenter"",""1"",""3292""
","
","","","","","","null","<div style=""font-size:60px;"">+</div>","null","","fixation","","","","","","","","","","",""
"aa-learning-trial","204","711712","0.0-11.0-2.0-1.7","5641","1","24","Female","approach_avoid_spark_v1","""event"",""trial"",""time""
""fullscreenenter"",""1"",""3292""
","
","
","""event"",""trial"",""time""
""fullscreenenter"",""1"",""3292""
","
","","","","","","1398.6000000000931","images/train4.png","","","learning","6","0","0","0","train","vehicles","2","1","","good","[5]"
"html-keyboard-response","205","712218","0.0-11.0-2.0-0.8","5641","1","24","Female","approach_avoid_spark_v1","""event"",""trial"",""time""
""fullscreenenter"",""1"",""3292""
","
","
","""event"",""trial"",""time""
""fullscreenenter"",""1"",""3292""
","
","","","","","","null","<div style=""font-size:60px;"">+</div>","null","","fixation","","","","","","","","","","",""
"aa-learning-trial","206","715225","0.0-11.0-2.0-1.8","5641","1","24","Female","approach_avoid_spark_v1","""event"",""trial"",""time""
""fullscreenenter"",""1"",""3292""
","
","
","""event"",""trial"",""time""
""fullscreenenter"",""1"",""3292""
","
","","","","","","805.3000000000466","images/train6.png","","","learning","-4","0","0","0","train","vehicles","2","1","","good","[5]"
"html-keyboard-response","207","715731","0.0-11.0-2.0-0.9","5641","1","24","Female","approach_avoid_spark_v1","""event"",""trial"",""time""
""fullscreenenter"",""1"",""3292""
","
","
","""event"",""trial"",""time""
""fullscreenenter"",""1"",""3292""
","
","","","","","","null","<div style=""font-size:60px;"">+</div>","null","","fixation","","","","","","","","","","",""
"aa-learning-trial","208","718740","0.0-11.0-2.0-1.9","5641","1","24","Female","approach_avoid_spark_v1","""event"",""trial"",""time""
""fullscreenenter"",""1"",""3292""
","
","
","""event"",""trial"",""time""
""fullscreenenter"",""1"",""3292""
","
","","","","","","704.5999999998603","images/train4.png","","","learning","6","6","1","1","train","vehicles","2","1","","good","[5]"
"html-keyboard-response","209","719242","0.0-11.0-2.0-0.10","5641","1","24","Female","approach_avoid_spark_v1","""event"",""trial"",""time""
""fullscreenenter"",""1"",""3292""
","
","
","""event"",""trial"",""time""
""fullscreenenter"",""1"",""3292""
","
","","","","","","null","<div style=""font-size:60px;"">+</div>","null","","fixation","","","","","","","","","","",""
"aa-learning-trial","210","722249","0.0-11.0-2.0-1.10","5641","1","24","Female","approach_avoid_spark_v1","""event"",""trial"",""time""
""fullscreenenter"",""1"",""3292""
","
","
","""event"",""trial"",""time""
""fullscreenenter"",""1"",""3292""
","
","","","","","","613.5","images/plane8.png","","","learning","4","4","1","1","plane","vehicles","2","1","","neutral","0"
"html-keyboard-response","211","722755","0.0-11.0-2.0-0.11","5641","1","24","Female","approach_avoid_spark_v1","""event"",""trial"",""time""
""fullscreenenter"",""1"",""3292""
","
","
","""event"",""trial"",""time""
""fullscreenenter"",""1"",""3292""
","
","","","","","","null","<div style=""font-size:60px;"">+</div>","null","","fixation","","","","","","","","","","",""
"aa-learning-trial","212","725763","0.0-11.0-2.0-1.11","5641","1","24","Female","approach_avoid_spark_v1","""event"",""trial"",""time""
""fullscreenenter"",""1"",""3292""
","
","
","""event"",""trial"",""time""
""fullscreenenter"",""1"",""3292""
","
","","","","","","812.5","images/plane7.png","","","learning","-8","0","0","0","plane","vehicles","2","1","","neutral","0"
"html-keyboard-response","213","726270","0.0-11.0-2.0-0.12","5641","1","24","Female","approach_avoid_spark_v1","""event"",""trial"",""time""
""fullscreenenter"",""1"",""3292""
","
","
","""event"",""trial"",""time""
""fullscreenenter"",""1"",""3292""
","
","","","","","","null","<div style=""font-size:60px;"">+</div>","null","","fixation","","","","","","","","","","",""
"aa-learning-trial","214","729278","0.0-11.0-2.0-1.12","5641","1","24","Female","approach_avoid_spark_v1","""event"",""trial"",""time""
""fullscreenenter"",""1"",""3292""
","
","
","""event"",""trial"",""time""
""fullscreenenter"",""1"",""3292""
","
","","","","","","586.0999999998603","images/truck2.png","","","learning","8","8","1","1","truck","vehicles","2","1","","bad","[-6]"
"html-keyboard-response","215","729780","0.0-11.0-2.0-0.13","5641","1","24","Female","approach_avoid_spark_v1","""event"",""trial"",""time""
""fullscreenenter"",""1"",""3292""
","
","
","""event"",""trial"",""time""
""fullscreenenter"",""1"",""3292""
","
","","","","","","null","<div style=""font-size:60px;"">+</div>","null","","fixation","","","","","","","","","","",""
"aa-learning-trial","216","732788","0.0-11.0-2.0-1.13","5641","1","24","Female","approach_avoid_spark_v1","""event"",""trial"",""time""
""fullscreenenter"",""1"",""3292""
","
","
","""event"",""trial"",""time""
""fullscreenenter"",""1"",""3292""
","
","","","","","","682.0999999998603","images/truck1.png","","","learning","-7","0","0","0","truck","vehicles","2","1","","bad","[-6]"
"html-keyboard-response","217","733294","0.0-11.0-2.0-0.14","5641","1","24","Female","approach_avoid_spark_v1","""event"",""trial"",""time""
""fullscreenenter"",""1"",""3292""
","
","
","""event"",""trial"",""time""
""fullscreenenter"",""1"",""3292""
","
","","","","","","null","<div style=""font-size:60px;"">+</div>","null","","fixation","","","","","","","","","","",""
"aa-learning-trial","218","736302","0.0-11.0-2.0-1.14","5641","1","24","Female","approach_avoid_spark_v1","""event"",""trial"",""time""
""fullscreenenter"",""1"",""3292""
","
","
","""event"",""trial"",""time""
""fullscreenenter"",""1"",""3292""
","
","","","","","","609.3000000000466","images/truck1.png","","","learning","-7","0","0","0","truck","vehicles","2","1","","bad","[-6]"
"html-keyboard-response","219","736809","0.0-11.0-2.0-0.15","5641","1","24","Female","approach_avoid_spark_v1","""event"",""trial"",""time""
""fullscreenenter"",""1"",""3292""
","
","
","""event"",""trial"",""time""
""fullscreenenter"",""1"",""3292""
","
","","","","","","null","<div style=""font-size:60px;"">+</div>","null","","fixation","","","","","","","","","","",""
"aa-learning-trial","220","739817","0.0-11.0-2.0-1.15","5641","1","24","Female","approach_avoid_spark_v1","""event"",""trial"",""time""
""fullscreenenter"",""1"",""3292""
","
","
","""event"",""trial"",""time""
""fullscreenenter"",""1"",""3292""
","
","","","","","","925.1999999999534","images/plane7.png","","","learning","-8","0","0","0","plane","vehicles","2","1","","neutral","0"
"html-keyboard-response","221","740323","0.0-11.0-2.0-0.16","5641","1","24","Female","approach_avoid_spark_v1","""event"",""trial"",""time""
""fullscreenenter"",""1"",""3292""
","
","
","""event"",""trial"",""time""
""fullscreenenter"",""1"",""3292""
","
","","","","","","null","<div style=""font-size:60px;"">+</div>","null","","fixation","","","","","","","","","","",""
"aa-learning-trial","222","743332","0.0-11.0-2.0-1.16","5641","1","24","Female","approach_avoid_spark_v1","""event"",""trial"",""time""
""fullscreenenter"",""1"",""3292""
","
","
","""event"",""trial"",""time""
""fullscreenenter"",""1"",""3292""
","
","","","","","","839.5","images/plane5.png","","","learning","2","0","0","0","plane","vehicles","2","1","","neutral","0"
"html-keyboard-response","223","743838","0.0-11.0-2.0-0.17","5641","1","24","Female","approach_avoid_spark_v1","""event"",""trial"",""time""
""fullscreenenter"",""1"",""3292""
","
","
","""event"",""trial"",""time""
""fullscreenenter"",""1"",""3292""
","
","","","","","","null","<div style=""font-size:60px;"">+</div>","null","","fixation","","","","","","","","","","",""
"aa-learning-trial","224","746846","0.0-11.0-2.0-1.17","5641","1","24","Female","approach_avoid_spark_v1","""event"",""trial"",""time""
""fullscreenenter"",""1"",""3292""
","
","
","""event"",""trial"",""time""
""fullscreenenter"",""1"",""3292""
","
","","","","","","824.1000000000931","images/plane4.png","","","learning","-3","0","0","0","plane","vehicles","2","1","","neutral","0"
"html-keyboard-response","225","747353","0.0-11.0-2.0-0.18","5641","1","24","Female","approach_avoid_spark_v1","""event"",""trial"",""time""
""fullscreenenter"",""1"",""3292""
","
","
","""event"",""trial"",""time""
""fullscreenenter"",""1"",""3292""
","
","","","","","","null","<div style=""font-size:60px;"">+</div>","null","","fixation","","","","","","","","","","",""
"aa-learning-trial","226","750361","0.0-11.0-2.0-1.18","5641","1","24","Female","approach_avoid_spark_v1","""event"",""trial"",""time""
""fullscreenenter"",""1"",""3292""
","
","
","""event"",""trial"",""time""
""fullscreenenter"",""1"",""3292""
","
","","","","","","681.8999999999069","images/train1.png","","","learning","-9","0","0","0","train","vehicles","2","1","","good","[5]"
"html-keyboard-response","227","750867","0.0-11.0-2.0-0.19","5641","1","24","Female","approach_avoid_spark_v1","""event"",""trial"",""time""
""fullscreenenter"",""1"",""3292""
","
","
","""event"",""trial"",""time""
""fullscreenenter"",""1"",""3292""
","
","","","","","","null","<div style=""font-size:60px;"">+</div>","null","","fixation","","","","","","","","","","",""
"aa-learning-trial","228","753876","0.0-11.0-2.0-1.19","5641","1","24","Female","approach_avoid_spark_v1","""event"",""trial"",""time""
""fullscreenenter"",""1"",""3292""
","
","
","""event"",""trial"",""time""
""fullscreenenter"",""1"",""3292""
","
","","","","","","1243.3999999999069","images/truck1.png","","","learning","-7","0","0","0","truck","vehicles","2","1","","bad","[-6]"
"html-keyboard-response","229","754378","0.0-11.0-2.0-0.20","5641","1","24","Female","approach_avoid_spark_v1","""event"",""trial"",""time""
""fullscreenenter"",""1"",""3292""
","
","
","""event"",""trial"",""time""
""fullscreenenter"",""1"",""3292""
","
","","","","","","null","<div style=""font-size:60px;"">+</div>","null","","fixation","","","","","","","","","","",""
"aa-learning-trial","230","757385","0.0-11.0-2.0-1.20","5641","1","24","Female","approach_avoid_spark_v1","""event"",""trial"",""time""
""fullscreenenter"",""1"",""3292""
","
","
","""event"",""trial"",""time""
""fullscreenenter"",""1"",""3292""
","
","","","","","","491.89999999990687","images/truck2.png","","","learning","8","8","1","1","truck","vehicles","2","1","","bad","[-6]"
"html-keyboard-response","231","757891","0.0-11.0-2.0-0.21","5641","1","24","Female","approach_avoid_spark_v1","""event"",""trial"",""time""
""fullscreenenter"",""1"",""3292""
","
","
","""event"",""trial"",""time""
""fullscreenenter"",""1"",""3292""
","
","","","","","","null","<div style=""font-size:60px;"">+</div>","null","","fixation","","","","","","","","","","",""
"aa-learning-trial","232","760900","0.0-11.0-2.0-1.21","5641","1","24","Female","approach_avoid_spark_v1","""event"",""trial"",""time""
""fullscreenenter"",""1"",""3292""
","
","
","""event"",""trial"",""time""
""fullscreenenter"",""1"",""3292""
","
","","","","","","577.0999999998603","images/train6.png","","","learning","-4","0","0","0","train","vehicles","2","1","","good","[5]"
"html-keyboard-response","233","761406","0.0-11.0-2.0-0.22","5641","1","24","Female","approach_avoid_spark_v1","""event"",""trial"",""time""
""fullscreenenter"",""1"",""3292""
","
","
","""event"",""trial"",""time""
""fullscreenenter"",""1"",""3292""
","
","","","","","","null","<div style=""font-size:60px;"">+</div>","null","","fixation","","","","","","","","","","",""
"aa-learning-trial","234","764414","0.0-11.0-2.0-1.22","5641","1","24","Female","approach_avoid_spark_v1","""event"",""trial"",""time""
""fullscreenenter"",""1"",""3292""
","
","
","""event"",""trial"",""time""
""fullscreenenter"",""1"",""3292""
","
","","","","","","699.9000000001397","images/train4.png","","","learning","6","6","1","1","train","vehicles","2","1","","good","[5]"
"html-keyboard-response","235","764916","0.0-11.0-2.0-0.23","5641","1","24","Female","approach_avoid_spark_v1","""event"",""trial"",""time""
""fullscreenenter"",""1"",""3292""
","
","
","""event"",""trial"",""time""
