"trial_type","trial_index","time_elapsed","internal_node_id","subject_id","task_condition","age","gender","task_version","interactions","blur_events","focus_events","fullscreenenter_events","fullscreenexit_events","success","timeout","failed_images","failed_audio","failed_video","rt","stimulus","response","button_pressed","task_part","approach_reward","points","key_press","option_selected","stim_cat","task_block","block_condition","block_number","correct","cat_type","mean_cat_reward"
"pavlovia","0","4","0.0-0.0","4507","2","20","Male","approach_avoid_spark_v1","""event"",""trial"",""time""
""fullscreenenter"",""1"",""1908""
","
","
","""event"",""trial"",""time""
""fullscreenenter"",""1"",""1908""
","
","","","","","","","","","","","","","","","","","","","","",""
"fullscreen","1","2889","0.0-1.0","4507","2","20","Male","approach_avoid_spark_v1","""event"",""trial"",""time""
""fullscreenenter"",""1"",""1908""
","
","
","""event"",""trial"",""time""
""fullscreenenter"",""1"",""1908""
","
","true","","","","","","","","","","","","","","","","","","","",""
"preload","2","45253","0.0-2.0","4507","2","20","Male","approach_avoid_spark_v1","""event"",""trial"",""time""
""fullscreenenter"",""1"",""1908""
","
","
","""event"",""trial"",""time""
""fullscreenenter"",""1"",""1908""
","
","true","false","[]","[]","[]","","","","","","","","","","","","","","","",""
"audio-keyboard-response","3","49902","0.0-3.0","4507","2","20","Male","approach_avoid_spark_v1","""event"",""trial"",""time""
""fullscreenenter"",""1"",""1908""
","
","
","""event"",""trial"",""time""
""fullscreenenter"",""1"",""1908""
","
","","","","","","4629.333333333335","audio/beep_loop.wav"," ","","","","","","","","","","","","",""
"audio-button-response","4","51394","0.0-4.0","4507","2","20","Male","approach_avoid_spark_v1","""event"",""trial"",""time""
""fullscreenenter"",""1"",""1908""
","
","
","""event"",""trial"",""time""
""fullscreenenter"",""1"",""1908""
","
","","","","","","1491","audio/shark.wav","4","","","","","","","","","","","","",""
"audio-button-response","5","53335","0.0-5.0","4507","2","20","Male","approach_avoid_spark_v1","""event"",""trial"",""time""
""fullscreenenter"",""1"",""1908""
","
","
","""event"",""trial"",""time""
""fullscreenenter"",""1"",""1908""
","
","","","","","","939","audio/turtle.wav","1","","","","","","","","","","","","",""
"preload","6","67284","0.0-6.0","4507","2","20","Male","approach_avoid_spark_v1","""event"",""trial"",""time""
""fullscreenenter"",""1"",""1908""
","
","
","""event"",""trial"",""time""
""fullscreenenter"",""1"",""1908""
","
","true","false","[]","[]","[]","","","","","","","","","","","","","","","",""
"html-keyboard-response","7","73387","0.0-7.0","4507","2","20","Male","approach_avoid_spark_v1","""event"",""trial"",""time""
""fullscreenenter"",""1"",""1908""
","
","
","""event"",""trial"",""time""
""fullscreenenter"",""1"",""1908""
","
","","","","","","6102.200000017881","Welcome to the experiment. Press any key to begin and to advance the instructions."," ","","","","","","","","","","","","",""
"learning-instructions","8","85777","0.0-8.0-0.0-0.0","4507","2","20","Male","approach_avoid_spark_v1","""event"",""trial"",""time""
""fullscreenenter"",""1"",""1908""
","
","
","""event"",""trial"",""time""
""fullscreenenter"",""1"",""1908""
","
","","","","","","5430.5999999940395","<p> Welcome! Today you are going to play 6 different rounds of a decision-making game. </p><p> Use the mouse to click next to continue. </p>","","0","instructions","","","","","","","","","","",""
"learning-instructions","9","92514","0.0-8.0-0.0-0.1","4507","2","20","Male","approach_avoid_spark_v1","""event"",""trial"",""time""
""fullscreenenter"",""1"",""1908""
","
","
","""event"",""trial"",""time""
""fullscreenenter"",""1"",""1908""
","
","","","","","","3999.699999988079","<p> You will start with a practice round to learn the rules. </p>","","0","instructions","","","","","","","","","","",""
"learning-instructions","10","96549","0.0-8.0-0.0-0.2","4507","2","20","Male","approach_avoid_spark_v1","""event"",""trial"",""time""
""fullscreenenter"",""1"",""1908""
","
","
","""event"",""trial"",""time""
""fullscreenenter"",""1"",""1908""
","
","","","","","","574.5","<p> Your goal in this round is to give out sports equipment to kids. </p></div>","","0","instructions","","","","","","","","","","",""
"learning-instructions","11","105019","0.0-8.0-0.0-0.3","4507","2","20","Male","approach_avoid_spark_v1","""event"",""trial"",""time""
""fullscreenenter"",""1"",""1908""
","
","
","""event"",""trial"",""time""
""fullscreenenter"",""1"",""1908""
","
","","","","","","903.4000000059605","<p> The kids only like some of the equipment.  </p><p> On each turn, you will see a piece of sports equipment.   </p><p> You need to decide whether to give it to the kids or not.  </p>","","0","instructions","","","","","","","","","","",""
"learning-instructions","12","110756","0.0-8.0-0.0-0.4","4507","2","20","Male","approach_avoid_spark_v1","""event"",""trial"",""time""
""fullscreenenter"",""1"",""1908""
","
","
","""event"",""trial"",""time""
""fullscreenenter"",""1"",""1908""
","
","","","","","","980.6999999880791","<p> You can give them the equipment by pressing 1 and choose not to give it to them by pressing 0. </p><br><div class=""choice-instructions-grid""> <div class=""choice-option""><img src=""images/approach.png"" class=""choice-option-img"" stage=""instructions"" position=""0"" ><div class=""choice-option-text""> Press ""1."" </div></div><div class=""choice-option""><img src=""images/avoid.png"" class=""choice-option-img"" stage=""instructions"" position=""1"" ><div class=""choice-option-text""> Press ""0."" </div></div>","","0","instructions","","","","","","","","","","",""
"learning-instructions","13","119485","0.0-8.0-0.0-0.5","4507","2","20","Male","approach_avoid_spark_v1","""event"",""trial"",""time""
""fullscreenenter"",""1"",""1908""
","
","
","""event"",""trial"",""time""
""fullscreenenter"",""1"",""1908""
","
","","","","","","1350.1000000238419","<p> If you give them a piece of equipment they like, they will be happy! </p><p> But if you give them a piece of equipment they do not like, they will be sad. </p>","","0","instructions","","","","","","","","","","",""
"learning-instructions","14","130465","0.0-8.0-0.0-0.6","4507","2","20","Male","approach_avoid_spark_v1","""event"",""trial"",""time""
""fullscreenenter"",""1"",""1908""
","
","
","""event"",""trial"",""time""
""fullscreenenter"",""1"",""1908""
","
","","","","","","469.69999998807907","<p> You will earn points based on how you make kids feel. </p><p> If you make them happy, you will WIN anywhere from 1 - 9 points, </p><p> but if you make them sad, you will LOSE anywhere from 1 - 9 points. </p>","","0","instructions","","","","","","","","","","",""
"learning-instructions","15","140429","0.0-8.0-0.0-0.7","4507","2","20","Male","approach_avoid_spark_v1","""event"",""trial"",""time""
""fullscreenenter"",""1"",""1908""
","
","
","""event"",""trial"",""time""
""fullscreenenter"",""1"",""1908""
","
","","","","","","414.09999999403954","<p> You will see how many points you won or lost in the center of the screen. </p><p> Here is what you would see if you won 6 points: </p><p style=""color:green;font-size:50px;font-weight:bolder"">6</p><p style=""color:green"">The text is GREEN because you WON points.</p>","","0","instructions","","","","","","","","","","",""
"learning-instructions","16","146398","0.0-8.0-0.0-0.8","4507","2","20","Male","approach_avoid_spark_v1","""event"",""trial"",""time""
""fullscreenenter"",""1"",""1908""
","
","
","""event"",""trial"",""time""
""fullscreenenter"",""1"",""1908""
","
","","","","","","462.80000001192093","<p> And here is what you would see if you lost 4 points: </p><p style=""color:red;font-size:50px;font-weight:bolder"">-4</p><p style=""color:red"">The text is RED because you LOST points. </p>","","0","instructions","","","","","","","","","","",""
"learning-instructions","17","162451","0.0-8.0-0.0-0.9","4507","2","20","Male","approach_avoid_spark_v1","""event"",""trial"",""time""
""fullscreenenter"",""1"",""1908""
","
","
","""event"",""trial"",""time""
""fullscreenenter"",""1"",""1908""
","
","","","","","","1325.0999999940395","<p> Some of the equipment will make the kids VERY happy or sad. </p><p> These pieces of equipment will make you win or lose LOTS of points. </p><p> Other pieces of equipment will only make the kids a little happy or sad. </p><p> These pieces of equipment will make you win or lose small amounts of points. </p>","","0","instructions","","","","","","","","","","",""
"learning-instructions","18","174380","0.0-8.0-0.0-0.10","4507","2","20","Male","approach_avoid_spark_v1","""event"",""trial"",""time""
""fullscreenenter"",""1"",""1908""
","
","
","""event"",""trial"",""time""
""fullscreenenter"",""1"",""1908""
","
","","","","","","1294.0999999940395","<p> If you choose not to give them the equipment, you will not win or lose any points. </p><p>  However, in the center of the screen, you will see the number of points you WOULD HAVE won or lost if you had given them the equipment. </p>","","0","instructions","","","","","","","","","","",""
"learning-instructions","19","197359","0.0-8.0-0.0-0.11","4507","2","20","Male","approach_avoid_spark_v1","""event"",""trial"",""time""
""fullscreenenter"",""1"",""1908""
","
","
","""event"",""trial"",""time""
""fullscreenenter"",""1"",""1908""
","
","","","","","","1454.3999999761581","<p> Here is what you might see if you did not give the equipment to the kids but it would have made them happy: </p><p style=""color:grey; font-size:50px; display: inline-block; border-spacing: 15px; border-width:3px; border-style:solid; border-color:red"">  &nbsp; 7 &nbsp; </p><p> Remember, in this case, you would not win or lose ANY points because you did not give them the equipment.  </p><p style=""color:grey"">The text is GREY because you earned ZERO points. </p><p style=""color:red"">However, choosing to give the kids the equipment would have made you win points. The box around the text is RED because you chose the worse option. </p>","","0","instructions","","","","","","","","","","",""
"learning-instructions","20","219636","0.0-8.0-0.0-0.12","4507","2","20","Male","approach_avoid_spark_v1","""event"",""trial"",""time""
""fullscreenenter"",""1"",""1908""
","
","
","""event"",""trial"",""time""
""fullscreenenter"",""1"",""1908""
","
","","","","","","1189.4000000059605","<p> Here is what you might see if you did not give the equipment to the kids but it would have made them sad: </p><p style=""color:grey;font-size:50px; display: inline-block; border-spacing: 15px; border-width:3px; border-style:solid; border-color:green"">  &nbsp; -8 &nbsp; </p><p> Remember, in this case, you would not win or lose ANY points because you did not give them the equipment.  </p><p style=""color:grey"">The text is GREY because you earned ZERO points. </p><p  style=""color:green""> Choosing to give the kids the equipment would have made you lose points. The box around the text is GREEN because you chose the better option.</p>","","0","instructions","","","","","","","","","","",""
"learning-instructions","21","229761","0.0-8.0-0.0-0.13","4507","2","20","Male","approach_avoid_spark_v1","""event"",""trial"",""time""
""fullscreenenter"",""1"",""1908""
","
","
","""event"",""trial"",""time""
""fullscreenenter"",""1"",""1908""
","
","","","","","","875.8000000119209","<p> You will have 3 seconds to make each choice. Try to respond before time runs out! </p><p> You will lose 5 points each time you do not make a response. </p>","","0","instructions","","","","","","","","","","",""
"learning-instructions","22","235886","0.0-8.0-0.0-0.14","4507","2","20","Male","approach_avoid_spark_v1","""event"",""trial"",""time""
""fullscreenenter"",""1"",""1908""
","
","
","""event"",""trial"",""time""
""fullscreenenter"",""1"",""1908""
","
","","","","","","699.9000000059605","<p> This is just a practice round, but in the real game, your bonus payment will depend on your total number of points.","","0","instructions","","","","","","","","","","",""
"learning-instructions","23","242057","0.0-8.0-0.0-0.15","4507","2","20","Male","approach_avoid_spark_v1","""event"",""trial"",""time""
""fullscreenenter"",""1"",""1908""
","
","
","""event"",""trial"",""time""
""fullscreenenter"",""1"",""1908""
","
","","","","","","410.59999999403954","<p> Remember, you can give them the equipment by pressing 1 and choose not to give it to them by pressing 0. </p><br><div class=""choice-instructions-grid""> <div class=""choice-option""><img src=""images/approach.png"" class=""choice-option-img"" stage=""instructions"" position=""0"" ><div class=""choice-option-text""> Press ""1."" </div></div><div class=""choice-option""><img src=""images/avoid.png"" class=""choice-option-img"" stage=""instructions"" position=""1"" ><div class=""choice-option-text""> Press ""0."" </div></div>","","0","instructions","","","","","","","","","","",""
"html-button-response","24","244193","0.0-8.0-1.0","4507","2","20","Male","approach_avoid_spark_v1","""event"",""trial"",""time""
""fullscreenenter"",""1"",""1908""
","
","
","""event"",""trial"",""time""
""fullscreenenter"",""1"",""1908""
","
","","","","","","2016.9000000059605","<p> Ready to practice? </p>","0","","","","","","","","","","","","",""
"html-keyboard-response","25","244804","0.0-8.0-2.0-0.0","4507","2","20","Male","approach_avoid_spark_v1","""event"",""trial"",""time""
""fullscreenenter"",""1"",""1908""
","
","
","""event"",""trial"",""time""
""fullscreenenter"",""1"",""1908""
","
","","","","","","null","<div style=""font-size:60px;"">+</div>","null","","fixation","","","","","","","","","","",""
"aa-learning-trial","26","247821","0.0-8.0-2.0-1.0","4507","2","20","Male","approach_avoid_spark_v1","""event"",""trial"",""time""
""fullscreenenter"",""1"",""1908""
","
","
","""event"",""trial"",""time""
""fullscreenenter"",""1"",""1908""
","
","","","","","","1217.800000011921","images/racket1.png","","","learning","6","0","0","0","practice","practice","practice","-1","","",""
"html-keyboard-response","27","248341","0.0-8.0-2.0-0.1","4507","2","20","Male","approach_avoid_spark_v1","""event"",""trial"",""time""
""fullscreenenter"",""1"",""1908""
","
","
","""event"",""trial"",""time""
""fullscreenenter"",""1"",""1908""
","
","","","","","","null","<div style=""font-size:60px;"">+</div>","null","","fixation","","","","","","","","","","",""
"aa-learning-trial","28","251352","0.0-8.0-2.0-1.1","4507","2","20","Male","approach_avoid_spark_v1","""event"",""trial"",""time""
""fullscreenenter"",""1"",""1908""
","
","
","""event"",""trial"",""time""
""fullscreenenter"",""1"",""1908""
","
","","","","","","907.5","images/ball1.png","","","learning","4","0","0","0","practice","practice","practice","-1","","",""
"html-keyboard-response","29","251869","0.0-8.0-2.0-0.2","4507","2","20","Male","approach_avoid_spark_v1","""event"",""trial"",""time""
""fullscreenenter"",""1"",""1908""
","
","
","""event"",""trial"",""time""
""fullscreenenter"",""1"",""1908""
","
","","","","","","null","<div style=""font-size:60px;"">+</div>","null","","fixation","","","","","","","","","","",""
"aa-learning-trial","30","254888","0.0-8.0-2.0-1.2","4507","2","20","Male","approach_avoid_spark_v1","""event"",""trial"",""time""
""fullscreenenter"",""1"",""1908""
","
","
","""event"",""trial"",""time""
""fullscreenenter"",""1"",""1908""
","
","","","","","","74.5","images/racket2.png","","","learning","-8","0","0","0","practice","practice","practice","-1","","",""
"html-keyboard-response","31","255406","0.0-8.0-2.0-0.3","4507","2","20","Male","approach_avoid_spark_v1","""event"",""trial"",""time""
""fullscreenenter"",""1"",""1908""
","
","
","""event"",""trial"",""time""
""fullscreenenter"",""1"",""1908""
","
","","","","","","null","<div style=""font-size:60px;"">+</div>","null","","fixation","","","","","","","","","","",""
"aa-learning-trial","32","258424","0.0-8.0-2.0-1.3","4507","2","20","Male","approach_avoid_spark_v1","""event"",""trial"",""time""
""fullscreenenter"",""1"",""1908""
","
","
","""event"",""trial"",""time""
""fullscreenenter"",""1"",""1908""
","
","","","","","","492.09999999403954","images/racket1.png","","","learning","7","7","1","1","practice","practice","practice","-1","","",""
"html-keyboard-response","33","258941","0.0-8.0-2.0-0.4","4507","2","20","Male","approach_avoid_spark_v1","""event"",""trial"",""time""
""fullscreenenter"",""1"",""1908""
","
","
","""event"",""trial"",""time""
""fullscreenenter"",""1"",""1908""
","
","","","","","","null","<div style=""font-size:60px;"">+</div>","null","","fixation","","","","","","","","","","",""
"aa-learning-trial","34","261961","0.0-8.0-2.0-1.4","4507","2","20","Male","approach_avoid_spark_v1","""event"",""trial"",""time""
""fullscreenenter"",""1"",""1908""
","
","
","""event"",""trial"",""time""
""fullscreenenter"",""1"",""1908""
","
","","","","","","487.7000000178814","images/racket2.png","","","learning","7","0","0","0","practice","practice","practice","-1","","",""
"html-keyboard-response","35","262476","0.0-8.0-2.0-0.5","4507","2","20","Male","approach_avoid_spark_v1","""event"",""trial"",""time""
""fullscreenenter"",""1"",""1908""
","
","
","""event"",""trial"",""time""
""fullscreenenter"",""1"",""1908""
","
","","","","","","null","<div style=""font-size:60px;"">+</div>","null","","fixation","","","","","","","","","","",""
"aa-learning-trial","36","265487","0.0-8.0-2.0-1.5","4507","2","20","Male","approach_avoid_spark_v1","""event"",""trial"",""time""
""fullscreenenter"",""1"",""1908""
","
","
","""event"",""trial"",""time""
""fullscreenenter"",""1"",""1908""
","
","","","","","","660.5","images/racket2.png","","","learning","-8","-8","1","1","practice","practice","practice","-1","","",""
"html-keyboard-response","37","266007","0.0-8.0-2.0-0.6","4507","2","20","Male","approach_avoid_spark_v1","""event"",""trial"",""time""
""fullscreenenter"",""1"",""1908""
","
","
","""event"",""trial"",""time""
""fullscreenenter"",""1"",""1908""
","
","","","","","","null","<div style=""font-size:60px;"">+</div>","null","","fixation","","","","","","","","","","",""
"aa-learning-trial","38","269022","0.0-8.0-2.0-1.6","4507","2","20","Male","approach_avoid_spark_v1","""event"",""trial"",""time""
""fullscreenenter"",""1"",""1908""
","
","
","""event"",""trial"",""time""
""fullscreenenter"",""1"",""1908""
","
","","","","","","1097.199999988079","images/racket3.png","","","learning","-3","-3","1","1","practice","practice","practice","-1","","",""
"html-keyboard-response","39","269538","0.0-8.0-2.0-0.7","4507","2","20","Male","approach_avoid_spark_v1","""event"",""trial"",""time""
""fullscreenenter"",""1"",""1908""
","
","
","""event"",""trial"",""time""
""fullscreenenter"",""1"",""1908""
","
","","","","","","null","<div style=""font-size:60px;"">+</div>","null","","fixation","","","","","","","","","","",""
"aa-learning-trial","40","272547","0.0-8.0-2.0-1.7","4507","2","20","Male","approach_avoid_spark_v1","""event"",""trial"",""time""
""fullscreenenter"",""1"",""1908""
","
","
","""event"",""trial"",""time""
""fullscreenenter"",""1"",""1908""
","
","","","","","","935.6999999880791","images/ball4.png","","","learning","2","2","1","1","practice","practice","practice","-1","","",""
"html-keyboard-response","41","273052","0.0-8.0-2.0-0.8","4507","2","20","Male","approach_avoid_spark_v1","""event"",""trial"",""time""
""fullscreenenter"",""1"",""1908""
","
","
","""event"",""trial"",""time""
""fullscreenenter"",""1"",""1908""
","
","","","","","","null","<div style=""font-size:60px;"">+</div>","null","","fixation","","","","","","","","","","",""
"aa-learning-trial","42","276060","0.0-8.0-2.0-1.8","4507","2","20","Male","approach_avoid_spark_v1","""event"",""trial"",""time""
""fullscreenenter"",""1"",""1908""
","
","
","""event"",""trial"",""time""
""fullscreenenter"",""1"",""1908""
","
","","","","","","598.7999999821186","images/racket2.png","","","learning","-6","0","0","0","practice","practice","practice","-1","","",""
"html-keyboard-response","43","276562","0.0-8.0-2.0-0.9","4507","2","20","Male","approach_avoid_spark_v1","""event"",""trial"",""time""
""fullscreenenter"",""1"",""1908""
","
","
","""event"",""trial"",""time""
""fullscreenenter"",""1"",""1908""
","
","","","","","","null","<div style=""font-size:60px;"">+</div>","null","","fixation","","","","","","","","","","",""
"aa-learning-trial","44","279572","0.0-8.0-2.0-1.9","4507","2","20","Male","approach_avoid_spark_v1","""event"",""trial"",""time""
""fullscreenenter"",""1"",""1908""
","
","
","""event"",""trial"",""time""
""fullscreenenter"",""1"",""1908""
","
","","","","","","808.7000000178814","images/ball1.png","","","learning","6","6","1","1","practice","practice","practice","-1","","",""
"html-keyboard-response","45","280075","0.0-8.0-2.0-0.10","4507","2","20","Male","approach_avoid_spark_v1","""event"",""trial"",""time""
""fullscreenenter"",""1"",""1908""
","
","
","""event"",""trial"",""time""
""fullscreenenter"",""1"",""1908""
","
","","","","","","null","<div style=""font-size:60px;"">+</div>","null","","fixation","","","","","","","","","","",""
"aa-learning-trial","46","283083","0.0-8.0-2.0-1.10","4507","2","20","Male","approach_avoid_spark_v1","""event"",""trial"",""time""
""fullscreenenter"",""1"",""1908""
","
","
","""event"",""trial"",""time""
""fullscreenenter"",""1"",""1908""
","
","","","","","","637.5999999940395","images/ball2.png","","","learning","7","0","0","0","practice","practice","practice","-1","","",""
"html-keyboard-response","47","283586","0.0-8.0-2.0-0.11","4507","2","20","Male","approach_avoid_spark_v1","""event"",""trial"",""time""
""fullscreenenter"",""1"",""1908""
","
","
","""event"",""trial"",""time""
""fullscreenenter"",""1"",""1908""
","
","","","","","","null","<div style=""font-size:60px;"">+</div>","null","","fixation","","","","","","","","","","",""
"aa-learning-trial","48","286595","0.0-8.0-2.0-1.11","4507","2","20","Male","approach_avoid_spark_v1","""event"",""trial"",""time""
""fullscreenenter"",""1"",""1908""
","
","
","""event"",""trial"",""time""
""fullscreenenter"",""1"",""1908""
","
","","","","","","1114","images/ball4.png","","","learning","-7","-7","1","1","practice","practice","practice","-1","","",""
"html-button-response","49","288791","0.0-8.0-3.0","4507","2","20","Male","approach_avoid_spark_v1","""event"",""trial"",""time""
""fullscreenenter"",""1"",""1908""
","
","
","""event"",""trial"",""time""
""fullscreenenter"",""1"",""1908""
","
","","","","","","2193.800000011921","<p> You earned -3 points in the practice round! </p>","0","","break","","","","","","","","","","",""
"learning-instructions","50","295447","0.0-8.0-4.0-0.0","4507","2","20","Male","approach_avoid_spark_v1","""event"",""trial"",""time""
""fullscreenenter"",""1"",""1908""
","
","
","""event"",""trial"",""time""
""fullscreenenter"",""1"",""1908""
","
","","","","","","661.6999999880791","<p> It's almost time to start the real game. </p><p> Before you start, we're going to ask you a few questions about how the game works. </p>","","0","instructions","","","","","","","","","","",""
"preload","51","303176","0.0-8.0-5.0","4507","2","20","Male","approach_avoid_spark_v1","""event"",""trial"",""time""
""fullscreenenter"",""1"",""1908""
","
","
","""event"",""trial"",""time""
""fullscreenenter"",""1"",""1908""
","
","true","false","[]","[]","[]","","","","","","","","","","","","","","","",""
"comp-q","52","309010","0.0-8.0-6.0-0.0","4507","2","20","Male","approach_avoid_spark_v1","""event"",""trial"",""time""
""fullscreenenter"",""1"",""1908""
","
","
","""event"",""trial"",""time""
""fullscreenenter"",""1"",""1908""
","
","","","","","","834.3999999761581","<p> <b> True or False? </b> </p><p> If you see a number in GREY, that means you earned that many points. </p>","","1","comp_question","","","","","","","","","true","",""
"comp-q","53","319192","0.0-8.0-6.0-1.0","4507","2","20","Male","approach_avoid_spark_v1","""event"",""trial"",""time""
""fullscreenenter"",""1"",""1908""
","
","
","""event"",""trial"",""time""
""fullscreenenter"",""1"",""1908""
","
","","","","","","1806.1000000238419","<p><b> That's right! </b> If you see a grey number, it means you earned ZERO points. <br> The grey numbers show the points you WOULD HAVE earned if you had made the other choice. </p>","","0","comp_answer","","","","","","","","","","",""
"comp-q","54","324354","0.0-8.0-7.0-0.0","4507","2","20","Male","approach_avoid_spark_v1","""event"",""trial"",""time""
""fullscreenenter"",""1"",""1908""
","
","
","""event"",""trial"",""time""
""fullscreenenter"",""1"",""1908""
","
","","","","","","469","<p> <b> True or False? </b> </p><p> You will have as much time as you want to make each choice. </p>","","1","comp_question","","","","","","","","","true","",""
"comp-q","55","329034","0.0-8.0-7.0-1.0","4507","2","20","Male","approach_avoid_spark_v1","""event"",""trial"",""time""
""fullscreenenter"",""1"",""1908""
","
","
","""event"",""trial"",""time""
""fullscreenenter"",""1"",""1908""
","
","","","","","","628.2999999821186","<p> <b> That's right! </b> You will only have 3 seconds to make each choice. </p>","","0","comp_answer","","","","","","","","","","",""
"comp-q","56","334182","0.0-8.0-8.0-0.0","4507","2","20","Male","approach_avoid_spark_v1","""event"",""trial"",""time""
""fullscreenenter"",""1"",""1908""
","
","
","""event"",""trial"",""time""
""fullscreenenter"",""1"",""1908""
","
","","","","","","487","<p> <b> True or False? </b> </p><p> You should use the '1' and '0' keys to make your choices. </p>","","0","comp_question","","","","","","","","","true","",""
"comp-q","57","339382","0.0-8.0-8.0-1.0","4507","2","20","Male","approach_avoid_spark_v1","""event"",""trial"",""time""
""fullscreenenter"",""1"",""1908""
","
","
","""event"",""trial"",""time""
""fullscreenenter"",""1"",""1908""
","
","","","","","","586.4000000059605","<p> <b> That's right! </b> You should use the '1' and '0' keys to make each choice. </p>","","0","comp_answer","","","","","","","","","","",""
"learning-instructions","58","346477","0.0-8.0-9.0-0.0","4507","2","20","Male","approach_avoid_spark_v1","""event"",""trial"",""time""
""fullscreenenter"",""1"",""1908""
","
","
","""event"",""trial"",""time""
""fullscreenenter"",""1"",""1908""
","
","","","","","","820.5","<p> It's now time to start the real game. </p>Do your best, because the points you earn in the next rounds will influence your bonus payment. </p>","","0","instructions","","","","","","","","","","",""
"preload","59","346589","0.0-9.0-0.0","4507","2","20","Male","approach_avoid_spark_v1","""event"",""trial"",""time""
""fullscreenenter"",""1"",""1908""
","
","
","""event"",""trial"",""time""
""fullscreenenter"",""1"",""1908""
","
","true","false","[]","[]","[]","","","","","","","","","","","","","","","",""
"learning-instructions","60","351186","0.0-9.0-1.0-0.0","4507","2","20","Male","approach_avoid_spark_v1","""event"",""trial"",""time""
""fullscreenenter"",""1"",""1908""
","
","
","""event"",""trial"",""time""
""fullscreenenter"",""1"",""1908""
","
","","","","","","870.4000000059605","<p> Your goal in this round is to take care of lots of animals. </p></div>","","0","instructions","","","","","","","","","","",""
"learning-instructions","61","362123","0.0-9.0-1.0-0.1","4507","2","20","Male","approach_avoid_spark_v1","""event"",""trial"",""time""
""fullscreenenter"",""1"",""1908""
","
","
","""event"",""trial"",""time""
""fullscreenenter"",""1"",""1908""
","
","","","","","","987.0999999940395","<p> Some animals want to be pet, while other animals want to be left alone.  </p><p> On each turn, you will see an animal.   </p><p> You need to decide whether to pet it or not.  </p>","","0","instructions","","","","","","","","","","",""
"learning-instructions","62","368404","0.0-9.0-1.0-0.2","4507","2","20","Male","approach_avoid_spark_v1","""event"",""trial"",""time""
""fullscreenenter"",""1"",""1908""
","
","
","""event"",""trial"",""time""
""fullscreenenter"",""1"",""1908""
","
","","","","","","707.3999999761581","<p> You can pet the animal by pressing 1 and leave the animal alone by pressing 0. </p><br><div class=""choice-instructions-grid""> <div class=""choice-option""><img src=""images/approach.png"" class=""choice-option-img"" stage=""instructions"" position=""0"" ><div class=""choice-option-text""> Press ""1."" </div></div><div class=""choice-option""><img src=""images/avoid.png"" class=""choice-option-img"" stage=""instructions"" position=""1"" ><div class=""choice-option-text""> Press ""0."" </div></div>","","0","instructions","","","","","","","","","","",""
"learning-instructions","63","379480","0.0-9.0-1.0-0.3","4507","2","20","Male","approach_avoid_spark_v1","""event"",""trial"",""time""
""fullscreenenter"",""1"",""1908""
","
","
","""event"",""trial"",""time""
""fullscreenenter"",""1"",""1908""
","
","","","","","","1063.2999999821186","<p> If you pet an animal that wants to be pet, you will make it feel happy! </p><p> But if you pet an animal that wants to be left alone, you will make it feel angry. </p>","","0","instructions","","","","","","","","","","",""
"learning-instructions","64","395348","0.0-9.0-1.0-0.4","4507","2","20","Male","approach_avoid_spark_v1","""event"",""trial"",""time""
""fullscreenenter"",""1"",""1908""
","
","
","""event"",""trial"",""time""
""fullscreenenter"",""1"",""1908""
","
","","","","","","1772.199999988079","<p> You will earn points based on how you made the animal feel. </p><p> If you made it feel happy, you will WIN anywhere from 1 - 9 points, </p><p> but if you made it feel angry, you will LOSE anywhere from 1 - 9 points. </p>","","0","instructions","","","","","","","","","","",""
"learning-instructions","65","404693","0.0-9.0-1.0-0.5","4507","2","20","Male","approach_avoid_spark_v1","""event"",""trial"",""time""
""fullscreenenter"",""1"",""1908""
","
","
","""event"",""trial"",""time""
""fullscreenenter"",""1"",""1908""
","
","","","","","","1247.9000000059605","<p> You will see how many points you won or lost in the center of the screen. </p><p> Here is what you would see if you won 5 points: </p><p style=""color:green;font-size:50px;font-weight:bolder"">5</p>","","0","instructions","","","","","","","","","","",""
"learning-instructions","66","408698","0.0-9.0-1.0-0.6","4507","2","20","Male","approach_avoid_spark_v1","""event"",""trial"",""time""
""fullscreenenter"",""1"",""1908""
","
","
","""event"",""trial"",""time""
""fullscreenenter"",""1"",""1908""
","
","","","","","","412.30000001192093","<p> And here is what you would see if you lost 3 points: </p><p style=""color:red;font-size:50px;font-weight:bolder"">-3</p>","","0","instructions","","","","","","","","","","",""
"learning-instructions","67","428342","0.0-9.0-1.0-0.7","4507","2","20","Male","approach_avoid_spark_v1","""event"",""trial"",""time""
""fullscreenenter"",""1"",""1908""
","
","
","""event"",""trial"",""time""
""fullscreenenter"",""1"",""1908""
","
","","","","","","646","<p> Some animals will become very happy or very angry. </p><p> These animals will make you win or lose LOTS of points. </p><p> Other animals have less strong feelings. </p><p> These animals will make you win or lose small amounts of points. </p>","","0","instructions","","","","","","","","","","",""
"learning-instructions","68","441507","0.0-9.0-1.0-0.8","4507","2","20","Male","approach_avoid_spark_v1","""event"",""trial"",""time""
""fullscreenenter"",""1"",""1908""
","
","
","""event"",""trial"",""time""
""fullscreenenter"",""1"",""1908""
","
","","","","","","591.1999999880791","<p> If you choose to leave the animal alone, you will not win or lose any points. </p><p>  However, in the center of the screen, you will see the number of points you WOULD HAVE won or lost if you had pet the animal. </p>","","0","instructions","","","","","","","","","","",""
"learning-instructions","69","454615","0.0-9.0-1.0-0.9","4507","2","20","Male","approach_avoid_spark_v1","""event"",""trial"",""time""
""fullscreenenter"",""1"",""1908""
","
","
","""event"",""trial"",""time""
""fullscreenenter"",""1"",""1908""
","
","","","","","","569.0999999940395","<p> Here is what you might see if you did not pet the animal but the animal wanted to be pet: </p><p style=""color:grey; font-size:50px; display: inline-block; border-spacing: 15px; border-width:3px; border-style:solid; border-color:red"">  &nbsp; 6 &nbsp; </p><p> Remember, in this case, you would not win or lose ANY points because you did not pet the animal.  </p>","","0","instructions","","","","","","","","","","",""
"learning-instructions","70","463240","0.0-9.0-1.0-0.10","4507","2","20","Male","approach_avoid_spark_v1","""event"",""trial"",""time""
""fullscreenenter"",""1"",""1908""
","
","
","""event"",""trial"",""time""
""fullscreenenter"",""1"",""1908""
","
","","","","","","914","<p> Try to make the best choice for each animal because </p><p> at the end of the game, you will earn bonus money based on how many points you earned. </p>","","0","instructions","","","","","","","","","","",""
"learning-instructions","71","472401","0.0-9.0-1.0-0.11","4507","2","20","Male","approach_avoid_spark_v1","""event"",""trial"",""time""
""fullscreenenter"",""1"",""1908""
","
","
","""event"",""trial"",""time""
""fullscreenenter"",""1"",""1908""
","
","","","","","","955.0999999940395","<p> You will have 3 seconds to make each choice. Try to respond before time runs out! </p><p> You will lose 5 points each time you do not make a response. </p>","","0","instructions","","","","","","","","","","",""
"html-keyboard-response","72","473019","0.0-9.0-2.0-0.0","4507","2","20","Male","approach_avoid_spark_v1","""event"",""trial"",""time""
""fullscreenenter"",""1"",""1908""
","
","
","""event"",""trial"",""time""
""fullscreenenter"",""1"",""1908""
","
","","","","","","null","<div style=""font-size:60px;"">+</div>","null","","fixation","","","","","","","","","","",""
"aa-learning-trial","73","476032","0.0-9.0-2.0-1.0","4507","2","20","Male","approach_avoid_spark_v1","""event"",""trial"",""time""
""fullscreenenter"",""1"",""1908""
","
","
","""event"",""trial"",""time""
""fullscreenenter"",""1"",""1908""
","
","","","","","","1730","images/rabbit3.png","","","learning","-6","-5","9","","rabbit","pets","2","0","","good","[4]"
"html-keyboard-response","74","476548","0.0-9.0-2.0-0.1","4507","2","20","Male","approach_avoid_spark_v1","""event"",""trial"",""time""
""fullscreenenter"",""1"",""1908""
","
","
","""event"",""trial"",""time""
""fullscreenenter"",""1"",""1908""
","
","","","","","","null","<div style=""font-size:60px;"">+</div>","null","","fixation","","","","","","","","","","",""
"aa-learning-trial","75","479568","0.0-9.0-2.0-1.1","4507","2","20","Male","approach_avoid_spark_v1","""event"",""trial"",""time""
""fullscreenenter"",""1"",""1908""
","
","
","""event"",""trial"",""time""
""fullscreenenter"",""1"",""1908""
","
","","","","","","1100.6000000238419","images/cat5.png","","","learning","4","0","0","0","cat","pets","2","0","","neutral","0"
"html-keyboard-response","76","480089","0.0-9.0-2.0-0.2","4507","2","20","Male","approach_avoid_spark_v1","""event"",""trial"",""time""
""fullscreenenter"",""1"",""1908""
","
","
","""event"",""trial"",""time""
""fullscreenenter"",""1"",""1908""
","
","","","","","","null","<div style=""font-size:60px;"">+</div>","null","","fixation","","","","","","","","","","",""
"aa-learning-trial","77","483100","0.0-9.0-2.0-1.2","4507","2","20","Male","approach_avoid_spark_v1","""event"",""trial"",""time""
""fullscreenenter"",""1"",""1908""
","
","
","""event"",""trial"",""time""
""fullscreenenter"",""1"",""1908""
","
","","","","","","1712.300000011921","images/rodent1.png","","","learning","-2","0","0","0","rodent","pets","2","0","","bad","[-4]"
"html-keyboard-response","78","483616","0.0-9.0-2.0-0.3","4507","2","20","Male","approach_avoid_spark_v1","""event"",""trial"",""time""
""fullscreenenter"",""1"",""1908""
","
","
","""event"",""trial"",""time""
""fullscreenenter"",""1"",""1908""
","
","","","","","","null","<div style=""font-size:60px;"">+</div>","null","","fixation","","","","","","","","","","",""
"aa-learning-trial","79","486626","0.0-9.0-2.0-1.3","4507","2","20","Male","approach_avoid_spark_v1","""event"",""trial"",""time""
""fullscreenenter"",""1"",""1908""
","
","
","""event"",""trial"",""time""
""fullscreenenter"",""1"",""1908""
","
","","","","","","624.1999999880791","images/rodent6.png","","","learning","8","0","0","0","rodent","pets","2","0","","bad","[-4]"
"html-keyboard-response","80","487146","0.0-9.0-2.0-0.4","4507","2","20","Male","approach_avoid_spark_v1","""event"",""trial"",""time""
""fullscreenenter"",""1"",""1908""
","
","
","""event"",""trial"",""time""
""fullscreenenter"",""1"",""1908""
","
","","","","","","null","<div style=""font-size:60px;"">+</div>","null","","fixation","","","","","","","","","","",""
"aa-learning-trial","81","490159","0.0-9.0-2.0-1.4","4507","2","20","Male","approach_avoid_spark_v1","""event"",""trial"",""time""
""fullscreenenter"",""1"",""1908""
","
","
","""event"",""trial"",""time""
""fullscreenenter"",""1"",""1908""
","
","","","","","","692.3000000119209","images/cat6.png","","","learning","-1","0","0","0","cat","pets","2","0","","neutral","0"
"html-keyboard-response","82","490674","0.0-9.0-2.0-0.5","4507","2","20","Male","approach_avoid_spark_v1","""event"",""trial"",""time""
""fullscreenenter"",""1"",""1908""
","
","
","""event"",""trial"",""time""
""fullscreenenter"",""1"",""1908""
","
","","","","","","null","<div style=""font-size:60px;"">+</div>","null","","fixation","","","","","","","","","","",""
"aa-learning-trial","83","493694","0.0-9.0-2.0-1.5","4507","2","20","Male","approach_avoid_spark_v1","""event"",""trial"",""time""
""fullscreenenter"",""1"",""1908""
","
","
","""event"",""trial"",""time""
""fullscreenenter"",""1"",""1908""
","
","","","","","","607.9000000059605","images/rabbit6.png","","","learning","-4","0","0","0","rabbit","pets","2","0","","good","[4]"
"html-keyboard-response","84","494211","0.0-9.0-2.0-0.6","4507","2","20","Male","approach_avoid_spark_v1","""event"",""trial"",""time""
""fullscreenenter"",""1"",""1908""
","
","
","""event"",""trial"",""time""
""fullscreenenter"",""1"",""1908""
","
","","","","","","null","<div style=""font-size:60px;"">+</div>","null","","fixation","","","","","","","","","","",""
"aa-learning-trial","85","497220","0.0-9.0-2.0-1.6","4507","2","20","Male","approach_avoid_spark_v1","""event"",""trial"",""time""
""fullscreenenter"",""1"",""1908""
","
","
","""event"",""trial"",""time""
""fullscreenenter"",""1"",""1908""
","
","","","","","","633","images/rodent7.png","","","learning","-3","0","0","0","rodent","pets","2","0","","bad","[-4]"
"html-keyboard-response","86","497724","0.0-9.0-2.0-0.7","4507","2","20","Male","approach_avoid_spark_v1","""event"",""trial"",""time""
""fullscreenenter"",""1"",""1908""
","
","
","""event"",""trial"",""time""
""fullscreenenter"",""1"",""1908""
","
","","","","","","null","<div style=""font-size:60px;"">+</div>","null","","fixation","","","","","","","","","","",""
"aa-learning-trial","87","500736","0.0-9.0-2.0-1.7","4507","2","20","Male","approach_avoid_spark_v1","""event"",""trial"",""time""
""fullscreenenter"",""1"",""1908""
","
","
","""event"",""trial"",""time""
""fullscreenenter"",""1"",""1908""
","
","","","","","","715.1000000238419","images/cat8.png","","","learning","6","0","0","0","cat","pets","2","0","","neutral","0"
"html-keyboard-response","88","501251","0.0-9.0-2.0-0.8","4507","2","20","Male","approach_avoid_spark_v1","""event"",""trial"",""time""
""fullscreenenter"",""1"",""1908""
","
","
","""event"",""trial"",""time""
""fullscreenenter"",""1"",""1908""
","
","","","","","","null","<div style=""font-size:60px;"">+</div>","null","","fixation","","","","","","","","","","",""
"aa-learning-trial","89","504265","0.0-9.0-2.0-1.8","4507","2","20","Male","approach_avoid_spark_v1","""event"",""trial"",""time""
""fullscreenenter"",""1"",""1908""
","
","
","""event"",""trial"",""time""
""fullscreenenter"",""1"",""1908""
","
","","","","","","493.30000001192093","images/rodent7.png","","","learning","-3","0","0","0","rodent","pets","2","0","","bad","[-4]"
"html-keyboard-response","90","504781","0.0-9.0-2.0-0.9","4507","2","20","Male","approach_avoid_spark_v1","""event"",""trial"",""time""
""fullscreenenter"",""1"",""1908""
","
","
","""event"",""trial"",""time""
""fullscreenenter"",""1"",""1908""
","
","","","","","","null","<div style=""font-size:60px;"">+</div>","null","","fixation","","","","","","","","","","",""
"aa-learning-trial","91","507787","0.0-9.0-2.0-1.9","4507","2","20","Male","approach_avoid_spark_v1","""event"",""trial"",""time""
""fullscreenenter"",""1"",""1908""
","
","
","""event"",""trial"",""time""
""fullscreenenter"",""1"",""1908""
","
","","","","","","875","images/rodent6.png","","","learning","8","8","1","1","rodent","pets","2","0","","bad","[-4]"
"html-keyboard-response","92","508290","0.0-9.0-2.0-0.10","4507","2","20","Male","approach_avoid_spark_v1","""event"",""trial"",""time""
""fullscreenenter"",""1"",""1908""
","
","
","""event"",""trial"",""time""
""fullscreenenter"",""1"",""1908""
","
","","","","","","null","<div style=""font-size:60px;"">+</div>","null","","fixation","","","","","","","","","","",""
"aa-learning-trial","93","511298","0.0-9.0-2.0-1.10","4507","2","20","Male","approach_avoid_spark_v1","""event"",""trial"",""time""
""fullscreenenter"",""1"",""1908""
","
","
","""event"",""trial"",""time""
""fullscreenenter"",""1"",""1908""
","
","","","","","","781.5999999940395","images/rabbit3.png","","","learning","-6","-6","1","1","rabbit","pets","2","0","","good","[4]"
"html-keyboard-response","94","511803","0.0-9.0-2.0-0.11","4507","2","20","Male","approach_avoid_spark_v1","""event"",""trial"",""time""
""fullscreenenter"",""1"",""1908""
","
","
","""event"",""trial"",""time""
""fullscreenenter"",""1"",""1908""
","
","","","","","","null","<div style=""font-size:60px;"">+</div>","null","","fixation","","","","","","","","","","",""
"aa-learning-trial","95","514811","0.0-9.0-2.0-1.11","4507","2","20","Male","approach_avoid_spark_v1","""event"",""trial"",""time""
""fullscreenenter"",""1"",""1908""
","
","
","""event"",""trial"",""time""
""fullscreenenter"",""1"",""1908""
","
","","","","","","640.8000000119209","images/cat5.png","","","learning","4","4","1","1","cat","pets","2","0","","neutral","0"
"html-keyboard-response","96","515315","0.0-9.0-2.0-0.12","4507","2","20","Male","approach_avoid_spark_v1","""event"",""trial"",""time""
""fullscreenenter"",""1"",""1908""
","
","
","""event"",""trial"",""time""
""fullscreenenter"",""1"",""1908""
","
","","","","","","null","<div style=""font-size:60px;"">+</div>","null","","fixation","","","","","","","","","","",""
"aa-learning-trial","97","518326","0.0-9.0-2.0-1.12","4507","2","20","Male","approach_avoid_spark_v1","""event"",""trial"",""time""
""fullscreenenter"",""1"",""1908""
","
","
","""event"",""trial"",""time""
""fullscreenenter"",""1"",""1908""
","
","","","","","","551.1999999880791","images/rabbit2.png","","","learning","5","0","0","0","rabbit","pets","2","0","","good","[4]"
"html-keyboard-response","98","518835","0.0-9.0-2.0-0.13","4507","2","20","Male","approach_avoid_spark_v1","""event"",""trial"",""time""
""fullscreenenter"",""1"",""1908""
","
","
","""event"",""trial"",""time""
""fullscreenenter"",""1"",""1908""
","
","","","","","","null","<div style=""font-size:60px;"">+</div>","null","","fixation","","","","","","","","","","",""
"aa-learning-trial","99","521842","0.0-9.0-2.0-1.13","4507","2","20","Male","approach_avoid_spark_v1","""event"",""trial"",""time""
""fullscreenenter"",""1"",""1908""
","
","
","""event"",""trial"",""time""
""fullscreenenter"",""1"",""1908""
","
","","","","","","614","images/cat8.png","","","learning","6","6","1","1","cat","pets","2","0","","neutral","0"
"html-keyboard-response","100","522346","0.0-9.0-2.0-0.14","4507","2","20","Male","approach_avoid_spark_v1","""event"",""trial"",""time""
""fullscreenenter"",""1"",""1908""
","
","
","""event"",""trial"",""time""
""fullscreenenter"",""1"",""1908""
","
","","","","","","null","<div style=""font-size:60px;"">+</div>","null","","fixation","","","","","","","","","","",""
"aa-learning-trial","101","525355","0.0-9.0-2.0-1.14","4507","2","20","Male","approach_avoid_spark_v1","""event"",""trial"",""time""
""fullscreenenter"",""1"",""1908""
","
","
","""event"",""trial"",""time""
""fullscreenenter"",""1"",""1908""
","
","","","","","","332.2000000178814","images/rabbit6.png","","","learning","-4","0","0","0","rabbit","pets","2","0","","good","[4]"
"html-keyboard-response","102","525859","0.0-9.0-2.0-0.15","4507","2","20","Male","approach_avoid_spark_v1","""event"",""trial"",""time""
""fullscreenenter"",""1"",""1908""
","
","
","""event"",""trial"",""time""
""fullscreenenter"",""1"",""1908""
","
","","","","","","null","<div style=""font-size:60px;"">+</div>","null","","fixation","","","","","","","","","","",""
"aa-learning-trial","103","528866","0.0-9.0-2.0-1.15","4507","2","20","Male","approach_avoid_spark_v1","""event"",""trial"",""time""
""fullscreenenter"",""1"",""1908""
","
","
","""event"",""trial"",""time""
""fullscreenenter"",""1"",""1908""
","
","","","","","","740.3999999761581","images/rodent6.png","","","learning","8","8","1","1","rodent","pets","2","0","","bad","[-4]"
"html-keyboard-response","104","529371","0.0-9.0-2.0-0.16","4507","2","20","Male","approach_avoid_spark_v1","""event"",""trial"",""time""
""fullscreenenter"",""1"",""1908""
","
","
","""event"",""trial"",""time""
""fullscreenenter"",""1"",""1908""
","
","","","","","","null","<div style=""font-size:60px;"">+</div>","null","","fixation","","","","","","","","","","",""
"aa-learning-trial","105","532378","0.0-9.0-2.0-1.16","4507","2","20","Male","approach_avoid_spark_v1","""event"",""trial"",""time""
""fullscreenenter"",""1"",""1908""
","
","
","""event"",""trial"",""time""
""fullscreenenter"",""1"",""1908""
","
","","","","","","1359.9000000059605","images/cat5.png","","","learning","4","4","1","1","cat","pets","2","0","","neutral","0"
"html-keyboard-response","106","532883","0.0-9.0-2.0-0.17","4507","2","20","Male","approach_avoid_spark_v1","""event"",""trial"",""time""
""fullscreenenter"",""1"",""1908""
","
","
","""event"",""trial"",""time""
""fullscreenenter"",""1"",""1908""
","
","","","","","","null","<div style=""font-size:60px;"">+</div>","null","","fixation","","","","","","","","","","",""
"aa-learning-trial","107","535891","0.0-9.0-2.0-1.17","4507","2","20","Male","approach_avoid_spark_v1","""event"",""trial"",""time""
""fullscreenenter"",""1"",""1908""
","
","
","""event"",""trial"",""time""
""fullscreenenter"",""1"",""1908""
","
","","","","","","561.0999999940395","images/rabbit6.png","","","learning","-4","-4","1","1","rabbit","pets","2","0","","good","[4]"
"html-keyboard-response","108","536394","0.0-9.0-2.0-0.18","4507","2","20","Male","approach_avoid_spark_v1","""event"",""trial"",""time""
""fullscreenenter"",""1"",""1908""
","
","
","""event"",""trial"",""time""
""fullscreenenter"",""1"",""1908""
","
","","","","","","null","<div style=""font-size:60px;"">+</div>","null","","fixation","","","","","","","","","","",""
"aa-learning-trial","109","539402","0.0-9.0-2.0-1.18","4507","2","20","Male","approach_avoid_spark_v1","""event"",""trial"",""time""
""fullscreenenter"",""1"",""1908""
","
","
","""event"",""trial"",""time""
""fullscreenenter"",""1"",""1908""
","
","","","","","","381.40000000596046","images/rabbit6.png","","","learning","-4","0","0","0","rabbit","pets","2","0","","good","[4]"
"html-keyboard-response","110","539907","0.0-9.0-2.0-0.19","4507","2","20","Male","approach_avoid_spark_v1","""event"",""trial"",""time""
""fullscreenenter"",""1"",""1908""
","
","
","""event"",""trial"",""time""
""fullscreenenter"",""1"",""1908""
","
","","","","","","null","<div style=""font-size:60px;"">+</div>","null","","fixation","","","","","","","","","","",""
"aa-learning-trial","111","542914","0.0-9.0-2.0-1.19","4507","2","20","Male","approach_avoid_spark_v1","""event"",""trial"",""time""
""fullscreenenter"",""1"",""1908""
","
","
","""event"",""trial"",""time""
""fullscreenenter"",""1"",""1908""
","
","","","","","","13.200000017881393","images/rabbit2.png","","","learning","5","0","0","0","rabbit","pets","2","0","","good","[4]"
"html-keyboard-response","112","543419","0.0-9.0-2.0-0.20","4507","2","20","Male","approach_avoid_spark_v1","""event"",""trial"",""time""
""fullscreenenter"",""1"",""1908""
","
","
","""event"",""trial"",""time""
""fullscreenenter"",""1"",""1908""
","
","","","","","","null","<div style=""font-size:60px;"">+</div>","null","","fixation","","","","","","","","","","",""
"aa-learning-trial","113","546427","0.0-9.0-2.0-1.20","4507","2","20","Male","approach_avoid_spark_v1","""event"",""trial"",""time""
""fullscreenenter"",""1"",""1908""
","
","
","""event"",""trial"",""time""
""fullscreenenter"",""1"",""1908""
","
","","","","","","843.9000000059605","images/rodent1.png","","","learning","-2","0","0","0","rodent","pets","2","0","","bad","[-4]"
"html-keyboard-response","114","546930","0.0-9.0-2.0-0.21","4507","2","20","Male","approach_avoid_spark_v1","""event"",""trial"",""time""
""fullscreenenter"",""1"",""1908""
","
","
","""event"",""trial"",""time""
""fullscreenenter"",""1"",""1908""
","
","","","","","","null","<div style=""font-size:60px;"">+</div>","null","","fixation","","","","","","","","","","",""
"aa-learning-trial","115","549939","0.0-9.0-2.0-1.21","4507","2","20","Male","approach_avoid_spark_v1","""event"",""trial"",""time""
""fullscreenenter"",""1"",""1908""
","
","
","""event"",""trial"",""time""
""fullscreenenter"",""1"",""1908""
","
","","","","","","151.69999998807907","images/rodent7.png","","","learning","-3","-3","1","1","rodent","pets","2","0","","bad","[-4]"
"html-keyboard-response","116","550448","0.0-9.0-2.0-0.22","4507","2","20","Male","approach_avoid_spark_v1","""event"",""trial"",""time""
""fullscreenenter"",""1"",""1908""
","
","
","""event"",""trial"",""time""
""fullscreenenter"",""1"",""1908""
","
","","","","","","null","<div style=""font-size:60px;"">+</div>","null","","fixation","","","","","","","","","","",""
"aa-learning-trial","117","553458","0.0-9.0-2.0-1.22","4507","2","20","Male","approach_avoid_spark_v1","""event"",""trial"",""time""
""fullscreenenter"",""1"",""1908""
","
","
","""event"",""trial"",""time""
""fullscreenenter"",""1"",""1908""
","
","","","","","","119","images/rabbit6.png","","","learning","-4","0","0","0","rabbit","pets","2","0","","good","[4]"
"html-keyboard-response","118","553962","0.0-9.0-2.0-0.23","4507","2","20","Male","approach_avoid_spark_v1","""event"",""trial"",""time""
""fullscreenenter"",""1"",""1908""
","
","
","""event"",""trial"",""time""
""fullscreenenter"",""1"",""1908""
","
","","","","","","null","<div style=""font-size:60px;"">+</div>","null","","fixation","","","","","","","","","","",""
"aa-learning-trial","119","556971","0.0-9.0-2.0-1.23","4507","2","20","Male","approach_avoid_spark_v1","""event"",""trial"",""time""
""fullscreenenter"",""1"",""1908""
","
","
","""event"",""trial"",""time""
""fullscreenenter"",""1"",""1908""
","
","","","","","","541.5","images/rodent3.png","","","learning","-7","0","0","0","rodent","pets","2","0","","bad","[-4]"
"html-keyboard-response","120","557489","0.0-9.0-2.0-0.24","4507","2","20","Male","approach_avoid_spark_v1","""event"",""trial"",""time""
""fullscreenenter"",""1"",""1908""
","
","
","""event"",""trial"",""time""
""fullscreenenter"",""1"",""1908""
","
","","","","","","null","<div style=""font-size:60px;"">+</div>","null","","fixation","","","","","","","","","","",""
"aa-learning-trial","121","560498","0.0-9.0-2.0-1.24","4507","2","20","Male","approach_avoid_spark_v1","""event"",""trial"",""time""
""fullscreenenter"",""1"",""1908""
","
","
","""event"",""trial"",""time""
""fullscreenenter"",""1"",""1908""
","
","","","","","","316.5","images/rabbit3.png","","","learning","-6","0","0","0","rabbit","pets","2","0","","good","[4]"
"html-keyboard-response","122","561003","0.0-9.0-2.0-0.25","4507","2","20","Male","approach_avoid_spark_v1","""event"",""trial"",""time""
""fullscreenenter"",""1"",""1908""
","
","
","""event"",""trial"",""time""
""fullscreenenter"",""1"",""1908""
","
","","","","","","null","<div style=""font-size:60px;"">+</div>","null","","fixation","","","","","","","","","","",""
"aa-learning-trial","123","564011","0.0-9.0-2.0-1.25","4507","2","20","Male","approach_avoid_spark_v1","""event"",""trial"",""time""
""fullscreenenter"",""1"",""1908""
","
","
","""event"",""trial"",""time""
""fullscreenenter"",""1"",""1908""
","
","","","","","","366","images/rabbit2.png","","","learning","5","0","0","0","rabbit","pets","2","0","","good","[4]"
"html-keyboard-response","124","564515","0.0-9.0-2.0-0.26","4507","2","20","Male","approach_avoid_spark_v1","""event"",""trial"",""time""
""fullscreenenter"",""1"",""1908""
","
","
","""event"",""trial"",""time""
""fullscreenenter"",""1"",""1908""
","
","","","","","","null","<div style=""font-size:60px;"">+</div>","null","","fixation","","","","","","","","","","",""
"aa-learning-trial","125","567523","0.0-9.0-2.0-1.26","4507","2","20","Male","approach_avoid_spark_v1","""event"",""trial"",""time""
""fullscreenenter"",""1"",""1908""
","
","
","""event"",""trial"",""time""
""fullscreenenter"",""1"",""1908""
","
","","","","","","861.7000000178814","images/cat2.png","","","learning","-9","-9","1","1","cat","pets","2","0","","neutral","0"
"html-keyboard-response","126","568026","0.0-9.0-2.0-0.27","4507","2","20","Male","approach_avoid_spark_v1","""event"",""trial"",""time""
""fullscreenenter"",""1"",""1908""
","
","
","""event"",""trial"",""time""
""fullscreenenter"",""1"",""1908""
","
","","","","","","null","<div style=""font-size:60px;"">+</div>","null","","fixation","","","","","","","","","","",""
"aa-learning-trial","127","571044","0.0-9.0-2.0-1.27","4507","2","20","Male","approach_avoid_spark_v1","""event"",""trial"",""time""
""fullscreenenter"",""1"",""1908""
","
","
","""event"",""trial"",""time""
""fullscreenenter"",""1"",""1908""
","
","","","","","","199.7999999821186","images/cat8.png","","","learning","6","6","1","1","cat","pets","2","0","","neutral","0"
"html-keyboard-response","128","571547","0.0-9.0-2.0-0.28","4507","2","20","Male","approach_avoid_spark_v1","""event"",""trial"",""time""
""fullscreenenter"",""1"",""1908""
","
","
","""event"",""trial"",""time""
""fullscreenenter"",""1"",""1908""
","
","","","","","","null","<div style=""font-size:60px;"">+</div>","null","","fixation","","","","","","","","","","",""
"aa-learning-trial","129","574566","0.0-9.0-2.0-1.28","4507","2","20","Male","approach_avoid_spark_v1","""event"",""trial"",""time""
""fullscreenenter"",""1"",""1908""
","
","
","""event"",""trial"",""time""
""fullscreenenter"",""1"",""1908""
","
","","","","","","463.59999999403954","images/rabbit3.png","","","learning","-6","0","0","0","rabbit","pets","2","0","","good","[4]"
"html-keyboard-response","130","575075","0.0-9.0-2.0-0.29","4507","2","20","Male","approach_avoid_spark_v1","""event"",""trial"",""time""
""fullscreenenter"",""1"",""1908""
","
","
","""event"",""trial"",""time""
""fullscreenenter"",""1"",""1908""
","
","","","","","","null","<div style=""font-size:60px;"">+</div>","null","","fixation","","","","","","","","","","",""
"aa-learning-trial","131","578082","0.0-9.0-2.0-1.29","4507","2","20","Male","approach_avoid_spark_v1","""event"",""trial"",""time""
""fullscreenenter"",""1"",""1908""
","
","
","""event"",""trial"",""time""
""fullscreenenter"",""1"",""1908""
","
","","","","","","643.4000000059605","images/cat8.png","","","learning","6","6","1","1","cat","pets","2","0","","neutral","0"
"html-keyboard-response","132","578591","0.0-9.0-2.0-0.30","4507","2","20","Male","approach_avoid_spark_v1","""event"",""trial"",""time""
""fullscreenenter"",""1"",""1908""
","
","
","""event"",""trial"",""time""
""fullscreenenter"",""1"",""1908""
","
","","","","","","null","<div style=""font-size:60px;"">+</div>","null","","fixation","","","","","","","","","","",""
"aa-learning-trial","133","581594","0.0-9.0-2.0-1.30","4507","2","20","Male","approach_avoid_spark_v1","""event"",""trial"",""time""
""fullscreenenter"",""1"",""1908""
","
","
","""event"",""trial"",""time""
""fullscreenenter"",""1"",""1908""
","
","","","","","","526.7000000178814","images/rodent6.png","","","learning","8","0","0","0","rodent","pets","2","0","","bad","[-4]"
"html-keyboard-response","134","582107","0.0-9.0-2.0-0.31","4507","2","20","Male","approach_avoid_spark_v1","""event"",""trial"",""time""
""fullscreenenter"",""1"",""1908""
","
","
","""event"",""trial"",""time""
""fullscreenenter"",""1"",""1908""
","
","","","","","","null","<div style=""font-size:60px;"">+</div>","null","","fixation","","","","","","","","","","",""
"aa-learning-trial","135","585114","0.0-9.0-2.0-1.31","4507","2","20","Male","approach_avoid_spark_v1","""event"",""trial"",""time""
""fullscreenenter"",""1"",""1908""
","
","
","""event"",""trial"",""time""
""fullscreenenter"",""1"",""1908""
","
","","","","","","614","images/rodent6.png","","","learning","8","8","1","1","rodent","pets","2","0","","bad","[-4]"
"html-keyboard-response","136","585618","0.0-9.0-2.0-0.32","4507","2","20","Male","approach_avoid_spark_v1","""event"",""trial"",""time""
""fullscreenenter"",""1"",""1908""
","
","
","""event"",""trial"",""time""
""fullscreenenter"",""1"",""1908""
","
","","","","","","null","<div style=""font-size:60px;"">+</div>","null","","fixation","","","","","","","","","","",""
"aa-learning-trial","137","588626","0.0-9.0-2.0-1.32","4507","2","20","Male","approach_avoid_spark_v1","""event"",""trial"",""time""
""fullscreenenter"",""1"",""1908""
","
","
","""event"",""trial"",""time""
""fullscreenenter"",""1"",""1908""
","
","","","","","","685.9000000059605","images/rodent2.png","","","learning","3","0","0","0","rodent","pets","2","0","","bad","[-4]"
"html-keyboard-response","138","589130","0.0-9.0-2.0-0.33","4507","2","20","Male","approach_avoid_spark_v1","""event"",""trial"",""time""
""fullscreenenter"",""1"",""1908""
","
","
","""event"",""trial"",""time""
""fullscreenenter"",""1"",""1908""
","
","","","","","","null","<div style=""font-size:60px;"">+</div>","null","","fixation","","","","","","","","","","",""
"aa-learning-trial","139","592138","0.0-9.0-2.0-1.33","4507","2","20","Male","approach_avoid_spark_v1","""event"",""trial"",""time""
""fullscreenenter"",""1"",""1908""
","
","
","""event"",""trial"",""time""
""fullscreenenter"",""1"",""1908""
","
","","","","","","530.5","images/rabbit3.png","","","learning","-6","0","0","0","rabbit","pets","2","0","","good","[4]"
"html-keyboard-response","140","592643","0.0-9.0-2.0-0.34","4507","2","20","Male","approach_avoid_spark_v1","""event"",""trial"",""time""
""fullscreenenter"",""1"",""1908""
","
","
","""event"",""trial"",""time""
""fullscreenenter"",""1"",""1908""
","
","","","","","","null","<div style=""font-size:60px;"">+</div>","null","","fixation","","","","","","","","","","",""
"aa-learning-trial","141","595650","0.0-9.0-2.0-1.34","4507","2","20","Male","approach_avoid_spark_v1","""event"",""trial"",""time""
""fullscreenenter"",""1"",""1908""
","
","
","""event"",""trial"",""time""
""fullscreenenter"",""1"",""1908""
","
","","","","","","644.8000000119209","images/rodent1.png","","","learning","-2","-2","1","1","rodent","pets","2","0","","bad","[-4]"
"html-keyboard-response","142","596154","0.0-9.0-2.0-0.35","4507","2","20","Male","approach_avoid_spark_v1","""event"",""trial"",""time""
""fullscreenenter"",""1"",""1908""
","
","
","""event"",""trial"",""time""
""fullscreenenter"",""1"",""1908""
","
","","","","","","null","<div style=""font-size:60px;"">+</div>","null","","fixation","","","","","","","","","","",""
"aa-learning-trial","143","599163","0.0-9.0-2.0-1.35","4507","2","20","Male","approach_avoid_spark_v1","""event"",""trial"",""time""
""fullscreenenter"",""1"",""1908""
","
","
","""event"",""trial"",""time""
""fullscreenenter"",""1"",""1908""
","
","","","","","","619.7000000178814","images/cat5.png","","","learning","4","4","1","1","cat","pets","2","0","","neutral","0"
"html-keyboard-response","144","599667","0.0-9.0-2.0-0.36","4507","2","20","Male","approach_avoid_spark_v1","""event"",""trial"",""time""
""fullscreenenter"",""1"",""1908""
","
","
","""event"",""trial"",""time""
""fullscreenenter"",""1"",""1908""
","
","","","","","","null","<div style=""font-size:60px;"">+</div>","null","","fixation","","","","","","","","","","",""
"aa-learning-trial","145","602674","0.0-9.0-2.0-1.36","4507","2","20","Male","approach_avoid_spark_v1","""event"",""trial"",""time""
""fullscreenenter"",""1"",""1908""
","
","
","""event"",""trial"",""time""
""fullscreenenter"",""1"",""1908""
","
","","","","","","554.3999999761581","images/rabbit5.png","","","learning","2","0","0","0","rabbit","pets","2","0","","good","[4]"
"html-keyboard-response","146","603178","0.0-9.0-2.0-0.37","4507","2","20","Male","approach_avoid_spark_v1","""event"",""trial"",""time""
""fullscreenenter"",""1"",""1908""
","
","
","""event"",""trial"",""time""
""fullscreenenter"",""1"",""1908""
","
","","","","","","null","<div style=""font-size:60px;"">+</div>","null","","fixation","","","","","","","","","","",""
"aa-learning-trial","147","606186","0.0-9.0-2.0-1.37","4507","2","20","Male","approach_avoid_spark_v1","""event"",""trial"",""time""
""fullscreenenter"",""1"",""1908""
","
","
","""event"",""trial"",""time""
""fullscreenenter"",""1"",""1908""
","
","","","","","","511.80000001192093","images/rodent7.png","","","learning","-3","0","0","0","rodent","pets","2","0","","bad","[-4]"
"html-keyboard-response","148","606706","0.0-9.0-2.0-0.38","4507","2","20","Male","approach_avoid_spark_v1","""event"",""trial"",""time""
""fullscreenenter"",""1"",""1908""
","
","
","""event"",""trial"",""time""
""fullscreenenter"",""1"",""1908""
","
","","","","","","null","<div style=""font-size:60px;"">+</div>","null","","fixation","","","","","","","","","","",""
"aa-learning-trial","149","609715","0.0-9.0-2.0-1.38","4507","2","20","Male","approach_avoid_spark_v1","""event"",""trial"",""time""
""fullscreenenter"",""1"",""1908""
","
","
","""event"",""trial"",""time""
""fullscreenenter"",""1"",""1908""
","
","","","","","","750.0999999940395","images/cat8.png","","","learning","6","6","1","1","cat","pets","2","0","","neutral","0"
"html-keyboard-response","150","610218","0.0-9.0-2.0-0.39","4507","2","20","Male","approach_avoid_spark_v1","""event"",""trial"",""time""
""fullscreenenter"",""1"",""1908""
","
","
","""event"",""trial"",""time""
""fullscreenenter"",""1"",""1908""
","
","","","","","","null","<div style=""font-size:60px;"">+</div>","null","","fixation","","","","","","","","","","",""
"aa-learning-trial","151","613226","0.0-9.0-2.0-1.39","4507","2","20","Male","approach_avoid_spark_v1","""event"",""trial"",""time""
""fullscreenenter"",""1"",""1908""
","
","
","""event"",""trial"",""time""
""fullscreenenter"",""1"",""1908""
","
","","","","","","479.69999998807907","images/rabbit6.png","","","learning","-4","0","0","0","rabbit","pets","2","0","","good","[4]"
"html-keyboard-response","152","613730","0.0-9.0-2.0-0.40","4507","2","20","Male","approach_avoid_spark_v1","""event"",""trial"",""time""
""fullscreenenter"",""1"",""1908""
","
","
","""event"",""trial"",""time""
""fullscreenenter"",""1"",""1908""
","
","","","","","","null","<div style=""font-size:60px;"">+</div>","null","","fixation","","","","","","","","","","",""
"aa-learning-trial","153","616738","0.0-9.0-2.0-1.40","4507","2","20","Male","approach_avoid_spark_v1","""event"",""trial"",""time""
""fullscreenenter"",""1"",""1908""
","
","
","""event"",""trial"",""time""
""fullscreenenter"",""1"",""1908""
","
","","","","","","404.80000001192093","images/cat6.png","","","learning","-1","0","0","0","cat","pets","2","0","","neutral","0"
"html-keyboard-response","154","617242","0.0-9.0-2.0-0.41","4507","2","20","Male","approach_avoid_spark_v1","""event"",""trial"",""time""
""fullscreenenter"",""1"",""1908""
","
","
","""event"",""trial"",""time""
""fullscreenenter"",""1"",""1908""
","
","","","","","","null","<div style=""font-size:60px;"">+</div>","null","","fixation","","","","","","","","","","",""
"aa-learning-trial","155","620250","0.0-9.0-2.0-1.41","4507","2","20","Male","approach_avoid_spark_v1","""event"",""trial"",""time""
""fullscreenenter"",""1"",""1908""
","
","
","""event"",""trial"",""time""
""fullscreenenter"",""1"",""1908""
","
","","","","","","513.5999999940395","images/rodent6.png","","","learning","8","0","0","0","rodent","pets","2","0","","bad","[-4]"
"html-keyboard-response","156","620754","0.0-9.0-2.0-0.42","4507","2","20","Male","approach_avoid_spark_v1","""event"",""trial"",""time""
""fullscreenenter"",""1"",""1908""
","
","
","""event"",""trial"",""time""
""fullscreenenter"",""1"",""1908""
","
","","","","","","null","<div style=""font-size:60px;"">+</div>","null","","fixation","","","","","","","","","","",""
"aa-learning-trial","157","623764","0.0-9.0-2.0-1.42","4507","2","20","Male","approach_avoid_spark_v1","""event"",""trial"",""time""
""fullscreenenter"",""1"",""1908""
","
","
","""event"",""trial"",""time""
""fullscreenenter"",""1"",""1908""
","
","","","","","","482.19999998807907","images/rodent7.png","","","learning","-3","0","0","0","rodent","pets","2","0","","bad","[-4]"
"html-keyboard-response","158","624267","0.0-9.0-2.0-0.43","4507","2","20","Male","approach_avoid_spark_v1","""event"",""trial"",""time""
""fullscreenenter"",""1"",""1908""
","
","
","""event"",""trial"",""time""
""fullscreenenter"",""1"",""1908""
","
","","","","","","null","<div style=""font-size:60px;"">+</div>","null","","fixation","","","","","","","","","","",""
"aa-learning-trial","159","627274","0.0-9.0-2.0-1.43","4507","2","20","Male","approach_avoid_spark_v1","""event"",""trial"",""time""
""fullscreenenter"",""1"",""1908""
","
","
","""event"",""trial"",""time""
""fullscreenenter"",""1"",""1908""
","
","","","","","","590.3999999761581","images/cat6.png","","","learning","-1","0","0","0","cat","pets","2","0","","neutral","0"
"html-keyboard-response","160","627778","0.0-9.0-2.0-0.44","4507","2","20","Male","approach_avoid_spark_v1","""event"",""trial"",""time""
""fullscreenenter"",""1"",""1908""
","
","
","""event"",""trial"",""time""
""fullscreenenter"",""1"",""1908""
","
","","","","","","null","<div style=""font-size:60px;"">+</div>","null","","fixation","","","","","","","","","","",""
"aa-learning-trial","161","630787","0.0-9.0-2.0-1.44","4507","2","20","Male","approach_avoid_spark_v1","""event"",""trial"",""time""
""fullscreenenter"",""1"",""1908""
","
","
","""event"",""trial"",""time""
""fullscreenenter"",""1"",""1908""
","
","","","","","","649.6999999880791","images/cat8.png","","","learning","6","6","1","1","cat","pets","2","0","","neutral","0"
"html-keyboard-response","162","631291","0.0-9.0-2.0-0.45","4507","2","20","Male","approach_avoid_spark_v1","""event"",""trial"",""time""
""fullscreenenter"",""1"",""1908""
","
","
","""event"",""trial"",""time""
""fullscreenenter"",""1"",""1908""
","
","","","","","","null","<div style=""font-size:60px;"">+</div>","null","","fixation","","","","","","","","","","",""
"aa-learning-trial","163","634299","0.0-9.0-2.0-1.45","4507","2","20","Male","approach_avoid_spark_v1","""event"",""trial"",""time""
""fullscreenenter"",""1"",""1908""
","
","
","""event"",""trial"",""time""
""fullscreenenter"",""1"",""1908""
","
","","","","","","225.59999999403954","images/rodent7.png","","","learning","-3","0","0","0","rodent","pets","2","0","","bad","[-4]"
"html-keyboard-response","164","634802","0.0-9.0-2.0-0.46","4507","2","20","Male","approach_avoid_spark_v1","""event"",""trial"",""time""
""fullscreenenter"",""1"",""1908""
","
","
","""event"",""trial"",""time""
""fullscreenenter"",""1"",""1908""
","
","","","","","","null","<div style=""font-size:60px;"">+</div>","null","","fixation","","","","","","","","","","",""
"aa-learning-trial","165","637811","0.0-9.0-2.0-1.46","4507","2","20","Male","approach_avoid_spark_v1","""event"",""trial"",""time""
""fullscreenenter"",""1"",""1908""
","
","
","""event"",""trial"",""time""
""fullscreenenter"",""1"",""1908""
","
","","","","","","711.1999999880791","images/rabbit7.png","","","learning","7","0","0","0","rabbit","pets","2","0","","good","[4]"
"html-keyboard-response","166","638314","0.0-9.0-2.0-0.47","4507","2","20","Male","approach_avoid_spark_v1","""event"",""trial"",""time""
""fullscreenenter"",""1"",""1908""
","
","
","""event"",""trial"",""time""
""fullscreenenter"",""1"",""1908""
","
","","","","","","null","<div style=""font-size:60px;"">+</div>","null","","fixation","","","","","","","","","","",""
"aa-learning-trial","167","641322","0.0-9.0-2.0-1.47","4507","2","20","Male","approach_avoid_spark_v1","""event"",""trial"",""time""
""fullscreenenter"",""1"",""1908""
","
","
","""event"",""trial"",""time""
""fullscreenenter"",""1"",""1908""
","
","","","","","","447.59999999403954","images/cat5.png","","","learning","4","0","0","0","cat","pets","2","0","","neutral","0"
"html-keyboard-response","168","641826","0.0-9.0-2.0-0.48","4507","2","20","Male","approach_avoid_spark_v1","""event"",""trial"",""time""
""fullscreenenter"",""1"",""1908""
","
","
","""event"",""trial"",""time""
""fullscreenenter"",""1"",""1908""
","
","","","","","","null","<div style=""font-size:60px;"">+</div>","null","","fixation","","","","","","","","","","",""
"aa-learning-trial","169","644835","0.0-9.0-2.0-1.48","4507","2","20","Male","approach_avoid_spark_v1","""event"",""trial"",""time""
""fullscreenenter"",""1"",""1908""
","
","
","""event"",""trial"",""time""
""fullscreenenter"",""1"",""1908""
","
","","","","","","517","images/cat7.png","","","learning","-5","0","0","0","cat","pets","2","0","","neutral","0"
"html-keyboard-response","170","645339","0.0-9.0-2.0-0.49","4507","2","20","Male","approach_avoid_spark_v1","""event"",""trial"",""time""
""fullscreenenter"",""1"",""1908""
","
","
","""event"",""trial"",""time""
""fullscreenenter"",""1"",""1908""
","
","","","","","","null","<div style=""font-size:60px;"">+</div>","null","","fixation","","","","","","","","","","",""
"aa-learning-trial","171","648347","0.0-9.0-2.0-1.49","4507","2","20","Male","approach_avoid_spark_v1","""event"",""trial"",""time""
""fullscreenenter"",""1"",""1908""
","
","
","""event"",""trial"",""time""
""fullscreenenter"",""1"",""1908""
","
","","","","","","495.59999999403954","images/cat5.png","","","learning","4","4","1","1","cat","pets","2","0","","neutral","0"
"html-keyboard-response","172","648850","0.0-9.0-2.0-0.50","4507","2","20","Male","approach_avoid_spark_v1","""event"",""trial"",""time""
""fullscreenenter"",""1"",""1908""
","
","
","""event"",""trial"",""time""
""fullscreenenter"",""1"",""1908""
","
","","","","","","null","<div style=""font-size:60px;"">+</div>","null","","fixation","","","","","","","","","","",""
"aa-learning-trial","173","651859","0.0-9.0-2.0-1.50","4507","2","20","Male","approach_avoid_spark_v1","""event"",""trial"",""time""
""fullscreenenter"",""1"",""1908""
","
","
","""event"",""trial"",""time""
""fullscreenenter"",""1"",""1908""
","
","","","","","","521.5","images/rabbit3.png","","","learning","-6","0","0","0","rabbit","pets","2","0","","good","[4]"
"html-button-response","174","655662","0.0-9.0-3.0","4507","2","20","Male","approach_avoid_spark_v1","""event"",""trial"",""time""
""fullscreenenter"",""1"",""1908""
","
","
","""event"",""trial"",""time""
""fullscreenenter"",""1"",""1908""
","
","","","","","","3801.600000023842","<p> You have completed the round! <p> In this round, you earned 41 points! </p>","0","","break","","","","","","","","","","",""
"html-button-response","175","656939","0.0-10.0","4507","2","20","Male","approach_avoid_spark_v1","""event"",""trial"",""time""
""fullscreenenter"",""1"",""1908""
","
","
","""event"",""trial"",""time""
""fullscreenenter"",""1"",""1908""
","
","","","","","","1274.9000000059605","<p> Now it's time to play another round. </p>","0","","transition_screen","","","","","","","","","","",""
"preload","176","657059","0.0-11.0-0.0","4507","2","20","Male","approach_avoid_spark_v1","""event"",""trial"",""time""
""fullscreenenter"",""1"",""1908""
","
","
","""event"",""trial"",""time""
""fullscreenenter"",""1"",""1908""
","
","true","false","[]","[]","[]","","","","","","","","","","","","","","","",""
"learning-instructions","177","663780","0.0-11.0-1.0-0.0","4507","2","20","Male","approach_avoid_spark_v1","""event"",""trial"",""time""
""fullscreenenter"",""1"",""1908""
","
","
","""event"",""trial"",""time""
""fullscreenenter"",""1"",""1908""
","
","","","","","","1529.199999988079","<p> Your goal in this round is to decorate your friend's new house with furniture. </p></div>","","0","instructions","","","","","","","","","","",""
"learning-instructions","178","674698","0.0-11.0-1.0-0.1","4507","2","20","Male","approach_avoid_spark_v1","""event"",""trial"",""time""
""fullscreenenter"",""1"",""1908""
","
","
","""event"",""trial"",""time""
""fullscreenenter"",""1"",""1908""
","
","","","","","","506.69999998807907","<p> Your friend likes some pieces of furniture but not others.  </p><p> On each turn, you will see a piece of furniture.   </p><p> You need to decide whether to put it in your friend's house or not.  </p>","","0","instructions","","","","","","","","","","",""
"learning-instructions","179","682377","0.0-11.0-1.0-0.2","4507","2","20","Male","approach_avoid_spark_v1","""event"",""trial"",""time""
""fullscreenenter"",""1"",""1908""
","
","
","""event"",""trial"",""time""
""fullscreenenter"",""1"",""1908""
","
","","","","","","1565.2000000178814","<p> You can put the furniture in her house by pressing 1 and deliver it elsewhere by pressing 0. </p><br><div class=""choice-instructions-grid""> <div class=""choice-option""><img src=""images/approach.png"" class=""choice-option-img"" stage=""instructions"" position=""0"" ><div class=""choice-option-text""> Press ""1."" </div></div><div class=""choice-option""><img src=""images/avoid.png"" class=""choice-option-img"" stage=""instructions"" position=""1"" ><div class=""choice-option-text""> Press ""0."" </div></div>","","0","instructions","","","","","","","","","","",""
"learning-instructions","180","693736","0.0-11.0-1.0-0.3","4507","2","20","Male","approach_avoid_spark_v1","""event"",""trial"",""time""
""fullscreenenter"",""1"",""1908""
","
","
","""event"",""trial"",""time""
""fullscreenenter"",""1"",""1908""
","
","","","","","","1204.300000011921","<p> If you decorate your friend's house with furniture she likes, she will be happy! </p><p> But if you give her furniture that she does not like, she will be annoyed. </p>","","0","instructions","","","","","","","","","","",""
"learning-instructions","181","709987","0.0-11.0-1.0-0.4","4507","2","20","Male","approach_avoid_spark_v1","""event"",""trial"",""time""
""fullscreenenter"",""1"",""1908""
","
","
","""event"",""trial"",""time""
""fullscreenenter"",""1"",""1908""
","
","","","","","","2276.199999988079","<p> You will earn points based on how you made your friend feel. </p><p> If you made her happy, you will WIN anywhere from 1 - 9 points, </p><p> but if you made her annoyed you will LOSE anywhere from 1 - 9 points. </p>","","0","instructions","","","","","","","","","","",""
"learning-instructions","182","717709","0.0-11.0-1.0-0.5","4507","2","20","Male","approach_avoid_spark_v1","""event"",""trial"",""time""
""fullscreenenter"",""1"",""1908""
","
","
","""event"",""trial"",""time""
""fullscreenenter"",""1"",""1908""
","
","","","","","","1068.3999999761581","<p> You will see how many points you won or lost in the center of the screen. </p><p> Here is what you would see if you won 5 points: </p><p style=""color:green;font-size:50px;font-weight:bolder"">5</p>","","0","instructions","","","","","","","","","","",""
"learning-instructions","183","721041","0.0-11.0-1.0-0.6","4507","2","20","Male","approach_avoid_spark_v1","""event"",""trial"",""time""
""fullscreenenter"",""1"",""1908""
","
","
","""event"",""trial"",""time""
""fullscreenenter"",""1"",""1908""
","
","","","","","","500.2000000178814","<p> And here is what you would see if you lost 3 points: </p><p style=""color:red;font-size:50px;font-weight:bolder"">-3</p>","","0","instructions","","","","","","","","","","",""
"learning-instructions","184","741302","0.0-11.0-1.0-0.7","4507","2","20","Male","approach_avoid_spark_v1","""event"",""trial"",""time""
""fullscreenenter"",""1"",""1908""
","
","
","""event"",""trial"",""time""
""fullscreenenter"",""1"",""1908""
","
","","","","","","1020.6999999880791","<p> Some pieces of furniture will make her feel very happy or very annoyed. </p><p> These pieces of furniture will make you win or lose LOTS of points. </p><p> Other pieces of furniture will only make her feel a little happy or a little annoyed. </p><p> These pieces of furniture will make you win or lose small amounts of points. </p>","","0","instructions","","","","","","","","","","",""
"learning-instructions","185","757614","0.0-11.0-1.0-0.8","4507","2","20","Male","approach_avoid_spark_v1","""event"",""trial"",""time""
""fullscreenenter"",""1"",""1908""
","
","
","""event"",""trial"",""time""
""fullscreenenter"",""1"",""1908""
","
","","","","","","1402.5","<p> If you choose to deliver a piece of furniture elsewhere, you will not win or lose any points. </p><p>  However, in the center of the screen, you will see the number of points you WOULD HAVE won or lost if you had given the furniture to your friend. </p>","","0","instructions","","","","","","","","","","",""
"learning-instructions","186","771913","0.0-11.0-1.0-0.9","4507","2","20","Male","approach_avoid_spark_v1","""event"",""trial"",""time""
""fullscreenenter"",""1"",""1908""
","
","
","""event"",""trial"",""time""
""fullscreenenter"",""1"",""1908""
","
","","","","","","1000.5","<p> Here is what you might see if you did not give a piece of furniture to your friend that would have made her happy: </p><p style=""color:grey; font-size:50px; display: inline-block; border-spacing: 15px; border-width:3px; border-style:solid; border-color:red"">  &nbsp; 6 &nbsp; </p><p> Remember, in this case, you would not win or lose ANY points because you did not give her the furniture.  </p>","","0","instructions","","","","","","","","","","",""
"learning-instructions","187","782430","0.0-11.0-1.0-0.10","4507","2","20","Male","approach_avoid_spark_v1","""event"",""trial"",""time""
""fullscreenenter"",""1"",""1908""
","
","
","""event"",""trial"",""time""
""fullscreenenter"",""1"",""1908""
","
","","","","","","1728.9000000059605","<p> Try to make the best choice for each piece of furniture because </p><p> at the end of the game, you will earn bonus money based on how many points you earned. </p>","","0","instructions","","","","","","","","","","",""
"learning-instructions","188","795931","0.0-11.0-1.0-0.11","4507","2","20","Male","approach_avoid_spark_v1","""event"",""trial"",""time""
""fullscreenenter"",""1"",""1908""
","
","
","""event"",""trial"",""time""
""fullscreenenter"",""1"",""1908""
","
","","","","","","5309.4000000059605","<p> You will have 3 seconds to make each choice. Try to respond before time runs out! </p><p> You will lose 5 points each time you do not make a response. </p>","","0","instructions","","","","","","","","","","",""
"html-keyboard-response","189","796554","0.0-11.0-2.0-0.0","4507","2","20","Male","approach_avoid_spark_v1","""event"",""trial"",""time""
""fullscreenenter"",""1"",""1908""
","
","
","""event"",""trial"",""time""
""fullscreenenter"",""1"",""1908""
","
","","","","","","null","<div style=""font-size:60px;"">+</div>","null","","fixation","","","","","","","","","","",""
"aa-learning-trial","190","799563","0.0-11.0-2.0-1.0","4507","2","20","Male","approach_avoid_spark_v1","""event"",""trial"",""time""
""fullscreenenter"",""1"",""1908""
","
","
","""event"",""trial"",""time""
""fullscreenenter"",""1"",""1908""
","
","","","","","","null","images/table8.png","","","learning","4","-5","","null","table","furniture","1","1","","good","[3]"
"html-keyboard-response","191","800082","0.0-11.0-2.0-0.1","4507","2","20","Male","approach_avoid_spark_v1","""event"",""trial"",""time""
""fullscreenenter"",""1"",""1908""
","
","
","""event"",""trial"",""time""
""fullscreenenter"",""1"",""1908""
","
","","","","","","null","<div style=""font-size:60px;"">+</div>","null","","fixation","","","","","","","","","","",""
"aa-learning-trial","192","803095","0.0-11.0-2.0-1.1","4507","2","20","Male","approach_avoid_spark_v1","""event"",""trial"",""time""
""fullscreenenter"",""1"",""1908""
","
","
","""event"",""trial"",""time""
""fullscreenenter"",""1"",""1908""
","
","","","","","","913.5","images/table1.png","","","learning","6","0","0","0","table","furniture","1","1","","good","[3]"
"html-keyboard-response","193","803616","0.0-11.0-2.0-0.2","4507","2","20","Male","approach_avoid_spark_v1","""event"",""trial"",""time""
""fullscreenenter"",""1"",""1908""
","
","
","""event"",""trial"",""time""
""fullscreenenter"",""1"",""1908""
","
","","","","","","null","<div style=""font-size:60px;"">+</div>","null","","fixation","","","","","","","","","","",""
"aa-learning-trial","194","806637","0.0-11.0-2.0-1.2","4507","2","20","Male","approach_avoid_spark_v1","""event"",""trial"",""time""
""fullscreenenter"",""1"",""1908""
","
","
","""event"",""trial"",""time""
""fullscreenenter"",""1"",""1908""
","
","","","","","","532.5","images/table3.png","","","learning","3","0","0","0","table","furniture","1","1","","good","[3]"
"html-keyboard-response","195","807149","0.0-11.0-2.0-0.3","4507","2","20","Male","approach_avoid_spark_v1","""event"",""trial"",""time""
""fullscreenenter"",""1"",""1908""
","
","
","""event"",""trial"",""time""
""fullscreenenter"",""1"",""1908""
","
","","","","","","null","<div style=""font-size:60px;"">+</div>","null","","fixation","","","","","","","","","","",""
"aa-learning-trial","196","810164","0.0-11.0-2.0-1.3","4507","2","20","Male","approach_avoid_spark_v1","""event"",""trial"",""time""
""fullscreenenter"",""1"",""1908""
","
","
","""event"",""trial"",""time""
""fullscreenenter"",""1"",""1908""
","
","","","","","","487.59999999403954","images/bed5.png","","","learning","-1","0","0","0","bed","furniture","1","1","","neutral","0"
"html-keyboard-response","197","810681","0.0-11.0-2.0-0.4","4507","2","20","Male","approach_avoid_spark_v1","""event"",""trial"",""time""
""fullscreenenter"",""1"",""1908""
","
","
","""event"",""trial"",""time""
""fullscreenenter"",""1"",""1908""
","
","","","","","","null","<div style=""font-size:60px;"">+</div>","null","","fixation","","","","","","","","","","",""
"aa-learning-trial","198","813693","0.0-11.0-2.0-1.4","4507","2","20","Male","approach_avoid_spark_v1","""event"",""trial"",""time""
""fullscreenenter"",""1"",""1908""
","
","
","""event"",""trial"",""time""
""fullscreenenter"",""1"",""1908""
","
","","","","","","668.8000000119209","images/table1.png","","","learning","4","4","1","1","table","furniture","1","1","","good","[3]"
"html-keyboard-response","199","814214","0.0-11.0-2.0-0.5","4507","2","20","Male","approach_avoid_spark_v1","""event"",""trial"",""time""
""fullscreenenter"",""1"",""1908""
","
","
","""event"",""trial"",""time""
""fullscreenenter"",""1"",""1908""
","
","","","","","","null","<div style=""font-size:60px;"">+</div>","null","","fixation","","","","","","","","","","",""
"aa-learning-trial","200","817232","0.0-11.0-2.0-1.5","4507","2","20","Male","approach_avoid_spark_v1","""event"",""trial"",""time""
""fullscreenenter"",""1"",""1908""
","
","
","""event"",""trial"",""time""
""fullscreenenter"",""1"",""1908""
","
","","","","","","493.5","images/table3.png","","","learning","2","2","1","1","table","furniture","1","1","","good","[3]"
"html-keyboard-response","201","817746","0.0-11.0-2.0-0.6","4507","2","20","Male","approach_avoid_spark_v1","""event"",""trial"",""time""
""fullscreenenter"",""1"",""1908""
","
","
","""event"",""trial"",""time""
""fullscreenenter"",""1"",""1908""
","
","","","","","","null","<div style=""font-size:60px;"">+</div>","null","","fixation","","","","","","","","","","",""
"aa-learning-trial","202","820755","0.0-11.0-2.0-1.6","4507","2","20","Male","approach_avoid_spark_v1","""event"",""trial"",""time""
""fullscreenenter"",""1"",""1908""
","
","
","""event"",""trial"",""time""
""fullscreenenter"",""1"",""1908""
","
","","","","","","698.5999999940395","images/bed6.png","","","learning","1","1","1","1","bed","furniture","1","1","","neutral","0"
"html-keyboard-response","203","821259","0.0-11.0-2.0-0.7","4507","2","20","Male","approach_avoid_spark_v1","""event"",""trial"",""time""
""fullscreenenter"",""1"",""1908""
","
","
","""event"",""trial"",""time""
""fullscreenenter"",""1"",""1908""
","
","","","","","","null","<div style=""font-size:60px;"">+</div>","null","","fixation","","","","","","","","","","",""
"aa-learning-trial","204","824267","0.0-11.0-2.0-1.7","4507","2","20","Male","approach_avoid_spark_v1","""event"",""trial"",""time""
""fullscreenenter"",""1"",""1908""
","
","
","""event"",""trial"",""time""
""fullscreenenter"",""1"",""1908""
","
","","","","","","436.19999998807907","images/bed7.png","","","learning","-3","-3","1","1","bed","furniture","1","1","","neutral","0"
"html-keyboard-response","205","824771","0.0-11.0-2.0-0.8","4507","2","20","Male","approach_avoid_spark_v1","""event"",""trial"",""time""
""fullscreenenter"",""1"",""1908""
","
","
","""event"",""trial"",""time""
""fullscreenenter"",""1"",""1908""
","
","","","","","","null","<div style=""font-size:60px;"">+</div>","null","","fixation","","","","","","","","","","",""
"aa-learning-trial","206","827791","0.0-11.0-2.0-1.8","4507","2","20","Male","approach_avoid_spark_v1","""event"",""trial"",""time""
""fullscreenenter"",""1"",""1908""
","
","
","""event"",""trial"",""time""
""fullscreenenter"",""1"",""1908""
","
","","","","","","567.4000000059605","images/chair6.png","","","learning","-6","-6","1","1","chair","furniture","1","1","","bad","[-6]"
"html-keyboard-response","207","828298","0.0-11.0-2.0-0.9","4507","2","20","Male","approach_avoid_spark_v1","""event"",""trial"",""time""
""fullscreenenter"",""1"",""1908""
","
","
","""event"",""trial"",""time""
""fullscreenenter"",""1"",""1908""
","
","","","","","","null","<div style=""font-size:60px;"">+</div>","null","","fixation","","","","","","","","","","",""
"aa-learning-trial","208","831307","0.0-11.0-2.0-1.9","4507","2","20","Male","approach_avoid_spark_v1","""event"",""trial"",""time""
""fullscreenenter"",""1"",""1908""
","
","
","""event"",""trial"",""time""
""fullscreenenter"",""1"",""1908""
","
","","","","","","660.4000000059605","images/chair1.png","","","learning","-8","-8","1","1","chair","furniture","1","1","","bad","[-6]"
"html-keyboard-response","209","831811","0.0-11.0-2.0-0.10","4507","2","20","Male","approach_avoid_spark_v1","""event"",""trial"",""time""
""fullscreenenter"",""1"",""1908""
","
","
","""event"",""trial"",""time""
""fullscreenenter"",""1"",""1908""
","
","","","","","","null","<div style=""font-size:60px;"">+</div>","null","","fixation","","","","","","","","","","",""
"aa-learning-trial","210","834821","0.0-11.0-2.0-1.10","4507","2","20","Male","approach_avoid_spark_v1","""event"",""trial"",""time""
""fullscreenenter"",""1"",""1908""
","
","
","""event"",""trial"",""time""
""fullscreenenter"",""1"",""1908""
","
","","","","","","469.09999999403954","images/chair6.png","","","learning","-7","0","0","0","chair","furniture","1","1","","bad","[-6]"
"html-keyboard-response","211","835331","0.0-11.0-2.0-0.11","4507","2","20","Male","approach_avoid_spark_v1","""event"",""trial"",""time""
""fullscreenenter"",""1"",""1908""
","
","
","""event"",""trial"",""time""
""fullscreenenter"",""1"",""1908""
","
","","","","","","null","<div style=""font-size:60px;"">+</div>","null","","fixation","","","","","","","","","","",""
"aa-learning-trial","212","838339","0.0-11.0-2.0-1.11","4507","2","20","Male","approach_avoid_spark_v1","""event"",""trial"",""time""
""fullscreenenter"",""1"",""1908""
","
","
","""event"",""trial"",""time""
""fullscreenenter"",""1"",""1908""
","
","","","","","","919.4000000059605","images/chair7.png","","","learning","-3","-3","1","1","chair","furniture","1","1","","bad","[-6]"
"html-keyboard-response","213","838842","0.0-11.0-2.0-0.12","4507","2","20","Male","approach_avoid_spark_v1","""event"",""trial"",""time""
""fullscreenenter"",""1"",""1908""
","
","
","""event"",""trial"",""time""
""fullscreenenter"",""1"",""1908""
","
","","","","","","null","<div style=""font-size:60px;"">+</div>","null","","fixation","","","","","","","","","","",""
"aa-learning-trial","214","841852","0.0-11.0-2.0-1.12","4507","2","20","Male","approach_avoid_spark_v1","""event"",""trial"",""time""
""fullscreenenter"",""1"",""1908""
","
","
","""event"",""trial"",""time""
""fullscreenenter"",""1"",""1908""
","
","","","","","","779.1000000238419","images/bed7.png","","","learning","2","0","0","0","bed","furniture","1","1","","neutral","0"
"html-keyboard-response","215","842355","0.0-11.0-2.0-0.13","4507","2","20","Male","approach_avoid_spark_v1","""event"",""trial"",""time""
""fullscreenenter"",""1"",""1908""
","
","
","""event"",""trial"",""time""
""fullscreenenter"",""1"",""1908""
","
","","","","","","null","<div style=""font-size:60px;"">+</div>","null","","fixation","","","","","","","","","","",""
"aa-learning-trial","216","845363","0.0-11.0-2.0-1.13","4507","2","20","Male","approach_avoid_spark_v1","""event"",""trial"",""time""
""fullscreenenter"",""1"",""1908""
","
","
","""event"",""trial"",""time""
""fullscreenenter"",""1"",""1908""
","
","","","","","","548.2999999821186","images/chair1.png","","","learning","-5","0","0","0","chair","furniture","1","1","","bad","[-6]"
"html-keyboard-response","217","845867","0.0-11.0-2.0-0.14","4507","2","20","Male","approach_avoid_spark_v1","""event"",""trial"",""time""
""fullscreenenter"",""1"",""1908""
","
","
","""event"",""trial"",""time""
""fullscreenenter"",""1"",""1908""
","
","","","","","","null","<div style=""font-size:60px;"">+</div>","null","","fixation","","","","","","","","","","",""
"aa-learning-trial","218","848875","0.0-11.0-2.0-1.14","4507","2","20","Male","approach_avoid_spark_v1","""event"",""trial"",""time""
""fullscreenenter"",""1"",""1908""
","
","
","""event"",""trial"",""time""
""fullscreenenter"",""1"",""1908""
","
","","","","","","770","images/bed6.png","","","learning","[1]","1","1","1","bed","furniture","1","1","","neutral","0"
"html-keyboard-response","219","849378","0.0-11.0-2.0-0.15","4507","2","20","Male","approach_avoid_spark_v1","""event"",""trial"",""time""
""fullscreenenter"",""1"",""1908""
","
","
","""event"",""trial"",""time""
""fullscreenenter"",""1"",""1908""
","
","","","","","","null","<div style=""font-size:60px;"">+</div>","null","","fixation","","","","","","","","","","",""
"aa-learning-trial","220","852387","0.0-11.0-2.0-1.15","4507","2","20","Male","approach_avoid_spark_v1","""event"",""trial"",""time""
""fullscreenenter"",""1"",""1908""
","
","
","""event"",""trial"",""time""
""fullscreenenter"",""1"",""1908""
","
","","","","","","680.4000000059605","images/bed6.png","","","learning","-1","-1","1","1","bed","furniture","1","1","","neutral","0"
"html-keyboard-response","221","852891","0.0-11.0-2.0-0.16","4507","2","20","Male","approach_avoid_spark_v1","""event"",""trial"",""time""
""fullscreenenter"",""1"",""1908""
","
","
","""event"",""trial"",""time""
""fullscreenenter"",""1"",""1908""
","
","","","","","","null","<div style=""font-size:60px;"">+</div>","null","","fixation","","","","","","","","","","",""
"aa-learning-trial","222","855912","0.0-11.0-2.0-1.16","4507","2","20","Male","approach_avoid_spark_v1","""event"",""trial"",""time""
""fullscreenenter"",""1"",""1908""
","
","
","""event"",""trial"",""time""
""fullscreenenter"",""1"",""1908""
","
","","","","","","611.2999999821186","images/chair1.png","","","learning","-5","0","0","0","chair","furniture","1","1","","bad","[-6]"
"html-keyboard-response","223","856429","0.0-11.0-2.0-0.17","4507","2","20","Male","approach_avoid_spark_v1","""event"",""trial"",""time""
""fullscreenenter"",""1"",""1908""
","
","
","""event"",""trial"",""time""
""fullscreenenter"",""1"",""1908""
","
","","","","","","null","<div style=""font-size:60px;"">+</div>","null","","fixation","","","","","","","","","","",""
"aa-learning-trial","224","859435","0.0-11.0-2.0-1.17","4507","2","20","Male","approach_avoid_spark_v1","""event"",""trial"",""time""
""fullscreenenter"",""1"",""1908""
","
","
","""event"",""trial"",""time""
""fullscreenenter"",""1"",""1908""
","
","","","","","","139.30000001192093","images/table1.png","","","learning","6","0","0","0","table","furniture","1","1","","good","[3]"
"html-keyboard-response","225","859939","0.0-11.0-2.0-0.18","4507","2","20","Male","approach_avoid_spark_v1","""event"",""trial"",""time""
""fullscreenenter"",""1"",""1908""
","
","
","""event"",""trial"",""time""
""fullscreenenter"",""1"",""1908""
","
","","","","","","null","<div style=""font-size:60px;"">+</div>","null","","fixation","","","","","","","","","","",""
"aa-learning-trial","226","862948","0.0-11.0-2.0-1.18","4507","2","20","Male","approach_avoid_spark_v1","""event"",""trial"",""time""
""fullscreenenter"",""1"",""1908""
","
","
","""event"",""trial"",""time""
""fullscreenenter"",""1"",""1908""
","
","","","","","","1220.5999999940395","images/bed4.png","","","learning","1","0","0","0","bed","furniture","1","1","","neutral","0"
"html-keyboard-response","227","863451","0.0-11.0-2.0-0.19","4507","2","20","Male","approach_avoid_spark_v1","""event"",""trial"",""time""
""fullscreenenter"",""1"",""1908""
","
","
","""event"",""trial"",""time""
""fullscreenenter"",""1"",""1908""
","
","","","","","","null","<div style=""font-size:60px;"">+</div>","null","","fixation","","","","","","","","","","",""
"aa-learning-trial","228","866459","0.0-11.0-2.0-1.19","4507","2","20","Male","approach_avoid_spark_v1","""event"",""trial"",""time""
""fullscreenenter"",""1"",""1908""
","
","
","""event"",""trial"",""time""
""fullscreenenter"",""1"",""1908""
","
","","","","","","632","images/chair6.png","","","learning","-6","0","0","0","chair","furniture","1","1","","bad","[-6]"
"html-keyboard-response","229","866976","0.0-11.0-2.0-0.20","4507","2","20","Male","approach_avoid_spark_v1","""event"",""trial"",""time""
""fullscreenenter"",""1"",""1908""
","
","
","""event"",""trial"",""time""
""fullscreenenter"",""1"",""1908""
","
","","","","","","null","<div style=""font-size:60px;"">+</div>","null","","fixation","","","","","","","","","","",""
"aa-learning-trial","230","869987","0.0-11.0-2.0-1.20","4507","2","20","Male","approach_avoid_spark_v1","""event"",""trial"",""time""
""fullscreenenter"",""1"",""1908""
","
","
","""event"",""trial"",""time""
""fullscreenenter"",""1"",""1908""
","
","","","","","","582.8000000119209","images/table8.png","","","learning","3","3","1","1","table","furniture","1","1","","good","[3]"
"html-keyboard-response","231","870491","0.0-11.0-2.0-0.21","4507","2","20","Male","approach_avoid_spark_v1","""event"",""trial"",""time""
""fullscreenenter"",""1"",""1908""
","
","
","""event"",""trial"",""time""
""fullscreenenter"",""1"",""1908""
","
","","","","","","null","<div style=""font-size:60px;"">+</div>","null","","fixation","","","","","","","","","","",""
"aa-learning-trial","232","873499","0.0-11.0-2.0-1.21","4507","2","20","Male","approach_avoid_spark_v1","""event"",""trial"",""time""
""fullscreenenter"",""1"",""1908""
","
","
","""event"",""trial"",""time""
""fullscreenenter"",""1"",""1908""
","
","","","","","","542.4000000059605","images/bed7.png","","","learning","-1","0","0","0","bed","furniture","1","1","","neutral","0"
"html-keyboard-response","233","874003","0.0-11.0-2.0-0.22","4507","2","20","Male","approach_avoid_spark_v1","""event"",""trial"",""time""
""fullscreenenter"",""1"",""1908""
","
","
","""event"",""trial"",""time""
""fullscreenenter"",""1"",""1908""
","
","","","","","","null","<div style=""font-size:60px;"">+</div>","null","","fixation","","","","","","","","","","",""
"aa-learning-trial","234","877010","0.0-11.0-2.0-1.22","4507","2","20","Male","approach_avoid_spark_v1","""event"",""trial"",""time""
""fullscreenenter"",""1"",""1908""
","
","
","""event"",""trial"",""time""
""fullscreenenter"",""1"",""1908""
","
","","","","","","708","images/table8.png","","","learning","4","4","1","1","table","furniture","1","1","","good","[3]"
"html-keyboard-response","235","877514","0.0-11.0-2.0-0.23","4507","2","20","Male","approach_avoid_spark_v1","""event"",""trial"",""time""
""fullscreenenter"",""1"",""1908""
","
","
","""event"",""trial"",""time""
""fullscreenenter"",""1"",""1908""
","
","","","","","","null","<div style=""font-size:60px;"">+</div>","null","","fixation","","","","","","","","","","",""
"aa-learning-trial","236","880526","0.0-11.0-2.0-1.23","4507","2","20","Male","approach_avoid_spark_v1","""event"",""trial"",""time""
""fullscreenenter"",""1"",""1908""
","
","
","""event"",""trial"",""time""
""fullscreenenter"",""1"",""1908""
","
","","","","","","622.6000000238419","images/bed5.png","","","learning","4","0","0","0","bed","furniture","1","1","","neutral","0"
"html-keyboard-response","237","881040","0.0-11.0-2.0-0.24","4507","2","20","Male","approach_avoid_spark_v1","""event"",""trial"",""time""
""fullscreenenter"",""1"",""1908""
","
","
","""event"",""trial"",""time""
""fullscreenenter"",""1"",""1908""
","
