"trial_type","trial_index","time_elapsed","internal_node_id","subject_id","task_condition","age","gender","task_version","interactions","blur_events","focus_events","fullscreenenter_events","fullscreenexit_events","success","timeout","failed_images","failed_audio","failed_video","rt","stimulus","response","button_pressed","task_part","approach_reward","points","key_press","option_selected","stim_cat","task_block","block_condition","block_number","correct","cat_type","mean_cat_reward"
"pavlovia","0","6","0.0-0.0","5889","2","15","Female","approach_avoid_spark_v1","""event"",""trial"",""time""
""fullscreenenter"",""1"",""32361""
","
","
","""event"",""trial"",""time""
""fullscreenenter"",""1"",""32361""
","
","","","","","","","","","","","","","","","","","","","","",""
"fullscreen","1","33345","0.0-1.0","5889","2","15","Female","approach_avoid_spark_v1","""event"",""trial"",""time""
""fullscreenenter"",""1"",""32361""
","
","
","""event"",""trial"",""time""
""fullscreenenter"",""1"",""32361""
","
","true","","","","","","","","","","","","","","","","","","","",""
"preload","2","98235","0.0-2.0","5889","2","15","Female","approach_avoid_spark_v1","""event"",""trial"",""time""
""fullscreenenter"",""1"",""32361""
","
","
","""event"",""trial"",""time""
""fullscreenenter"",""1"",""32361""
","
","true","false","[]","[]","[]","","","","","","","","","","","","","","","",""
"audio-keyboard-response","3","102619","0.0-3.0","5889","2","15","Female","approach_avoid_spark_v1","""event"",""trial"",""time""
""fullscreenenter"",""1"",""32361""
","
","
","""event"",""trial"",""time""
""fullscreenenter"",""1"",""32361""
","
","","","","","","3690.666666666665","audio/beep_loop.wav"," ","","","","","","","","","","","","",""
"audio-button-response","4","105121","0.0-4.0","5889","2","15","Female","approach_avoid_spark_v1","""event"",""trial"",""time""
""fullscreenenter"",""1"",""32361""
","
","
","""event"",""trial"",""time""
""fullscreenenter"",""1"",""32361""
","
","","","","","","2507","audio/shark.wav","4","","","","","","","","","","","","",""
"audio-button-response","5","108276","0.0-5.0","5889","2","15","Female","approach_avoid_spark_v1","""event"",""trial"",""time""
""fullscreenenter"",""1"",""32361""
","
","
","""event"",""trial"",""time""
""fullscreenenter"",""1"",""32361""
","
","","","","","","2144","audio/turtle.wav","1","","","","","","","","","","","","",""
"preload","6","137976","0.0-6.0","5889","2","15","Female","approach_avoid_spark_v1","""event"",""trial"",""time""
""fullscreenenter"",""1"",""32361""
","
","
","""event"",""trial"",""time""
""fullscreenenter"",""1"",""32361""
","
","true","false","[]","[]","[]","","","","","","","","","","","","","","","",""
"html-keyboard-response","7","141231","0.0-7.0","5889","2","15","Female","approach_avoid_spark_v1","""event"",""trial"",""time""
""fullscreenenter"",""1"",""32361""
","
","
","""event"",""trial"",""time""
""fullscreenenter"",""1"",""32361""
","
","","","","","","3252.9000000953674","Welcome to the experiment. Press any key to begin and to advance the instructions.","n","","","","","","","","","","","","",""
"learning-instructions","8","149883","0.0-8.0-0.0-0.0","5889","2","15","Female","approach_avoid_spark_v1","""event"",""trial"",""time""
""fullscreenenter"",""1"",""32361""
","
","
","""event"",""trial"",""time""
""fullscreenenter"",""1"",""32361""
","
","","","","","","1703","<p> Welcome! Today you are going to play 6 different rounds of a decision-making game. </p><p> Use the mouse to click next to continue. </p>","","0","instructions","","","","","","","","","","",""
"learning-instructions","9","153794","0.0-8.0-0.0-0.1","5889","2","15","Female","approach_avoid_spark_v1","""event"",""trial"",""time""
""fullscreenenter"",""1"",""32361""
","
","
","""event"",""trial"",""time""
""fullscreenenter"",""1"",""32361""
","
","","","","","","1177.1000000238419","<p> You will start with a practice round to learn the rules. </p>","","0","instructions","","","","","","","","","","",""
"learning-instructions","10","157775","0.0-8.0-0.0-0.2","5889","2","15","Female","approach_avoid_spark_v1","""event"",""trial"",""time""
""fullscreenenter"",""1"",""32361""
","
","
","""event"",""trial"",""time""
""fullscreenenter"",""1"",""32361""
","
","","","","","","540.3999999761581","<p> Your goal in this round is to give out sports equipment to kids. </p></div>","","0","instructions","","","","","","","","","","",""
"learning-instructions","11","165938","0.0-8.0-0.0-0.3","5889","2","15","Female","approach_avoid_spark_v1","""event"",""trial"",""time""
""fullscreenenter"",""1"",""32361""
","
","
","""event"",""trial"",""time""
""fullscreenenter"",""1"",""32361""
","
","","","","","","597","<p> The kids only like some of the equipment.  </p><p> On each turn, you will see a piece of sports equipment.   </p><p> You need to decide whether to give it to the kids or not.  </p>","","0","instructions","","","","","","","","","","",""
"learning-instructions","12","172273","0.0-8.0-0.0-0.4","5889","2","15","Female","approach_avoid_spark_v1","""event"",""trial"",""time""
""fullscreenenter"",""1"",""32361""
","
","
","""event"",""trial"",""time""
""fullscreenenter"",""1"",""32361""
","
","","","","","","1576","<p> You can give them the equipment by pressing 1 and choose not to give it to them by pressing 0. </p><br><div class=""choice-instructions-grid""> <div class=""choice-option""><img src=""images/approach.png"" class=""choice-option-img"" stage=""instructions"" position=""0"" ><div class=""choice-option-text""> Press ""1."" </div></div><div class=""choice-option""><img src=""images/avoid.png"" class=""choice-option-img"" stage=""instructions"" position=""1"" ><div class=""choice-option-text""> Press ""0."" </div></div>","","0","instructions","","","","","","","","","","",""
"learning-instructions","13","180210","0.0-8.0-0.0-0.5","5889","2","15","Female","approach_avoid_spark_v1","""event"",""trial"",""time""
""fullscreenenter"",""1"",""32361""
","
","
","""event"",""trial"",""time""
""fullscreenenter"",""1"",""32361""
","
","","","","","","542.3999999761581","<p> If you give them a piece of equipment they like, they will be happy! </p><p> But if you give them a piece of equipment they do not like, they will be sad. </p>","","0","instructions","","","","","","","","","","",""
"learning-instructions","14","191277","0.0-8.0-0.0-0.6","5889","2","15","Female","approach_avoid_spark_v1","""event"",""trial"",""time""
""fullscreenenter"",""1"",""32361""
","
","
","""event"",""trial"",""time""
""fullscreenenter"",""1"",""32361""
","
","","","","","","548.6000000238419","<p> You will earn points based on how you make kids feel. </p><p> If you make them happy, you will WIN anywhere from 1 - 9 points, </p><p> but if you make them sad, you will LOSE anywhere from 1 - 9 points. </p>","","0","instructions","","","","","","","","","","",""
"learning-instructions","15","201505","0.0-8.0-0.0-0.7","5889","2","15","Female","approach_avoid_spark_v1","""event"",""trial"",""time""
""fullscreenenter"",""1"",""32361""
","
","
","""event"",""trial"",""time""
""fullscreenenter"",""1"",""32361""
","
","","","","","","664.2999999523163","<p> You will see how many points you won or lost in the center of the screen. </p><p> Here is what you would see if you won 6 points: </p><p style=""color:green;font-size:50px;font-weight:bolder"">6</p><p style=""color:green"">The text is GREEN because you WON points.</p>","","0","instructions","","","","","","","","","","",""
"learning-instructions","16","207715","0.0-8.0-0.0-0.8","5889","2","15","Female","approach_avoid_spark_v1","""event"",""trial"",""time""
""fullscreenenter"",""1"",""32361""
","
","
","""event"",""trial"",""time""
""fullscreenenter"",""1"",""32361""
","
","","","","","","687.7000000476837","<p> And here is what you would see if you lost 4 points: </p><p style=""color:red;font-size:50px;font-weight:bolder"">-4</p><p style=""color:red"">The text is RED because you LOST points. </p>","","0","instructions","","","","","","","","","","",""
"learning-instructions","17","223145","0.0-8.0-0.0-0.9","5889","2","15","Female","approach_avoid_spark_v1","""event"",""trial"",""time""
""fullscreenenter"",""1"",""32361""
","
","
","""event"",""trial"",""time""
""fullscreenenter"",""1"",""32361""
","
","","","","","","715","<p> Some of the equipment will make the kids VERY happy or sad. </p><p> These pieces of equipment will make you win or lose LOTS of points. </p><p> Other pieces of equipment will only make the kids a little happy or sad. </p><p> These pieces of equipment will make you win or lose small amounts of points. </p>","","0","instructions","","","","","","","","","","",""
"learning-instructions","18","234412","0.0-8.0-0.0-0.10","5889","2","15","Female","approach_avoid_spark_v1","""event"",""trial"",""time""
""fullscreenenter"",""1"",""32361""
","
","
","""event"",""trial"",""time""
""fullscreenenter"",""1"",""32361""
","
","","","","","","642.6000000238419","<p> If you choose not to give them the equipment, you will not win or lose any points. </p><p>  However, in the center of the screen, you will see the number of points you WOULD HAVE won or lost if you had given them the equipment. </p>","","0","instructions","","","","","","","","","","",""
"learning-instructions","19","256785","0.0-8.0-0.0-0.11","5889","2","15","Female","approach_avoid_spark_v1","""event"",""trial"",""time""
""fullscreenenter"",""1"",""32361""
","
","
","""event"",""trial"",""time""
""fullscreenenter"",""1"",""32361""
","
","","","","","","829.5999999046326","<p> Here is what you might see if you did not give the equipment to the kids but it would have made them happy: </p><p style=""color:grey; font-size:50px; display: inline-block; border-spacing: 15px; border-width:3px; border-style:solid; border-color:red"">  &nbsp; 7 &nbsp; </p><p> Remember, in this case, you would not win or lose ANY points because you did not give them the equipment.  </p><p style=""color:grey"">The text is GREY because you earned ZERO points. </p><p style=""color:red"">However, choosing to give the kids the equipment would have made you win points. The box around the text is RED because you chose the worse option. </p>","","0","instructions","","","","","","","","","","",""
"learning-instructions","20","278367","0.0-8.0-0.0-0.12","5889","2","15","Female","approach_avoid_spark_v1","""event"",""trial"",""time""
""fullscreenenter"",""1"",""32361""
","
","
","""event"",""trial"",""time""
""fullscreenenter"",""1"",""32361""
","
","","","","","","502.7000000476837","<p> Here is what you might see if you did not give the equipment to the kids but it would have made them sad: </p><p style=""color:grey;font-size:50px; display: inline-block; border-spacing: 15px; border-width:3px; border-style:solid; border-color:green"">  &nbsp; -8 &nbsp; </p><p> Remember, in this case, you would not win or lose ANY points because you did not give them the equipment.  </p><p style=""color:grey"">The text is GREY because you earned ZERO points. </p><p  style=""color:green""> Choosing to give the kids the equipment would have made you lose points. The box around the text is GREEN because you chose the better option.</p>","","0","instructions","","","","","","","","","","",""
"learning-instructions","21","288947","0.0-8.0-0.0-0.13","5889","2","15","Female","approach_avoid_spark_v1","""event"",""trial"",""time""
""fullscreenenter"",""1"",""32361""
","
","
","""event"",""trial"",""time""
""fullscreenenter"",""1"",""32361""
","
","","","","","","607.8999999761581","<p> You will have 3 seconds to make each choice. Try to respond before time runs out! </p><p> You will lose 5 points each time you do not make a response. </p>","","0","instructions","","","","","","","","","","",""
"learning-instructions","22","294931","0.0-8.0-0.0-0.14","5889","2","15","Female","approach_avoid_spark_v1","""event"",""trial"",""time""
""fullscreenenter"",""1"",""32361""
","
","
","""event"",""trial"",""time""
""fullscreenenter"",""1"",""32361""
","
","","","","","","554.5","<p> This is just a practice round, but in the real game, your bonus payment will depend on your total number of points.","","0","instructions","","","","","","","","","","",""
"learning-instructions","23","301208","0.0-8.0-0.0-0.15","5889","2","15","Female","approach_avoid_spark_v1","""event"",""trial"",""time""
""fullscreenenter"",""1"",""32361""
","
","
","""event"",""trial"",""time""
""fullscreenenter"",""1"",""32361""
","
","","","","","","495.59999990463257","<p> Remember, you can give them the equipment by pressing 1 and choose not to give it to them by pressing 0. </p><br><div class=""choice-instructions-grid""> <div class=""choice-option""><img src=""images/approach.png"" class=""choice-option-img"" stage=""instructions"" position=""0"" ><div class=""choice-option-text""> Press ""1."" </div></div><div class=""choice-option""><img src=""images/avoid.png"" class=""choice-option-img"" stage=""instructions"" position=""1"" ><div class=""choice-option-text""> Press ""0."" </div></div>","","0","instructions","","","","","","","","","","",""
"html-button-response","24","304157","0.0-8.0-1.0","5889","2","15","Female","approach_avoid_spark_v1","""event"",""trial"",""time""
""fullscreenenter"",""1"",""32361""
","
","
","""event"",""trial"",""time""
""fullscreenenter"",""1"",""32361""
","
","","","","","","2836.399999976158","<p> Ready to practice? </p>","0","","","","","","","","","","","","",""
"html-keyboard-response","25","304774","0.0-8.0-2.0-0.0","5889","2","15","Female","approach_avoid_spark_v1","""event"",""trial"",""time""
""fullscreenenter"",""1"",""32361""
","
","
","""event"",""trial"",""time""
""fullscreenenter"",""1"",""32361""
","
","","","","","","null","<div style=""font-size:60px;"">+</div>","null","","fixation","","","","","","","","","","",""
"aa-learning-trial","26","307783","0.0-8.0-2.0-1.0","5889","2","15","Female","approach_avoid_spark_v1","""event"",""trial"",""time""
""fullscreenenter"",""1"",""32361""
","
","
","""event"",""trial"",""time""
""fullscreenenter"",""1"",""32361""
","
","","","","","","1731.5999999046326","images/racket2.png","","","learning","-9","0","0","0","practice","practice","practice","-1","","",""
"html-keyboard-response","27","308295","0.0-8.0-2.0-0.1","5889","2","15","Female","approach_avoid_spark_v1","""event"",""trial"",""time""
""fullscreenenter"",""1"",""32361""
","
","
","""event"",""trial"",""time""
""fullscreenenter"",""1"",""32361""
","
","","","","","","null","<div style=""font-size:60px;"">+</div>","null","","fixation","","","","","","","","","","",""
"aa-learning-trial","28","311303","0.0-8.0-2.0-1.1","5889","2","15","Female","approach_avoid_spark_v1","""event"",""trial"",""time""
""fullscreenenter"",""1"",""32361""
","
","
","""event"",""trial"",""time""
""fullscreenenter"",""1"",""32361""
","
","","","","","","2157","images/racket2.png","","","learning","8","0","0","0","practice","practice","practice","-1","","",""
"html-keyboard-response","29","311810","0.0-8.0-2.0-0.2","5889","2","15","Female","approach_avoid_spark_v1","""event"",""trial"",""time""
""fullscreenenter"",""1"",""32361""
","
","
","""event"",""trial"",""time""
""fullscreenenter"",""1"",""32361""
","
","","","","","","null","<div style=""font-size:60px;"">+</div>","null","","fixation","","","","","","","","","","",""
"aa-learning-trial","30","314822","0.0-8.0-2.0-1.2","5889","2","15","Female","approach_avoid_spark_v1","""event"",""trial"",""time""
""fullscreenenter"",""1"",""32361""
","
","
","""event"",""trial"",""time""
""fullscreenenter"",""1"",""32361""
","
","","","","","","1180.2999999523163","images/ball2.png","","","learning","3","0","0","0","practice","practice","practice","-1","","",""
"html-keyboard-response","31","315335","0.0-8.0-2.0-0.3","5889","2","15","Female","approach_avoid_spark_v1","""event"",""trial"",""time""
""fullscreenenter"",""1"",""32361""
","
","
","""event"",""trial"",""time""
""fullscreenenter"",""1"",""32361""
","
","","","","","","null","<div style=""font-size:60px;"">+</div>","null","","fixation","","","","","","","","","","",""
"aa-learning-trial","32","318354","0.0-8.0-2.0-1.3","5889","2","15","Female","approach_avoid_spark_v1","""event"",""trial"",""time""
""fullscreenenter"",""1"",""32361""
","
","
","""event"",""trial"",""time""
""fullscreenenter"",""1"",""32361""
","
","","","","","","1371.1000000238419","images/racket2.png","","","learning","3","0","0","0","practice","practice","practice","-1","","",""
"html-keyboard-response","33","318865","0.0-8.0-2.0-0.4","5889","2","15","Female","approach_avoid_spark_v1","""event"",""trial"",""time""
""fullscreenenter"",""1"",""32361""
","
","
","""event"",""trial"",""time""
""fullscreenenter"",""1"",""32361""
","
","","","","","","null","<div style=""font-size:60px;"">+</div>","null","","fixation","","","","","","","","","","",""
"aa-learning-trial","34","321884","0.0-8.0-2.0-1.4","5889","2","15","Female","approach_avoid_spark_v1","""event"",""trial"",""time""
""fullscreenenter"",""1"",""32361""
","
","
","""event"",""trial"",""time""
""fullscreenenter"",""1"",""32361""
","
","","","","","","1042.3999999761581","images/ball1.png","","","learning","-5","-5","1","1","practice","practice","practice","-1","","",""
"html-keyboard-response","35","322396","0.0-8.0-2.0-0.5","5889","2","15","Female","approach_avoid_spark_v1","""event"",""trial"",""time""
""fullscreenenter"",""1"",""32361""
","
","
","""event"",""trial"",""time""
""fullscreenenter"",""1"",""32361""
","
","","","","","","null","<div style=""font-size:60px;"">+</div>","null","","fixation","","","","","","","","","","",""
"aa-learning-trial","36","325414","0.0-8.0-2.0-1.5","5889","2","15","Female","approach_avoid_spark_v1","""event"",""trial"",""time""
""fullscreenenter"",""1"",""32361""
","
","
","""event"",""trial"",""time""
""fullscreenenter"",""1"",""32361""
","
","","","","","","1304.3999999761581","images/ball3.png","","","learning","-2","0","0","0","practice","practice","practice","-1","","",""
"html-keyboard-response","37","325939","0.0-8.0-2.0-0.6","5889","2","15","Female","approach_avoid_spark_v1","""event"",""trial"",""time""
""fullscreenenter"",""1"",""32361""
","
","
","""event"",""trial"",""time""
""fullscreenenter"",""1"",""32361""
","
","","","","","","null","<div style=""font-size:60px;"">+</div>","null","","fixation","","","","","","","","","","",""
"aa-learning-trial","38","328956","0.0-8.0-2.0-1.6","5889","2","15","Female","approach_avoid_spark_v1","""event"",""trial"",""time""
""fullscreenenter"",""1"",""32361""
","
","
","""event"",""trial"",""time""
""fullscreenenter"",""1"",""32361""
","
","","","","","","1046","images/racket3.png","","","learning","-3","0","0","0","practice","practice","practice","-1","","",""
"html-keyboard-response","39","329469","0.0-8.0-2.0-0.7","5889","2","15","Female","approach_avoid_spark_v1","""event"",""trial"",""time""
""fullscreenenter"",""1"",""32361""
","
","
","""event"",""trial"",""time""
""fullscreenenter"",""1"",""32361""
","
","","","","","","null","<div style=""font-size:60px;"">+</div>","null","","fixation","","","","","","","","","","",""
"aa-learning-trial","40","332479","0.0-8.0-2.0-1.7","5889","2","15","Female","approach_avoid_spark_v1","""event"",""trial"",""time""
""fullscreenenter"",""1"",""32361""
","
","
","""event"",""trial"",""time""
""fullscreenenter"",""1"",""32361""
","
","","","","","","476.90000009536743","images/racket2.png","","","learning","4","0","0","0","practice","practice","practice","-1","","",""
"html-keyboard-response","41","332991","0.0-8.0-2.0-0.8","5889","2","15","Female","approach_avoid_spark_v1","""event"",""trial"",""time""
""fullscreenenter"",""1"",""32361""
","
","
","""event"",""trial"",""time""
""fullscreenenter"",""1"",""32361""
","
","","","","","","null","<div style=""font-size:60px;"">+</div>","null","","fixation","","","","","","","","","","",""
"aa-learning-trial","42","336003","0.0-8.0-2.0-1.8","5889","2","15","Female","approach_avoid_spark_v1","""event"",""trial"",""time""
""fullscreenenter"",""1"",""32361""
","
","
","""event"",""trial"",""time""
""fullscreenenter"",""1"",""32361""
","
","","","","","","797.8999999761581","images/racket1.png","","","learning","1","0","0","0","practice","practice","practice","-1","","",""
"html-keyboard-response","43","336512","0.0-8.0-2.0-0.9","5889","2","15","Female","approach_avoid_spark_v1","""event"",""trial"",""time""
""fullscreenenter"",""1"",""32361""
","
","
","""event"",""trial"",""time""
""fullscreenenter"",""1"",""32361""
","
","","","","","","null","<div style=""font-size:60px;"">+</div>","null","","fixation","","","","","","","","","","",""
"aa-learning-trial","44","339528","0.0-8.0-2.0-1.9","5889","2","15","Female","approach_avoid_spark_v1","""event"",""trial"",""time""
""fullscreenenter"",""1"",""32361""
","
","
","""event"",""trial"",""time""
""fullscreenenter"",""1"",""32361""
","
","","","","","","509.89999997615814","images/racket2.png","","","learning","-2","0","0","0","practice","practice","practice","-1","","",""
"html-keyboard-response","45","340037","0.0-8.0-2.0-0.10","5889","2","15","Female","approach_avoid_spark_v1","""event"",""trial"",""time""
""fullscreenenter"",""1"",""32361""
","
","
","""event"",""trial"",""time""
""fullscreenenter"",""1"",""32361""
","
","","","","","","null","<div style=""font-size:60px;"">+</div>","null","","fixation","","","","","","","","","","",""
"aa-learning-trial","46","343051","0.0-8.0-2.0-1.10","5889","2","15","Female","approach_avoid_spark_v1","""event"",""trial"",""time""
""fullscreenenter"",""1"",""32361""
","
","
","""event"",""trial"",""time""
""fullscreenenter"",""1"",""32361""
","
","","","","","","1074.3999999761581","images/ball4.png","","","learning","7","0","0","0","practice","practice","practice","-1","","",""
"html-keyboard-response","47","343561","0.0-8.0-2.0-0.11","5889","2","15","Female","approach_avoid_spark_v1","""event"",""trial"",""time""
""fullscreenenter"",""1"",""32361""
","
","
","""event"",""trial"",""time""
""fullscreenenter"",""1"",""32361""
","
","","","","","","null","<div style=""font-size:60px;"">+</div>","null","","fixation","","","","","","","","","","",""
"aa-learning-trial","48","346573","0.0-8.0-2.0-1.11","5889","2","15","Female","approach_avoid_spark_v1","""event"",""trial"",""time""
""fullscreenenter"",""1"",""32361""
","
","
","""event"",""trial"",""time""
""fullscreenenter"",""1"",""32361""
","
","","","","","","536.5","images/racket3.png","","","learning","-4","0","0","0","practice","practice","practice","-1","","",""
"html-button-response","49","349649","0.0-8.0-3.0","5889","2","15","Female","approach_avoid_spark_v1","""event"",""trial"",""time""
""fullscreenenter"",""1"",""32361""
","
","
","""event"",""trial"",""time""
""fullscreenenter"",""1"",""32361""
","
","","","","","","3074.5","<p> You earned -5 points in the practice round! </p>","0","","break","","","","","","","","","","",""
"learning-instructions","50","360035","0.0-8.0-4.0-0.0","5889","2","15","Female","approach_avoid_spark_v1","""event"",""trial"",""time""
""fullscreenenter"",""1"",""32361""
","
","
","""event"",""trial"",""time""
""fullscreenenter"",""1"",""32361""
","
","","","","","","3686","<p> It's almost time to start the real game. </p><p> Before you start, we're going to ask you a few questions about how the game works. </p>","","0","instructions","","","","","","","","","","",""
"preload","51","376040","0.0-8.0-5.0","5889","2","15","Female","approach_avoid_spark_v1","""event"",""trial"",""time""
""fullscreenenter"",""1"",""32361""
","
","
","""event"",""trial"",""time""
""fullscreenenter"",""1"",""32361""
","
","true","false","[]","[]","[]","","","","","","","","","","","","","","","",""
"comp-q","52","382229","0.0-8.0-6.0-0.0","5889","2","15","Female","approach_avoid_spark_v1","""event"",""trial"",""time""
""fullscreenenter"",""1"",""32361""
","
","
","""event"",""trial"",""time""
""fullscreenenter"",""1"",""32361""
","
","","","","","","1186.8999999761581","<p> <b> True or False? </b> </p><p> If you see a number in GREY, that means you earned that many points. </p>","","1","comp_question","","","","","","","","","true","",""
"comp-q","53","392092","0.0-8.0-6.0-1.0","5889","2","15","Female","approach_avoid_spark_v1","""event"",""trial"",""time""
""fullscreenenter"",""1"",""32361""
","
","
","""event"",""trial"",""time""
""fullscreenenter"",""1"",""32361""
","
","","","","","","1492.3999999761581","<p><b> That's right! </b> If you see a grey number, it means you earned ZERO points. <br> The grey numbers show the points you WOULD HAVE earned if you had made the other choice. </p>","","0","comp_answer","","","","","","","","","","",""
"comp-q","54","397840","0.0-8.0-7.0-0.0","5889","2","15","Female","approach_avoid_spark_v1","""event"",""trial"",""time""
""fullscreenenter"",""1"",""32361""
","
","
","""event"",""trial"",""time""
""fullscreenenter"",""1"",""32361""
","
","","","","","","1043.3999999761581","<p> <b> True or False? </b> </p><p> You will have as much time as you want to make each choice. </p>","","1","comp_question","","","","","","","","","true","",""
"comp-q","55","402886","0.0-8.0-7.0-1.0","5889","2","15","Female","approach_avoid_spark_v1","""event"",""trial"",""time""
""fullscreenenter"",""1"",""32361""
","
","
","""event"",""trial"",""time""
""fullscreenenter"",""1"",""32361""
","
","","","","","","1012.6000000238419","<p> <b> That's right! </b> You will only have 3 seconds to make each choice. </p>","","0","comp_answer","","","","","","","","","","",""
"comp-q","56","408098","0.0-8.0-8.0-0.0","5889","2","15","Female","approach_avoid_spark_v1","""event"",""trial"",""time""
""fullscreenenter"",""1"",""32361""
","
","
","""event"",""trial"",""time""
""fullscreenenter"",""1"",""32361""
","
","","","","","","559.7000000476837","<p> <b> True or False? </b> </p><p> You should use the '1' and '0' keys to make your choices. </p>","","0","comp_question","","","","","","","","","true","",""
"comp-q","57","413310","0.0-8.0-8.0-1.0","5889","2","15","Female","approach_avoid_spark_v1","""event"",""trial"",""time""
""fullscreenenter"",""1"",""32361""
","
","
","""event"",""trial"",""time""
""fullscreenenter"",""1"",""32361""
","
","","","","","","587.6999999284744","<p> <b> That's right! </b> You should use the '1' and '0' keys to make each choice. </p>","","0","comp_answer","","","","","","","","","","",""
"learning-instructions","58","421676","0.0-8.0-9.0-0.0","5889","2","15","Female","approach_avoid_spark_v1","""event"",""trial"",""time""
""fullscreenenter"",""1"",""32361""
","
","
","""event"",""trial"",""time""
""fullscreenenter"",""1"",""32361""
","
","","","","","","2095.7000000476837","<p> It's now time to start the real game. </p>Do your best, because the points you earn in the next rounds will influence your bonus payment. </p>","","0","instructions","","","","","","","","","","",""
"preload","59","421808","0.0-9.0-0.0","5889","2","15","Female","approach_avoid_spark_v1","""event"",""trial"",""time""
""fullscreenenter"",""1"",""32361""
","
","
","""event"",""trial"",""time""
""fullscreenenter"",""1"",""32361""
","
","true","false","[]","[]","[]","","","","","","","","","","","","","","","",""
"learning-instructions","60","427480","0.0-9.0-1.0-0.0","5889","2","15","Female","approach_avoid_spark_v1","""event"",""trial"",""time""
""fullscreenenter"",""1"",""32361""
","
","
","""event"",""trial"",""time""
""fullscreenenter"",""1"",""32361""
","
","","","","","","1670.5999999046326","<p> Your goal in this round is to take care of lots of animals. </p></div>","","0","instructions","","","","","","","","","","",""
"learning-instructions","61","443242","0.0-9.0-1.0-0.1","5889","2","15","Female","approach_avoid_spark_v1","""event"",""trial"",""time""
""fullscreenenter"",""1"",""32361""
","
","
","""event"",""trial"",""time""
""fullscreenenter"",""1"",""32361""
","
","","","","","","865.6999999284744","<p> Some animals want to be pet, while other animals want to be left alone.  </p><p> On each turn, you will see an animal.   </p><p> You need to decide whether to pet it or not.  </p>","","0","instructions","","","","","","","","","","",""
"learning-instructions","62","450327","0.0-9.0-1.0-0.2","5889","2","15","Female","approach_avoid_spark_v1","""event"",""trial"",""time""
""fullscreenenter"",""1"",""32361""
","
","
","""event"",""trial"",""time""
""fullscreenenter"",""1"",""32361""
","
","","","","","","558.8999999761581","<p> You can pet the animal by pressing 1 and leave the animal alone by pressing 0. </p><br><div class=""choice-instructions-grid""> <div class=""choice-option""><img src=""images/approach.png"" class=""choice-option-img"" stage=""instructions"" position=""0"" ><div class=""choice-option-text""> Press ""1."" </div></div><div class=""choice-option""><img src=""images/avoid.png"" class=""choice-option-img"" stage=""instructions"" position=""1"" ><div class=""choice-option-text""> Press ""0."" </div></div>","","0","instructions","","","","","","","","","","",""
"learning-instructions","63","461757","0.0-9.0-1.0-0.3","5889","2","15","Female","approach_avoid_spark_v1","""event"",""trial"",""time""
""fullscreenenter"",""1"",""32361""
","
","
","""event"",""trial"",""time""
""fullscreenenter"",""1"",""32361""
","
","","","","","","1567.7999999523163","<p> If you pet an animal that wants to be pet, you will make it feel happy! </p><p> But if you pet an animal that wants to be left alone, you will make it feel angry. </p>","","0","instructions","","","","","","","","","","",""
"learning-instructions","64","479189","0.0-9.0-1.0-0.4","5889","2","15","Female","approach_avoid_spark_v1","""event"",""trial"",""time""
""fullscreenenter"",""1"",""32361""
","
","
","""event"",""trial"",""time""
""fullscreenenter"",""1"",""32361""
","
","","","","","","770.1000000238419","<p> You will earn points based on how you made the animal feel. </p><p> If you made it feel happy, you will WIN anywhere from 1 - 9 points, </p><p> but if you made it feel angry, you will LOSE anywhere from 1 - 9 points. </p>","","0","instructions","","","","","","","","","","",""
"learning-instructions","65","488010","0.0-9.0-1.0-0.5","5889","2","15","Female","approach_avoid_spark_v1","""event"",""trial"",""time""
""fullscreenenter"",""1"",""32361""
","
","
","""event"",""trial"",""time""
""fullscreenenter"",""1"",""32361""
","
","","","","","","568.2999999523163","<p> You will see how many points you won or lost in the center of the screen. </p><p> Here is what you would see if you won 5 points: </p><p style=""color:green;font-size:50px;font-weight:bolder"">5</p>","","0","instructions","","","","","","","","","","",""
"learning-instructions","66","493057","0.0-9.0-1.0-0.6","5889","2","15","Female","approach_avoid_spark_v1","""event"",""trial"",""time""
""fullscreenenter"",""1"",""32361""
","
","
","""event"",""trial"",""time""
""fullscreenenter"",""1"",""32361""
","
","","","","","","495.2999999523163","<p> And here is what you would see if you lost 3 points: </p><p style=""color:red;font-size:50px;font-weight:bolder"">-3</p>","","0","instructions","","","","","","","","","","",""
"learning-instructions","67","510542","0.0-9.0-1.0-0.7","5889","2","15","Female","approach_avoid_spark_v1","""event"",""trial"",""time""
""fullscreenenter"",""1"",""32361""
","
","
","""event"",""trial"",""time""
""fullscreenenter"",""1"",""32361""
","
","","","","","","700.1000000238419","<p> Some animals will become very happy or very angry. </p><p> These animals will make you win or lose LOTS of points. </p><p> Other animals have less strong feelings. </p><p> These animals will make you win or lose small amounts of points. </p>","","0","instructions","","","","","","","","","","",""
"learning-instructions","68","528299","0.0-9.0-1.0-0.8","5889","2","15","Female","approach_avoid_spark_v1","""event"",""trial"",""time""
""fullscreenenter"",""1"",""32361""
","
","
","""event"",""trial"",""time""
""fullscreenenter"",""1"",""32361""
","
","","","","","","1826.8999999761581","<p> If you choose to leave the animal alone, you will not win or lose any points. </p><p>  However, in the center of the screen, you will see the number of points you WOULD HAVE won or lost if you had pet the animal. </p>","","0","instructions","","","","","","","","","","",""
"learning-instructions","69","545955","0.0-9.0-1.0-0.9","5889","2","15","Female","approach_avoid_spark_v1","""event"",""trial"",""time""
""fullscreenenter"",""1"",""32361""
","
","
","""event"",""trial"",""time""
""fullscreenenter"",""1"",""32361""
","
","","","","","","3526.100000023842","<p> Here is what you might see if you did not pet the animal but the animal wanted to be pet: </p><p style=""color:grey; font-size:50px; display: inline-block; border-spacing: 15px; border-width:3px; border-style:solid; border-color:red"">  &nbsp; 6 &nbsp; </p><p> Remember, in this case, you would not win or lose ANY points because you did not pet the animal.  </p>","","0","instructions","","","","","","","","","","",""
"learning-instructions","70","566775","0.0-9.0-1.0-0.10","5889","2","15","Female","approach_avoid_spark_v1","""event"",""trial"",""time""
""fullscreenenter"",""1"",""32361""
","
","
","""event"",""trial"",""time""
""fullscreenenter"",""1"",""32361""
","
","","","","","","9198.600000023842","<p> Try to make the best choice for each animal because </p><p> at the end of the game, you will earn bonus money based on how many points you earned. </p>","","0","instructions","","","","","","","","","","",""
"learning-instructions","71","584483","0.0-9.0-1.0-0.11","5889","2","15","Female","approach_avoid_spark_v1","""event"",""trial"",""time""
""fullscreenenter"",""1"",""32361""
","
","
","""event"",""trial"",""time""
""fullscreenenter"",""1"",""32361""
","
","","","","","","9510.600000023842","<p> You will have 3 seconds to make each choice. Try to respond before time runs out! </p><p> You will lose 5 points each time you do not make a response. </p>","","0","instructions","","","","","","","","","","",""
"html-keyboard-response","72","585102","0.0-9.0-2.0-0.0","5889","2","15","Female","approach_avoid_spark_v1","""event"",""trial"",""time""
""fullscreenenter"",""1"",""32361""
","
","
","""event"",""trial"",""time""
""fullscreenenter"",""1"",""32361""
","
","","","","","","null","<div style=""font-size:60px;"">+</div>","null","","fixation","","","","","","","","","","",""
"aa-learning-trial","73","588122","0.0-9.0-2.0-1.0","5889","2","15","Female","approach_avoid_spark_v1","""event"",""trial"",""time""
""fullscreenenter"",""1"",""32361""
","
","
","""event"",""trial"",""time""
""fullscreenenter"",""1"",""32361""
","
","","","","","","1628.1000000238419","images/cat4.png","","","learning","7","0","0","0","cat","pets","2","0","","good","[6]"
"html-keyboard-response","74","588646","0.0-9.0-2.0-0.1","5889","2","15","Female","approach_avoid_spark_v1","""event"",""trial"",""time""
""fullscreenenter"",""1"",""32361""
","
","
","""event"",""trial"",""time""
""fullscreenenter"",""1"",""32361""
","
","","","","","","null","<div style=""font-size:60px;"">+</div>","null","","fixation","","","","","","","","","","",""
"aa-learning-trial","75","591664","0.0-9.0-2.0-1.1","5889","2","15","Female","approach_avoid_spark_v1","""event"",""trial"",""time""
""fullscreenenter"",""1"",""32361""
","
","
","""event"",""trial"",""time""
""fullscreenenter"",""1"",""32361""
","
","","","","","","2058.600000023842","images/rabbit6.png","","","learning","-5","0","0","0","rabbit","pets","2","0","","neutral","0"
"html-keyboard-response","76","592175","0.0-9.0-2.0-0.2","5889","2","15","Female","approach_avoid_spark_v1","""event"",""trial"",""time""
""fullscreenenter"",""1"",""32361""
","
","
","""event"",""trial"",""time""
""fullscreenenter"",""1"",""32361""
","
","","","","","","null","<div style=""font-size:60px;"">+</div>","null","","fixation","","","","","","","","","","",""
"aa-learning-trial","77","595184","0.0-9.0-2.0-1.2","5889","2","15","Female","approach_avoid_spark_v1","""event"",""trial"",""time""
""fullscreenenter"",""1"",""32361""
","
","
","""event"",""trial"",""time""
""fullscreenenter"",""1"",""32361""
","
","","","","","","1207.3999999761581","images/rodent3.png","","","learning","-4","0","0","0","rodent","pets","2","0","","bad","[-3]"
"html-keyboard-response","78","595695","0.0-9.0-2.0-0.3","5889","2","15","Female","approach_avoid_spark_v1","""event"",""trial"",""time""
""fullscreenenter"",""1"",""32361""
","
","
","""event"",""trial"",""time""
""fullscreenenter"",""1"",""32361""
","
","","","","","","null","<div style=""font-size:60px;"">+</div>","null","","fixation","","","","","","","","","","",""
"aa-learning-trial","79","598715","0.0-9.0-2.0-1.3","5889","2","15","Female","approach_avoid_spark_v1","""event"",""trial"",""time""
""fullscreenenter"",""1"",""32361""
","
","
","""event"",""trial"",""time""
""fullscreenenter"",""1"",""32361""
","
","","","","","","870","images/rodent8.png","","","learning","6","0","0","0","rodent","pets","2","0","","bad","[-3]"
"html-keyboard-response","80","599227","0.0-9.0-2.0-0.4","5889","2","15","Female","approach_avoid_spark_v1","""event"",""trial"",""time""
""fullscreenenter"",""1"",""32361""
","
","
","""event"",""trial"",""time""
""fullscreenenter"",""1"",""32361""
","
","","","","","","null","<div style=""font-size:60px;"">+</div>","null","","fixation","","","","","","","","","","",""
"aa-learning-trial","81","602235","0.0-9.0-2.0-1.4","5889","2","15","Female","approach_avoid_spark_v1","""event"",""trial"",""time""
""fullscreenenter"",""1"",""32361""
","
","
","""event"",""trial"",""time""
""fullscreenenter"",""1"",""32361""
","
","","","","","","927.7000000476837","images/rabbit6.png","","","learning","-5","0","0","0","rabbit","pets","2","0","","neutral","0"
"html-keyboard-response","82","602745","0.0-9.0-2.0-0.5","5889","2","15","Female","approach_avoid_spark_v1","""event"",""trial"",""time""
""fullscreenenter"",""1"",""32361""
","
","
","""event"",""trial"",""time""
""fullscreenenter"",""1"",""32361""
","
","","","","","","null","<div style=""font-size:60px;"">+</div>","null","","fixation","","","","","","","","","","",""
"aa-learning-trial","83","605754","0.0-9.0-2.0-1.5","5889","2","15","Female","approach_avoid_spark_v1","""event"",""trial"",""time""
""fullscreenenter"",""1"",""32361""
","
","
","""event"",""trial"",""time""
""fullscreenenter"",""1"",""32361""
","
","","","","","","1381.0999999046326","images/cat8.png","","","learning","-3","0","0","0","cat","pets","2","0","","good","[6]"
"html-keyboard-response","84","606266","0.0-9.0-2.0-0.6","5889","2","15","Female","approach_avoid_spark_v1","""event"",""trial"",""time""
""fullscreenenter"",""1"",""32361""
","
","
","""event"",""trial"",""time""
""fullscreenenter"",""1"",""32361""
","
","","","","","","null","<div style=""font-size:60px;"">+</div>","null","","fixation","","","","","","","","","","",""
"aa-learning-trial","85","609274","0.0-9.0-2.0-1.6","5889","2","15","Female","approach_avoid_spark_v1","""event"",""trial"",""time""
""fullscreenenter"",""1"",""32361""
","
","
","""event"",""trial"",""time""
""fullscreenenter"",""1"",""32361""
","
","","","","","","722","images/rodent6.png","","","learning","1","0","0","0","rodent","pets","2","0","","bad","[-3]"
"html-keyboard-response","86","609788","0.0-9.0-2.0-0.7","5889","2","15","Female","approach_avoid_spark_v1","""event"",""trial"",""time""
""fullscreenenter"",""1"",""32361""
","
","
","""event"",""trial"",""time""
""fullscreenenter"",""1"",""32361""
","
","","","","","","null","<div style=""font-size:60px;"">+</div>","null","","fixation","","","","","","","","","","",""
"aa-learning-trial","87","612805","0.0-9.0-2.0-1.7","5889","2","15","Female","approach_avoid_spark_v1","""event"",""trial"",""time""
""fullscreenenter"",""1"",""32361""
","
","
","""event"",""trial"",""time""
""fullscreenenter"",""1"",""32361""
","
","","","","","","629.4000000953674","images/cat2.png","","","learning","4","0","0","0","cat","pets","2","0","","good","[6]"
"html-keyboard-response","88","613314","0.0-9.0-2.0-0.8","5889","2","15","Female","approach_avoid_spark_v1","""event"",""trial"",""time""
""fullscreenenter"",""1"",""32361""
","
","
","""event"",""trial"",""time""
""fullscreenenter"",""1"",""32361""
","
","","","","","","null","<div style=""font-size:60px;"">+</div>","null","","fixation","","","","","","","","","","",""
"aa-learning-trial","89","616326","0.0-9.0-2.0-1.8","5889","2","15","Female","approach_avoid_spark_v1","""event"",""trial"",""time""
""fullscreenenter"",""1"",""32361""
","
","
","""event"",""trial"",""time""
""fullscreenenter"",""1"",""32361""
","
","","","","","","1588.3999999761581","images/cat8.png","","","learning","-3","0","0","0","cat","pets","2","0","","good","[6]"
"html-keyboard-response","90","616835","0.0-9.0-2.0-0.9","5889","2","15","Female","approach_avoid_spark_v1","""event"",""trial"",""time""
""fullscreenenter"",""1"",""32361""
","
","
","""event"",""trial"",""time""
""fullscreenenter"",""1"",""32361""
","
","","","","","","null","<div style=""font-size:60px;"">+</div>","null","","fixation","","","","","","","","","","",""
"aa-learning-trial","91","619841","0.0-9.0-2.0-1.9","5889","2","15","Female","approach_avoid_spark_v1","""event"",""trial"",""time""
""fullscreenenter"",""1"",""32361""
","
","
","""event"",""trial"",""time""
""fullscreenenter"",""1"",""32361""
","
","","","","","","1316.3999999761581","images/cat4.png","","","learning","7","0","0","0","cat","pets","2","0","","good","[6]"
"html-keyboard-response","92","620356","0.0-9.0-2.0-0.10","5889","2","15","Female","approach_avoid_spark_v1","""event"",""trial"",""time""
""fullscreenenter"",""1"",""32361""
","
","
","""event"",""trial"",""time""
""fullscreenenter"",""1"",""32361""
","
","","","","","","null","<div style=""font-size:60px;"">+</div>","null","","fixation","","","","","","","","","","",""
"aa-learning-trial","93","623368","0.0-9.0-2.0-1.10","5889","2","15","Female","approach_avoid_spark_v1","""event"",""trial"",""time""
""fullscreenenter"",""1"",""32361""
","
","
","""event"",""trial"",""time""
""fullscreenenter"",""1"",""32361""
","
","","","","","","704","images/rabbit3.png","","","learning","-2","0","0","0","rabbit","pets","2","0","","neutral","0"
"html-keyboard-response","94","623871","0.0-9.0-2.0-0.11","5889","2","15","Female","approach_avoid_spark_v1","""event"",""trial"",""time""
""fullscreenenter"",""1"",""32361""
","
","
","""event"",""trial"",""time""
""fullscreenenter"",""1"",""32361""
","
","","","","","","null","<div style=""font-size:60px;"">+</div>","null","","fixation","","","","","","","","","","",""
"aa-learning-trial","95","626884","0.0-9.0-2.0-1.11","5889","2","15","Female","approach_avoid_spark_v1","""event"",""trial"",""time""
""fullscreenenter"",""1"",""32361""
","
","
","""event"",""trial"",""time""
""fullscreenenter"",""1"",""32361""
","
","","","","","","1350.6999999284744","images/rabbit4.png","","","learning","5","0","0","0","rabbit","pets","2","0","","neutral","0"
"html-keyboard-response","96","627400","0.0-9.0-2.0-0.12","5889","2","15","Female","approach_avoid_spark_v1","""event"",""trial"",""time""
""fullscreenenter"",""1"",""32361""
","
","
","""event"",""trial"",""time""
""fullscreenenter"",""1"",""32361""
","
","","","","","","null","<div style=""font-size:60px;"">+</div>","null","","fixation","","","","","","","","","","",""
"aa-learning-trial","97","630414","0.0-9.0-2.0-1.12","5889","2","15","Female","approach_avoid_spark_v1","""event"",""trial"",""time""
""fullscreenenter"",""1"",""32361""
","
","
","""event"",""trial"",""time""
""fullscreenenter"",""1"",""32361""
","
","","","","","","1099","images/rabbit3.png","","","learning","-2","-2","1","1","rabbit","pets","2","0","","neutral","0"
"html-keyboard-response","98","630920","0.0-9.0-2.0-0.13","5889","2","15","Female","approach_avoid_spark_v1","""event"",""trial"",""time""
""fullscreenenter"",""1"",""32361""
","
","
","""event"",""trial"",""time""
""fullscreenenter"",""1"",""32361""
","
","","","","","","null","<div style=""font-size:60px;"">+</div>","null","","fixation","","","","","","","","","","",""
"aa-learning-trial","99","633932","0.0-9.0-2.0-1.13","5889","2","15","Female","approach_avoid_spark_v1","""event"",""trial"",""time""
""fullscreenenter"",""1"",""32361""
","
","
","""event"",""trial"",""time""
""fullscreenenter"",""1"",""32361""
","
","","","","","","1263","images/rodent3.png","","","learning","-4","0","0","0","rodent","pets","2","0","","bad","[-3]"
"html-keyboard-response","100","634446","0.0-9.0-2.0-0.14","5889","2","15","Female","approach_avoid_spark_v1","""event"",""trial"",""time""
""fullscreenenter"",""1"",""32361""
","
","
","""event"",""trial"",""time""
""fullscreenenter"",""1"",""32361""
","
","","","","","","null","<div style=""font-size:60px;"">+</div>","null","","fixation","","","","","","","","","","",""
"aa-learning-trial","101","637464","0.0-9.0-2.0-1.14","5889","2","15","Female","approach_avoid_spark_v1","""event"",""trial"",""time""
""fullscreenenter"",""1"",""32361""
","
","
","""event"",""trial"",""time""
""fullscreenenter"",""1"",""32361""
","
","","","","","","517.3999999761581","images/rodent6.png","","","learning","1","0","0","0","rodent","pets","2","0","","bad","[-3]"
"html-keyboard-response","102","637975","0.0-9.0-2.0-0.15","5889","2","15","Female","approach_avoid_spark_v1","""event"",""trial"",""time""
""fullscreenenter"",""1"",""32361""
","
","
","""event"",""trial"",""time""
""fullscreenenter"",""1"",""32361""
","
","","","","","","null","<div style=""font-size:60px;"">+</div>","null","","fixation","","","","","","","","","","",""
"aa-learning-trial","103","640985","0.0-9.0-2.0-1.15","5889","2","15","Female","approach_avoid_spark_v1","""event"",""trial"",""time""
""fullscreenenter"",""1"",""32361""
","
","
","""event"",""trial"",""time""
""fullscreenenter"",""1"",""32361""
","
","","","","","","1000.9000000953674","images/rabbit6.png","","","learning","-5","0","0","0","rabbit","pets","2","0","","neutral","0"
"html-keyboard-response","104","641493","0.0-9.0-2.0-0.16","5889","2","15","Female","approach_avoid_spark_v1","""event"",""trial"",""time""
""fullscreenenter"",""1"",""32361""
","
","
","""event"",""trial"",""time""
""fullscreenenter"",""1"",""32361""
","
","","","","","","null","<div style=""font-size:60px;"">+</div>","null","","fixation","","","","","","","","","","",""
"aa-learning-trial","105","644496","0.0-9.0-2.0-1.16","5889","2","15","Female","approach_avoid_spark_v1","""event"",""trial"",""time""
""fullscreenenter"",""1"",""32361""
","
","
","""event"",""trial"",""time""
""fullscreenenter"",""1"",""32361""
","
","","","","","","2485.100000023842","images/rabbit3.png","","","learning","-2","0","0","0","rabbit","pets","2","0","","neutral","0"
"html-keyboard-response","106","645005","0.0-9.0-2.0-0.17","5889","2","15","Female","approach_avoid_spark_v1","""event"",""trial"",""time""
""fullscreenenter"",""1"",""32361""
","
","
","""event"",""trial"",""time""
""fullscreenenter"",""1"",""32361""
","
","","","","","","null","<div style=""font-size:60px;"">+</div>","null","","fixation","","","","","","","","","","",""
"aa-learning-trial","107","648013","0.0-9.0-2.0-1.17","5889","2","15","Female","approach_avoid_spark_v1","""event"",""trial"",""time""
""fullscreenenter"",""1"",""32361""
","
","
","""event"",""trial"",""time""
""fullscreenenter"",""1"",""32361""
","
","","","","","","1482.1000000238419","images/rabbit3.png","","","learning","-2","0","0","0","rabbit","pets","2","0","","neutral","0"
"html-keyboard-response","108","648524","0.0-9.0-2.0-0.18","5889","2","15","Female","approach_avoid_spark_v1","""event"",""trial"",""time""
""fullscreenenter"",""1"",""32361""
","
","
","""event"",""trial"",""time""
""fullscreenenter"",""1"",""32361""
","
","","","","","","null","<div style=""font-size:60px;"">+</div>","null","","fixation","","","","","","","","","","",""
"aa-learning-trial","109","651539","0.0-9.0-2.0-1.18","5889","2","15","Female","approach_avoid_spark_v1","""event"",""trial"",""time""
""fullscreenenter"",""1"",""32361""
","
","
","""event"",""trial"",""time""
""fullscreenenter"",""1"",""32361""
","
","","","","","","930.0999999046326","images/rabbit4.png","","","learning","5","5","1","1","rabbit","pets","2","0","","neutral","0"
"html-keyboard-response","110","652049","0.0-9.0-2.0-0.19","5889","2","15","Female","approach_avoid_spark_v1","""event"",""trial"",""time""
""fullscreenenter"",""1"",""32361""
","
","
","""event"",""trial"",""time""
""fullscreenenter"",""1"",""32361""
","
","","","","","","null","<div style=""font-size:60px;"">+</div>","null","","fixation","","","","","","","","","","",""
"aa-learning-trial","111","655058","0.0-9.0-2.0-1.19","5889","2","15","Female","approach_avoid_spark_v1","""event"",""trial"",""time""
""fullscreenenter"",""1"",""32361""
","
","
","""event"",""trial"",""time""
""fullscreenenter"",""1"",""32361""
","
","","","","","","1848.2000000476837","images/cat8.png","","","learning","-3","0","0","0","cat","pets","2","0","","good","[6]"
"html-keyboard-response","112","655569","0.0-9.0-2.0-0.20","5889","2","15","Female","approach_avoid_spark_v1","""event"",""trial"",""time""
""fullscreenenter"",""1"",""32361""
","
","
","""event"",""trial"",""time""
""fullscreenenter"",""1"",""32361""
","
","","","","","","null","<div style=""font-size:60px;"">+</div>","null","","fixation","","","","","","","","","","",""
"aa-learning-trial","113","658576","0.0-9.0-2.0-1.20","5889","2","15","Female","approach_avoid_spark_v1","""event"",""trial"",""time""
""fullscreenenter"",""1"",""32361""
","
","
","""event"",""trial"",""time""
""fullscreenenter"",""1"",""32361""
","
","","","","","","872.8999999761581","images/rodent3.png","","","learning","-4","0","0","0","rodent","pets","2","0","","bad","[-3]"
"html-keyboard-response","114","659082","0.0-9.0-2.0-0.21","5889","2","15","Female","approach_avoid_spark_v1","""event"",""trial"",""time""
""fullscreenenter"",""1"",""32361""
","
","
","""event"",""trial"",""time""
""fullscreenenter"",""1"",""32361""
","
","","","","","","null","<div style=""font-size:60px;"">+</div>","null","","fixation","","","","","","","","","","",""
"aa-learning-trial","115","662095","0.0-9.0-2.0-1.21","5889","2","15","Female","approach_avoid_spark_v1","""event"",""trial"",""time""
""fullscreenenter"",""1"",""32361""
","
","
","""event"",""trial"",""time""
""fullscreenenter"",""1"",""32361""
","
","","","","","","1290.6000000238419","images/rodent6.png","","","learning","1","1","1","1","rodent","pets","2","0","","bad","[-3]"
"html-keyboard-response","116","662609","0.0-9.0-2.0-0.22","5889","2","15","Female","approach_avoid_spark_v1","""event"",""trial"",""time""
""fullscreenenter"",""1"",""32361""
","
","
","""event"",""trial"",""time""
""fullscreenenter"",""1"",""32361""
","
","","","","","","null","<div style=""font-size:60px;"">+</div>","null","","fixation","","","","","","","","","","",""
"aa-learning-trial","117","665627","0.0-9.0-2.0-1.22","5889","2","15","Female","approach_avoid_spark_v1","""event"",""trial"",""time""
""fullscreenenter"",""1"",""32361""
","
","
","""event"",""trial"",""time""
""fullscreenenter"",""1"",""32361""
","
","","","","","","1384.0999999046326","images/rabbit8.png","","","learning","-8","0","0","0","rabbit","pets","2","0","","neutral","0"
"html-keyboard-response","118","666137","0.0-9.0-2.0-0.23","5889","2","15","Female","approach_avoid_spark_v1","""event"",""trial"",""time""
""fullscreenenter"",""1"",""32361""
","
","
","""event"",""trial"",""time""
""fullscreenenter"",""1"",""32361""
","
","","","","","","null","<div style=""font-size:60px;"">+</div>","null","","fixation","","","","","","","","","","",""
"aa-learning-trial","119","669148","0.0-9.0-2.0-1.23","5889","2","15","Female","approach_avoid_spark_v1","""event"",""trial"",""time""
""fullscreenenter"",""1"",""32361""
","
","
","""event"",""trial"",""time""
""fullscreenenter"",""1"",""32361""
","
","","","","","","1175.1999999284744","images/rodent6.png","","","learning","1","1","1","1","rodent","pets","2","0","","bad","[-3]"
"html-keyboard-response","120","669655","0.0-9.0-2.0-0.24","5889","2","15","Female","approach_avoid_spark_v1","""event"",""trial"",""time""
""fullscreenenter"",""1"",""32361""
","
","
","""event"",""trial"",""time""
""fullscreenenter"",""1"",""32361""
","
","","","","","","null","<div style=""font-size:60px;"">+</div>","null","","fixation","","","","","","","","","","",""
"aa-learning-trial","121","672672","0.0-9.0-2.0-1.24","5889","2","15","Female","approach_avoid_spark_v1","""event"",""trial"",""time""
""fullscreenenter"",""1"",""32361""
","
","
","""event"",""trial"",""time""
""fullscreenenter"",""1"",""32361""
","
","","","","","","968","images/rodent4.png","","","learning","3","0","0","0","rodent","pets","2","0","","bad","[-3]"
"html-keyboard-response","122","673179","0.0-9.0-2.0-0.25","5889","2","15","Female","approach_avoid_spark_v1","""event"",""trial"",""time""
""fullscreenenter"",""1"",""32361""
","
","
","""event"",""trial"",""time""
""fullscreenenter"",""1"",""32361""
","
","","","","","","null","<div style=""font-size:60px;"">+</div>","null","","fixation","","","","","","","","","","",""
"aa-learning-trial","123","676183","0.0-9.0-2.0-1.25","5889","2","15","Female","approach_avoid_spark_v1","""event"",""trial"",""time""
""fullscreenenter"",""1"",""32361""
","
","
","""event"",""trial"",""time""
""fullscreenenter"",""1"",""32361""
","
","","","","","","1281.2000000476837","images/rabbit6.png","","","learning","-5","0","0","0","rabbit","pets","2","0","","neutral","0"
"html-keyboard-response","124","676696","0.0-9.0-2.0-0.26","5889","2","15","Female","approach_avoid_spark_v1","""event"",""trial"",""time""
""fullscreenenter"",""1"",""32361""
","
","
","""event"",""trial"",""time""
""fullscreenenter"",""1"",""32361""
","
","","","","","","null","<div style=""font-size:60px;"">+</div>","null","","fixation","","","","","","","","","","",""
"aa-learning-trial","125","679707","0.0-9.0-2.0-1.26","5889","2","15","Female","approach_avoid_spark_v1","""event"",""trial"",""time""
""fullscreenenter"",""1"",""32361""
","
","
","""event"",""trial"",""time""
""fullscreenenter"",""1"",""32361""
","
","","","","","","1042.2999999523163","images/cat4.png","","","learning","7","7","1","1","cat","pets","2","0","","good","[6]"
"html-keyboard-response","126","680221","0.0-9.0-2.0-0.27","5889","2","15","Female","approach_avoid_spark_v1","""event"",""trial"",""time""
""fullscreenenter"",""1"",""32361""
","
","
","""event"",""trial"",""time""
""fullscreenenter"",""1"",""32361""
","
","","","","","","null","<div style=""font-size:60px;"">+</div>","null","","fixation","","","","","","","","","","",""
"aa-learning-trial","127","683232","0.0-9.0-2.0-1.27","5889","2","15","Female","approach_avoid_spark_v1","""event"",""trial"",""time""
""fullscreenenter"",""1"",""32361""
","
","
","""event"",""trial"",""time""
""fullscreenenter"",""1"",""32361""
","
","","","","","","1668.6000000238419","images/rodent3.png","","","learning","-4","-4","1","1","rodent","pets","2","0","","bad","[-3]"
"html-keyboard-response","128","683743","0.0-9.0-2.0-0.28","5889","2","15","Female","approach_avoid_spark_v1","""event"",""trial"",""time""
""fullscreenenter"",""1"",""32361""
","
","
","""event"",""trial"",""time""
""fullscreenenter"",""1"",""32361""
","
","","","","","","null","<div style=""font-size:60px;"">+</div>","null","","fixation","","","","","","","","","","",""
"aa-learning-trial","129","686754","0.0-9.0-2.0-1.28","5889","2","15","Female","approach_avoid_spark_v1","""event"",""trial"",""time""
""fullscreenenter"",""1"",""32361""
","
","
","""event"",""trial"",""time""
""fullscreenenter"",""1"",""32361""
","
","","","","","","949.1000000238419","images/cat7.png","","","learning","-7","0","0","0","cat","pets","2","0","","good","[6]"
"html-keyboard-response","130","687263","0.0-9.0-2.0-0.29","5889","2","15","Female","approach_avoid_spark_v1","""event"",""trial"",""time""
""fullscreenenter"",""1"",""32361""
","
","
","""event"",""trial"",""time""
""fullscreenenter"",""1"",""32361""
","
","","","","","","null","<div style=""font-size:60px;"">+</div>","null","","fixation","","","","","","","","","","",""
"aa-learning-trial","131","690275","0.0-9.0-2.0-1.29","5889","2","15","Female","approach_avoid_spark_v1","""event"",""trial"",""time""
""fullscreenenter"",""1"",""32361""
","
","
","""event"",""trial"",""time""
""fullscreenenter"",""1"",""32361""
","
","","","","","","850.8999999761581","images/rodent6.png","","","learning","1","1","1","1","rodent","pets","2","0","","bad","[-3]"
"html-keyboard-response","132","690787","0.0-9.0-2.0-0.30","5889","2","15","Female","approach_avoid_spark_v1","""event"",""trial"",""time""
""fullscreenenter"",""1"",""32361""
","
","
","""event"",""trial"",""time""
""fullscreenenter"",""1"",""32361""
","
","","","","","","null","<div style=""font-size:60px;"">+</div>","null","","fixation","","","","","","","","","","",""
"aa-learning-trial","133","693797","0.0-9.0-2.0-1.30","5889","2","15","Female","approach_avoid_spark_v1","""event"",""trial"",""time""
""fullscreenenter"",""1"",""32361""
","
","
","""event"",""trial"",""time""
""fullscreenenter"",""1"",""32361""
","
","","","","","","1452.5999999046326","images/cat8.png","","","learning","-3","0","0","0","cat","pets","2","0","","good","[6]"
"html-keyboard-response","134","694304","0.0-9.0-2.0-0.31","5889","2","15","Female","approach_avoid_spark_v1","""event"",""trial"",""time""
""fullscreenenter"",""1"",""32361""
","
","
","""event"",""trial"",""time""
""fullscreenenter"",""1"",""32361""
","
","","","","","","null","<div style=""font-size:60px;"">+</div>","null","","fixation","","","","","","","","","","",""
"aa-learning-trial","135","697311","0.0-9.0-2.0-1.31","5889","2","15","Female","approach_avoid_spark_v1","""event"",""trial"",""time""
""fullscreenenter"",""1"",""32361""
","
","
","""event"",""trial"",""time""
""fullscreenenter"",""1"",""32361""
","
","","","","","","746.7000000476837","images/cat8.png","","","learning","-3","0","0","0","cat","pets","2","0","","good","[6]"
"html-keyboard-response","136","697822","0.0-9.0-2.0-0.32","5889","2","15","Female","approach_avoid_spark_v1","""event"",""trial"",""time""
""fullscreenenter"",""1"",""32361""
","
","
","""event"",""trial"",""time""
""fullscreenenter"",""1"",""32361""
","
","","","","","","null","<div style=""font-size:60px;"">+</div>","null","","fixation","","","","","","","","","","",""
"aa-learning-trial","137","700847","0.0-9.0-2.0-1.32","5889","2","15","Female","approach_avoid_spark_v1","""event"",""trial"",""time""
""fullscreenenter"",""1"",""32361""
","
","
","""event"",""trial"",""time""
""fullscreenenter"",""1"",""32361""
","
","","","","","","716.8999999761581","images/cat4.png","","","learning","7","7","1","1","cat","pets","2","0","","good","[6]"
"html-keyboard-response","138","701357","0.0-9.0-2.0-0.33","5889","2","15","Female","approach_avoid_spark_v1","""event"",""trial"",""time""
""fullscreenenter"",""1"",""32361""
","
","
","""event"",""trial"",""time""
""fullscreenenter"",""1"",""32361""
","
","","","","","","null","<div style=""font-size:60px;"">+</div>","null","","fixation","","","","","","","","","","",""
"aa-learning-trial","139","704367","0.0-9.0-2.0-1.33","5889","2","15","Female","approach_avoid_spark_v1","""event"",""trial"",""time""
""fullscreenenter"",""1"",""32361""
","
","
","""event"",""trial"",""time""
""fullscreenenter"",""1"",""32361""
","
","","","","","","1550.3000000715256","images/rabbit3.png","","","learning","-2","0","0","0","rabbit","pets","2","0","","neutral","0"
"html-keyboard-response","140","704876","0.0-9.0-2.0-0.34","5889","2","15","Female","approach_avoid_spark_v1","""event"",""trial"",""time""
""fullscreenenter"",""1"",""32361""
","
","
","""event"",""trial"",""time""
""fullscreenenter"",""1"",""32361""
","
","","","","","","null","<div style=""font-size:60px;"">+</div>","null","","fixation","","","","","","","","","","",""
"aa-learning-trial","141","707889","0.0-9.0-2.0-1.34","5889","2","15","Female","approach_avoid_spark_v1","""event"",""trial"",""time""
""fullscreenenter"",""1"",""32361""
","
","
","""event"",""trial"",""time""
""fullscreenenter"",""1"",""32361""
","
","","","","","","759.5999999046326","images/cat4.png","","","learning","7","7","1","1","cat","pets","2","0","","good","[6]"
"html-keyboard-response","142","708392","0.0-9.0-2.0-0.35","5889","2","15","Female","approach_avoid_spark_v1","""event"",""trial"",""time""
""fullscreenenter"",""1"",""32361""
","
","
","""event"",""trial"",""time""
""fullscreenenter"",""1"",""32361""
","
","","","","","","null","<div style=""font-size:60px;"">+</div>","null","","fixation","","","","","","","","","","",""
"aa-learning-trial","143","711407","0.0-9.0-2.0-1.35","5889","2","15","Female","approach_avoid_spark_v1","""event"",""trial"",""time""
""fullscreenenter"",""1"",""32361""
","
","
","""event"",""trial"",""time""
""fullscreenenter"",""1"",""32361""
","
","","","","","","1067","images/rabbit3.png","","","learning","-2","0","0","0","rabbit","pets","2","0","","neutral","0"
"html-keyboard-response","144","711913","0.0-9.0-2.0-0.36","5889","2","15","Female","approach_avoid_spark_v1","""event"",""trial"",""time""
""fullscreenenter"",""1"",""32361""
","
","
","""event"",""trial"",""time""
""fullscreenenter"",""1"",""32361""
","
","","","","","","null","<div style=""font-size:60px;"">+</div>","null","","fixation","","","","","","","","","","",""
"aa-learning-trial","145","714927","0.0-9.0-2.0-1.36","5889","2","15","Female","approach_avoid_spark_v1","""event"",""trial"",""time""
""fullscreenenter"",""1"",""32361""
","
","
","""event"",""trial"",""time""
""fullscreenenter"",""1"",""32361""
","
","","","","","","1477.0999999046326","images/rodent3.png","","","learning","-4","0","0","0","rodent","pets","2","0","","bad","[-3]"
"html-keyboard-response","146","715433","0.0-9.0-2.0-0.37","5889","2","15","Female","approach_avoid_spark_v1","""event"",""trial"",""time""
""fullscreenenter"",""1"",""32361""
","
","
","""event"",""trial"",""time""
""fullscreenenter"",""1"",""32361""
","
","","","","","","null","<div style=""font-size:60px;"">+</div>","null","","fixation","","","","","","","","","","",""
"aa-learning-trial","147","718444","0.0-9.0-2.0-1.37","5889","2","15","Female","approach_avoid_spark_v1","""event"",""trial"",""time""
""fullscreenenter"",""1"",""32361""
","
","
","""event"",""trial"",""time""
""fullscreenenter"",""1"",""32361""
","
","","","","","","1083","images/cat1.png","","","learning","-1","0","0","0","cat","pets","2","0","","good","[6]"
"html-keyboard-response","148","718957","0.0-9.0-2.0-0.38","5889","2","15","Female","approach_avoid_spark_v1","""event"",""trial"",""time""
""fullscreenenter"",""1"",""32361""
","
","
","""event"",""trial"",""time""
""fullscreenenter"",""1"",""32361""
","
","","","","","","null","<div style=""font-size:60px;"">+</div>","null","","fixation","","","","","","","","","","",""
"aa-learning-trial","149","721976","0.0-9.0-2.0-1.38","5889","2","15","Female","approach_avoid_spark_v1","""event"",""trial"",""time""
""fullscreenenter"",""1"",""32361""
","
","
","""event"",""trial"",""time""
""fullscreenenter"",""1"",""32361""
","
","","","","","","1812.0999999046326","images/rabbit6.png","","","learning","-5","0","0","0","rabbit","pets","2","0","","neutral","0"
"html-keyboard-response","150","722488","0.0-9.0-2.0-0.39","5889","2","15","Female","approach_avoid_spark_v1","""event"",""trial"",""time""
""fullscreenenter"",""1"",""32361""
","
","
","""event"",""trial"",""time""
""fullscreenenter"",""1"",""32361""
","
","","","","","","null","<div style=""font-size:60px;"">+</div>","null","","fixation","","","","","","","","","","",""
"aa-learning-trial","151","725500","0.0-9.0-2.0-1.39","5889","2","15","Female","approach_avoid_spark_v1","""event"",""trial"",""time""
""fullscreenenter"",""1"",""32361""
","
","
","""event"",""trial"",""time""
""fullscreenenter"",""1"",""32361""
","
","","","","","","811.2999999523163","images/cat4.png","","","learning","7","7","1","1","cat","pets","2","0","","good","[6]"
"html-keyboard-response","152","726013","0.0-9.0-2.0-0.40","5889","2","15","Female","approach_avoid_spark_v1","""event"",""trial"",""time""
""fullscreenenter"",""1"",""32361""
","
","
","""event"",""trial"",""time""
""fullscreenenter"",""1"",""32361""
","
","","","","","","null","<div style=""font-size:60px;"">+</div>","null","","fixation","","","","","","","","","","",""
"aa-learning-trial","153","729027","0.0-9.0-2.0-1.40","5889","2","15","Female","approach_avoid_spark_v1","""event"",""trial"",""time""
""fullscreenenter"",""1"",""32361""
","
","
","""event"",""trial"",""time""
""fullscreenenter"",""1"",""32361""
","
","","","","","","826.7000000476837","images/rodent6.png","","","learning","1","1","1","1","rodent","pets","2","0","","bad","[-3]"
"html-keyboard-response","154","729542","0.0-9.0-2.0-0.41","5889","2","15","Female","approach_avoid_spark_v1","""event"",""trial"",""time""
""fullscreenenter"",""1"",""32361""
","
","
","""event"",""trial"",""time""
""fullscreenenter"",""1"",""32361""
","
","","","","","","null","<div style=""font-size:60px;"">+</div>","null","","fixation","","","","","","","","","","",""
"aa-learning-trial","155","732558","0.0-9.0-2.0-1.41","5889","2","15","Female","approach_avoid_spark_v1","""event"",""trial"",""time""
""fullscreenenter"",""1"",""32361""
","
","
","""event"",""trial"",""time""
""fullscreenenter"",""1"",""32361""
","
","","","","","","1418.1999999284744","images/rabbit4.png","","","learning","5","5","1","1","rabbit","pets","2","0","","neutral","0"
"html-keyboard-response","156","733072","0.0-9.0-2.0-0.42","5889","2","15","Female","approach_avoid_spark_v1","""event"",""trial"",""time""
""fullscreenenter"",""1"",""32361""
","
","
","""event"",""trial"",""time""
""fullscreenenter"",""1"",""32361""
","
","","","","","","null","<div style=""font-size:60px;"">+</div>","null","","fixation","","","","","","","","","","",""
"aa-learning-trial","157","736082","0.0-9.0-2.0-1.42","5889","2","15","Female","approach_avoid_spark_v1","""event"",""trial"",""time""
""fullscreenenter"",""1"",""32361""
","
","
","""event"",""trial"",""time""
""fullscreenenter"",""1"",""32361""
","
","","","","","","1797","images/cat2.png","","","learning","4","0","0","0","cat","pets","2","0","","good","[6]"
"html-keyboard-response","158","736598","0.0-9.0-2.0-0.43","5889","2","15","Female","approach_avoid_spark_v1","""event"",""trial"",""time""
""fullscreenenter"",""1"",""32361""
","
","
","""event"",""trial"",""time""
""fullscreenenter"",""1"",""32361""
","
","","","","","","null","<div style=""font-size:60px;"">+</div>","null","","fixation","","","","","","","","","","",""
"aa-learning-trial","159","739609","0.0-9.0-2.0-1.43","5889","2","15","Female","approach_avoid_spark_v1","""event"",""trial"",""time""
""fullscreenenter"",""1"",""32361""
","
","
","""event"",""trial"",""time""
""fullscreenenter"",""1"",""32361""
","
","","","","","","692.8000000715256","images/cat2.png","","","learning","4","0","0","0","cat","pets","2","0","","good","[6]"
"html-keyboard-response","160","740112","0.0-9.0-2.0-0.44","5889","2","15","Female","approach_avoid_spark_v1","""event"",""trial"",""time""
""fullscreenenter"",""1"",""32361""
","
","
","""event"",""trial"",""time""
""fullscreenenter"",""1"",""32361""
","
","","","","","","null","<div style=""font-size:60px;"">+</div>","null","","fixation","","","","","","","","","","",""
"aa-learning-trial","161","743120","0.0-9.0-2.0-1.44","5889","2","15","Female","approach_avoid_spark_v1","""event"",""trial"",""time""
""fullscreenenter"",""1"",""32361""
","
","
","""event"",""trial"",""time""
""fullscreenenter"",""1"",""32361""
","
","","","","","","1037.3000000715256","images/rodent8.png","","","learning","6","0","0","0","rodent","pets","2","0","","bad","[-3]"
"html-keyboard-response","162","743627","0.0-9.0-2.0-0.45","5889","2","15","Female","approach_avoid_spark_v1","""event"",""trial"",""time""
""fullscreenenter"",""1"",""32361""
","
","
","""event"",""trial"",""time""
""fullscreenenter"",""1"",""32361""
","
","","","","","","null","<div style=""font-size:60px;"">+</div>","null","","fixation","","","","","","","","","","",""
"aa-learning-trial","163","746642","0.0-9.0-2.0-1.45","5889","2","15","Female","approach_avoid_spark_v1","""event"",""trial"",""time""
""fullscreenenter"",""1"",""32361""
","
","
","""event"",""trial"",""time""
""fullscreenenter"",""1"",""32361""
","
","","","","","","984.5999999046326","images/rodent3.png","","","learning","-4","0","0","0","rodent","pets","2","0","","bad","[-3]"
"html-keyboard-response","164","747153","0.0-9.0-2.0-0.46","5889","2","15","Female","approach_avoid_spark_v1","""event"",""trial"",""time""
""fullscreenenter"",""1"",""32361""
","
","
","""event"",""trial"",""time""
""fullscreenenter"",""1"",""32361""
","
","","","","","","null","<div style=""font-size:60px;"">+</div>","null","","fixation","","","","","","","","","","",""
"aa-learning-trial","165","750172","0.0-9.0-2.0-1.46","5889","2","15","Female","approach_avoid_spark_v1","""event"",""trial"",""time""
""fullscreenenter"",""1"",""32361""
","
","
","""event"",""trial"",""time""
""fullscreenenter"",""1"",""32361""
","
","","","","","","898.2000000476837","images/rodent7.png","","","learning","-9","0","0","0","rodent","pets","2","0","","bad","[-3]"
"html-keyboard-response","166","750687","0.0-9.0-2.0-0.47","5889","2","15","Female","approach_avoid_spark_v1","""event"",""trial"",""time""
""fullscreenenter"",""1"",""32361""
","
","
","""event"",""trial"",""time""
""fullscreenenter"",""1"",""32361""
","
","","","","","","null","<div style=""font-size:60px;"">+</div>","null","","fixation","","","","","","","","","","",""
"aa-learning-trial","167","753697","0.0-9.0-2.0-1.47","5889","2","15","Female","approach_avoid_spark_v1","""event"",""trial"",""time""
""fullscreenenter"",""1"",""32361""
","
","
","""event"",""trial"",""time""
""fullscreenenter"",""1"",""32361""
","
","","","","","","1728.6000000238419","images/rabbit1.png","","","learning","9","0","0","0","rabbit","pets","2","0","","neutral","0"
"html-keyboard-response","168","754207","0.0-9.0-2.0-0.48","5889","2","15","Female","approach_avoid_spark_v1","""event"",""trial"",""time""
""fullscreenenter"",""1"",""32361""
","
","
","""event"",""trial"",""time""
""fullscreenenter"",""1"",""32361""
","
","","","","","","null","<div style=""font-size:60px;"">+</div>","null","","fixation","","","","","","","","","","",""
"aa-learning-trial","169","757218","0.0-9.0-2.0-1.48","5889","2","15","Female","approach_avoid_spark_v1","""event"",""trial"",""time""
""fullscreenenter"",""1"",""32361""
","
","
","""event"",""trial"",""time""
""fullscreenenter"",""1"",""32361""
","
","","","","","","1999.2999999523163","images/cat8.png","","","learning","-3","-3","1","1","cat","pets","2","0","","good","[6]"
"html-keyboard-response","170","757727","0.0-9.0-2.0-0.49","5889","2","15","Female","approach_avoid_spark_v1","""event"",""trial"",""time""
""fullscreenenter"",""1"",""32361""
","
","
","""event"",""trial"",""time""
""fullscreenenter"",""1"",""32361""
","
","","","","","","null","<div style=""font-size:60px;"">+</div>","null","","fixation","","","","","","","","","","",""
"aa-learning-trial","171","760751","0.0-9.0-2.0-1.49","5889","2","15","Female","approach_avoid_spark_v1","""event"",""trial"",""time""
""fullscreenenter"",""1"",""32361""
","
","
","""event"",""trial"",""time""
""fullscreenenter"",""1"",""32361""
","
","","","","","","1009.7999999523163","images/rabbit6.png","","","learning","-5","0","0","0","rabbit","pets","2","0","","neutral","0"
"html-keyboard-response","172","761257","0.0-9.0-2.0-0.50","5889","2","15","Female","approach_avoid_spark_v1","""event"",""trial"",""time""
""fullscreenenter"",""1"",""32361""
","
","
","""event"",""trial"",""time""
""fullscreenenter"",""1"",""32361""
","
","","","","","","null","<div style=""font-size:60px;"">+</div>","null","","fixation","","","","","","","","","","",""
"aa-learning-trial","173","764262","0.0-9.0-2.0-1.50","5889","2","15","Female","approach_avoid_spark_v1","""event"",""trial"",""time""
""fullscreenenter"",""1"",""32361""
","
","
","""event"",""trial"",""time""
""fullscreenenter"",""1"",""32361""
","
","","","","","","1414.7999999523163","images/rodent8.png","","","learning","6","6","1","1","rodent","pets","2","0","","bad","[-3]"
"html-button-response","174","766856","0.0-9.0-3.0","5889","2","15","Female","approach_avoid_spark_v1","""event"",""trial"",""time""
""fullscreenenter"",""1"",""32361""
","
","
","""event"",""trial"",""time""
""fullscreenenter"",""1"",""32361""
","
","","","","","","2592.1999999284744","<p> You have completed the round! <p> In this round, you earned 39 points! </p>","0","","break","","","","","","","","","","",""
"html-button-response","175","767624","0.0-10.0","5889","2","15","Female","approach_avoid_spark_v1","""event"",""trial"",""time""
""fullscreenenter"",""1"",""32361""
","
","
","""event"",""trial"",""time""
""fullscreenenter"",""1"",""32361""
","
","","","","","","766.7000000476837","<p> Now it's time to play another round. </p>","0","","transition_screen","","","","","","","","","","",""
"preload","176","767753","0.0-11.0-0.0","5889","2","15","Female","approach_avoid_spark_v1","""event"",""trial"",""time""
""fullscreenenter"",""1"",""32361""
","
","
","""event"",""trial"",""time""
""fullscreenenter"",""1"",""32361""
","
","true","false","[]","[]","[]","","","","","","","","","","","","","","","",""
"learning-instructions","177","779206","0.0-11.0-1.0-0.0","5889","2","15","Female","approach_avoid_spark_v1","""event"",""trial"",""time""
""fullscreenenter"",""1"",""32361""
","
","
","""event"",""trial"",""time""
""fullscreenenter"",""1"",""32361""
","
","","","","","","4875.5","<p> Your goal in this round is to decorate your friend's new house with furniture. </p></div>","","0","instructions","","","","","","","","","","",""
"learning-instructions","178","791599","0.0-11.0-1.0-0.1","5889","2","15","Female","approach_avoid_spark_v1","""event"",""trial"",""time""
""fullscreenenter"",""1"",""32361""
","
","
","""event"",""trial"",""time""
""fullscreenenter"",""1"",""32361""
","
","","","","","","2634.6999999284744","<p> Your friend likes some pieces of furniture but not others.  </p><p> On each turn, you will see a piece of furniture.   </p><p> You need to decide whether to put it in your friend's house or not.  </p>","","0","instructions","","","","","","","","","","",""
"learning-instructions","179","800990","0.0-11.0-1.0-0.2","5889","2","15","Female","approach_avoid_spark_v1","""event"",""trial"",""time""
""fullscreenenter"",""1"",""32361""
","
","
","""event"",""trial"",""time""
""fullscreenenter"",""1"",""32361""
","
","","","","","","2829.899999976158","<p> You can put the furniture in her house by pressing 1 and deliver it elsewhere by pressing 0. </p><br><div class=""choice-instructions-grid""> <div class=""choice-option""><img src=""images/approach.png"" class=""choice-option-img"" stage=""instructions"" position=""0"" ><div class=""choice-option-text""> Press ""1."" </div></div><div class=""choice-option""><img src=""images/avoid.png"" class=""choice-option-img"" stage=""instructions"" position=""1"" ><div class=""choice-option-text""> Press ""0."" </div></div>","","0","instructions","","","","","","","","","","",""
"learning-instructions","180","812376","0.0-11.0-1.0-0.3","5889","2","15","Female","approach_avoid_spark_v1","""event"",""trial"",""time""
""fullscreenenter"",""1"",""32361""
","
","
","""event"",""trial"",""time""
""fullscreenenter"",""1"",""32361""
","
","","","","","","1779.8999999761581","<p> If you decorate your friend's house with furniture she likes, she will be happy! </p><p> But if you give her furniture that she does not like, she will be annoyed. </p>","","0","instructions","","","","","","","","","","",""
"learning-instructions","181","826338","0.0-11.0-1.0-0.4","5889","2","15","Female","approach_avoid_spark_v1","""event"",""trial"",""time""
""fullscreenenter"",""1"",""32361""
","
","
","""event"",""trial"",""time""
""fullscreenenter"",""1"",""32361""
","
","","","","","","957.3999999761581","<p> You will earn points based on how you made your friend feel. </p><p> If you made her happy, you will WIN anywhere from 1 - 9 points, </p><p> but if you made her annoyed you will LOSE anywhere from 1 - 9 points. </p>","","0","instructions","","","","","","","","","","",""
"learning-instructions","182","835059","0.0-11.0-1.0-0.5","5889","2","15","Female","approach_avoid_spark_v1","""event"",""trial"",""time""
""fullscreenenter"",""1"",""32361""
","
","
","""event"",""trial"",""time""
""fullscreenenter"",""1"",""32361""
","
","","","","","","2072.7999999523163","<p> You will see how many points you won or lost in the center of the screen. </p><p> Here is what you would see if you won 5 points: </p><p style=""color:green;font-size:50px;font-weight:bolder"">5</p>","","0","instructions","","","","","","","","","","",""
"learning-instructions","183","840014","0.0-11.0-1.0-0.6","5889","2","15","Female","approach_avoid_spark_v1","""event"",""trial"",""time""
""fullscreenenter"",""1"",""32361""
","
","
","""event"",""trial"",""time""
""fullscreenenter"",""1"",""32361""
","
","","","","","","2110.2999999523163","<p> And here is what you would see if you lost 3 points: </p><p style=""color:red;font-size:50px;font-weight:bolder"">-3</p>","","0","instructions","","","","","","","","","","",""
"learning-instructions","184","865075","0.0-11.0-1.0-0.7","5889","2","15","Female","approach_avoid_spark_v1","""event"",""trial"",""time""
""fullscreenenter"",""1"",""32361""
","
","
","""event"",""trial"",""time""
""fullscreenenter"",""1"",""32361""
","
","","","","","","1284.2000000476837","<p> Some pieces of furniture will make her feel very happy or very annoyed. </p><p> These pieces of furniture will make you win or lose LOTS of points. </p><p> Other pieces of furniture will only make her feel a little happy or a little annoyed. </p><p> These pieces of furniture will make you win or lose small amounts of points. </p>","","0","instructions","","","","","","","","","","",""
"learning-instructions","185","885229","0.0-11.0-1.0-0.8","5889","2","15","Female","approach_avoid_spark_v1","""event"",""trial"",""time""
""fullscreenenter"",""1"",""32361""
","
","
","""event"",""trial"",""time""
""fullscreenenter"",""1"",""32361""
","
","","","","","","4563.5","<p> If you choose to deliver a piece of furniture elsewhere, you will not win or lose any points. </p><p>  However, in the center of the screen, you will see the number of points you WOULD HAVE won or lost if you had given the furniture to your friend. </p>","","0","instructions","","","","","","","","","","",""
"learning-instructions","186","906240","0.0-11.0-1.0-0.9","5889","2","15","Female","approach_avoid_spark_v1","""event"",""trial"",""time""
""fullscreenenter"",""1"",""32361""
","
","
","""event"",""trial"",""time""
""fullscreenenter"",""1"",""32361""
","
","","","","","","4092.5","<p> Here is what you might see if you did not give a piece of furniture to your friend that would have made her happy: </p><p style=""color:grey; font-size:50px; display: inline-block; border-spacing: 15px; border-width:3px; border-style:solid; border-color:red"">  &nbsp; 6 &nbsp; </p><p> Remember, in this case, you would not win or lose ANY points because you did not give her the furniture.  </p>","","0","instructions","","","","","","","","","","",""
"learning-instructions","187","920182","0.0-11.0-1.0-0.10","5889","2","15","Female","approach_avoid_spark_v1","""event"",""trial"",""time""
""fullscreenenter"",""1"",""32361""
","
","
","""event"",""trial"",""time""
""fullscreenenter"",""1"",""32361""
","
","","","","","","3110.5","<p> Try to make the best choice for each piece of furniture because </p><p> at the end of the game, you will earn bonus money based on how many points you earned. </p>","","0","instructions","","","","","","","","","","",""
"learning-instructions","188","931293","0.0-11.0-1.0-0.11","5889","2","15","Female","approach_avoid_spark_v1","""event"",""trial"",""time""
""fullscreenenter"",""1"",""32361""
","
","
","""event"",""trial"",""time""
""fullscreenenter"",""1"",""32361""
","
","","","","","","2915.399999976158","<p> You will have 3 seconds to make each choice. Try to respond before time runs out! </p><p> You will lose 5 points each time you do not make a response. </p>","","0","instructions","","","","","","","","","","",""
"html-keyboard-response","189","931916","0.0-11.0-2.0-0.0","5889","2","15","Female","approach_avoid_spark_v1","""event"",""trial"",""time""
""fullscreenenter"",""1"",""32361""
","
","
","""event"",""trial"",""time""
""fullscreenenter"",""1"",""32361""
","
","","","","","","null","<div style=""font-size:60px;"">+</div>","null","","fixation","","","","","","","","","","",""
"aa-learning-trial","190","934934","0.0-11.0-2.0-1.0","5889","2","15","Female","approach_avoid_spark_v1","""event"",""trial"",""time""
""fullscreenenter"",""1"",""32361""
","
","
","""event"",""trial"",""time""
""fullscreenenter"",""1"",""32361""
","
","","","","","","null","images/bed3.png","","","learning","2","-5","","null","bed","furniture","1","1","","good","[3]"
"html-keyboard-response","191","935448","0.0-11.0-2.0-0.1","5889","2","15","Female","approach_avoid_spark_v1","""event"",""trial"",""time""
""fullscreenenter"",""1"",""32361""
","
","
","""event"",""trial"",""time""
""fullscreenenter"",""1"",""32361""
","
","","","","","","null","<div style=""font-size:60px;"">+</div>","null","","fixation","","","","","","","","","","",""
"aa-learning-trial","192","938457","0.0-11.0-2.0-1.1","5889","2","15","Female","approach_avoid_spark_v1","""event"",""trial"",""time""
""fullscreenenter"",""1"",""32361""
","
","
","""event"",""trial"",""time""
""fullscreenenter"",""1"",""32361""
","
","","","","","","1166.8000000715256","images/sofa3.png","","","learning","-5","0","0","0","sofa","furniture","1","1","","bad","[-4]"
"html-keyboard-response","193","938967","0.0-11.0-2.0-0.2","5889","2","15","Female","approach_avoid_spark_v1","""event"",""trial"",""time""
""fullscreenenter"",""1"",""32361""
","
","
","""event"",""trial"",""time""
""fullscreenenter"",""1"",""32361""
","
","","","","","","null","<div style=""font-size:60px;"">+</div>","null","","fixation","","","","","","","","","","",""
"aa-learning-trial","194","941975","0.0-11.0-2.0-1.2","5889","2","15","Female","approach_avoid_spark_v1","""event"",""trial"",""time""
""fullscreenenter"",""1"",""32361""
","
","
","""event"",""trial"",""time""
""fullscreenenter"",""1"",""32361""
","
","","","","","","415.5","images/sofa6.png","","","learning","-3","0","0","0","sofa","furniture","1","1","","bad","[-4]"
"html-keyboard-response","195","942499","0.0-11.0-2.0-0.3","5889","2","15","Female","approach_avoid_spark_v1","""event"",""trial"",""time""
""fullscreenenter"",""1"",""32361""
","
","
","""event"",""trial"",""time""
""fullscreenenter"",""1"",""32361""
","
","","","","","","null","<div style=""font-size:60px;"">+</div>","null","","fixation","","","","","","","","","","",""
"aa-learning-trial","196","945506","0.0-11.0-2.0-1.3","5889","2","15","Female","approach_avoid_spark_v1","""event"",""trial"",""time""
""fullscreenenter"",""1"",""32361""
","
","
","""event"",""trial"",""time""
""fullscreenenter"",""1"",""32361""
","
","","","","","","518.2999999523163","images/chair6.png","","","learning","1","0","0","0","chair","furniture","1","1","","neutral","0"
"html-keyboard-response","197","946016","0.0-11.0-2.0-0.4","5889","2","15","Female","approach_avoid_spark_v1","""event"",""trial"",""time""
""fullscreenenter"",""1"",""32361""
","
","
","""event"",""trial"",""time""
""fullscreenenter"",""1"",""32361""
","
","","","","","","null","<div style=""font-size:60px;"">+</div>","null","","fixation","","","","","","","","","","",""
"aa-learning-trial","198","949033","0.0-11.0-2.0-1.4","5889","2","15","Female","approach_avoid_spark_v1","""event"",""trial"",""time""
""fullscreenenter"",""1"",""32361""
","
","
","""event"",""trial"",""time""
""fullscreenenter"",""1"",""32361""
","
","","","","","","607.6000000238419","images/chair2.png","","","learning","1","0","0","0","chair","furniture","1","1","","neutral","0"
"html-keyboard-response","199","949540","0.0-11.0-2.0-0.5","5889","2","15","Female","approach_avoid_spark_v1","""event"",""trial"",""time""
""fullscreenenter"",""1"",""32361""
","
","
","""event"",""trial"",""time""
""fullscreenenter"",""1"",""32361""
","
","","","","","","null","<div style=""font-size:60px;"">+</div>","null","","fixation","","","","","","","","","","",""
"aa-learning-trial","200","952548","0.0-11.0-2.0-1.5","5889","2","15","Female","approach_avoid_spark_v1","""event"",""trial"",""time""
""fullscreenenter"",""1"",""32361""
","
","
","""event"",""trial"",""time""
""fullscreenenter"",""1"",""32361""
","
","","","","","","924.8000000715256","images/chair2.png","","","learning","[-1]","-1","1","1","chair","furniture","1","1","","neutral","0"
"html-keyboard-response","201","953058","0.0-11.0-2.0-0.6","5889","2","15","Female","approach_avoid_spark_v1","""event"",""trial"",""time""
""fullscreenenter"",""1"",""32361""
","
","
","""event"",""trial"",""time""
""fullscreenenter"",""1"",""32361""
","
","","","","","","null","<div style=""font-size:60px;"">+</div>","null","","fixation","","","","","","","","","","",""
"aa-learning-trial","202","956066","0.0-11.0-2.0-1.6","5889","2","15","Female","approach_avoid_spark_v1","""event"",""trial"",""time""
""fullscreenenter"",""1"",""32361""
","
","
","""event"",""trial"",""time""
""fullscreenenter"",""1"",""32361""
","
","","","","","","574.6999999284744","images/sofa6.png","","","learning","-3","0","0","0","sofa","furniture","1","1","","bad","[-4]"
"html-keyboard-response","203","956579","0.0-11.0-2.0-0.7","5889","2","15","Female","approach_avoid_spark_v1","""event"",""trial"",""time""
""fullscreenenter"",""1"",""32361""
","
","
","""event"",""trial"",""time""
""fullscreenenter"",""1"",""32361""
","
","","","","","","null","<div style=""font-size:60px;"">+</div>","null","","fixation","","","","","","","","","","",""
"aa-learning-trial","204","959589","0.0-11.0-2.0-1.7","5889","2","15","Female","approach_avoid_spark_v1","""event"",""trial"",""time""
""fullscreenenter"",""1"",""32361""
","
","
","""event"",""trial"",""time""
""fullscreenenter"",""1"",""32361""
","
","","","","","","820","images/sofa2.png","","","learning","-3","0","0","0","sofa","furniture","1","1","","bad","[-4]"
"html-keyboard-response","205","960091","0.0-11.0-2.0-0.8","5889","2","15","Female","approach_avoid_spark_v1","""event"",""trial"",""time""
""fullscreenenter"",""1"",""32361""
","
","
","""event"",""trial"",""time""
""fullscreenenter"",""1"",""32361""
","
","","","","","","null","<div style=""font-size:60px;"">+</div>","null","","fixation","","","","","","","","","","",""
"aa-learning-trial","206","963099","0.0-11.0-2.0-1.8","5889","2","15","Female","approach_avoid_spark_v1","""event"",""trial"",""time""
""fullscreenenter"",""1"",""32361""
","
","
","""event"",""trial"",""time""
""fullscreenenter"",""1"",""32361""
","
","","","","","","519.7999999523163","images/bed6.png","","","learning","2","0","0","0","bed","furniture","1","1","","good","[3]"
"html-keyboard-response","207","963608","0.0-11.0-2.0-0.9","5889","2","15","Female","approach_avoid_spark_v1","""event"",""trial"",""time""
""fullscreenenter"",""1"",""32361""
","
","
","""event"",""trial"",""time""
""fullscreenenter"",""1"",""32361""
","
","","","","","","null","<div style=""font-size:60px;"">+</div>","null","","fixation","","","","","","","","","","",""
"aa-learning-trial","208","966625","0.0-11.0-2.0-1.9","5889","2","15","Female","approach_avoid_spark_v1","""event"",""trial"",""time""
""fullscreenenter"",""1"",""32361""
","
","
","""event"",""trial"",""time""
""fullscreenenter"",""1"",""32361""
","
","","","","","","946.6000000238419","images/chair6.png","","","learning","[-1]","-1","1","1","chair","furniture","1","1","","neutral","0"
"html-keyboard-response","209","967136","0.0-11.0-2.0-0.10","5889","2","15","Female","approach_avoid_spark_v1","""event"",""trial"",""time""
""fullscreenenter"",""1"",""32361""
","
","
","""event"",""trial"",""time""
""fullscreenenter"",""1"",""32361""
","
","","","","","","null","<div style=""font-size:60px;"">+</div>","null","","fixation","","","","","","","","","","",""
"aa-learning-trial","210","970145","0.0-11.0-2.0-1.10","5889","2","15","Female","approach_avoid_spark_v1","""event"",""trial"",""time""
""fullscreenenter"",""1"",""32361""
","
","
","""event"",""trial"",""time""
""fullscreenenter"",""1"",""32361""
","
","","","","","","1041.5","images/bed5.png","","","learning","1","0","0","0","bed","furniture","1","1","","good","[3]"
"html-keyboard-response","211","970657","0.0-11.0-2.0-0.11","5889","2","15","Female","approach_avoid_spark_v1","""event"",""trial"",""time""
""fullscreenenter"",""1"",""32361""
","
","
","""event"",""trial"",""time""
""fullscreenenter"",""1"",""32361""
","
","","","","","","null","<div style=""font-size:60px;"">+</div>","null","","fixation","","","","","","","","","","",""
"aa-learning-trial","212","973675","0.0-11.0-2.0-1.11","5889","2","15","Female","approach_avoid_spark_v1","""event"",""trial"",""time""
""fullscreenenter"",""1"",""32361""
","
","
","""event"",""trial"",""time""
""fullscreenenter"",""1"",""32361""
","
","","","","","","927.1999999284744","images/bed6.png","","","learning","2","2","1","1","bed","furniture","1","1","","good","[3]"
"html-keyboard-response","213","974187","0.0-11.0-2.0-0.12","5889","2","15","Female","approach_avoid_spark_v1","""event"",""trial"",""time""
""fullscreenenter"",""1"",""32361""
","
","
","""event"",""trial"",""time""
""fullscreenenter"",""1"",""32361""
","
","","","","","","null","<div style=""font-size:60px;"">+</div>","null","","fixation","","","","","","","","","","",""
"aa-learning-trial","214","977192","0.0-11.0-2.0-1.12","5889","2","15","Female","approach_avoid_spark_v1","""event"",""trial"",""time""
""fullscreenenter"",""1"",""32361""
","
","
","""event"",""trial"",""time""
""fullscreenenter"",""1"",""32361""
","
","","","","","","988.8999999761581","images/chair5.png","","","learning","2","0","0","0","chair","furniture","1","1","","neutral","0"
"html-keyboard-response","215","977705","0.0-11.0-2.0-0.13","5889","2","15","Female","approach_avoid_spark_v1","""event"",""trial"",""time""
""fullscreenenter"",""1"",""32361""
","
","
","""event"",""trial"",""time""
""fullscreenenter"",""1"",""32361""
","
","","","","","","null","<div style=""font-size:60px;"">+</div>","null","","fixation","","","","","","","","","","",""
"aa-learning-trial","216","980714","0.0-11.0-2.0-1.13","5889","2","15","Female","approach_avoid_spark_v1","""event"",""trial"",""time""
""fullscreenenter"",""1"",""32361""
","
","
","""event"",""trial"",""time""
""fullscreenenter"",""1"",""32361""
","
","","","","","","1262.5999999046326","images/bed5.png","","","learning","2","2","1","1","bed","furniture","1","1","","good","[3]"
"html-keyboard-response","217","981223","0.0-11.0-2.0-0.14","5889","2","15","Female","approach_avoid_spark_v1","""event"",""trial"",""time""
""fullscreenenter"",""1"",""32361""
","
","
","""event"",""trial"",""time""
""fullscreenenter"",""1"",""32361""
","
","","","","","","null","<div style=""font-size:60px;"">+</div>","null","","fixation","","","","","","","","","","",""
"aa-learning-trial","218","984238","0.0-11.0-2.0-1.14","5889","2","15","Female","approach_avoid_spark_v1","""event"",""trial"",""time""
""fullscreenenter"",""1"",""32361""
","
","
","""event"",""trial"",""time""
""fullscreenenter"",""1"",""32361""
","
","","","","","","908.3999999761581","images/sofa3.png","","","learning","-4","0","0","0","sofa","furniture","1","1","","bad","[-4]"
"html-keyboard-response","219","984743","0.0-11.0-2.0-0.15","5889","2","15","Female","approach_avoid_spark_v1","""event"",""trial"",""time""
""fullscreenenter"",""1"",""32361""
","
","
","""event"",""trial"",""time""
""fullscreenenter"",""1"",""32361""
","
","","","","","","null","<div style=""font-size:60px;"">+</div>","null","","fixation","","","","","","","","","","",""
"aa-learning-trial","220","987755","0.0-11.0-2.0-1.15","5889","2","15","Female","approach_avoid_spark_v1","""event"",""trial"",""time""
""fullscreenenter"",""1"",""32361""
","
","
","""event"",""trial"",""time""
""fullscreenenter"",""1"",""32361""
","
","","","","","","1237.8999999761581","images/bed8.png","","","learning","3","0","0","0","bed","furniture","1","1","","good","[3]"
"html-keyboard-response","221","988271","0.0-11.0-2.0-0.16","5889","2","15","Female","approach_avoid_spark_v1","""event"",""trial"",""time""
""fullscreenenter"",""1"",""32361""
","
","
","""event"",""trial"",""time""
""fullscreenenter"",""1"",""32361""
","
","","","","","","null","<div style=""font-size:60px;"">+</div>","null","","fixation","","","","","","","","","","",""
"aa-learning-trial","222","991293","0.0-11.0-2.0-1.16","5889","2","15","Female","approach_avoid_spark_v1","""event"",""trial"",""time""
""fullscreenenter"",""1"",""32361""
","
","
","""event"",""trial"",""time""
""fullscreenenter"",""1"",""32361""
","
","","","","","","1624.8999999761581","images/bed6.png","","","learning","5","0","0","0","bed","furniture","1","1","","good","[3]"
"html-keyboard-response","223","991806","0.0-11.0-2.0-0.17","5889","2","15","Female","approach_avoid_spark_v1","""event"",""trial"",""time""
""fullscreenenter"",""1"",""32361""
","
","
","""event"",""trial"",""time""
""fullscreenenter"",""1"",""32361""
","
","","","","","","null","<div style=""font-size:60px;"">+</div>","null","","fixation","","","","","","","","","","",""
"aa-learning-trial","224","994816","0.0-11.0-2.0-1.17","5889","2","15","Female","approach_avoid_spark_v1","""event"",""trial"",""time""
""fullscreenenter"",""1"",""32361""
","
","
","""event"",""trial"",""time""
""fullscreenenter"",""1"",""32361""
","
","","","","","","690.2000000476837","images/bed5.png","","","learning","2","2","1","1","bed","furniture","1","1","","good","[3]"
"html-keyboard-response","225","995327","0.0-11.0-2.0-0.18","5889","2","15","Female","approach_avoid_spark_v1","""event"",""trial"",""time""
""fullscreenenter"",""1"",""32361""
","
","
","""event"",""trial"",""time""
""fullscreenenter"",""1"",""32361""
","
","","","","","","null","<div style=""font-size:60px;"">+</div>","null","","fixation","","","","","","","","","","",""
"aa-learning-trial","226","998344","0.0-11.0-2.0-1.18","5889","2","15","Female","approach_avoid_spark_v1","""event"",""trial"",""time""
""fullscreenenter"",""1"",""32361""
","
","
","""event"",""trial"",""time""
""fullscreenenter"",""1"",""32361""
","
","","","","","","932.6999999284744","images/chair2.png","","","learning","-2","0","0","0","chair","furniture","1","1","","neutral","0"
"html-keyboard-response","227","998851","0.0-11.0-2.0-0.19","5889","2","15","Female","approach_avoid_spark_v1","""event"",""trial"",""time""
""fullscreenenter"",""1"",""32361""
","
","
","""event"",""trial"",""time""
""fullscreenenter"",""1"",""32361""
","
","","","","","","null","<div style=""font-size:60px;"">+</div>","null","","fixation","","","","","","","","","","",""
"aa-learning-trial","228","1001863","0.0-11.0-2.0-1.19","5889","2","15","Female","approach_avoid_spark_v1","""event"",""trial"",""time""
""fullscreenenter"",""1"",""32361""
","
","
","""event"",""trial"",""time""
""fullscreenenter"",""1"",""32361""
","
","","","","","","879.6000000238419","images/sofa5.png","","","learning","-4","0","0","0","sofa","furniture","1","1","","bad","[-4]"
"html-keyboard-response","229","1002375","0.0-11.0-2.0-0.20","5889","2","15","Female","approach_avoid_spark_v1","""event"",""trial"",""time""
""fullscreenenter"",""1"",""32361""
","
","
","""event"",""trial"",""time""
""fullscreenenter"",""1"",""32361""
","
","","","","","","null","<div style=""font-size:60px;"">+</div>","null","","fixation","","","","","","","","","","",""
"aa-learning-trial","230","1005385","0.0-11.0-2.0-1.20","5889","2","15","Female","approach_avoid_spark_v1","""event"",""trial"",""time""
""fullscreenenter"",""1"",""32361""
","
","
","""event"",""trial"",""time""
""fullscreenenter"",""1"",""32361""
","
","","","","","","1208.1000000238419","images/bed3.png","","","learning","2","0","0","0","bed","furniture","1","1","","good","[3]"
"html-keyboard-response","231","1005888","0.0-11.0-2.0-0.21","5889","2","15","Female","approach_avoid_spark_v1","""event"",""trial"",""time""
""fullscreenenter"",""1"",""32361""
","
","
","""event"",""trial"",""time""
""fullscreenenter"",""1"",""32361""
","
","","","","","","null","<div style=""font-size:60px;"">+</div>","null","","fixation","","","","","","","","","","",""
"aa-learning-trial","232","1008897","0.0-11.0-2.0-1.21","5889","2","15","Female","approach_avoid_spark_v1","""event"",""trial"",""time""
""fullscreenenter"",""1"",""32361""
","
","
","""event"",""trial"",""time""
""fullscreenenter"",""1"",""32361""
","
","","","","","","1059.3999999761581","images/chair6.png","","","learning","-1","0","0","0","chair","furniture","1","1","","neutral","0"
"html-keyboard-response","233","1009411","0.0-11.0-2.0-0.22","5889","2","15","Female","approach_avoid_spark_v1","""event"",""trial"",""time""
""fullscreenenter"",""1"",""32361""
","
","
","""event"",""trial"",""time""
""fullscreenenter"",""1"",""32361""
","
","","","","","","null","<div style=""font-size:60px;"">+</div>","null","","fixation","","","","","","","","","","",""
"aa-learning-trial","234","1012419","0.0-11.0-2.0-1.22","5889","2","15","Female","approach_avoid_spark_v1","""event"",""trial"",""time""
""fullscreenenter"",""1"",""32361""
","
","
","""event"",""trial"",""time""
""fullscreenenter"",""1"",""32361""
","
","","","","","","1208.9000000953674","images/sofa6.png","","","learning","-5","0","0","0","sofa","furniture","1","1","","bad","[-4]"
