"trial_type","trial_index","time_elapsed","internal_node_id","subject_id","task_condition","age","gender","task_version","interactions","blur_events","focus_events","fullscreenenter_events","fullscreenexit_events","success","timeout","failed_images","failed_audio","failed_video","rt","stimulus","response","button_pressed","task_part","approach_reward","points","key_press","option_selected","stim_cat","task_block","block_condition","block_number","correct","cat_type","mean_cat_reward"
"pavlovia","0","2","0.0-0.0","5649","1","22","Female","approach_avoid_spark_v1","""event"",""trial"",""time""
""fullscreenenter"",""1"",""1375""
","
","
","""event"",""trial"",""time""
""fullscreenenter"",""1"",""1375""
","
","","","","","","","","","","","","","","","","","","","","",""
"fullscreen","1","2365","0.0-1.0","5649","1","22","Female","approach_avoid_spark_v1","""event"",""trial"",""time""
""fullscreenenter"",""1"",""1375""
","
","
","""event"",""trial"",""time""
""fullscreenenter"",""1"",""1375""
","
","true","","","","","","","","","","","","","","","","","","","",""
"preload","2","5263","0.0-2.0","5649","1","22","Female","approach_avoid_spark_v1","""event"",""trial"",""time""
""fullscreenenter"",""1"",""1375""
","
","
","""event"",""trial"",""time""
""fullscreenenter"",""1"",""1375""
","
","true","false","[]","[]","[]","","","","","","","","","","","","","","","",""
"audio-keyboard-response","3","8163","0.0-3.0","5649","1","22","Female","approach_avoid_spark_v1","""event"",""trial"",""time""
""fullscreenenter"",""1"",""1375""
","
","
","""event"",""trial"",""time""
""fullscreenenter"",""1"",""1375""
","
","","","","","","2896.0000000000005","audio/beep_loop.wav"," ","","","","","","","","","","","","",""
"audio-button-response","4","10755","0.0-4.0","5649","1","22","Female","approach_avoid_spark_v1","""event"",""trial"",""time""
""fullscreenenter"",""1"",""1375""
","
","
","""event"",""trial"",""time""
""fullscreenenter"",""1"",""1375""
","
","","","","","","2592","audio/shark.wav","4","","","","","","","","","","","","",""
"audio-button-response","5","13095","0.0-5.0","5649","1","22","Female","approach_avoid_spark_v1","""event"",""trial"",""time""
""fullscreenenter"",""1"",""1375""
","
","
","""event"",""trial"",""time""
""fullscreenenter"",""1"",""1375""
","
","","","","","","1333","audio/turtle.wav","1","","","","","","","","","","","","",""
"preload","6","15639","0.0-6.0","5649","1","22","Female","approach_avoid_spark_v1","""event"",""trial"",""time""
""fullscreenenter"",""1"",""1375""
","
","
","""event"",""trial"",""time""
""fullscreenenter"",""1"",""1375""
","
","true","false","[]","[]","[]","","","","","","","","","","","","","","","",""
"html-keyboard-response","7","18055","0.0-7.0","5649","1","22","Female","approach_avoid_spark_v1","""event"",""trial"",""time""
""fullscreenenter"",""1"",""1375""
","
","
","""event"",""trial"",""time""
""fullscreenenter"",""1"",""1375""
","
","","","","","","2415.800000011921","Welcome to the experiment. Press any key to begin and to advance the instructions."," ","","","","","","","","","","","","",""
"learning-instructions","8","28831","0.0-8.0-0.0-0.0","5649","1","22","Female","approach_avoid_spark_v1","""event"",""trial"",""time""
""fullscreenenter"",""1"",""1375""
","
","
","""event"",""trial"",""time""
""fullscreenenter"",""1"",""1375""
","
","","","","","","3821.0999999940395","<p> Welcome! Today you are going to play 6 different rounds of a decision-making game. </p><p> Use the mouse to click next to continue. </p>","","0","instructions","","","","","","","","","","",""
"learning-instructions","9","32114","0.0-8.0-0.0-0.1","5649","1","22","Female","approach_avoid_spark_v1","""event"",""trial"",""time""
""fullscreenenter"",""1"",""1375""
","
","
","""event"",""trial"",""time""
""fullscreenenter"",""1"",""1375""
","
","","","","","","550.5999999940395","<p> You will start with a practice round to learn the rules. </p>","","0","instructions","","","","","","","","","","",""
"learning-instructions","10","36255","0.0-8.0-0.0-0.2","5649","1","22","Female","approach_avoid_spark_v1","""event"",""trial"",""time""
""fullscreenenter"",""1"",""1375""
","
","
","""event"",""trial"",""time""
""fullscreenenter"",""1"",""1375""
","
","","","","","","691.5","<p> Your goal in this round is to give out sports equipment to kids. </p></div>","","0","instructions","","","","","","","","","","",""
"learning-instructions","11","44144","0.0-8.0-0.0-0.3","5649","1","22","Female","approach_avoid_spark_v1","""event"",""trial"",""time""
""fullscreenenter"",""1"",""1375""
","
","
","""event"",""trial"",""time""
""fullscreenenter"",""1"",""1375""
","
","","","","","","335.2999999821186","<p> The kids only like some of the equipment.  </p><p> On each turn, you will see a piece of sports equipment.   </p><p> You need to decide whether to give it to the kids or not.  </p>","","0","instructions","","","","","","","","","","",""
"learning-instructions","12","49150","0.0-8.0-0.0-0.4","5649","1","22","Female","approach_avoid_spark_v1","""event"",""trial"",""time""
""fullscreenenter"",""1"",""1375""
","
","
","""event"",""trial"",""time""
""fullscreenenter"",""1"",""1375""
","
","","","","","","247.39999997615814","<p> You can give them the equipment by pressing 1 and choose not to give it to them by pressing 0. </p><br><div class=""choice-instructions-grid""> <div class=""choice-option""><img src=""images/approach.png"" class=""choice-option-img"" stage=""instructions"" position=""0"" ><div class=""choice-option-text""> Press ""1."" </div></div><div class=""choice-option""><img src=""images/avoid.png"" class=""choice-option-img"" stage=""instructions"" position=""1"" ><div class=""choice-option-text""> Press ""0."" </div></div>","","0","instructions","","","","","","","","","","",""
"learning-instructions","13","57008","0.0-8.0-0.0-0.5","5649","1","22","Female","approach_avoid_spark_v1","""event"",""trial"",""time""
""fullscreenenter"",""1"",""1375""
","
","
","""event"",""trial"",""time""
""fullscreenenter"",""1"",""1375""
","
","","","","","","469.19999998807907","<p> If you give them a piece of equipment they like, they will be happy! </p><p> But if you give them a piece of equipment they do not like, they will be sad. </p>","","0","instructions","","","","","","","","","","",""
"learning-instructions","14","67636","0.0-8.0-0.0-0.6","5649","1","22","Female","approach_avoid_spark_v1","""event"",""trial"",""time""
""fullscreenenter"",""1"",""1375""
","
","
","""event"",""trial"",""time""
""fullscreenenter"",""1"",""1375""
","
","","","","","","115.2000000178814","<p> You will earn points based on how you make kids feel. </p><p> If you make them happy, you will WIN anywhere from 1 - 9 points, </p><p> but if you make them sad, you will LOSE anywhere from 1 - 9 points. </p>","","0","instructions","","","","","","","","","","",""
"learning-instructions","15","77692","0.0-8.0-0.0-0.7","5649","1","22","Female","approach_avoid_spark_v1","""event"",""trial"",""time""
""fullscreenenter"",""1"",""1375""
","
","
","""event"",""trial"",""time""
""fullscreenenter"",""1"",""1375""
","
","","","","","","496.09999999403954","<p> You will see how many points you won or lost in the center of the screen. </p><p> Here is what you would see if you won 6 points: </p><p style=""color:green;font-size:50px;font-weight:bolder"">6</p><p style=""color:green"">The text is GREEN because you WON points.</p>","","0","instructions","","","","","","","","","","",""
"learning-instructions","16","83525","0.0-8.0-0.0-0.8","5649","1","22","Female","approach_avoid_spark_v1","""event"",""trial"",""time""
""fullscreenenter"",""1"",""1375""
","
","
","""event"",""trial"",""time""
""fullscreenenter"",""1"",""1375""
","
","","","","","","329.09999999403954","<p> And here is what you would see if you lost 4 points: </p><p style=""color:red;font-size:50px;font-weight:bolder"">-4</p><p style=""color:red"">The text is RED because you LOST points. </p>","","0","instructions","","","","","","","","","","",""
"learning-instructions","17","98401","0.0-8.0-0.0-0.9","5649","1","22","Female","approach_avoid_spark_v1","""event"",""trial"",""time""
""fullscreenenter"",""1"",""1375""
","
","
","""event"",""trial"",""time""
""fullscreenenter"",""1"",""1375""
","
","","","","","","160.40000000596046","<p> Some of the equipment will make the kids VERY happy or sad. </p><p> These pieces of equipment will make you win or lose LOTS of points. </p><p> Other pieces of equipment will only make the kids a little happy or sad. </p><p> These pieces of equipment will make you win or lose small amounts of points. </p>","","0","instructions","","","","","","","","","","",""
"learning-instructions","18","109633","0.0-8.0-0.0-0.10","5649","1","22","Female","approach_avoid_spark_v1","""event"",""trial"",""time""
""fullscreenenter"",""1"",""1375""
","
","
","""event"",""trial"",""time""
""fullscreenenter"",""1"",""1375""
","
","","","","","","602.5999999940395","<p> If you choose not to give them the equipment, you will not win or lose any points. </p><p>  However, in the center of the screen, you will see the number of points you WOULD HAVE won or lost if you had given them the equipment. </p>","","0","instructions","","","","","","","","","","",""
"learning-instructions","19","135163","0.0-8.0-0.0-0.11","5649","1","22","Female","approach_avoid_spark_v1","""event"",""trial"",""time""
""fullscreenenter"",""1"",""1375""
","
","
","""event"",""trial"",""time""
""fullscreenenter"",""1"",""1375""
","
","","","","","","3999.4000000059605","<p> Here is what you might see if you did not give the equipment to the kids but it would have made them happy: </p><p style=""color:grey; font-size:50px; display: inline-block; border-spacing: 15px; border-width:3px; border-style:solid; border-color:red"">  &nbsp; 7 &nbsp; </p><p> Remember, in this case, you would not win or lose ANY points because you did not give them the equipment.  </p><p style=""color:grey"">The text is GREY because you earned ZERO points. </p><p style=""color:red"">However, choosing to give the kids the equipment would have made you win points. The box around the text is RED because you chose the worse option. </p>","","0","instructions","","","","","","","","","","",""
"learning-instructions","20","235416","0.0-8.0-0.0-0.12","5649","1","22","Female","approach_avoid_spark_v1","""event"",""trial"",""time""
""fullscreenenter"",""1"",""1375""
","
","
","""event"",""trial"",""time""
""fullscreenenter"",""1"",""1375""
","
","","","","","","79175.79999998212","<p> Here is what you might see if you did not give the equipment to the kids but it would have made them sad: </p><p style=""color:grey;font-size:50px; display: inline-block; border-spacing: 15px; border-width:3px; border-style:solid; border-color:green"">  &nbsp; -8 &nbsp; </p><p> Remember, in this case, you would not win or lose ANY points because you did not give them the equipment.  </p><p style=""color:grey"">The text is GREY because you earned ZERO points. </p><p  style=""color:green""> Choosing to give the kids the equipment would have made you lose points. The box around the text is GREEN because you chose the better option.</p>","","0","instructions","","","","","","","","","","",""
"learning-instructions","21","244722","0.0-8.0-0.0-0.13","5649","1","22","Female","approach_avoid_spark_v1","""event"",""trial"",""time""
""fullscreenenter"",""1"",""1375""
","
","
","""event"",""trial"",""time""
""fullscreenenter"",""1"",""1375""
","
","","","","","","272.09999999403954","<p> You will have 3 seconds to make each choice. Try to respond before time runs out! </p><p> You will lose 5 points each time you do not make a response. </p>","","0","instructions","","","","","","","","","","",""
"learning-instructions","22","251751","0.0-8.0-0.0-0.14","5649","1","22","Female","approach_avoid_spark_v1","""event"",""trial"",""time""
""fullscreenenter"",""1"",""1375""
","
","
","""event"",""trial"",""time""
""fullscreenenter"",""1"",""1375""
","
","","","","","","1616.4000000059605","<p> This is just a practice round, but in the real game, your bonus payment will depend on your total number of points.","","0","instructions","","","","","","","","","","",""
"learning-instructions","23","258698","0.0-8.0-0.0-0.15","5649","1","22","Female","approach_avoid_spark_v1","""event"",""trial"",""time""
""fullscreenenter"",""1"",""1375""
","
","
","""event"",""trial"",""time""
""fullscreenenter"",""1"",""1375""
","
","","","","","","1181.7000000178814","<p> Remember, you can give them the equipment by pressing 1 and choose not to give it to them by pressing 0. </p><br><div class=""choice-instructions-grid""> <div class=""choice-option""><img src=""images/approach.png"" class=""choice-option-img"" stage=""instructions"" position=""0"" ><div class=""choice-option-text""> Press ""1."" </div></div><div class=""choice-option""><img src=""images/avoid.png"" class=""choice-option-img"" stage=""instructions"" position=""1"" ><div class=""choice-option-text""> Press ""0."" </div></div>","","0","instructions","","","","","","","","","","",""
"html-button-response","24","265651","0.0-8.0-1.0","5649","1","22","Female","approach_avoid_spark_v1","""event"",""trial"",""time""
""fullscreenenter"",""1"",""1375""
","
","
","""event"",""trial"",""time""
""fullscreenenter"",""1"",""1375""
","
","","","","","","6847.5999999940395","<p> Ready to practice? </p>","0","","","","","","","","","","","","",""
"html-keyboard-response","25","266262","0.0-8.0-2.0-0.0","5649","1","22","Female","approach_avoid_spark_v1","""event"",""trial"",""time""
""fullscreenenter"",""1"",""1375""
","
","
","""event"",""trial"",""time""
""fullscreenenter"",""1"",""1375""
","
","","","","","","null","<div style=""font-size:60px;"">+</div>","null","","fixation","","","","","","","","","","",""
"aa-learning-trial","26","269274","0.0-8.0-2.0-1.0","5649","1","22","Female","approach_avoid_spark_v1","""event"",""trial"",""time""
""fullscreenenter"",""1"",""1375""
","
","
","""event"",""trial"",""time""
""fullscreenenter"",""1"",""1375""
","
","","","","","","1109.3999999761581","images/ball1.png","","","learning","-9","-9","1","1","practice","practice","practice","-1","","",""
"html-keyboard-response","27","269778","0.0-8.0-2.0-0.1","5649","1","22","Female","approach_avoid_spark_v1","""event"",""trial"",""time""
""fullscreenenter"",""1"",""1375""
","
","
","""event"",""trial"",""time""
""fullscreenenter"",""1"",""1375""
","
","","","","","","null","<div style=""font-size:60px;"">+</div>","null","","fixation","","","","","","","","","","",""
"aa-learning-trial","28","272790","0.0-8.0-2.0-1.1","5649","1","22","Female","approach_avoid_spark_v1","""event"",""trial"",""time""
""fullscreenenter"",""1"",""1375""
","
","
","""event"",""trial"",""time""
""fullscreenenter"",""1"",""1375""
","
","","","","","","1116.199999988079","images/racket2.png","","","learning","1","1","1","1","practice","practice","practice","-1","","",""
"html-keyboard-response","29","273302","0.0-8.0-2.0-0.2","5649","1","22","Female","approach_avoid_spark_v1","""event"",""trial"",""time""
""fullscreenenter"",""1"",""1375""
","
","
","""event"",""trial"",""time""
""fullscreenenter"",""1"",""1375""
","
","","","","","","null","<div style=""font-size:60px;"">+</div>","null","","fixation","","","","","","","","","","",""
"aa-learning-trial","30","276316","0.0-8.0-2.0-1.2","5649","1","22","Female","approach_avoid_spark_v1","""event"",""trial"",""time""
""fullscreenenter"",""1"",""1375""
","
","
","""event"",""trial"",""time""
""fullscreenenter"",""1"",""1375""
","
","","","","","","1119.4000000059605","images/racket3.png","","","learning","-3","-3","1","1","practice","practice","practice","-1","","",""
"html-keyboard-response","31","276830","0.0-8.0-2.0-0.3","5649","1","22","Female","approach_avoid_spark_v1","""event"",""trial"",""time""
""fullscreenenter"",""1"",""1375""
","
","
","""event"",""trial"",""time""
""fullscreenenter"",""1"",""1375""
","
","","","","","","null","<div style=""font-size:60px;"">+</div>","null","","fixation","","","","","","","","","","",""
"aa-learning-trial","32","279841","0.0-8.0-2.0-1.3","5649","1","22","Female","approach_avoid_spark_v1","""event"",""trial"",""time""
""fullscreenenter"",""1"",""1375""
","
","
","""event"",""trial"",""time""
""fullscreenenter"",""1"",""1375""
","
","","","","","","1552.7999999821186","images/racket2.png","","","learning","5","5","1","1","practice","practice","practice","-1","","",""
"html-keyboard-response","33","280347","0.0-8.0-2.0-0.4","5649","1","22","Female","approach_avoid_spark_v1","""event"",""trial"",""time""
""fullscreenenter"",""1"",""1375""
","
","
","""event"",""trial"",""time""
""fullscreenenter"",""1"",""1375""
","
","","","","","","null","<div style=""font-size:60px;"">+</div>","null","","fixation","","","","","","","","","","",""
"aa-learning-trial","34","283358","0.0-8.0-2.0-1.4","5649","1","22","Female","approach_avoid_spark_v1","""event"",""trial"",""time""
""fullscreenenter"",""1"",""1375""
","
","
","""event"",""trial"",""time""
""fullscreenenter"",""1"",""1375""
","
","","","","","","996.5","images/ball4.png","","","learning","8","8","1","1","practice","practice","practice","-1","","",""
"html-keyboard-response","35","283870","0.0-8.0-2.0-0.5","5649","1","22","Female","approach_avoid_spark_v1","""event"",""trial"",""time""
""fullscreenenter"",""1"",""1375""
","
","
","""event"",""trial"",""time""
""fullscreenenter"",""1"",""1375""
","
","","","","","","null","<div style=""font-size:60px;"">+</div>","null","","fixation","","","","","","","","","","",""
"aa-learning-trial","36","286874","0.0-8.0-2.0-1.5","5649","1","22","Female","approach_avoid_spark_v1","""event"",""trial"",""time""
""fullscreenenter"",""1"",""1375""
","
","
","""event"",""trial"",""time""
""fullscreenenter"",""1"",""1375""
","
","","","","","","895.7999999821186","images/racket3.png","","","learning","-7","0","0","0","practice","practice","practice","-1","","",""
"html-keyboard-response","37","287381","0.0-8.0-2.0-0.6","5649","1","22","Female","approach_avoid_spark_v1","""event"",""trial"",""time""
""fullscreenenter"",""1"",""1375""
","
","
","""event"",""trial"",""time""
""fullscreenenter"",""1"",""1375""
","
","","","","","","null","<div style=""font-size:60px;"">+</div>","null","","fixation","","","","","","","","","","",""
"aa-learning-trial","38","290387","0.0-8.0-2.0-1.6","5649","1","22","Female","approach_avoid_spark_v1","""event"",""trial"",""time""
""fullscreenenter"",""1"",""1375""
","
","
","""event"",""trial"",""time""
""fullscreenenter"",""1"",""1375""
","
","","","","","","923.2999999821186","images/racket4.png","","","learning","2","0","0","0","practice","practice","practice","-1","","",""
"html-keyboard-response","39","290892","0.0-8.0-2.0-0.7","5649","1","22","Female","approach_avoid_spark_v1","""event"",""trial"",""time""
""fullscreenenter"",""1"",""1375""
","
","
","""event"",""trial"",""time""
""fullscreenenter"",""1"",""1375""
","
","","","","","","null","<div style=""font-size:60px;"">+</div>","null","","fixation","","","","","","","","","","",""
"aa-learning-trial","40","293900","0.0-8.0-2.0-1.7","5649","1","22","Female","approach_avoid_spark_v1","""event"",""trial"",""time""
""fullscreenenter"",""1"",""1375""
","
","
","""event"",""trial"",""time""
""fullscreenenter"",""1"",""1375""
","
","","","","","","725.3000000119209","images/racket2.png","","","learning","3","3","1","1","practice","practice","practice","-1","","",""
"html-keyboard-response","41","294412","0.0-8.0-2.0-0.8","5649","1","22","Female","approach_avoid_spark_v1","""event"",""trial"",""time""
""fullscreenenter"",""1"",""1375""
","
","
","""event"",""trial"",""time""
""fullscreenenter"",""1"",""1375""
","
","","","","","","null","<div style=""font-size:60px;"">+</div>","null","","fixation","","","","","","","","","","",""
"aa-learning-trial","42","297420","0.0-8.0-2.0-1.8","5649","1","22","Female","approach_avoid_spark_v1","""event"",""trial"",""time""
""fullscreenenter"",""1"",""1375""
","
","
","""event"",""trial"",""time""
""fullscreenenter"",""1"",""1375""
","
","","","","","","566","images/racket2.png","","","learning","4","4","1","1","practice","practice","practice","-1","","",""
"html-keyboard-response","43","297932","0.0-8.0-2.0-0.9","5649","1","22","Female","approach_avoid_spark_v1","""event"",""trial"",""time""
""fullscreenenter"",""1"",""1375""
","
","
","""event"",""trial"",""time""
""fullscreenenter"",""1"",""1375""
","
","","","","","","null","<div style=""font-size:60px;"">+</div>","null","","fixation","","","","","","","","","","",""
"aa-learning-trial","44","300940","0.0-8.0-2.0-1.9","5649","1","22","Female","approach_avoid_spark_v1","""event"",""trial"",""time""
""fullscreenenter"",""1"",""1375""
","
","
","""event"",""trial"",""time""
""fullscreenenter"",""1"",""1375""
","
","","","","","","840.2000000178814","images/ball4.png","","","learning","6","0","0","0","practice","practice","practice","-1","","",""
"html-keyboard-response","45","301452","0.0-8.0-2.0-0.10","5649","1","22","Female","approach_avoid_spark_v1","""event"",""trial"",""time""
""fullscreenenter"",""1"",""1375""
","
","
","""event"",""trial"",""time""
""fullscreenenter"",""1"",""1375""
","
","","","","","","null","<div style=""font-size:60px;"">+</div>","null","","fixation","","","","","","","","","","",""
"aa-learning-trial","46","304460","0.0-8.0-2.0-1.10","5649","1","22","Female","approach_avoid_spark_v1","""event"",""trial"",""time""
""fullscreenenter"",""1"",""1375""
","
","
","""event"",""trial"",""time""
""fullscreenenter"",""1"",""1375""
","
","","","","","","536.0999999940395","images/ball2.png","","","learning","9","9","1","1","practice","practice","practice","-1","","",""
"html-keyboard-response","47","304972","0.0-8.0-2.0-0.11","5649","1","22","Female","approach_avoid_spark_v1","""event"",""trial"",""time""
""fullscreenenter"",""1"",""1375""
","
","
","""event"",""trial"",""time""
""fullscreenenter"",""1"",""1375""
","
","","","","","","null","<div style=""font-size:60px;"">+</div>","null","","fixation","","","","","","","","","","",""
"aa-learning-trial","48","307981","0.0-8.0-2.0-1.11","5649","1","22","Female","approach_avoid_spark_v1","""event"",""trial"",""time""
""fullscreenenter"",""1"",""1375""
","
","
","""event"",""trial"",""time""
""fullscreenenter"",""1"",""1375""
","
","","","","","","797.5999999940395","images/racket1.png","","","learning","6","6","1","1","practice","practice","practice","-1","","",""
"html-button-response","49","310014","0.0-8.0-3.0","5649","1","22","Female","approach_avoid_spark_v1","""event"",""trial"",""time""
""fullscreenenter"",""1"",""1375""
","
","
","""event"",""trial"",""time""
""fullscreenenter"",""1"",""1375""
","
","","","","","","2030.0999999940395","<p> You earned 24 points in the practice round! </p>","0","","break","","","","","","","","","","",""
"learning-instructions","50","317194","0.0-8.0-4.0-0.0","5649","1","22","Female","approach_avoid_spark_v1","""event"",""trial"",""time""
""fullscreenenter"",""1"",""1375""
","
","
","""event"",""trial"",""time""
""fullscreenenter"",""1"",""1375""
","
","","","","","","1193.5999999940395","<p> It's almost time to start the real game. </p><p> Before you start, we're going to ask you a few questions about how the game works. </p>","","0","instructions","","","","","","","","","","",""
"preload","51","318177","0.0-8.0-5.0","5649","1","22","Female","approach_avoid_spark_v1","""event"",""trial"",""time""
""fullscreenenter"",""1"",""1375""
","
","
","""event"",""trial"",""time""
""fullscreenenter"",""1"",""1375""
","
","true","false","[]","[]","[]","","","","","","","","","","","","","","","",""
"comp-q","52","324308","0.0-8.0-6.0-0.0","5649","1","22","Female","approach_avoid_spark_v1","""event"",""trial"",""time""
""fullscreenenter"",""1"",""1375""
","
","
","""event"",""trial"",""time""
""fullscreenenter"",""1"",""1375""
","
","","","","","","1133.9000000059605","<p> <b> True or False? </b> </p><p> If you see a number in GREY, that means you earned that many points. </p>","","1","comp_question","","","","","","","","","true","",""
"comp-q","53","348111","0.0-8.0-6.0-1.0","5649","1","22","Female","approach_avoid_spark_v1","""event"",""trial"",""time""
""fullscreenenter"",""1"",""1375""
","
","
","""event"",""trial"",""time""
""fullscreenenter"",""1"",""1375""
","
","","","","","","15438.699999988079","<p><b> That's right! </b> If you see a grey number, it means you earned ZERO points. <br> The grey numbers show the points you WOULD HAVE earned if you had made the other choice. </p>","","0","comp_answer","","","","","","","","","","",""
"comp-q","54","353770","0.0-8.0-7.0-0.0","5649","1","22","Female","approach_avoid_spark_v1","""event"",""trial"",""time""
""fullscreenenter"",""1"",""1375""
","
","
","""event"",""trial"",""time""
""fullscreenenter"",""1"",""1375""
","
","","","","","","959.2000000178814","<p> <b> True or False? </b> </p><p> You will have as much time as you want to make each choice. </p>","","1","comp_question","","","","","","","","","true","",""
"comp-q","55","359411","0.0-8.0-7.0-1.0","5649","1","22","Female","approach_avoid_spark_v1","""event"",""trial"",""time""
""fullscreenenter"",""1"",""1375""
","
","
","""event"",""trial"",""time""
""fullscreenenter"",""1"",""1375""
","
","","","","","","1602.300000011921","<p> <b> That's right! </b> You will only have 3 seconds to make each choice. </p>","","0","comp_answer","","","","","","","","","","",""
"comp-q","56","366816","0.0-8.0-8.0-0.0","5649","1","22","Female","approach_avoid_spark_v1","""event"",""trial"",""time""
""fullscreenenter"",""1"",""1375""
","
","
","""event"",""trial"",""time""
""fullscreenenter"",""1"",""1375""
","
","","","","","","2746.2999999821186","<p> <b> True or False? </b> </p><p> You should use the '1' and '0' keys to make your choices. </p>","","0","comp_question","","","","","","","","","true","",""
"comp-q","57","373407","0.0-8.0-8.0-1.0","5649","1","22","Female","approach_avoid_spark_v1","""event"",""trial"",""time""
""fullscreenenter"",""1"",""1375""
","
","
","""event"",""trial"",""time""
""fullscreenenter"",""1"",""1375""
","
","","","","","","1977.800000011921","<p> <b> That's right! </b> You should use the '1' and '0' keys to make each choice. </p>","","0","comp_answer","","","","","","","","","","",""
"learning-instructions","58","384225","0.0-8.0-9.0-0.0","5649","1","22","Female","approach_avoid_spark_v1","""event"",""trial"",""time""
""fullscreenenter"",""1"",""1375""
","
","
","""event"",""trial"",""time""
""fullscreenenter"",""1"",""1375""
","
","","","","","","4539.5","<p> It's now time to start the real game. </p>Do your best, because the points you earn in the next rounds will influence your bonus payment. </p>","","0","instructions","","","","","","","","","","",""
"preload","59","384351","0.0-9.0-0.0","5649","1","22","Female","approach_avoid_spark_v1","""event"",""trial"",""time""
""fullscreenenter"",""1"",""1375""
","
","
","""event"",""trial"",""time""
""fullscreenenter"",""1"",""1375""
","
","true","false","[]","[]","[]","","","","","","","","","","","","","","","",""
"learning-instructions","60","388798","0.0-9.0-1.0-0.0","5649","1","22","Female","approach_avoid_spark_v1","""event"",""trial"",""time""
""fullscreenenter"",""1"",""1375""
","
","
","""event"",""trial"",""time""
""fullscreenenter"",""1"",""1375""
","
","","","","","","420.2000000178814","<p> Your goal in this round is to take care of lots of farm animals. </p></div>","","0","instructions","","","","","","","","","","",""
"learning-instructions","61","398866","0.0-9.0-1.0-0.1","5649","1","22","Female","approach_avoid_spark_v1","""event"",""trial"",""time""
""fullscreenenter"",""1"",""1375""
","
","
","""event"",""trial"",""time""
""fullscreenenter"",""1"",""1375""
","
","","","","","","460.7999999821186","<p> Some farm animals are hungry, while other farm animals are already full.  </p><p> On each turn, you will see a farm animal.   </p><p> You need to decide whether to feed it or not.  </p>","","0","instructions","","","","","","","","","","",""
"learning-instructions","62","405732","0.0-9.0-1.0-0.2","5649","1","22","Female","approach_avoid_spark_v1","""event"",""trial"",""time""
""fullscreenenter"",""1"",""1375""
""blur"",""63"",""411147""
""focus"",""63"",""412675""
","""event"",""trial"",""time""
""blur"",""63"",""411147""
","""event"",""trial"",""time""
""focus"",""63"",""412675""
","""event"",""trial"",""time""
""fullscreenenter"",""1"",""1375""
","
","","","","","","1230.5999999940395","<p> You can feed the farm animal by pressing 1 and leave the farm animal alone by pressing 0. </p><br><div class=""choice-instructions-grid""> <div class=""choice-option""><img src=""images/approach.png"" class=""choice-option-img"" stage=""instructions"" position=""0"" ><div class=""choice-option-text""> Press ""1."" </div></div><div class=""choice-option""><img src=""images/avoid.png"" class=""choice-option-img"" stage=""instructions"" position=""1"" ><div class=""choice-option-text""> Press ""0."" </div></div>","","0","instructions","","","","","","","","","","",""
"learning-instructions","63","416438","0.0-9.0-1.0-0.3","5649","1","22","Female","approach_avoid_spark_v1","""event"",""trial"",""time""
""fullscreenenter"",""1"",""1375""
""blur"",""63"",""411147""
""focus"",""63"",""412675""
","""event"",""trial"",""time""
""blur"",""63"",""411147""
","""event"",""trial"",""time""
""focus"",""63"",""412675""
","""event"",""trial"",""time""
""fullscreenenter"",""1"",""1375""
","
","","","","","","1483.0999999940395","<p> If you feed a hungry farm animal, you will make it feel satisfied! </p><p> But if you feed the farm animal and it was already full, you will make it feel sick. </p>","","0","instructions","","","","","","","","","","",""
"learning-instructions","64","429026","0.0-9.0-1.0-0.4","5649","1","22","Female","approach_avoid_spark_v1","""event"",""trial"",""time""
""fullscreenenter"",""1"",""1375""
""blur"",""63"",""411147""
""focus"",""63"",""412675""
""blur"",""65"",""433858""
""focus"",""65"",""434627""
""blur"",""65"",""435848""
""focus"",""65"",""437096""
","""event"",""trial"",""time""
""blur"",""63"",""411147""
""blur"",""65"",""433858""
""blur"",""65"",""435848""
","""event"",""trial"",""time""
""focus"",""63"",""412675""
""focus"",""65"",""434627""
""focus"",""65"",""437096""
","""event"",""trial"",""time""
""fullscreenenter"",""1"",""1375""
","
","","","","","","577.5","<p> You will earn points based on how you made the farm animal feel. </p><p> If you made it satisfied, you will WIN anywhere from 1 - 9 points, </p><p> but if you made it sick, you will LOSE anywhere from 1 - 9 points. </p>","","0","instructions","","","","","","","","","","",""
"learning-instructions","65","437677","0.0-9.0-1.0-0.5","5649","1","22","Female","approach_avoid_spark_v1","""event"",""trial"",""time""
""fullscreenenter"",""1"",""1375""
""blur"",""63"",""411147""
""focus"",""63"",""412675""
""blur"",""65"",""433858""
""focus"",""65"",""434627""
""blur"",""65"",""435848""
""focus"",""65"",""437096""
","""event"",""trial"",""time""
""blur"",""63"",""411147""
""blur"",""65"",""433858""
""blur"",""65"",""435848""
","""event"",""trial"",""time""
""focus"",""63"",""412675""
""focus"",""65"",""434627""
""focus"",""65"",""437096""
","""event"",""trial"",""time""
""fullscreenenter"",""1"",""1375""
","
","","","","","","1383","<p> You will see how many points you won or lost in the center of the screen. </p><p> Here is what you would see if you won 5 points: </p><p style=""color:green;font-size:50px;font-weight:bolder"">5</p>","","0","instructions","","","","","","","","","","",""
"learning-instructions","66","441138","0.0-9.0-1.0-0.6","5649","1","22","Female","approach_avoid_spark_v1","""event"",""trial"",""time""
""fullscreenenter"",""1"",""1375""
""blur"",""63"",""411147""
""focus"",""63"",""412675""
""blur"",""65"",""433858""
""focus"",""65"",""434627""
""blur"",""65"",""435848""
""focus"",""65"",""437096""
","""event"",""trial"",""time""
""blur"",""63"",""411147""
""blur"",""65"",""433858""
""blur"",""65"",""435848""
","""event"",""trial"",""time""
""focus"",""63"",""412675""
""focus"",""65"",""434627""
""focus"",""65"",""437096""
","""event"",""trial"",""time""
""fullscreenenter"",""1"",""1375""
","
","","","","","","172.90000000596046","<p> And here is what you would see if you lost 3 points: </p><p style=""color:red;font-size:50px;font-weight:bolder"">-3</p>","","0","instructions","","","","","","","","","","",""
"learning-instructions","67","457959","0.0-9.0-1.0-0.7","5649","1","22","Female","approach_avoid_spark_v1","""event"",""trial"",""time""
""fullscreenenter"",""1"",""1375""
""blur"",""63"",""411147""
""focus"",""63"",""412675""
""blur"",""65"",""433858""
""focus"",""65"",""434627""
""blur"",""65"",""435848""
""focus"",""65"",""437096""
","""event"",""trial"",""time""
""blur"",""63"",""411147""
""blur"",""65"",""433858""
""blur"",""65"",""435848""
","""event"",""trial"",""time""
""focus"",""63"",""412675""
""focus"",""65"",""434627""
""focus"",""65"",""437096""
","""event"",""trial"",""time""
""fullscreenenter"",""1"",""1375""
","
","","","","","","1697.6000000238419","<p> Some farm animals will become very satisfied or very sick. </p><p> These farm animals will make you win or lose LOTS of points. </p><p> Other farm animals have less strong feelings. </p><p> These farm animals will make you win or lose small amounts of points. </p>","","0","instructions","","","","","","","","","","",""
"learning-instructions","68","470052","0.0-9.0-1.0-0.8","5649","1","22","Female","approach_avoid_spark_v1","""event"",""trial"",""time""
""fullscreenenter"",""1"",""1375""
""blur"",""63"",""411147""
""focus"",""63"",""412675""
""blur"",""65"",""433858""
""focus"",""65"",""434627""
""blur"",""65"",""435848""
""focus"",""65"",""437096""
","""event"",""trial"",""time""
""blur"",""63"",""411147""
""blur"",""65"",""433858""
""blur"",""65"",""435848""
","""event"",""trial"",""time""
""focus"",""63"",""412675""
""focus"",""65"",""434627""
""focus"",""65"",""437096""
","""event"",""trial"",""time""
""fullscreenenter"",""1"",""1375""
","
","","","","","","392.69999998807907","<p> If you choose to leave the farm animal alone, you will not win or lose any points. </p><p>  However, in the center of the screen, you will see the number of points you WOULD HAVE won or lost if you had fed the farm animal. </p>","","0","instructions","","","","","","","","","","",""
"learning-instructions","69","481639","0.0-9.0-1.0-0.9","5649","1","22","Female","approach_avoid_spark_v1","""event"",""trial"",""time""
""fullscreenenter"",""1"",""1375""
""blur"",""63"",""411147""
""focus"",""63"",""412675""
""blur"",""65"",""433858""
""focus"",""65"",""434627""
""blur"",""65"",""435848""
""focus"",""65"",""437096""
","""event"",""trial"",""time""
""blur"",""63"",""411147""
""blur"",""65"",""433858""
""blur"",""65"",""435848""
","""event"",""trial"",""time""
""focus"",""63"",""412675""
""focus"",""65"",""434627""
""focus"",""65"",""437096""
","""event"",""trial"",""time""
""fullscreenenter"",""1"",""1375""
","
","","","","","","524","<p> Here is what you might see if you did not feed the farm animal but the animal was hungry: </p><p style=""color:grey; font-size:50px; display: inline-block; border-spacing: 15px; border-width:3px; border-style:solid; border-color:red"">  &nbsp; 6 &nbsp; </p><p> Remember, in this case, you would not win or lose ANY points because you did not feed the farm animal.  </p>","","0","instructions","","","","","","","","","","",""
"learning-instructions","70","489942","0.0-9.0-1.0-0.10","5649","1","22","Female","approach_avoid_spark_v1","""event"",""trial"",""time""
""fullscreenenter"",""1"",""1375""
""blur"",""63"",""411147""
""focus"",""63"",""412675""
""blur"",""65"",""433858""
""focus"",""65"",""434627""
""blur"",""65"",""435848""
""focus"",""65"",""437096""
","""event"",""trial"",""time""
""blur"",""63"",""411147""
""blur"",""65"",""433858""
""blur"",""65"",""435848""
","""event"",""trial"",""time""
""focus"",""63"",""412675""
""focus"",""65"",""434627""
""focus"",""65"",""437096""
","""event"",""trial"",""time""
""fullscreenenter"",""1"",""1375""
","
","","","","","","768.4000000059605","<p> Try to make the best choice for each farm animal because </p><p> at the end of the game, you will earn bonus money based on how many points you earned. </p>","","0","instructions","","","","","","","","","","",""
"learning-instructions","71","498669","0.0-9.0-1.0-0.11","5649","1","22","Female","approach_avoid_spark_v1","""event"",""trial"",""time""
""fullscreenenter"",""1"",""1375""
""blur"",""63"",""411147""
""focus"",""63"",""412675""
""blur"",""65"",""433858""
""focus"",""65"",""434627""
""blur"",""65"",""435848""
""focus"",""65"",""437096""
","""event"",""trial"",""time""
""blur"",""63"",""411147""
""blur"",""65"",""433858""
""blur"",""65"",""435848""
","""event"",""trial"",""time""
""focus"",""63"",""412675""
""focus"",""65"",""434627""
""focus"",""65"",""437096""
","""event"",""trial"",""time""
""fullscreenenter"",""1"",""1375""
","
","","","","","","530.1999999880791","<p> You will have 3 seconds to make each choice. Try to respond before time runs out! </p><p> You will lose 5 points each time you do not make a response. </p>","","0","instructions","","","","","","","","","","",""
"html-keyboard-response","72","499275","0.0-9.0-2.0-0.0","5649","1","22","Female","approach_avoid_spark_v1","""event"",""trial"",""time""
""fullscreenenter"",""1"",""1375""
""blur"",""63"",""411147""
""focus"",""63"",""412675""
""blur"",""65"",""433858""
""focus"",""65"",""434627""
""blur"",""65"",""435848""
""focus"",""65"",""437096""
","""event"",""trial"",""time""
""blur"",""63"",""411147""
""blur"",""65"",""433858""
""blur"",""65"",""435848""
","""event"",""trial"",""time""
""focus"",""63"",""412675""
""focus"",""65"",""434627""
""focus"",""65"",""437096""
","""event"",""trial"",""time""
""fullscreenenter"",""1"",""1375""
","
","","","","","","null","<div style=""font-size:60px;"">+</div>","null","","fixation","","","","","","","","","","",""
"aa-learning-trial","73","502284","0.0-9.0-2.0-1.0","5649","1","22","Female","approach_avoid_spark_v1","""event"",""trial"",""time""
""fullscreenenter"",""1"",""1375""
""blur"",""63"",""411147""
""focus"",""63"",""412675""
""blur"",""65"",""433858""
""focus"",""65"",""434627""
""blur"",""65"",""435848""
""focus"",""65"",""437096""
","""event"",""trial"",""time""
""blur"",""63"",""411147""
""blur"",""65"",""433858""
""blur"",""65"",""435848""
","""event"",""trial"",""time""
""focus"",""63"",""412675""
""focus"",""65"",""434627""
""focus"",""65"",""437096""
","""event"",""trial"",""time""
""fullscreenenter"",""1"",""1375""
","
","","","","","","1346.5","images/sheep6.png","","","learning","-2","-2","1","1","sheep","animals","1","0","","neutral","0"
"html-keyboard-response","74","502795","0.0-9.0-2.0-0.1","5649","1","22","Female","approach_avoid_spark_v1","""event"",""trial"",""time""
""fullscreenenter"",""1"",""1375""
""blur"",""63"",""411147""
""focus"",""63"",""412675""
""blur"",""65"",""433858""
""focus"",""65"",""434627""
""blur"",""65"",""435848""
""focus"",""65"",""437096""
","""event"",""trial"",""time""
""blur"",""63"",""411147""
""blur"",""65"",""433858""
""blur"",""65"",""435848""
","""event"",""trial"",""time""
""focus"",""63"",""412675""
""focus"",""65"",""434627""
""focus"",""65"",""437096""
","""event"",""trial"",""time""
""fullscreenenter"",""1"",""1375""
","
","","","","","","null","<div style=""font-size:60px;"">+</div>","null","","fixation","","","","","","","","","","",""
"aa-learning-trial","75","505803","0.0-9.0-2.0-1.1","5649","1","22","Female","approach_avoid_spark_v1","""event"",""trial"",""time""
""fullscreenenter"",""1"",""1375""
""blur"",""63"",""411147""
""focus"",""63"",""412675""
""blur"",""65"",""433858""
""focus"",""65"",""434627""
""blur"",""65"",""435848""
""focus"",""65"",""437096""
","""event"",""trial"",""time""
""blur"",""63"",""411147""
""blur"",""65"",""433858""
""blur"",""65"",""435848""
","""event"",""trial"",""time""
""focus"",""63"",""412675""
""focus"",""65"",""434627""
""focus"",""65"",""437096""
","""event"",""trial"",""time""
""fullscreenenter"",""1"",""1375""
","
","","","","","","1014","images/goat4.png","","","learning","7","-5","q","","goat","animals","1","0","","good","[4]"
"html-keyboard-response","76","506307","0.0-9.0-2.0-0.2","5649","1","22","Female","approach_avoid_spark_v1","""event"",""trial"",""time""
""fullscreenenter"",""1"",""1375""
""blur"",""63"",""411147""
""focus"",""63"",""412675""
""blur"",""65"",""433858""
""focus"",""65"",""434627""
""blur"",""65"",""435848""
""focus"",""65"",""437096""
","""event"",""trial"",""time""
""blur"",""63"",""411147""
""blur"",""65"",""433858""
""blur"",""65"",""435848""
","""event"",""trial"",""time""
""focus"",""63"",""412675""
""focus"",""65"",""434627""
""focus"",""65"",""437096""
","""event"",""trial"",""time""
""fullscreenenter"",""1"",""1375""
","
","","","","","","null","<div style=""font-size:60px;"">+</div>","null","","fixation","","","","","","","","","","",""
"aa-learning-trial","77","509315","0.0-9.0-2.0-1.2","5649","1","22","Female","approach_avoid_spark_v1","""event"",""trial"",""time""
""fullscreenenter"",""1"",""1375""
""blur"",""63"",""411147""
""focus"",""63"",""412675""
""blur"",""65"",""433858""
""focus"",""65"",""434627""
""blur"",""65"",""435848""
""focus"",""65"",""437096""
","""event"",""trial"",""time""
""blur"",""63"",""411147""
""blur"",""65"",""433858""
""blur"",""65"",""435848""
","""event"",""trial"",""time""
""focus"",""63"",""412675""
""focus"",""65"",""434627""
""focus"",""65"",""437096""
","""event"",""trial"",""time""
""fullscreenenter"",""1"",""1375""
","
","","","","","","1608.699999988079","images/goat3.png","","","learning","4","4","1","1","goat","animals","1","0","","good","[4]"
"html-keyboard-response","78","509820","0.0-9.0-2.0-0.3","5649","1","22","Female","approach_avoid_spark_v1","""event"",""trial"",""time""
""fullscreenenter"",""1"",""1375""
""blur"",""63"",""411147""
""focus"",""63"",""412675""
""blur"",""65"",""433858""
""focus"",""65"",""434627""
""blur"",""65"",""435848""
""focus"",""65"",""437096""
","""event"",""trial"",""time""
""blur"",""63"",""411147""
""blur"",""65"",""433858""
""blur"",""65"",""435848""
","""event"",""trial"",""time""
""focus"",""63"",""412675""
""focus"",""65"",""434627""
""focus"",""65"",""437096""
","""event"",""trial"",""time""
""fullscreenenter"",""1"",""1375""
","
","","","","","","null","<div style=""font-size:60px;"">+</div>","null","","fixation","","","","","","","","","","",""
"aa-learning-trial","79","512829","0.0-9.0-2.0-1.3","5649","1","22","Female","approach_avoid_spark_v1","""event"",""trial"",""time""
""fullscreenenter"",""1"",""1375""
""blur"",""63"",""411147""
""focus"",""63"",""412675""
""blur"",""65"",""433858""
""focus"",""65"",""434627""
""blur"",""65"",""435848""
""focus"",""65"",""437096""
","""event"",""trial"",""time""
""blur"",""63"",""411147""
""blur"",""65"",""433858""
""blur"",""65"",""435848""
","""event"",""trial"",""time""
""focus"",""63"",""412675""
""focus"",""65"",""434627""
""focus"",""65"",""437096""
","""event"",""trial"",""time""
""fullscreenenter"",""1"",""1375""
","
","","","","","","1201.7999999821186","images/cow3.png","","","learning","-2","-2","1","1","cow","animals","1","0","","bad","[-3]"
"html-keyboard-response","80","513343","0.0-9.0-2.0-0.4","5649","1","22","Female","approach_avoid_spark_v1","""event"",""trial"",""time""
""fullscreenenter"",""1"",""1375""
""blur"",""63"",""411147""
""focus"",""63"",""412675""
""blur"",""65"",""433858""
""focus"",""65"",""434627""
""blur"",""65"",""435848""
""focus"",""65"",""437096""
","""event"",""trial"",""time""
""blur"",""63"",""411147""
""blur"",""65"",""433858""
""blur"",""65"",""435848""
","""event"",""trial"",""time""
""focus"",""63"",""412675""
""focus"",""65"",""434627""
""focus"",""65"",""437096""
","""event"",""trial"",""time""
""fullscreenenter"",""1"",""1375""
","
","","","","","","null","<div style=""font-size:60px;"">+</div>","null","","fixation","","","","","","","","","","",""
"aa-learning-trial","81","516357","0.0-9.0-2.0-1.4","5649","1","22","Female","approach_avoid_spark_v1","""event"",""trial"",""time""
""fullscreenenter"",""1"",""1375""
""blur"",""63"",""411147""
""focus"",""63"",""412675""
""blur"",""65"",""433858""
""focus"",""65"",""434627""
""blur"",""65"",""435848""
""focus"",""65"",""437096""
","""event"",""trial"",""time""
""blur"",""63"",""411147""
""blur"",""65"",""433858""
""blur"",""65"",""435848""
","""event"",""trial"",""time""
""focus"",""63"",""412675""
""focus"",""65"",""434627""
""focus"",""65"",""437096""
","""event"",""trial"",""time""
""fullscreenenter"",""1"",""1375""
","
","","","","","","1725.1000000238419","images/sheep3.png","","","learning","1","1","1","1","sheep","animals","1","0","","neutral","0"
"html-keyboard-response","82","516870","0.0-9.0-2.0-0.5","5649","1","22","Female","approach_avoid_spark_v1","""event"",""trial"",""time""
""fullscreenenter"",""1"",""1375""
""blur"",""63"",""411147""
""focus"",""63"",""412675""
""blur"",""65"",""433858""
""focus"",""65"",""434627""
""blur"",""65"",""435848""
""focus"",""65"",""437096""
","""event"",""trial"",""time""
""blur"",""63"",""411147""
""blur"",""65"",""433858""
""blur"",""65"",""435848""
","""event"",""trial"",""time""
""focus"",""63"",""412675""
""focus"",""65"",""434627""
""focus"",""65"",""437096""
","""event"",""trial"",""time""
""fullscreenenter"",""1"",""1375""
","
","","","","","","null","<div style=""font-size:60px;"">+</div>","null","","fixation","","","","","","","","","","",""
"aa-learning-trial","83","519879","0.0-9.0-2.0-1.5","5649","1","22","Female","approach_avoid_spark_v1","""event"",""trial"",""time""
""fullscreenenter"",""1"",""1375""
""blur"",""63"",""411147""
""focus"",""63"",""412675""
""blur"",""65"",""433858""
""focus"",""65"",""434627""
""blur"",""65"",""435848""
""focus"",""65"",""437096""
","""event"",""trial"",""time""
""blur"",""63"",""411147""
""blur"",""65"",""433858""
""blur"",""65"",""435848""
","""event"",""trial"",""time""
""focus"",""63"",""412675""
""focus"",""65"",""434627""
""focus"",""65"",""437096""
","""event"",""trial"",""time""
""fullscreenenter"",""1"",""1375""
","
","","","","","","631.8000000119209","images/sheep2.png","","","learning","-2","-2","1","1","sheep","animals","1","0","","neutral","0"
"html-keyboard-response","84","520391","0.0-9.0-2.0-0.6","5649","1","22","Female","approach_avoid_spark_v1","""event"",""trial"",""time""
""fullscreenenter"",""1"",""1375""
""blur"",""63"",""411147""
""focus"",""63"",""412675""
""blur"",""65"",""433858""
""focus"",""65"",""434627""
""blur"",""65"",""435848""
""focus"",""65"",""437096""
","""event"",""trial"",""time""
""blur"",""63"",""411147""
""blur"",""65"",""433858""
""blur"",""65"",""435848""
","""event"",""trial"",""time""
""focus"",""63"",""412675""
""focus"",""65"",""434627""
""focus"",""65"",""437096""
","""event"",""trial"",""time""
""fullscreenenter"",""1"",""1375""
","
","","","","","","null","<div style=""font-size:60px;"">+</div>","null","","fixation","","","","","","","","","","",""
"aa-learning-trial","85","523402","0.0-9.0-2.0-1.6","5649","1","22","Female","approach_avoid_spark_v1","""event"",""trial"",""time""
""fullscreenenter"",""1"",""1375""
""blur"",""63"",""411147""
""focus"",""63"",""412675""
""blur"",""65"",""433858""
""focus"",""65"",""434627""
""blur"",""65"",""435848""
""focus"",""65"",""437096""
","""event"",""trial"",""time""
""blur"",""63"",""411147""
""blur"",""65"",""433858""
""blur"",""65"",""435848""
","""event"",""trial"",""time""
""focus"",""63"",""412675""
""focus"",""65"",""434627""
""focus"",""65"",""437096""
","""event"",""trial"",""time""
""fullscreenenter"",""1"",""1375""
","
","","","","","","688","images/sheep6.png","","","learning","2","2","1","1","sheep","animals","1","0","","neutral","0"
"html-keyboard-response","86","523911","0.0-9.0-2.0-0.7","5649","1","22","Female","approach_avoid_spark_v1","""event"",""trial"",""time""
""fullscreenenter"",""1"",""1375""
""blur"",""63"",""411147""
""focus"",""63"",""412675""
""blur"",""65"",""433858""
""focus"",""65"",""434627""
""blur"",""65"",""435848""
""focus"",""65"",""437096""
","""event"",""trial"",""time""
""blur"",""63"",""411147""
""blur"",""65"",""433858""
""blur"",""65"",""435848""
","""event"",""trial"",""time""
""focus"",""63"",""412675""
""focus"",""65"",""434627""
""focus"",""65"",""437096""
","""event"",""trial"",""time""
""fullscreenenter"",""1"",""1375""
","
","","","","","","null","<div style=""font-size:60px;"">+</div>","null","","fixation","","","","","","","","","","",""
"aa-learning-trial","87","526922","0.0-9.0-2.0-1.7","5649","1","22","Female","approach_avoid_spark_v1","""event"",""trial"",""time""
""fullscreenenter"",""1"",""1375""
""blur"",""63"",""411147""
""focus"",""63"",""412675""
""blur"",""65"",""433858""
""focus"",""65"",""434627""
""blur"",""65"",""435848""
""focus"",""65"",""437096""
","""event"",""trial"",""time""
""blur"",""63"",""411147""
""blur"",""65"",""433858""
""blur"",""65"",""435848""
","""event"",""trial"",""time""
""focus"",""63"",""412675""
""focus"",""65"",""434627""
""focus"",""65"",""437096""
","""event"",""trial"",""time""
""fullscreenenter"",""1"",""1375""
","
","","","","","","1339.0999999940395","images/goat3.png","","","learning","3","3","1","1","goat","animals","1","0","","good","[4]"
"html-keyboard-response","88","527430","0.0-9.0-2.0-0.8","5649","1","22","Female","approach_avoid_spark_v1","""event"",""trial"",""time""
""fullscreenenter"",""1"",""1375""
""blur"",""63"",""411147""
""focus"",""63"",""412675""
""blur"",""65"",""433858""
""focus"",""65"",""434627""
""blur"",""65"",""435848""
""focus"",""65"",""437096""
","""event"",""trial"",""time""
""blur"",""63"",""411147""
""blur"",""65"",""433858""
""blur"",""65"",""435848""
","""event"",""trial"",""time""
""focus"",""63"",""412675""
""focus"",""65"",""434627""
""focus"",""65"",""437096""
","""event"",""trial"",""time""
""fullscreenenter"",""1"",""1375""
","
","","","","","","null","<div style=""font-size:60px;"">+</div>","null","","fixation","","","","","","","","","","",""
"aa-learning-trial","89","530438","0.0-9.0-2.0-1.8","5649","1","22","Female","approach_avoid_spark_v1","""event"",""trial"",""time""
""fullscreenenter"",""1"",""1375""
""blur"",""63"",""411147""
""focus"",""63"",""412675""
""blur"",""65"",""433858""
""focus"",""65"",""434627""
""blur"",""65"",""435848""
""focus"",""65"",""437096""
","""event"",""trial"",""time""
""blur"",""63"",""411147""
""blur"",""65"",""433858""
""blur"",""65"",""435848""
","""event"",""trial"",""time""
""focus"",""63"",""412675""
""focus"",""65"",""434627""
""focus"",""65"",""437096""
","""event"",""trial"",""time""
""fullscreenenter"",""1"",""1375""
","
","","","","","","802.5","images/cow7.png","","","learning","-2","-2","1","1","cow","animals","1","0","","bad","[-3]"
"html-keyboard-response","90","530949","0.0-9.0-2.0-0.9","5649","1","22","Female","approach_avoid_spark_v1","""event"",""trial"",""time""
""fullscreenenter"",""1"",""1375""
""blur"",""63"",""411147""
""focus"",""63"",""412675""
""blur"",""65"",""433858""
""focus"",""65"",""434627""
""blur"",""65"",""435848""
""focus"",""65"",""437096""
","""event"",""trial"",""time""
""blur"",""63"",""411147""
""blur"",""65"",""433858""
""blur"",""65"",""435848""
","""event"",""trial"",""time""
""focus"",""63"",""412675""
""focus"",""65"",""434627""
""focus"",""65"",""437096""
","""event"",""trial"",""time""
""fullscreenenter"",""1"",""1375""
","
","","","","","","null","<div style=""font-size:60px;"">+</div>","null","","fixation","","","","","","","","","","",""
"aa-learning-trial","91","533954","0.0-9.0-2.0-1.9","5649","1","22","Female","approach_avoid_spark_v1","""event"",""trial"",""time""
""fullscreenenter"",""1"",""1375""
""blur"",""63"",""411147""
""focus"",""63"",""412675""
""blur"",""65"",""433858""
""focus"",""65"",""434627""
""blur"",""65"",""435848""
""focus"",""65"",""437096""
","""event"",""trial"",""time""
""blur"",""63"",""411147""
""blur"",""65"",""433858""
""blur"",""65"",""435848""
","""event"",""trial"",""time""
""focus"",""63"",""412675""
""focus"",""65"",""434627""
""focus"",""65"",""437096""
","""event"",""trial"",""time""
""fullscreenenter"",""1"",""1375""
","
","","","","","","637.9000000059605","images/sheep2.png","","","learning","1","1","1","1","sheep","animals","1","0","","neutral","0"
"html-keyboard-response","92","534458","0.0-9.0-2.0-0.10","5649","1","22","Female","approach_avoid_spark_v1","""event"",""trial"",""time""
""fullscreenenter"",""1"",""1375""
""blur"",""63"",""411147""
""focus"",""63"",""412675""
""blur"",""65"",""433858""
""focus"",""65"",""434627""
""blur"",""65"",""435848""
""focus"",""65"",""437096""
","""event"",""trial"",""time""
""blur"",""63"",""411147""
""blur"",""65"",""433858""
""blur"",""65"",""435848""
","""event"",""trial"",""time""
""focus"",""63"",""412675""
""focus"",""65"",""434627""
""focus"",""65"",""437096""
","""event"",""trial"",""time""
""fullscreenenter"",""1"",""1375""
","
","","","","","","null","<div style=""font-size:60px;"">+</div>","null","","fixation","","","","","","","","","","",""
"aa-learning-trial","93","537467","0.0-9.0-2.0-1.10","5649","1","22","Female","approach_avoid_spark_v1","""event"",""trial"",""time""
""fullscreenenter"",""1"",""1375""
""blur"",""63"",""411147""
""focus"",""63"",""412675""
""blur"",""65"",""433858""
""focus"",""65"",""434627""
""blur"",""65"",""435848""
""focus"",""65"",""437096""
","""event"",""trial"",""time""
""blur"",""63"",""411147""
""blur"",""65"",""433858""
""blur"",""65"",""435848""
","""event"",""trial"",""time""
""focus"",""63"",""412675""
""focus"",""65"",""434627""
""focus"",""65"",""437096""
","""event"",""trial"",""time""
""fullscreenenter"",""1"",""1375""
","
","","","","","","551.3000000119209","images/cow3.png","","","learning","2","0","0","0","cow","animals","1","0","","bad","[-3]"
"html-keyboard-response","94","537972","0.0-9.0-2.0-0.11","5649","1","22","Female","approach_avoid_spark_v1","""event"",""trial"",""time""
""fullscreenenter"",""1"",""1375""
""blur"",""63"",""411147""
""focus"",""63"",""412675""
""blur"",""65"",""433858""
""focus"",""65"",""434627""
""blur"",""65"",""435848""
""focus"",""65"",""437096""
","""event"",""trial"",""time""
""blur"",""63"",""411147""
""blur"",""65"",""433858""
""blur"",""65"",""435848""
","""event"",""trial"",""time""
""focus"",""63"",""412675""
""focus"",""65"",""434627""
""focus"",""65"",""437096""
","""event"",""trial"",""time""
""fullscreenenter"",""1"",""1375""
","
","","","","","","null","<div style=""font-size:60px;"">+</div>","null","","fixation","","","","","","","","","","",""
"aa-learning-trial","95","540982","0.0-9.0-2.0-1.11","5649","1","22","Female","approach_avoid_spark_v1","""event"",""trial"",""time""
""fullscreenenter"",""1"",""1375""
""blur"",""63"",""411147""
""focus"",""63"",""412675""
""blur"",""65"",""433858""
""focus"",""65"",""434627""
""blur"",""65"",""435848""
""focus"",""65"",""437096""
","""event"",""trial"",""time""
""blur"",""63"",""411147""
""blur"",""65"",""433858""
""blur"",""65"",""435848""
","""event"",""trial"",""time""
""focus"",""63"",""412675""
""focus"",""65"",""434627""
""focus"",""65"",""437096""
","""event"",""trial"",""time""
""fullscreenenter"",""1"",""1375""
","
","","","","","","840.9000000059605","images/cow4.png","","","learning","-5","0","0","0","cow","animals","1","0","","bad","[-3]"
"html-keyboard-response","96","541493","0.0-9.0-2.0-0.12","5649","1","22","Female","approach_avoid_spark_v1","""event"",""trial"",""time""
""fullscreenenter"",""1"",""1375""
""blur"",""63"",""411147""
""focus"",""63"",""412675""
""blur"",""65"",""433858""
""focus"",""65"",""434627""
""blur"",""65"",""435848""
""focus"",""65"",""437096""
","""event"",""trial"",""time""
""blur"",""63"",""411147""
""blur"",""65"",""433858""
""blur"",""65"",""435848""
","""event"",""trial"",""time""
""focus"",""63"",""412675""
""focus"",""65"",""434627""
""focus"",""65"",""437096""
","""event"",""trial"",""time""
""fullscreenenter"",""1"",""1375""
","
","","","","","","null","<div style=""font-size:60px;"">+</div>","null","","fixation","","","","","","","","","","",""
"aa-learning-trial","97","544502","0.0-9.0-2.0-1.12","5649","1","22","Female","approach_avoid_spark_v1","""event"",""trial"",""time""
""fullscreenenter"",""1"",""1375""
""blur"",""63"",""411147""
""focus"",""63"",""412675""
""blur"",""65"",""433858""
""focus"",""65"",""434627""
""blur"",""65"",""435848""
""focus"",""65"",""437096""
","""event"",""trial"",""time""
""blur"",""63"",""411147""
""blur"",""65"",""433858""
""blur"",""65"",""435848""
","""event"",""trial"",""time""
""focus"",""63"",""412675""
""focus"",""65"",""434627""
""focus"",""65"",""437096""
","""event"",""trial"",""time""
""fullscreenenter"",""1"",""1375""
","
","","","","","","544.5999999940395","images/cow7.png","","","learning","-4","0","0","0","cow","animals","1","0","","bad","[-3]"
"html-keyboard-response","98","545011","0.0-9.0-2.0-0.13","5649","1","22","Female","approach_avoid_spark_v1","""event"",""trial"",""time""
""fullscreenenter"",""1"",""1375""
""blur"",""63"",""411147""
""focus"",""63"",""412675""
""blur"",""65"",""433858""
""focus"",""65"",""434627""
""blur"",""65"",""435848""
""focus"",""65"",""437096""
","""event"",""trial"",""time""
""blur"",""63"",""411147""
""blur"",""65"",""433858""
""blur"",""65"",""435848""
","""event"",""trial"",""time""
""focus"",""63"",""412675""
""focus"",""65"",""434627""
""focus"",""65"",""437096""
","""event"",""trial"",""time""
""fullscreenenter"",""1"",""1375""
","
","","","","","","null","<div style=""font-size:60px;"">+</div>","null","","fixation","","","","","","","","","","",""
"aa-learning-trial","99","548022","0.0-9.0-2.0-1.13","5649","1","22","Female","approach_avoid_spark_v1","""event"",""trial"",""time""
""fullscreenenter"",""1"",""1375""
""blur"",""63"",""411147""
""focus"",""63"",""412675""
""blur"",""65"",""433858""
""focus"",""65"",""434627""
""blur"",""65"",""435848""
""focus"",""65"",""437096""
","""event"",""trial"",""time""
""blur"",""63"",""411147""
""blur"",""65"",""433858""
""blur"",""65"",""435848""
","""event"",""trial"",""time""
""focus"",""63"",""412675""
""focus"",""65"",""434627""
""focus"",""65"",""437096""
","""event"",""trial"",""time""
""fullscreenenter"",""1"",""1375""
","
","","","","","","820.5999999940395","images/goat8.png","","","learning","3","3","1","1","goat","animals","1","0","","good","[4]"
"html-keyboard-response","100","548533","0.0-9.0-2.0-0.14","5649","1","22","Female","approach_avoid_spark_v1","""event"",""trial"",""time""
""fullscreenenter"",""1"",""1375""
""blur"",""63"",""411147""
""focus"",""63"",""412675""
""blur"",""65"",""433858""
""focus"",""65"",""434627""
""blur"",""65"",""435848""
""focus"",""65"",""437096""
","""event"",""trial"",""time""
""blur"",""63"",""411147""
""blur"",""65"",""433858""
""blur"",""65"",""435848""
","""event"",""trial"",""time""
""focus"",""63"",""412675""
""focus"",""65"",""434627""
""focus"",""65"",""437096""
","""event"",""trial"",""time""
""fullscreenenter"",""1"",""1375""
","
","","","","","","null","<div style=""font-size:60px;"">+</div>","null","","fixation","","","","","","","","","","",""
"aa-learning-trial","101","551542","0.0-9.0-2.0-1.14","5649","1","22","Female","approach_avoid_spark_v1","""event"",""trial"",""time""
""fullscreenenter"",""1"",""1375""
""blur"",""63"",""411147""
""focus"",""63"",""412675""
""blur"",""65"",""433858""
""focus"",""65"",""434627""
""blur"",""65"",""435848""
""focus"",""65"",""437096""
","""event"",""trial"",""time""
""blur"",""63"",""411147""
""blur"",""65"",""433858""
""blur"",""65"",""435848""
","""event"",""trial"",""time""
""focus"",""63"",""412675""
""focus"",""65"",""434627""
""focus"",""65"",""437096""
","""event"",""trial"",""time""
""fullscreenenter"",""1"",""1375""
","
","","","","","","678.2000000178814","images/goat4.png","","","learning","5","5","1","1","goat","animals","1","0","","good","[4]"
"html-keyboard-response","102","552053","0.0-9.0-2.0-0.15","5649","1","22","Female","approach_avoid_spark_v1","""event"",""trial"",""time""
""fullscreenenter"",""1"",""1375""
""blur"",""63"",""411147""
""focus"",""63"",""412675""
""blur"",""65"",""433858""
""focus"",""65"",""434627""
""blur"",""65"",""435848""
""focus"",""65"",""437096""
","""event"",""trial"",""time""
""blur"",""63"",""411147""
""blur"",""65"",""433858""
""blur"",""65"",""435848""
","""event"",""trial"",""time""
""focus"",""63"",""412675""
""focus"",""65"",""434627""
""focus"",""65"",""437096""
","""event"",""trial"",""time""
""fullscreenenter"",""1"",""1375""
","
","","","","","","null","<div style=""font-size:60px;"">+</div>","null","","fixation","","","","","","","","","","",""
"aa-learning-trial","103","555062","0.0-9.0-2.0-1.15","5649","1","22","Female","approach_avoid_spark_v1","""event"",""trial"",""time""
""fullscreenenter"",""1"",""1375""
""blur"",""63"",""411147""
""focus"",""63"",""412675""
""blur"",""65"",""433858""
""focus"",""65"",""434627""
""blur"",""65"",""435848""
""focus"",""65"",""437096""
","""event"",""trial"",""time""
""blur"",""63"",""411147""
""blur"",""65"",""433858""
""blur"",""65"",""435848""
","""event"",""trial"",""time""
""focus"",""63"",""412675""
""focus"",""65"",""434627""
""focus"",""65"",""437096""
","""event"",""trial"",""time""
""fullscreenenter"",""1"",""1375""
","
","","","","","","525","images/goat3.png","","","learning","4","4","1","1","goat","animals","1","0","","good","[4]"
"html-keyboard-response","104","555573","0.0-9.0-2.0-0.16","5649","1","22","Female","approach_avoid_spark_v1","""event"",""trial"",""time""
""fullscreenenter"",""1"",""1375""
""blur"",""63"",""411147""
""focus"",""63"",""412675""
""blur"",""65"",""433858""
""focus"",""65"",""434627""
""blur"",""65"",""435848""
""focus"",""65"",""437096""
","""event"",""trial"",""time""
""blur"",""63"",""411147""
""blur"",""65"",""433858""
""blur"",""65"",""435848""
","""event"",""trial"",""time""
""focus"",""63"",""412675""
""focus"",""65"",""434627""
""focus"",""65"",""437096""
","""event"",""trial"",""time""
""fullscreenenter"",""1"",""1375""
","
","","","","","","null","<div style=""font-size:60px;"">+</div>","null","","fixation","","","","","","","","","","",""
"aa-learning-trial","105","558582","0.0-9.0-2.0-1.16","5649","1","22","Female","approach_avoid_spark_v1","""event"",""trial"",""time""
""fullscreenenter"",""1"",""1375""
""blur"",""63"",""411147""
""focus"",""63"",""412675""
""blur"",""65"",""433858""
""focus"",""65"",""434627""
""blur"",""65"",""435848""
""focus"",""65"",""437096""
","""event"",""trial"",""time""
""blur"",""63"",""411147""
""blur"",""65"",""433858""
""blur"",""65"",""435848""
","""event"",""trial"",""time""
""focus"",""63"",""412675""
""focus"",""65"",""434627""
""focus"",""65"",""437096""
","""event"",""trial"",""time""
""fullscreenenter"",""1"",""1375""
","
","","","","","","493.30000001192093","images/cow3.png","","","learning","-5","0","0","0","cow","animals","1","0","","bad","[-3]"
"html-keyboard-response","106","559093","0.0-9.0-2.0-0.17","5649","1","22","Female","approach_avoid_spark_v1","""event"",""trial"",""time""
""fullscreenenter"",""1"",""1375""
""blur"",""63"",""411147""
""focus"",""63"",""412675""
""blur"",""65"",""433858""
""focus"",""65"",""434627""
""blur"",""65"",""435848""
""focus"",""65"",""437096""
","""event"",""trial"",""time""
""blur"",""63"",""411147""
""blur"",""65"",""433858""
""blur"",""65"",""435848""
","""event"",""trial"",""time""
""focus"",""63"",""412675""
""focus"",""65"",""434627""
""focus"",""65"",""437096""
","""event"",""trial"",""time""
""fullscreenenter"",""1"",""1375""
","
","","","","","","null","<div style=""font-size:60px;"">+</div>","null","","fixation","","","","","","","","","","",""
"aa-learning-trial","107","562102","0.0-9.0-2.0-1.17","5649","1","22","Female","approach_avoid_spark_v1","""event"",""trial"",""time""
""fullscreenenter"",""1"",""1375""
""blur"",""63"",""411147""
""focus"",""63"",""412675""
""blur"",""65"",""433858""
""focus"",""65"",""434627""
""blur"",""65"",""435848""
""focus"",""65"",""437096""
","""event"",""trial"",""time""
""blur"",""63"",""411147""
""blur"",""65"",""433858""
""blur"",""65"",""435848""
","""event"",""trial"",""time""
""focus"",""63"",""412675""
""focus"",""65"",""434627""
""focus"",""65"",""437096""
","""event"",""trial"",""time""
""fullscreenenter"",""1"",""1375""
","
","","","","","","611.3000000119209","images/cow4.png","","","learning","-5","0","0","0","cow","animals","1","0","","bad","[-3]"
"html-keyboard-response","108","562613","0.0-9.0-2.0-0.18","5649","1","22","Female","approach_avoid_spark_v1","""event"",""trial"",""time""
""fullscreenenter"",""1"",""1375""
""blur"",""63"",""411147""
""focus"",""63"",""412675""
""blur"",""65"",""433858""
""focus"",""65"",""434627""
""blur"",""65"",""435848""
""focus"",""65"",""437096""
","""event"",""trial"",""time""
""blur"",""63"",""411147""
""blur"",""65"",""433858""
""blur"",""65"",""435848""
","""event"",""trial"",""time""
""focus"",""63"",""412675""
""focus"",""65"",""434627""
""focus"",""65"",""437096""
","""event"",""trial"",""time""
""fullscreenenter"",""1"",""1375""
","
","","","","","","null","<div style=""font-size:60px;"">+</div>","null","","fixation","","","","","","","","","","",""
"aa-learning-trial","109","565622","0.0-9.0-2.0-1.18","5649","1","22","Female","approach_avoid_spark_v1","""event"",""trial"",""time""
""fullscreenenter"",""1"",""1375""
""blur"",""63"",""411147""
""focus"",""63"",""412675""
""blur"",""65"",""433858""
""focus"",""65"",""434627""
""blur"",""65"",""435848""
""focus"",""65"",""437096""
","""event"",""trial"",""time""
""blur"",""63"",""411147""
""blur"",""65"",""433858""
""blur"",""65"",""435848""
","""event"",""trial"",""time""
""focus"",""63"",""412675""
""focus"",""65"",""434627""
""focus"",""65"",""437096""
","""event"",""trial"",""time""
""fullscreenenter"",""1"",""1375""
","
","","","","","","445.10000002384186","images/goat3.png","","","learning","3","3","1","1","goat","animals","1","0","","good","[4]"
"html-keyboard-response","110","566133","0.0-9.0-2.0-0.19","5649","1","22","Female","approach_avoid_spark_v1","""event"",""trial"",""time""
""fullscreenenter"",""1"",""1375""
""blur"",""63"",""411147""
""focus"",""63"",""412675""
""blur"",""65"",""433858""
""focus"",""65"",""434627""
""blur"",""65"",""435848""
""focus"",""65"",""437096""
","""event"",""trial"",""time""
""blur"",""63"",""411147""
""blur"",""65"",""433858""
""blur"",""65"",""435848""
","""event"",""trial"",""time""
""focus"",""63"",""412675""
""focus"",""65"",""434627""
""focus"",""65"",""437096""
","""event"",""trial"",""time""
""fullscreenenter"",""1"",""1375""
","
","","","","","","null","<div style=""font-size:60px;"">+</div>","null","","fixation","","","","","","","","","","",""
"aa-learning-trial","111","569142","0.0-9.0-2.0-1.19","5649","1","22","Female","approach_avoid_spark_v1","""event"",""trial"",""time""
""fullscreenenter"",""1"",""1375""
""blur"",""63"",""411147""
""focus"",""63"",""412675""
""blur"",""65"",""433858""
""focus"",""65"",""434627""
""blur"",""65"",""435848""
""focus"",""65"",""437096""
","""event"",""trial"",""time""
""blur"",""63"",""411147""
""blur"",""65"",""433858""
""blur"",""65"",""435848""
","""event"",""trial"",""time""
""focus"",""63"",""412675""
""focus"",""65"",""434627""
""focus"",""65"",""437096""
","""event"",""trial"",""time""
""fullscreenenter"",""1"",""1375""
","
","","","","","","641.3000000119209","images/sheep6.png","","","learning","-1","-1","1","1","sheep","animals","1","0","","neutral","0"
"html-keyboard-response","112","569653","0.0-9.0-2.0-0.20","5649","1","22","Female","approach_avoid_spark_v1","""event"",""trial"",""time""
""fullscreenenter"",""1"",""1375""
""blur"",""63"",""411147""
""focus"",""63"",""412675""
""blur"",""65"",""433858""
""focus"",""65"",""434627""
""blur"",""65"",""435848""
""focus"",""65"",""437096""
","""event"",""trial"",""time""
""blur"",""63"",""411147""
""blur"",""65"",""433858""
""blur"",""65"",""435848""
","""event"",""trial"",""time""
""focus"",""63"",""412675""
""focus"",""65"",""434627""
""focus"",""65"",""437096""
","""event"",""trial"",""time""
""fullscreenenter"",""1"",""1375""
","
","","","","","","null","<div style=""font-size:60px;"">+</div>","null","","fixation","","","","","","","","","","",""
"aa-learning-trial","113","572662","0.0-9.0-2.0-1.20","5649","1","22","Female","approach_avoid_spark_v1","""event"",""trial"",""time""
""fullscreenenter"",""1"",""1375""
""blur"",""63"",""411147""
""focus"",""63"",""412675""
""blur"",""65"",""433858""
""focus"",""65"",""434627""
""blur"",""65"",""435848""
""focus"",""65"",""437096""
","""event"",""trial"",""time""
""blur"",""63"",""411147""
""blur"",""65"",""433858""
""blur"",""65"",""435848""
","""event"",""trial"",""time""
""focus"",""63"",""412675""
""focus"",""65"",""434627""
""focus"",""65"",""437096""
","""event"",""trial"",""time""
""fullscreenenter"",""1"",""1375""
","
","","","","","","651.3000000119209","images/sheep6.png","","","learning","-2","0","0","0","sheep","animals","1","0","","neutral","0"
"html-keyboard-response","114","573173","0.0-9.0-2.0-0.21","5649","1","22","Female","approach_avoid_spark_v1","""event"",""trial"",""time""
""fullscreenenter"",""1"",""1375""
""blur"",""63"",""411147""
""focus"",""63"",""412675""
""blur"",""65"",""433858""
""focus"",""65"",""434627""
""blur"",""65"",""435848""
""focus"",""65"",""437096""
","""event"",""trial"",""time""
""blur"",""63"",""411147""
""blur"",""65"",""433858""
""blur"",""65"",""435848""
","""event"",""trial"",""time""
""focus"",""63"",""412675""
""focus"",""65"",""434627""
""focus"",""65"",""437096""
","""event"",""trial"",""time""
""fullscreenenter"",""1"",""1375""
","
","","","","","","null","<div style=""font-size:60px;"">+</div>","null","","fixation","","","","","","","","","","",""
"aa-learning-trial","115","576182","0.0-9.0-2.0-1.21","5649","1","22","Female","approach_avoid_spark_v1","""event"",""trial"",""time""
""fullscreenenter"",""1"",""1375""
""blur"",""63"",""411147""
""focus"",""63"",""412675""
""blur"",""65"",""433858""
""focus"",""65"",""434627""
""blur"",""65"",""435848""
""focus"",""65"",""437096""
","""event"",""trial"",""time""
""blur"",""63"",""411147""
""blur"",""65"",""433858""
""blur"",""65"",""435848""
","""event"",""trial"",""time""
""focus"",""63"",""412675""
""focus"",""65"",""434627""
""focus"",""65"",""437096""
","""event"",""trial"",""time""
""fullscreenenter"",""1"",""1375""
","
","","","","","","693.6999999880791","images/goat1.png","","","learning","4","4","1","1","goat","animals","1","0","","good","[4]"
"html-keyboard-response","116","576690","0.0-9.0-2.0-0.22","5649","1","22","Female","approach_avoid_spark_v1","""event"",""trial"",""time""
""fullscreenenter"",""1"",""1375""
""blur"",""63"",""411147""
""focus"",""63"",""412675""
""blur"",""65"",""433858""
""focus"",""65"",""434627""
""blur"",""65"",""435848""
""focus"",""65"",""437096""
","""event"",""trial"",""time""
""blur"",""63"",""411147""
""blur"",""65"",""433858""
""blur"",""65"",""435848""
","""event"",""trial"",""time""
""focus"",""63"",""412675""
""focus"",""65"",""434627""
""focus"",""65"",""437096""
","""event"",""trial"",""time""
""fullscreenenter"",""1"",""1375""
","
","","","","","","null","<div style=""font-size:60px;"">+</div>","null","","fixation","","","","","","","","","","",""
"aa-learning-trial","117","579702","0.0-9.0-2.0-1.22","5649","1","22","Female","approach_avoid_spark_v1","""event"",""trial"",""time""
""fullscreenenter"",""1"",""1375""
""blur"",""63"",""411147""
""focus"",""63"",""412675""
""blur"",""65"",""433858""
""focus"",""65"",""434627""
""blur"",""65"",""435848""
""focus"",""65"",""437096""
","""event"",""trial"",""time""
""blur"",""63"",""411147""
""blur"",""65"",""433858""
""blur"",""65"",""435848""
","""event"",""trial"",""time""
""focus"",""63"",""412675""
""focus"",""65"",""434627""
""focus"",""65"",""437096""
","""event"",""trial"",""time""
""fullscreenenter"",""1"",""1375""
","
","","","","","","563.6999999880791","images/cow7.png","","","learning","-6","0","0","0","cow","animals","1","0","","bad","[-3]"
"html-keyboard-response","118","580214","0.0-9.0-2.0-0.23","5649","1","22","Female","approach_avoid_spark_v1","""event"",""trial"",""time""
""fullscreenenter"",""1"",""1375""
""blur"",""63"",""411147""
""focus"",""63"",""412675""
""blur"",""65"",""433858""
""focus"",""65"",""434627""
""blur"",""65"",""435848""
""focus"",""65"",""437096""
","""event"",""trial"",""time""
""blur"",""63"",""411147""
""blur"",""65"",""433858""
""blur"",""65"",""435848""
","""event"",""trial"",""time""
""focus"",""63"",""412675""
""focus"",""65"",""434627""
""focus"",""65"",""437096""
","""event"",""trial"",""time""
""fullscreenenter"",""1"",""1375""
","
","","","","","","null","<div style=""font-size:60px;"">+</div>","null","","fixation","","","","","","","","","","",""
"aa-learning-trial","119","583222","0.0-9.0-2.0-1.23","5649","1","22","Female","approach_avoid_spark_v1","""event"",""trial"",""time""
""fullscreenenter"",""1"",""1375""
""blur"",""63"",""411147""
""focus"",""63"",""412675""
""blur"",""65"",""433858""
""focus"",""65"",""434627""
""blur"",""65"",""435848""
""focus"",""65"",""437096""
","""event"",""trial"",""time""
""blur"",""63"",""411147""
""blur"",""65"",""433858""
""blur"",""65"",""435848""
","""event"",""trial"",""time""
""focus"",""63"",""412675""
""focus"",""65"",""434627""
""focus"",""65"",""437096""
","""event"",""trial"",""time""
""fullscreenenter"",""1"",""1375""
","
","","","","","","822.6999999880791","images/cow1.png","","","learning","-6","0","0","0","cow","animals","1","0","","bad","[-3]"
"html-keyboard-response","120","583734","0.0-9.0-2.0-0.24","5649","1","22","Female","approach_avoid_spark_v1","""event"",""trial"",""time""
""fullscreenenter"",""1"",""1375""
""blur"",""63"",""411147""
""focus"",""63"",""412675""
""blur"",""65"",""433858""
""focus"",""65"",""434627""
""blur"",""65"",""435848""
""focus"",""65"",""437096""
","""event"",""trial"",""time""
""blur"",""63"",""411147""
""blur"",""65"",""433858""
""blur"",""65"",""435848""
","""event"",""trial"",""time""
""focus"",""63"",""412675""
""focus"",""65"",""434627""
""focus"",""65"",""437096""
","""event"",""trial"",""time""
""fullscreenenter"",""1"",""1375""
","
","","","","","","null","<div style=""font-size:60px;"">+</div>","null","","fixation","","","","","","","","","","",""
"aa-learning-trial","121","586742","0.0-9.0-2.0-1.24","5649","1","22","Female","approach_avoid_spark_v1","""event"",""trial"",""time""
""fullscreenenter"",""1"",""1375""
""blur"",""63"",""411147""
""focus"",""63"",""412675""
""blur"",""65"",""433858""
""focus"",""65"",""434627""
""blur"",""65"",""435848""
""focus"",""65"",""437096""
","""event"",""trial"",""time""
""blur"",""63"",""411147""
""blur"",""65"",""433858""
""blur"",""65"",""435848""
","""event"",""trial"",""time""
""focus"",""63"",""412675""
""focus"",""65"",""434627""
""focus"",""65"",""437096""
","""event"",""trial"",""time""
""fullscreenenter"",""1"",""1375""
","
","","","","","","491.19999998807907","images/cow3.png","","","learning","-2","0","0","0","cow","animals","1","0","","bad","[-3]"
"html-keyboard-response","122","587254","0.0-9.0-2.0-0.25","5649","1","22","Female","approach_avoid_spark_v1","""event"",""trial"",""time""
""fullscreenenter"",""1"",""1375""
""blur"",""63"",""411147""
""focus"",""63"",""412675""
""blur"",""65"",""433858""
""focus"",""65"",""434627""
""blur"",""65"",""435848""
""focus"",""65"",""437096""
","""event"",""trial"",""time""
""blur"",""63"",""411147""
""blur"",""65"",""433858""
""blur"",""65"",""435848""
","""event"",""trial"",""time""
""focus"",""63"",""412675""
""focus"",""65"",""434627""
""focus"",""65"",""437096""
","""event"",""trial"",""time""
""fullscreenenter"",""1"",""1375""
","
","","","","","","null","<div style=""font-size:60px;"">+</div>","null","","fixation","","","","","","","","","","",""
"aa-learning-trial","123","590262","0.0-9.0-2.0-1.25","5649","1","22","Female","approach_avoid_spark_v1","""event"",""trial"",""time""
""fullscreenenter"",""1"",""1375""
""blur"",""63"",""411147""
""focus"",""63"",""412675""
""blur"",""65"",""433858""
""focus"",""65"",""434627""
""blur"",""65"",""435848""
""focus"",""65"",""437096""
","""event"",""trial"",""time""
""blur"",""63"",""411147""
""blur"",""65"",""433858""
""blur"",""65"",""435848""
","""event"",""trial"",""time""
""focus"",""63"",""412675""
""focus"",""65"",""434627""
""focus"",""65"",""437096""
","""event"",""trial"",""time""
""fullscreenenter"",""1"",""1375""
","
","","","","","","737.2000000178814","images/goat4.png","","","learning","5","5","1","1","goat","animals","1","0","","good","[4]"
"html-keyboard-response","124","590774","0.0-9.0-2.0-0.26","5649","1","22","Female","approach_avoid_spark_v1","""event"",""trial"",""time""
""fullscreenenter"",""1"",""1375""
""blur"",""63"",""411147""
""focus"",""63"",""412675""
""blur"",""65"",""433858""
""focus"",""65"",""434627""
""blur"",""65"",""435848""
""focus"",""65"",""437096""
","""event"",""trial"",""time""
""blur"",""63"",""411147""
""blur"",""65"",""433858""
""blur"",""65"",""435848""
","""event"",""trial"",""time""
""focus"",""63"",""412675""
""focus"",""65"",""434627""
""focus"",""65"",""437096""
","""event"",""trial"",""time""
""fullscreenenter"",""1"",""1375""
","
","","","","","","null","<div style=""font-size:60px;"">+</div>","null","","fixation","","","","","","","","","","",""
"aa-learning-trial","125","593782","0.0-9.0-2.0-1.26","5649","1","22","Female","approach_avoid_spark_v1","""event"",""trial"",""time""
""fullscreenenter"",""1"",""1375""
""blur"",""63"",""411147""
""focus"",""63"",""412675""
""blur"",""65"",""433858""
""focus"",""65"",""434627""
""blur"",""65"",""435848""
""focus"",""65"",""437096""
","""event"",""trial"",""time""
""blur"",""63"",""411147""
""blur"",""65"",""433858""
""blur"",""65"",""435848""
","""event"",""trial"",""time""
""focus"",""63"",""412675""
""focus"",""65"",""434627""
""focus"",""65"",""437096""
","""event"",""trial"",""time""
""fullscreenenter"",""1"",""1375""
","
","","","","","","588.8000000119209","images/sheep2.png","","","learning","1","0","0","0","sheep","animals","1","0","","neutral","0"
"html-keyboard-response","126","594294","0.0-9.0-2.0-0.27","5649","1","22","Female","approach_avoid_spark_v1","""event"",""trial"",""time""
""fullscreenenter"",""1"",""1375""
""blur"",""63"",""411147""
""focus"",""63"",""412675""
""blur"",""65"",""433858""
""focus"",""65"",""434627""
""blur"",""65"",""435848""
""focus"",""65"",""437096""
","""event"",""trial"",""time""
""blur"",""63"",""411147""
""blur"",""65"",""433858""
""blur"",""65"",""435848""
","""event"",""trial"",""time""
""focus"",""63"",""412675""
""focus"",""65"",""434627""
""focus"",""65"",""437096""
","""event"",""trial"",""time""
""fullscreenenter"",""1"",""1375""
","
","","","","","","null","<div style=""font-size:60px;"">+</div>","null","","fixation","","","","","","","","","","",""
"aa-learning-trial","127","597302","0.0-9.0-2.0-1.27","5649","1","22","Female","approach_avoid_spark_v1","""event"",""trial"",""time""
""fullscreenenter"",""1"",""1375""
""blur"",""63"",""411147""
""focus"",""63"",""412675""
""blur"",""65"",""433858""
""focus"",""65"",""434627""
""blur"",""65"",""435848""
""focus"",""65"",""437096""
","""event"",""trial"",""time""
""blur"",""63"",""411147""
""blur"",""65"",""433858""
""blur"",""65"",""435848""
","""event"",""trial"",""time""
""focus"",""63"",""412675""
""focus"",""65"",""434627""
""focus"",""65"",""437096""
","""event"",""trial"",""time""
""fullscreenenter"",""1"",""1375""
","
","","","","","","659.5999999940395","images/sheep2.png","","","learning","-1","0","0","0","sheep","animals","1","0","","neutral","0"
"html-keyboard-response","128","597814","0.0-9.0-2.0-0.28","5649","1","22","Female","approach_avoid_spark_v1","""event"",""trial"",""time""
""fullscreenenter"",""1"",""1375""
""blur"",""63"",""411147""
""focus"",""63"",""412675""
""blur"",""65"",""433858""
""focus"",""65"",""434627""
""blur"",""65"",""435848""
""focus"",""65"",""437096""
","""event"",""trial"",""time""
""blur"",""63"",""411147""
""blur"",""65"",""433858""
""blur"",""65"",""435848""
","""event"",""trial"",""time""
""focus"",""63"",""412675""
""focus"",""65"",""434627""
""focus"",""65"",""437096""
","""event"",""trial"",""time""
""fullscreenenter"",""1"",""1375""
","
","","","","","","null","<div style=""font-size:60px;"">+</div>","null","","fixation","","","","","","","","","","",""
"aa-learning-trial","129","600822","0.0-9.0-2.0-1.28","5649","1","22","Female","approach_avoid_spark_v1","""event"",""trial"",""time""
""fullscreenenter"",""1"",""1375""
""blur"",""63"",""411147""
""focus"",""63"",""412675""
""blur"",""65"",""433858""
""focus"",""65"",""434627""
""blur"",""65"",""435848""
""focus"",""65"",""437096""
","""event"",""trial"",""time""
""blur"",""63"",""411147""
""blur"",""65"",""433858""
""blur"",""65"",""435848""
","""event"",""trial"",""time""
""focus"",""63"",""412675""
""focus"",""65"",""434627""
""focus"",""65"",""437096""
","""event"",""trial"",""time""
""fullscreenenter"",""1"",""1375""
","
","","","","","","689.0999999940395","images/cow2.png","","","learning","-3","0","0","0","cow","animals","1","0","","bad","[-3]"
"html-keyboard-response","130","601333","0.0-9.0-2.0-0.29","5649","1","22","Female","approach_avoid_spark_v1","""event"",""trial"",""time""
""fullscreenenter"",""1"",""1375""
""blur"",""63"",""411147""
""focus"",""63"",""412675""
""blur"",""65"",""433858""
""focus"",""65"",""434627""
""blur"",""65"",""435848""
""focus"",""65"",""437096""
","""event"",""trial"",""time""
""blur"",""63"",""411147""
""blur"",""65"",""433858""
""blur"",""65"",""435848""
","""event"",""trial"",""time""
""focus"",""63"",""412675""
""focus"",""65"",""434627""
""focus"",""65"",""437096""
","""event"",""trial"",""time""
""fullscreenenter"",""1"",""1375""
","
","","","","","","null","<div style=""font-size:60px;"">+</div>","null","","fixation","","","","","","","","","","",""
"aa-learning-trial","131","604341","0.0-9.0-2.0-1.29","5649","1","22","Female","approach_avoid_spark_v1","""event"",""trial"",""time""
""fullscreenenter"",""1"",""1375""
""blur"",""63"",""411147""
""focus"",""63"",""412675""
""blur"",""65"",""433858""
""focus"",""65"",""434627""
""blur"",""65"",""435848""
""focus"",""65"",""437096""
","""event"",""trial"",""time""
""blur"",""63"",""411147""
""blur"",""65"",""433858""
""blur"",""65"",""435848""
","""event"",""trial"",""time""
""focus"",""63"",""412675""
""focus"",""65"",""434627""
""focus"",""65"",""437096""
","""event"",""trial"",""time""
""fullscreenenter"",""1"",""1375""
","
","","","","","","653.7999999821186","images/goat3.png","","","learning","2","2","1","1","goat","animals","1","0","","good","[4]"
"html-keyboard-response","132","604854","0.0-9.0-2.0-0.30","5649","1","22","Female","approach_avoid_spark_v1","""event"",""trial"",""time""
""fullscreenenter"",""1"",""1375""
""blur"",""63"",""411147""
""focus"",""63"",""412675""
""blur"",""65"",""433858""
""focus"",""65"",""434627""
""blur"",""65"",""435848""
""focus"",""65"",""437096""
","""event"",""trial"",""time""
""blur"",""63"",""411147""
""blur"",""65"",""433858""
""blur"",""65"",""435848""
","""event"",""trial"",""time""
""focus"",""63"",""412675""
""focus"",""65"",""434627""
""focus"",""65"",""437096""
","""event"",""trial"",""time""
""fullscreenenter"",""1"",""1375""
","
","","","","","","null","<div style=""font-size:60px;"">+</div>","null","","fixation","","","","","","","","","","",""
"aa-learning-trial","133","607862","0.0-9.0-2.0-1.30","5649","1","22","Female","approach_avoid_spark_v1","""event"",""trial"",""time""
""fullscreenenter"",""1"",""1375""
""blur"",""63"",""411147""
""focus"",""63"",""412675""
""blur"",""65"",""433858""
""focus"",""65"",""434627""
""blur"",""65"",""435848""
""focus"",""65"",""437096""
","""event"",""trial"",""time""
""blur"",""63"",""411147""
""blur"",""65"",""433858""
""blur"",""65"",""435848""
","""event"",""trial"",""time""
""focus"",""63"",""412675""
""focus"",""65"",""434627""
""focus"",""65"",""437096""
","""event"",""trial"",""time""
""fullscreenenter"",""1"",""1375""
","
","","","","","","1103.5999999940395","images/sheep3.png","","","learning","[1]","1","1","1","sheep","animals","1","0","","neutral","0"
"html-keyboard-response","134","608373","0.0-9.0-2.0-0.31","5649","1","22","Female","approach_avoid_spark_v1","""event"",""trial"",""time""
""fullscreenenter"",""1"",""1375""
""blur"",""63"",""411147""
""focus"",""63"",""412675""
""blur"",""65"",""433858""
""focus"",""65"",""434627""
""blur"",""65"",""435848""
""focus"",""65"",""437096""
","""event"",""trial"",""time""
""blur"",""63"",""411147""
""blur"",""65"",""433858""
""blur"",""65"",""435848""
","""event"",""trial"",""time""
""focus"",""63"",""412675""
""focus"",""65"",""434627""
""focus"",""65"",""437096""
","""event"",""trial"",""time""
""fullscreenenter"",""1"",""1375""
","
","","","","","","null","<div style=""font-size:60px;"">+</div>","null","","fixation","","","","","","","","","","",""
"aa-learning-trial","135","611382","0.0-9.0-2.0-1.31","5649","1","22","Female","approach_avoid_spark_v1","""event"",""trial"",""time""
""fullscreenenter"",""1"",""1375""
""blur"",""63"",""411147""
""focus"",""63"",""412675""
""blur"",""65"",""433858""
""focus"",""65"",""434627""
""blur"",""65"",""435848""
""focus"",""65"",""437096""
","""event"",""trial"",""time""
""blur"",""63"",""411147""
""blur"",""65"",""433858""
""blur"",""65"",""435848""
","""event"",""trial"",""time""
""focus"",""63"",""412675""
""focus"",""65"",""434627""
""focus"",""65"",""437096""
","""event"",""trial"",""time""
""fullscreenenter"",""1"",""1375""
","
","","","","","","620.9000000059605","images/goat8.png","","","learning","7","7","1","1","goat","animals","1","0","","good","[4]"
"html-keyboard-response","136","611893","0.0-9.0-2.0-0.32","5649","1","22","Female","approach_avoid_spark_v1","""event"",""trial"",""time""
""fullscreenenter"",""1"",""1375""
""blur"",""63"",""411147""
""focus"",""63"",""412675""
""blur"",""65"",""433858""
""focus"",""65"",""434627""
""blur"",""65"",""435848""
""focus"",""65"",""437096""
","""event"",""trial"",""time""
""blur"",""63"",""411147""
""blur"",""65"",""433858""
""blur"",""65"",""435848""
","""event"",""trial"",""time""
""focus"",""63"",""412675""
""focus"",""65"",""434627""
""focus"",""65"",""437096""
","""event"",""trial"",""time""
""fullscreenenter"",""1"",""1375""
","
","","","","","","null","<div style=""font-size:60px;"">+</div>","null","","fixation","","","","","","","","","","",""
"aa-learning-trial","137","614902","0.0-9.0-2.0-1.32","5649","1","22","Female","approach_avoid_spark_v1","""event"",""trial"",""time""
""fullscreenenter"",""1"",""1375""
""blur"",""63"",""411147""
""focus"",""63"",""412675""
""blur"",""65"",""433858""
""focus"",""65"",""434627""
""blur"",""65"",""435848""
""focus"",""65"",""437096""
","""event"",""trial"",""time""
""blur"",""63"",""411147""
""blur"",""65"",""433858""
""blur"",""65"",""435848""
","""event"",""trial"",""time""
""focus"",""63"",""412675""
""focus"",""65"",""434627""
""focus"",""65"",""437096""
","""event"",""trial"",""time""
""fullscreenenter"",""1"",""1375""
","
","","","","","","681.1999999880791","images/sheep2.png","","","learning","2","0","0","0","sheep","animals","1","0","","neutral","0"
"html-keyboard-response","138","615413","0.0-9.0-2.0-0.33","5649","1","22","Female","approach_avoid_spark_v1","""event"",""trial"",""time""
""fullscreenenter"",""1"",""1375""
""blur"",""63"",""411147""
""focus"",""63"",""412675""
""blur"",""65"",""433858""
""focus"",""65"",""434627""
""blur"",""65"",""435848""
""focus"",""65"",""437096""
","""event"",""trial"",""time""
""blur"",""63"",""411147""
""blur"",""65"",""433858""
""blur"",""65"",""435848""
","""event"",""trial"",""time""
""focus"",""63"",""412675""
""focus"",""65"",""434627""
""focus"",""65"",""437096""
","""event"",""trial"",""time""
""fullscreenenter"",""1"",""1375""
","
","","","","","","null","<div style=""font-size:60px;"">+</div>","null","","fixation","","","","","","","","","","",""
"aa-learning-trial","139","618421","0.0-9.0-2.0-1.33","5649","1","22","Female","approach_avoid_spark_v1","""event"",""trial"",""time""
""fullscreenenter"",""1"",""1375""
""blur"",""63"",""411147""
""focus"",""63"",""412675""
""blur"",""65"",""433858""
""focus"",""65"",""434627""
""blur"",""65"",""435848""
""focus"",""65"",""437096""
","""event"",""trial"",""time""
""blur"",""63"",""411147""
""blur"",""65"",""433858""
""blur"",""65"",""435848""
","""event"",""trial"",""time""
""focus"",""63"",""412675""
""focus"",""65"",""434627""
""focus"",""65"",""437096""
","""event"",""trial"",""time""
""fullscreenenter"",""1"",""1375""
","
","","","","","","736.2999999821186","images/goat4.png","","","learning","3","3","1","1","goat","animals","1","0","","good","[4]"
"html-keyboard-response","140","618933","0.0-9.0-2.0-0.34","5649","1","22","Female","approach_avoid_spark_v1","""event"",""trial"",""time""
""fullscreenenter"",""1"",""1375""
""blur"",""63"",""411147""
""focus"",""63"",""412675""
""blur"",""65"",""433858""
""focus"",""65"",""434627""
""blur"",""65"",""435848""
""focus"",""65"",""437096""
","""event"",""trial"",""time""
""blur"",""63"",""411147""
""blur"",""65"",""433858""
""blur"",""65"",""435848""
","""event"",""trial"",""time""
""focus"",""63"",""412675""
""focus"",""65"",""434627""
""focus"",""65"",""437096""
","""event"",""trial"",""time""
""fullscreenenter"",""1"",""1375""
","
","","","","","","null","<div style=""font-size:60px;"">+</div>","null","","fixation","","","","","","","","","","",""
"aa-learning-trial","141","621942","0.0-9.0-2.0-1.34","5649","1","22","Female","approach_avoid_spark_v1","""event"",""trial"",""time""
""fullscreenenter"",""1"",""1375""
""blur"",""63"",""411147""
""focus"",""63"",""412675""
""blur"",""65"",""433858""
""focus"",""65"",""434627""
""blur"",""65"",""435848""
""focus"",""65"",""437096""
","""event"",""trial"",""time""
""blur"",""63"",""411147""
""blur"",""65"",""433858""
""blur"",""65"",""435848""
","""event"",""trial"",""time""
""focus"",""63"",""412675""
""focus"",""65"",""434627""
""focus"",""65"",""437096""
","""event"",""trial"",""time""
""fullscreenenter"",""1"",""1375""
","
","","","","","","575.2000000178814","images/goat8.png","","","learning","5","5","1","1","goat","animals","1","0","","good","[4]"
"html-keyboard-response","142","622453","0.0-9.0-2.0-0.35","5649","1","22","Female","approach_avoid_spark_v1","""event"",""trial"",""time""
""fullscreenenter"",""1"",""1375""
""blur"",""63"",""411147""
""focus"",""63"",""412675""
""blur"",""65"",""433858""
""focus"",""65"",""434627""
""blur"",""65"",""435848""
""focus"",""65"",""437096""
","""event"",""trial"",""time""
""blur"",""63"",""411147""
""blur"",""65"",""433858""
""blur"",""65"",""435848""
","""event"",""trial"",""time""
""focus"",""63"",""412675""
""focus"",""65"",""434627""
""focus"",""65"",""437096""
","""event"",""trial"",""time""
""fullscreenenter"",""1"",""1375""
","
","","","","","","null","<div style=""font-size:60px;"">+</div>","null","","fixation","","","","","","","","","","",""
"aa-learning-trial","143","625462","0.0-9.0-2.0-1.35","5649","1","22","Female","approach_avoid_spark_v1","""event"",""trial"",""time""
""fullscreenenter"",""1"",""1375""
""blur"",""63"",""411147""
""focus"",""63"",""412675""
""blur"",""65"",""433858""
""focus"",""65"",""434627""
""blur"",""65"",""435848""
""focus"",""65"",""437096""
","""event"",""trial"",""time""
""blur"",""63"",""411147""
""blur"",""65"",""433858""
""blur"",""65"",""435848""
","""event"",""trial"",""time""
""focus"",""63"",""412675""
""focus"",""65"",""434627""
""focus"",""65"",""437096""
","""event"",""trial"",""time""
""fullscreenenter"",""1"",""1375""
","
","","","","","","529.7000000178814","images/cow3.png","","","learning","-2","0","0","0","cow","animals","1","0","","bad","[-3]"
"html-keyboard-response","144","625973","0.0-9.0-2.0-0.36","5649","1","22","Female","approach_avoid_spark_v1","""event"",""trial"",""time""
""fullscreenenter"",""1"",""1375""
""blur"",""63"",""411147""
""focus"",""63"",""412675""
""blur"",""65"",""433858""
""focus"",""65"",""434627""
""blur"",""65"",""435848""
""focus"",""65"",""437096""
","""event"",""trial"",""time""
""blur"",""63"",""411147""
""blur"",""65"",""433858""
""blur"",""65"",""435848""
","""event"",""trial"",""time""
""focus"",""63"",""412675""
""focus"",""65"",""434627""
""focus"",""65"",""437096""
","""event"",""trial"",""time""
""fullscreenenter"",""1"",""1375""
","
","","","","","","null","<div style=""font-size:60px;"">+</div>","null","","fixation","","","","","","","","","","",""
"aa-learning-trial","145","628981","0.0-9.0-2.0-1.36","5649","1","22","Female","approach_avoid_spark_v1","""event"",""trial"",""time""
""fullscreenenter"",""1"",""1375""
""blur"",""63"",""411147""
""focus"",""63"",""412675""
""blur"",""65"",""433858""
""focus"",""65"",""434627""
""blur"",""65"",""435848""
""focus"",""65"",""437096""
","""event"",""trial"",""time""
""blur"",""63"",""411147""
""blur"",""65"",""433858""
""blur"",""65"",""435848""
","""event"",""trial"",""time""
""focus"",""63"",""412675""
""focus"",""65"",""434627""
""focus"",""65"",""437096""
","""event"",""trial"",""time""
""fullscreenenter"",""1"",""1375""
","
","","","","","","562.4000000059605","images/goat4.png","","","learning","4","4","1","1","goat","animals","1","0","","good","[4]"
"html-keyboard-response","146","629490","0.0-9.0-2.0-0.37","5649","1","22","Female","approach_avoid_spark_v1","""event"",""trial"",""time""
""fullscreenenter"",""1"",""1375""
""blur"",""63"",""411147""
""focus"",""63"",""412675""
""blur"",""65"",""433858""
""focus"",""65"",""434627""
""blur"",""65"",""435848""
""focus"",""65"",""437096""
","""event"",""trial"",""time""
""blur"",""63"",""411147""
""blur"",""65"",""433858""
""blur"",""65"",""435848""
","""event"",""trial"",""time""
""focus"",""63"",""412675""
""focus"",""65"",""434627""
""focus"",""65"",""437096""
","""event"",""trial"",""time""
""fullscreenenter"",""1"",""1375""
","
","","","","","","null","<div style=""font-size:60px;"">+</div>","null","","fixation","","","","","","","","","","",""
"aa-learning-trial","147","632502","0.0-9.0-2.0-1.37","5649","1","22","Female","approach_avoid_spark_v1","""event"",""trial"",""time""
""fullscreenenter"",""1"",""1375""
""blur"",""63"",""411147""
""focus"",""63"",""412675""
""blur"",""65"",""433858""
""focus"",""65"",""434627""
""blur"",""65"",""435848""
""focus"",""65"",""437096""
","""event"",""trial"",""time""
""blur"",""63"",""411147""
""blur"",""65"",""433858""
""blur"",""65"",""435848""
","""event"",""trial"",""time""
""focus"",""63"",""412675""
""focus"",""65"",""434627""
""focus"",""65"",""437096""
","""event"",""trial"",""time""
""fullscreenenter"",""1"",""1375""
","
","","","","","","534.2000000178814","images/cow7.png","","","learning","-5","0","0","0","cow","animals","1","0","","bad","[-3]"
"html-keyboard-response","148","633010","0.0-9.0-2.0-0.38","5649","1","22","Female","approach_avoid_spark_v1","""event"",""trial"",""time""
""fullscreenenter"",""1"",""1375""
""blur"",""63"",""411147""
""focus"",""63"",""412675""
""blur"",""65"",""433858""
""focus"",""65"",""434627""
""blur"",""65"",""435848""
""focus"",""65"",""437096""
","""event"",""trial"",""time""
""blur"",""63"",""411147""
""blur"",""65"",""433858""
""blur"",""65"",""435848""
","""event"",""trial"",""time""
""focus"",""63"",""412675""
""focus"",""65"",""434627""
""focus"",""65"",""437096""
","""event"",""trial"",""time""
""fullscreenenter"",""1"",""1375""
","
","","","","","","null","<div style=""font-size:60px;"">+</div>","null","","fixation","","","","","","","","","","",""
"aa-learning-trial","149","636021","0.0-9.0-2.0-1.38","5649","1","22","Female","approach_avoid_spark_v1","""event"",""trial"",""time""
""fullscreenenter"",""1"",""1375""
""blur"",""63"",""411147""
""focus"",""63"",""412675""
""blur"",""65"",""433858""
""focus"",""65"",""434627""
""blur"",""65"",""435848""
""focus"",""65"",""437096""
","""event"",""trial"",""time""
""blur"",""63"",""411147""
""blur"",""65"",""433858""
""blur"",""65"",""435848""
","""event"",""trial"",""time""
""focus"",""63"",""412675""
""focus"",""65"",""434627""
""focus"",""65"",""437096""
","""event"",""trial"",""time""
""fullscreenenter"",""1"",""1375""
","
","","","","","","721.2000000178814","images/sheep2.png","","","learning","1","0","0","0","sheep","animals","1","0","","neutral","0"
"html-keyboard-response","150","636534","0.0-9.0-2.0-0.39","5649","1","22","Female","approach_avoid_spark_v1","""event"",""trial"",""time""
""fullscreenenter"",""1"",""1375""
""blur"",""63"",""411147""
""focus"",""63"",""412675""
""blur"",""65"",""433858""
""focus"",""65"",""434627""
""blur"",""65"",""435848""
""focus"",""65"",""437096""
","""event"",""trial"",""time""
""blur"",""63"",""411147""
""blur"",""65"",""433858""
""blur"",""65"",""435848""
","""event"",""trial"",""time""
""focus"",""63"",""412675""
""focus"",""65"",""434627""
""focus"",""65"",""437096""
","""event"",""trial"",""time""
""fullscreenenter"",""1"",""1375""
","
","","","","","","null","<div style=""font-size:60px;"">+</div>","null","","fixation","","","","","","","","","","",""
"aa-learning-trial","151","639542","0.0-9.0-2.0-1.39","5649","1","22","Female","approach_avoid_spark_v1","""event"",""trial"",""time""
""fullscreenenter"",""1"",""1375""
""blur"",""63"",""411147""
""focus"",""63"",""412675""
