"trial_type","trial_index","time_elapsed","internal_node_id","subject_id","task_condition","age","gender","task_version","interactions","blur_events","focus_events","fullscreenenter_events","fullscreenexit_events","success","timeout","failed_images","failed_audio","failed_video","rt","stimulus","response","button_pressed","task_part","approach_reward","points","key_press","option_selected","stim_cat","task_block","block_condition","block_number","correct","cat_type","mean_cat_reward"
"pavlovia","0","2","0.0-0.0","4293","1","18","Female","approach_avoid_spark_v1","""event"",""trial"",""time""
""fullscreenenter"",""1"",""2657""
","
","
","""event"",""trial"",""time""
""fullscreenenter"",""1"",""2657""
","
","","","","","","","","","","","","","","","","","","","","",""
"fullscreen","1","3648","0.0-1.0","4293","1","18","Female","approach_avoid_spark_v1","""event"",""trial"",""time""
""fullscreenenter"",""1"",""2657""
","
","
","""event"",""trial"",""time""
""fullscreenenter"",""1"",""2657""
","
","true","","","","","","","","","","","","","","","","","","","",""
"preload","2","65902","0.0-2.0","4293","1","18","Female","approach_avoid_spark_v1","""event"",""trial"",""time""
""fullscreenenter"",""1"",""2657""
","
","
","""event"",""trial"",""time""
""fullscreenenter"",""1"",""2657""
","
","true","false","[]","[]","[]","","","","","","","","","","","","","","","",""
"audio-keyboard-response","3","69907","0.0-3.0","4293","1","18","Female","approach_avoid_spark_v1","""event"",""trial"",""time""
""fullscreenenter"",""1"",""2657""
","
","
","""event"",""trial"",""time""
""fullscreenenter"",""1"",""2657""
","
","","","","","","3626.666666666665","audio/beep_loop.wav"," ","","","","","","","","","","","","",""
"audio-button-response","4","71746","0.0-4.0","4293","1","18","Female","approach_avoid_spark_v1","""event"",""trial"",""time""
""fullscreenenter"",""1"",""2657""
","
","
","""event"",""trial"",""time""
""fullscreenenter"",""1"",""2657""
","
","","","","","","1835","audio/shark.wav","4","","","","","","","","","","","","",""
"audio-button-response","5","73929","0.0-5.0","4293","1","18","Female","approach_avoid_spark_v1","""event"",""trial"",""time""
""fullscreenenter"",""1"",""2657""
","
","
","""event"",""trial"",""time""
""fullscreenenter"",""1"",""2657""
","
","","","","","","1184","audio/turtle.wav","1","","","","","","","","","","","","",""
"preload","6","97318","0.0-6.0","4293","1","18","Female","approach_avoid_spark_v1","""event"",""trial"",""time""
""fullscreenenter"",""1"",""2657""
","
","
","""event"",""trial"",""time""
""fullscreenenter"",""1"",""2657""
","
","true","false","[]","[]","[]","","","","","","","","","","","","","","","",""
"html-keyboard-response","7","99677","0.0-7.0","4293","1","18","Female","approach_avoid_spark_v1","""event"",""trial"",""time""
""fullscreenenter"",""1"",""2657""
","
","
","""event"",""trial"",""time""
""fullscreenenter"",""1"",""2657""
","
","","","","","","2357.5","Welcome to the experiment. Press any key to begin and to advance the instructions."," ","","","","","","","","","","","","",""
"learning-instructions","8","107612","0.0-8.0-0.0-0.0","4293","1","18","Female","approach_avoid_spark_v1","""event"",""trial"",""time""
""fullscreenenter"",""1"",""2657""
","
","
","""event"",""trial"",""time""
""fullscreenenter"",""1"",""2657""
","
","","","","","","979.7999999523163","<p> Welcome! Today you are going to play 6 different rounds of a decision-making game. </p><p> Use the mouse to click next to continue. </p>","","0","instructions","","","","","","","","","","",""
"learning-instructions","9","111361","0.0-8.0-0.0-0.1","4293","1","18","Female","approach_avoid_spark_v1","""event"",""trial"",""time""
""fullscreenenter"",""1"",""2657""
","
","
","""event"",""trial"",""time""
""fullscreenenter"",""1"",""2657""
","
","","","","","","1023.2000000476837","<p> You will start with a practice round to learn the rules. </p>","","0","instructions","","","","","","","","","","",""
"learning-instructions","10","115796","0.0-8.0-0.0-0.2","4293","1","18","Female","approach_avoid_spark_v1","""event"",""trial"",""time""
""fullscreenenter"",""1"",""2657""
","
","
","""event"",""trial"",""time""
""fullscreenenter"",""1"",""2657""
","
","","","","","","988.8999998569489","<p> Your goal in this round is to give out sports equipment to kids. </p></div>","","0","instructions","","","","","","","","","","",""
"learning-instructions","11","124180","0.0-8.0-0.0-0.3","4293","1","18","Female","approach_avoid_spark_v1","""event"",""trial"",""time""
""fullscreenenter"",""1"",""2657""
","
","
","""event"",""trial"",""time""
""fullscreenenter"",""1"",""2657""
","
","","","","","","833.6000001430511","<p> The kids only like some of the equipment.  </p><p> On each turn, you will see a piece of sports equipment.   </p><p> You need to decide whether to give it to the kids or not.  </p>","","0","instructions","","","","","","","","","","",""
"learning-instructions","12","130046","0.0-8.0-0.0-0.4","4293","1","18","Female","approach_avoid_spark_v1","""event"",""trial"",""time""
""fullscreenenter"",""1"",""2657""
","
","
","""event"",""trial"",""time""
""fullscreenenter"",""1"",""2657""
","
","","","","","","1115","<p> You can give them the equipment by pressing 1 and choose not to give it to them by pressing 0. </p><br><div class=""choice-instructions-grid""> <div class=""choice-option""><img src=""images/approach.png"" class=""choice-option-img"" stage=""instructions"" position=""0"" ><div class=""choice-option-text""> Press ""1."" </div></div><div class=""choice-option""><img src=""images/avoid.png"" class=""choice-option-img"" stage=""instructions"" position=""1"" ><div class=""choice-option-text""> Press ""0."" </div></div>","","0","instructions","","","","","","","","","","",""
"learning-instructions","13","138962","0.0-8.0-0.0-0.5","4293","1","18","Female","approach_avoid_spark_v1","""event"",""trial"",""time""
""fullscreenenter"",""1"",""2657""
","
","
","""event"",""trial"",""time""
""fullscreenenter"",""1"",""2657""
","
","","","","","","1530.8999998569489","<p> If you give them a piece of equipment they like, they will be happy! </p><p> But if you give them a piece of equipment they do not like, they will be sad. </p>","","0","instructions","","","","","","","","","","",""
"learning-instructions","14","150062","0.0-8.0-0.0-0.6","4293","1","18","Female","approach_avoid_spark_v1","""event"",""trial"",""time""
""fullscreenenter"",""1"",""2657""
","
","
","""event"",""trial"",""time""
""fullscreenenter"",""1"",""2657""
","
","","","","","","588","<p> You will earn points based on how you make kids feel. </p><p> If you make them happy, you will WIN anywhere from 1 - 9 points, </p><p> but if you make them sad, you will LOSE anywhere from 1 - 9 points. </p>","","0","instructions","","","","","","","","","","",""
"learning-instructions","15","160028","0.0-8.0-0.0-0.7","4293","1","18","Female","approach_avoid_spark_v1","""event"",""trial"",""time""
""fullscreenenter"",""1"",""2657""
","
","
","""event"",""trial"",""time""
""fullscreenenter"",""1"",""2657""
","
","","","","","","410.09999990463257","<p> You will see how many points you won or lost in the center of the screen. </p><p> Here is what you would see if you won 6 points: </p><p style=""color:green;font-size:50px;font-weight:bolder"">6</p><p style=""color:green"">The text is GREEN because you WON points.</p>","","0","instructions","","","","","","","","","","",""
"learning-instructions","16","166896","0.0-8.0-0.0-0.8","4293","1","18","Female","approach_avoid_spark_v1","""event"",""trial"",""time""
""fullscreenenter"",""1"",""2657""
","
","
","""event"",""trial"",""time""
""fullscreenenter"",""1"",""2657""
","
","","","","","","1364.2999999523163","<p> And here is what you would see if you lost 4 points: </p><p style=""color:red;font-size:50px;font-weight:bolder"">-4</p><p style=""color:red"">The text is RED because you LOST points. </p>","","0","instructions","","","","","","","","","","",""
"learning-instructions","17","186595","0.0-8.0-0.0-0.9","4293","1","18","Female","approach_avoid_spark_v1","""event"",""trial"",""time""
""fullscreenenter"",""1"",""2657""
","
","
","""event"",""trial"",""time""
""fullscreenenter"",""1"",""2657""
","
","","","","","","4989.200000047684","<p> Some of the equipment will make the kids VERY happy or sad. </p><p> These pieces of equipment will make you win or lose LOTS of points. </p><p> Other pieces of equipment will only make the kids a little happy or sad. </p><p> These pieces of equipment will make you win or lose small amounts of points. </p>","","0","instructions","","","","","","","","","","",""
"learning-instructions","18","218743","0.0-8.0-0.0-0.10","4293","1","18","Female","approach_avoid_spark_v1","""event"",""trial"",""time""
""fullscreenenter"",""1"",""2657""
","
","
","""event"",""trial"",""time""
""fullscreenenter"",""1"",""2657""
","
","","","","","","21527.60000014305","<p> If you choose not to give them the equipment, you will not win or lose any points. </p><p>  However, in the center of the screen, you will see the number of points you WOULD HAVE won or lost if you had given them the equipment. </p>","","0","instructions","","","","","","","","","","",""
"learning-instructions","19","241110","0.0-8.0-0.0-0.11","4293","1","18","Female","approach_avoid_spark_v1","""event"",""trial"",""time""
""fullscreenenter"",""1"",""2657""
","
","
","""event"",""trial"",""time""
""fullscreenenter"",""1"",""2657""
","
","","","","","","839.2999999523163","<p> Here is what you might see if you did not give the equipment to the kids but it would have made them happy: </p><p style=""color:grey; font-size:50px; display: inline-block; border-spacing: 15px; border-width:3px; border-style:solid; border-color:red"">  &nbsp; 7 &nbsp; </p><p> Remember, in this case, you would not win or lose ANY points because you did not give them the equipment.  </p><p style=""color:grey"">The text is GREY because you earned ZERO points. </p><p style=""color:red"">However, choosing to give the kids the equipment would have made you win points. The box around the text is RED because you chose the worse option. </p>","","0","instructions","","","","","","","","","","",""
"learning-instructions","20","269360","0.0-8.0-0.0-0.12","4293","1","18","Female","approach_avoid_spark_v1","""event"",""trial"",""time""
""fullscreenenter"",""1"",""2657""
","
","
","""event"",""trial"",""time""
""fullscreenenter"",""1"",""2657""
","
","","","","","","7174.800000190735","<p> Here is what you might see if you did not give the equipment to the kids but it would have made them sad: </p><p style=""color:grey;font-size:50px; display: inline-block; border-spacing: 15px; border-width:3px; border-style:solid; border-color:green"">  &nbsp; -8 &nbsp; </p><p> Remember, in this case, you would not win or lose ANY points because you did not give them the equipment.  </p><p style=""color:grey"">The text is GREY because you earned ZERO points. </p><p  style=""color:green""> Choosing to give the kids the equipment would have made you lose points. The box around the text is GREEN because you chose the better option.</p>","","0","instructions","","","","","","","","","","",""
"learning-instructions","21","280511","0.0-8.0-0.0-0.13","4293","1","18","Female","approach_avoid_spark_v1","""event"",""trial"",""time""
""fullscreenenter"",""1"",""2657""
","
","
","""event"",""trial"",""time""
""fullscreenenter"",""1"",""2657""
","
","","","","","","1696.6999998092651","<p> You will have 3 seconds to make each choice. Try to respond before time runs out! </p><p> You will lose 5 points each time you do not make a response. </p>","","0","instructions","","","","","","","","","","",""
"learning-instructions","22","286960","0.0-8.0-0.0-0.14","4293","1","18","Female","approach_avoid_spark_v1","""event"",""trial"",""time""
""fullscreenenter"",""1"",""2657""
","
","
","""event"",""trial"",""time""
""fullscreenenter"",""1"",""2657""
","
","","","","","","1042.2000000476837","<p> This is just a practice round, but in the real game, your bonus payment will depend on your total number of points.","","0","instructions","","","","","","","","","","",""
"learning-instructions","23","293894","0.0-8.0-0.0-0.15","4293","1","18","Female","approach_avoid_spark_v1","""event"",""trial"",""time""
""fullscreenenter"",""1"",""2657""
","
","
","""event"",""trial"",""time""
""fullscreenenter"",""1"",""2657""
","
","","","","","","1170.0999999046326","<p> Remember, you can give them the equipment by pressing 1 and choose not to give it to them by pressing 0. </p><br><div class=""choice-instructions-grid""> <div class=""choice-option""><img src=""images/approach.png"" class=""choice-option-img"" stage=""instructions"" position=""0"" ><div class=""choice-option-text""> Press ""1."" </div></div><div class=""choice-option""><img src=""images/avoid.png"" class=""choice-option-img"" stage=""instructions"" position=""1"" ><div class=""choice-option-text""> Press ""0."" </div></div>","","0","instructions","","","","","","","","","","",""
"html-button-response","24","294927","0.0-8.0-1.0","4293","1","18","Female","approach_avoid_spark_v1","""event"",""trial"",""time""
""fullscreenenter"",""1"",""2657""
","
","
","""event"",""trial"",""time""
""fullscreenenter"",""1"",""2657""
","
","","","","","","928.5","<p> Ready to practice? </p>","0","","","","","","","","","","","","",""
"html-keyboard-response","25","295535","0.0-8.0-2.0-0.0","4293","1","18","Female","approach_avoid_spark_v1","""event"",""trial"",""time""
""fullscreenenter"",""1"",""2657""
","
","
","""event"",""trial"",""time""
""fullscreenenter"",""1"",""2657""
","
","","","","","","null","<div style=""font-size:60px;"">+</div>","null","","fixation","","","","","","","","","","",""
"aa-learning-trial","26","298543","0.0-8.0-2.0-1.0","4293","1","18","Female","approach_avoid_spark_v1","""event"",""trial"",""time""
""fullscreenenter"",""1"",""2657""
","
","
","""event"",""trial"",""time""
""fullscreenenter"",""1"",""2657""
","
","","","","","","1145.7000000476837","images/racket4.png","","","learning","-1","-1","1","1","practice","practice","practice","-1","","",""
"html-keyboard-response","27","299045","0.0-8.0-2.0-0.1","4293","1","18","Female","approach_avoid_spark_v1","""event"",""trial"",""time""
""fullscreenenter"",""1"",""2657""
","
","
","""event"",""trial"",""time""
""fullscreenenter"",""1"",""2657""
","
","","","","","","null","<div style=""font-size:60px;"">+</div>","null","","fixation","","","","","","","","","","",""
"aa-learning-trial","28","302052","0.0-8.0-2.0-1.1","4293","1","18","Female","approach_avoid_spark_v1","""event"",""trial"",""time""
""fullscreenenter"",""1"",""2657""
","
","
","""event"",""trial"",""time""
""fullscreenenter"",""1"",""2657""
","
","","","","","","1011.3999998569489","images/ball1.png","","","learning","8","8","1","1","practice","practice","practice","-1","","",""
"html-keyboard-response","29","302556","0.0-8.0-2.0-0.2","4293","1","18","Female","approach_avoid_spark_v1","""event"",""trial"",""time""
""fullscreenenter"",""1"",""2657""
","
","
","""event"",""trial"",""time""
""fullscreenenter"",""1"",""2657""
","
","","","","","","null","<div style=""font-size:60px;"">+</div>","null","","fixation","","","","","","","","","","",""
"aa-learning-trial","30","305562","0.0-8.0-2.0-1.2","4293","1","18","Female","approach_avoid_spark_v1","""event"",""trial"",""time""
""fullscreenenter"",""1"",""2657""
","
","
","""event"",""trial"",""time""
""fullscreenenter"",""1"",""2657""
","
","","","","","","981","images/racket3.png","","","learning","-3","0","0","0","practice","practice","practice","-1","","",""
"html-keyboard-response","31","306063","0.0-8.0-2.0-0.3","4293","1","18","Female","approach_avoid_spark_v1","""event"",""trial"",""time""
""fullscreenenter"",""1"",""2657""
","
","
","""event"",""trial"",""time""
""fullscreenenter"",""1"",""2657""
","
","","","","","","null","<div style=""font-size:60px;"">+</div>","null","","fixation","","","","","","","","","","",""
"aa-learning-trial","32","309071","0.0-8.0-2.0-1.3","4293","1","18","Female","approach_avoid_spark_v1","""event"",""trial"",""time""
""fullscreenenter"",""1"",""2657""
","
","
","""event"",""trial"",""time""
""fullscreenenter"",""1"",""2657""
","
","","","","","","1318.3999998569489","images/ball1.png","","","learning","-1","-1","1","1","practice","practice","practice","-1","","",""
"html-keyboard-response","33","309578","0.0-8.0-2.0-0.4","4293","1","18","Female","approach_avoid_spark_v1","""event"",""trial"",""time""
""fullscreenenter"",""1"",""2657""
","
","
","""event"",""trial"",""time""
""fullscreenenter"",""1"",""2657""
","
","","","","","","null","<div style=""font-size:60px;"">+</div>","null","","fixation","","","","","","","","","","",""
"aa-learning-trial","34","312585","0.0-8.0-2.0-1.4","4293","1","18","Female","approach_avoid_spark_v1","""event"",""trial"",""time""
""fullscreenenter"",""1"",""2657""
","
","
","""event"",""trial"",""time""
""fullscreenenter"",""1"",""2657""
","
","","","","","","1050.8999998569489","images/racket4.png","","","learning","1","0","0","0","practice","practice","practice","-1","","",""
"html-keyboard-response","35","313087","0.0-8.0-2.0-0.5","4293","1","18","Female","approach_avoid_spark_v1","""event"",""trial"",""time""
""fullscreenenter"",""1"",""2657""
","
","
","""event"",""trial"",""time""
""fullscreenenter"",""1"",""2657""
","
","","","","","","null","<div style=""font-size:60px;"">+</div>","null","","fixation","","","","","","","","","","",""
"aa-learning-trial","36","316094","0.0-8.0-2.0-1.5","4293","1","18","Female","approach_avoid_spark_v1","""event"",""trial"",""time""
""fullscreenenter"",""1"",""2657""
","
","
","""event"",""trial"",""time""
""fullscreenenter"",""1"",""2657""
","
","","","","","","409.7000000476837","images/racket3.png","","","learning","9","9","1","1","practice","practice","practice","-1","","",""
"html-keyboard-response","37","316596","0.0-8.0-2.0-0.6","4293","1","18","Female","approach_avoid_spark_v1","""event"",""trial"",""time""
""fullscreenenter"",""1"",""2657""
","
","
","""event"",""trial"",""time""
""fullscreenenter"",""1"",""2657""
","
","","","","","","null","<div style=""font-size:60px;"">+</div>","null","","fixation","","","","","","","","","","",""
"aa-learning-trial","38","319604","0.0-8.0-2.0-1.6","4293","1","18","Female","approach_avoid_spark_v1","""event"",""trial"",""time""
""fullscreenenter"",""1"",""2657""
","
","
","""event"",""trial"",""time""
""fullscreenenter"",""1"",""2657""
","
","","","","","","291.19999980926514","images/ball3.png","","","learning","-4","-4","1","1","practice","practice","practice","-1","","",""
"html-keyboard-response","39","320109","0.0-8.0-2.0-0.7","4293","1","18","Female","approach_avoid_spark_v1","""event"",""trial"",""time""
""fullscreenenter"",""1"",""2657""
","
","
","""event"",""trial"",""time""
""fullscreenenter"",""1"",""2657""
","
","","","","","","null","<div style=""font-size:60px;"">+</div>","null","","fixation","","","","","","","","","","",""
"aa-learning-trial","40","323117","0.0-8.0-2.0-1.7","4293","1","18","Female","approach_avoid_spark_v1","""event"",""trial"",""time""
""fullscreenenter"",""1"",""2657""
","
","
","""event"",""trial"",""time""
""fullscreenenter"",""1"",""2657""
","
","","","","","","393.89999985694885","images/ball2.png","","","learning","2","2","1","1","practice","practice","practice","-1","","",""
"html-keyboard-response","41","323620","0.0-8.0-2.0-0.8","4293","1","18","Female","approach_avoid_spark_v1","""event"",""trial"",""time""
""fullscreenenter"",""1"",""2657""
","
","
","""event"",""trial"",""time""
""fullscreenenter"",""1"",""2657""
","
","","","","","","null","<div style=""font-size:60px;"">+</div>","null","","fixation","","","","","","","","","","",""
"aa-learning-trial","42","326626","0.0-8.0-2.0-1.8","4293","1","18","Female","approach_avoid_spark_v1","""event"",""trial"",""time""
""fullscreenenter"",""1"",""2657""
","
","
","""event"",""trial"",""time""
""fullscreenenter"",""1"",""2657""
","
","","","","","","722.5","images/racket2.png","","","learning","6","0","0","0","practice","practice","practice","-1","","",""
"html-keyboard-response","43","327133","0.0-8.0-2.0-0.9","4293","1","18","Female","approach_avoid_spark_v1","""event"",""trial"",""time""
""fullscreenenter"",""1"",""2657""
","
","
","""event"",""trial"",""time""
""fullscreenenter"",""1"",""2657""
","
","","","","","","null","<div style=""font-size:60px;"">+</div>","null","","fixation","","","","","","","","","","",""
"aa-learning-trial","44","330137","0.0-8.0-2.0-1.9","4293","1","18","Female","approach_avoid_spark_v1","""event"",""trial"",""time""
""fullscreenenter"",""1"",""2657""
","
","
","""event"",""trial"",""time""
""fullscreenenter"",""1"",""2657""
","
","","","","","","833.7999999523163","images/ball3.png","","","learning","3","3","1","1","practice","practice","practice","-1","","",""
"html-keyboard-response","45","330643","0.0-8.0-2.0-0.10","4293","1","18","Female","approach_avoid_spark_v1","""event"",""trial"",""time""
""fullscreenenter"",""1"",""2657""
","
","
","""event"",""trial"",""time""
""fullscreenenter"",""1"",""2657""
","
","","","","","","null","<div style=""font-size:60px;"">+</div>","null","","fixation","","","","","","","","","","",""
"aa-learning-trial","46","333650","0.0-8.0-2.0-1.10","4293","1","18","Female","approach_avoid_spark_v1","""event"",""trial"",""time""
""fullscreenenter"",""1"",""2657""
","
","
","""event"",""trial"",""time""
""fullscreenenter"",""1"",""2657""
","
","","","","","","1028.5","images/racket3.png","","","learning","-8","-8","1","1","practice","practice","practice","-1","","",""
"html-keyboard-response","47","334153","0.0-8.0-2.0-0.11","4293","1","18","Female","approach_avoid_spark_v1","""event"",""trial"",""time""
""fullscreenenter"",""1"",""2657""
","
","
","""event"",""trial"",""time""
""fullscreenenter"",""1"",""2657""
","
","","","","","","null","<div style=""font-size:60px;"">+</div>","null","","fixation","","","","","","","","","","",""
"aa-learning-trial","48","337159","0.0-8.0-2.0-1.11","4293","1","18","Female","approach_avoid_spark_v1","""event"",""trial"",""time""
""fullscreenenter"",""1"",""2657""
","
","
","""event"",""trial"",""time""
""fullscreenenter"",""1"",""2657""
","
","","","","","","543.7000000476837","images/racket1.png","","","learning","8","8","1","1","practice","practice","practice","-1","","",""
"html-button-response","49","353359","0.0-8.0-3.0","4293","1","18","Female","approach_avoid_spark_v1","""event"",""trial"",""time""
""fullscreenenter"",""1"",""2657""
","
","
","""event"",""trial"",""time""
""fullscreenenter"",""1"",""2657""
","
","","","","","","16198.200000047684","<p> You earned 16 points in the practice round! </p>","0","","break","","","","","","","","","","",""
"learning-instructions","50","362275","0.0-8.0-4.0-0.0","4293","1","18","Female","approach_avoid_spark_v1","""event"",""trial"",""time""
""fullscreenenter"",""1"",""2657""
","
","
","""event"",""trial"",""time""
""fullscreenenter"",""1"",""2657""
","
","","","","","","2833.0999999046326","<p> It's almost time to start the real game. </p><p> Before you start, we're going to ask you a few questions about how the game works. </p>","","0","instructions","","","","","","","","","","",""
"preload","51","366746","0.0-8.0-5.0","4293","1","18","Female","approach_avoid_spark_v1","""event"",""trial"",""time""
""fullscreenenter"",""1"",""2657""
","
","
","""event"",""trial"",""time""
""fullscreenenter"",""1"",""2657""
","
","true","false","[]","[]","[]","","","","","","","","","","","","","","","",""
"comp-q","52","373442","0.0-8.0-6.0-0.0","4293","1","18","Female","approach_avoid_spark_v1","""event"",""trial"",""time""
""fullscreenenter"",""1"",""2657""
","
","
","""event"",""trial"",""time""
""fullscreenenter"",""1"",""2657""
","
","","","","","","1701.0999999046326","<p> <b> True or False? </b> </p><p> If you see a number in GREY, that means you earned that many points. </p>","","1","comp_question","","","","","","","","","true","",""
"comp-q","53","382925","0.0-8.0-6.0-1.0","4293","1","18","Female","approach_avoid_spark_v1","""event"",""trial"",""time""
""fullscreenenter"",""1"",""2657""
","
","
","""event"",""trial"",""time""
""fullscreenenter"",""1"",""2657""
","
","","","","","","1126","<p><b> That's right! </b> If you see a grey number, it means you earned ZERO points. <br> The grey numbers show the points you WOULD HAVE earned if you had made the other choice. </p>","","0","comp_answer","","","","","","","","","","",""
"comp-q","54","394358","0.0-8.0-7.0-0.0","4293","1","18","Female","approach_avoid_spark_v1","""event"",""trial"",""time""
""fullscreenenter"",""1"",""2657""
","
","
","""event"",""trial"",""time""
""fullscreenenter"",""1"",""2657""
","
","","","","","","6740.700000047684","<p> <b> True or False? </b> </p><p> You will have as much time as you want to make each choice. </p>","","1","comp_question","","","","","","","","","true","",""
"comp-q","55","416059","0.0-8.0-7.0-1.0","4293","1","18","Female","approach_avoid_spark_v1","""event"",""trial"",""time""
""fullscreenenter"",""1"",""2657""
","
","
","""event"",""trial"",""time""
""fullscreenenter"",""1"",""2657""
","
","","","","","","17663","<p> <b> That's right! </b> You will only have 3 seconds to make each choice. </p>","","0","comp_answer","","","","","","","","","","",""
"comp-q","56","422074","0.0-8.0-8.0-0.0","4293","1","18","Female","approach_avoid_spark_v1","""event"",""trial"",""time""
""fullscreenenter"",""1"",""2657""
","
","
","""event"",""trial"",""time""
""fullscreenenter"",""1"",""2657""
","
","","","","","","1359.2999999523163","<p> <b> True or False? </b> </p><p> You should use the '1' and '0' keys to make your choices. </p>","","0","comp_question","","","","","","","","","true","",""
"comp-q","57","428558","0.0-8.0-8.0-1.0","4293","1","18","Female","approach_avoid_spark_v1","""event"",""trial"",""time""
""fullscreenenter"",""1"",""2657""
","
","
","""event"",""trial"",""time""
""fullscreenenter"",""1"",""2657""
","
","","","","","","1874.3999998569489","<p> <b> That's right! </b> You should use the '1' and '0' keys to make each choice. </p>","","0","comp_answer","","","","","","","","","","",""
"learning-instructions","58","435924","0.0-8.0-9.0-0.0","4293","1","18","Female","approach_avoid_spark_v1","""event"",""trial"",""time""
""fullscreenenter"",""1"",""2657""
","
","
","""event"",""trial"",""time""
""fullscreenenter"",""1"",""2657""
","
","","","","","","1102.5","<p> It's now time to start the real game. </p>Do your best, because the points you earn in the next rounds will influence your bonus payment. </p>","","0","instructions","","","","","","","","","","",""
"preload","59","436040","0.0-9.0-0.0","4293","1","18","Female","approach_avoid_spark_v1","""event"",""trial"",""time""
""fullscreenenter"",""1"",""2657""
","
","
","""event"",""trial"",""time""
""fullscreenenter"",""1"",""2657""
","
","true","false","[]","[]","[]","","","","","","","","","","","","","","","",""
"learning-instructions","60","441691","0.0-9.0-1.0-0.0","4293","1","18","Female","approach_avoid_spark_v1","""event"",""trial"",""time""
""fullscreenenter"",""1"",""2657""
","
","
","""event"",""trial"",""time""
""fullscreenenter"",""1"",""2657""
","
","","","","","","1455.8999998569489","<p> Your goal in this round is to take care of lots of animals. </p></div>","","0","instructions","","","","","","","","","","",""
"learning-instructions","61","726042","0.0-9.0-1.0-0.1","4293","1","18","Female","approach_avoid_spark_v1","""event"",""trial"",""time""
""fullscreenenter"",""1"",""2657""
","
","
","""event"",""trial"",""time""
""fullscreenenter"",""1"",""2657""
","
","","","","","","272968.90000009537","<p> Some animals want to be pet, while other animals want to be left alone.  </p><p> On each turn, you will see an animal.   </p><p> You need to decide whether to pet it or not.  </p>","","0","instructions","","","","","","","","","","",""
"learning-instructions","62","732993","0.0-9.0-1.0-0.2","4293","1","18","Female","approach_avoid_spark_v1","""event"",""trial"",""time""
""fullscreenenter"",""1"",""2657""
","
","
","""event"",""trial"",""time""
""fullscreenenter"",""1"",""2657""
","
","","","","","","1574.3999998569489","<p> You can pet the animal by pressing 1 and leave the animal alone by pressing 0. </p><br><div class=""choice-instructions-grid""> <div class=""choice-option""><img src=""images/approach.png"" class=""choice-option-img"" stage=""instructions"" position=""0"" ><div class=""choice-option-text""> Press ""1."" </div></div><div class=""choice-option""><img src=""images/avoid.png"" class=""choice-option-img"" stage=""instructions"" position=""1"" ><div class=""choice-option-text""> Press ""0."" </div></div>","","0","instructions","","","","","","","","","","",""
"learning-instructions","63","744325","0.0-9.0-1.0-0.3","4293","1","18","Female","approach_avoid_spark_v1","""event"",""trial"",""time""
""fullscreenenter"",""1"",""2657""
","
","
","""event"",""trial"",""time""
""fullscreenenter"",""1"",""2657""
","
","","","","","","1366.2000000476837","<p> If you pet an animal that wants to be pet, you will make it feel happy! </p><p> But if you pet an animal that wants to be left alone, you will make it feel angry. </p>","","0","instructions","","","","","","","","","","",""
"learning-instructions","64","1510034","0.0-9.0-1.0-0.4","4293","1","18","Female","approach_avoid_spark_v1","""event"",""trial"",""time""
""fullscreenenter"",""1"",""2657""
","
","
","""event"",""trial"",""time""
""fullscreenenter"",""1"",""2657""
","
","","","","","","751079.8000001907","<p> You will earn points based on how you made the animal feel. </p><p> If you made it feel happy, you will WIN anywhere from 1 - 9 points, </p><p> but if you made it feel angry, you will LOSE anywhere from 1 - 9 points. </p>","","0","instructions","","","","","","","","","","",""
"learning-instructions","65","1524949","0.0-9.0-1.0-0.5","4293","1","18","Female","approach_avoid_spark_v1","""event"",""trial"",""time""
""fullscreenenter"",""1"",""2657""
","
","
","""event"",""trial"",""time""
""fullscreenenter"",""1"",""2657""
","
","","","","","","7140.799999952316","<p> You will see how many points you won or lost in the center of the screen. </p><p> Here is what you would see if you won 5 points: </p><p style=""color:green;font-size:50px;font-weight:bolder"">5</p>","","0","instructions","","","","","","","","","","",""
"learning-instructions","66","1529850","0.0-9.0-1.0-0.6","4293","1","18","Female","approach_avoid_spark_v1","""event"",""trial"",""time""
""fullscreenenter"",""1"",""2657""
","
","
","""event"",""trial"",""time""
""fullscreenenter"",""1"",""2657""
","
","","","","","","1027.7999999523163","<p> And here is what you would see if you lost 3 points: </p><p style=""color:red;font-size:50px;font-weight:bolder"">-3</p>","","0","instructions","","","","","","","","","","",""
"learning-instructions","67","1555518","0.0-9.0-1.0-0.7","4293","1","18","Female","approach_avoid_spark_v1","""event"",""trial"",""time""
""fullscreenenter"",""1"",""2657""
","
","
","""event"",""trial"",""time""
""fullscreenenter"",""1"",""2657""
","
","","","","","","9678.099999904633","<p> Some animals will become very happy or very angry. </p><p> These animals will make you win or lose LOTS of points. </p><p> Other animals have less strong feelings. </p><p> These animals will make you win or lose small amounts of points. </p>","","0","instructions","","","","","","","","","","",""
"learning-instructions","68","1574584","0.0-9.0-1.0-0.8","4293","1","18","Female","approach_avoid_spark_v1","""event"",""trial"",""time""
""fullscreenenter"",""1"",""2657""
","
","
","""event"",""trial"",""time""
""fullscreenenter"",""1"",""2657""
","
","","","","","","6211","<p> If you choose to leave the animal alone, you will not win or lose any points. </p><p>  However, in the center of the screen, you will see the number of points you WOULD HAVE won or lost if you had pet the animal. </p>","","0","instructions","","","","","","","","","","",""
"learning-instructions","69","1589901","0.0-9.0-1.0-0.9","4293","1","18","Female","approach_avoid_spark_v1","""event"",""trial"",""time""
""fullscreenenter"",""1"",""2657""
","
","
","""event"",""trial"",""time""
""fullscreenenter"",""1"",""2657""
","
","","","","","","2573.100000143051","<p> Here is what you might see if you did not pet the animal but the animal wanted to be pet: </p><p style=""color:grey; font-size:50px; display: inline-block; border-spacing: 15px; border-width:3px; border-style:solid; border-color:red"">  &nbsp; 6 &nbsp; </p><p> Remember, in this case, you would not win or lose ANY points because you did not pet the animal.  </p>","","0","instructions","","","","","","","","","","",""
"learning-instructions","70","1598517","0.0-9.0-1.0-0.10","4293","1","18","Female","approach_avoid_spark_v1","""event"",""trial"",""time""
""fullscreenenter"",""1"",""2657""
","
","
","""event"",""trial"",""time""
""fullscreenenter"",""1"",""2657""
","
","","","","","","1162.5999999046326","<p> Try to make the best choice for each animal because </p><p> at the end of the game, you will earn bonus money based on how many points you earned. </p>","","0","instructions","","","","","","","","","","",""
"learning-instructions","71","1607267","0.0-9.0-1.0-0.11","4293","1","18","Female","approach_avoid_spark_v1","""event"",""trial"",""time""
""fullscreenenter"",""1"",""2657""
","
","
","""event"",""trial"",""time""
""fullscreenenter"",""1"",""2657""
","
","","","","","","563.1999998092651","<p> You will have 3 seconds to make each choice. Try to respond before time runs out! </p><p> You will lose 5 points each time you do not make a response. </p>","","0","instructions","","","","","","","","","","",""
"html-keyboard-response","72","1607877","0.0-9.0-2.0-0.0","4293","1","18","Female","approach_avoid_spark_v1","""event"",""trial"",""time""
""fullscreenenter"",""1"",""2657""
","
","
","""event"",""trial"",""time""
""fullscreenenter"",""1"",""2657""
","
","","","","","","null","<div style=""font-size:60px;"">+</div>","null","","fixation","","","","","","","","","","",""
"aa-learning-trial","73","1610881","0.0-9.0-2.0-1.0","4293","1","18","Female","approach_avoid_spark_v1","""event"",""trial"",""time""
""fullscreenenter"",""1"",""2657""
","
","
","""event"",""trial"",""time""
""fullscreenenter"",""1"",""2657""
","
","","","","","","943","images/rabbit1.png","","","learning","-3","-3","1","1","rabbit","pets","1","0","","bad","[-4]"
"html-keyboard-response","74","1611386","0.0-9.0-2.0-0.1","4293","1","18","Female","approach_avoid_spark_v1","""event"",""trial"",""time""
""fullscreenenter"",""1"",""2657""
","
","
","""event"",""trial"",""time""
""fullscreenenter"",""1"",""2657""
","
","","","","","","null","<div style=""font-size:60px;"">+</div>","null","","fixation","","","","","","","","","","",""
"aa-learning-trial","75","1614391","0.0-9.0-2.0-1.1","4293","1","18","Female","approach_avoid_spark_v1","""event"",""trial"",""time""
""fullscreenenter"",""1"",""2657""
","
","
","""event"",""trial"",""time""
""fullscreenenter"",""1"",""2657""
","
","","","","","","613.9000000953674","images/dog3.png","","","learning","[-1]","-1","1","1","dog","pets","1","0","","neutral","0"
"html-keyboard-response","76","1614897","0.0-9.0-2.0-0.2","4293","1","18","Female","approach_avoid_spark_v1","""event"",""trial"",""time""
""fullscreenenter"",""1"",""2657""
","
","
","""event"",""trial"",""time""
""fullscreenenter"",""1"",""2657""
","
","","","","","","null","<div style=""font-size:60px;"">+</div>","null","","fixation","","","","","","","","","","",""
"aa-learning-trial","77","1617902","0.0-9.0-2.0-1.2","4293","1","18","Female","approach_avoid_spark_v1","""event"",""trial"",""time""
""fullscreenenter"",""1"",""2657""
","
","
","""event"",""trial"",""time""
""fullscreenenter"",""1"",""2657""
","
","","","","","","279.59999990463257","images/rabbit3.png","","","learning","-1","0","0","0","rabbit","pets","1","0","","bad","[-4]"
"html-keyboard-response","78","1618407","0.0-9.0-2.0-0.3","4293","1","18","Female","approach_avoid_spark_v1","""event"",""trial"",""time""
""fullscreenenter"",""1"",""2657""
","
","
","""event"",""trial"",""time""
""fullscreenenter"",""1"",""2657""
","
","","","","","","null","<div style=""font-size:60px;"">+</div>","null","","fixation","","","","","","","","","","",""
"aa-learning-trial","79","1621413","0.0-9.0-2.0-1.3","4293","1","18","Female","approach_avoid_spark_v1","""event"",""trial"",""time""
""fullscreenenter"",""1"",""2657""
","
","
","""event"",""trial"",""time""
""fullscreenenter"",""1"",""2657""
","
","","","","","","396.2000000476837","images/cat5.png","","","learning","5","5","1","1","cat","pets","1","0","","good","[4]"
"html-keyboard-response","80","1621915","0.0-9.0-2.0-0.4","4293","1","18","Female","approach_avoid_spark_v1","""event"",""trial"",""time""
""fullscreenenter"",""1"",""2657""
","
","
","""event"",""trial"",""time""
""fullscreenenter"",""1"",""2657""
","
","","","","","","null","<div style=""font-size:60px;"">+</div>","null","","fixation","","","","","","","","","","",""
"aa-learning-trial","81","1624919","0.0-9.0-2.0-1.4","4293","1","18","Female","approach_avoid_spark_v1","""event"",""trial"",""time""
""fullscreenenter"",""1"",""2657""
","
","
","""event"",""trial"",""time""
""fullscreenenter"",""1"",""2657""
","
","","","","","","709","images/cat2.png","","","learning","7","7","1","1","cat","pets","1","0","","good","[4]"
"html-keyboard-response","82","1625424","0.0-9.0-2.0-0.5","4293","1","18","Female","approach_avoid_spark_v1","""event"",""trial"",""time""
""fullscreenenter"",""1"",""2657""
","
","
","""event"",""trial"",""time""
""fullscreenenter"",""1"",""2657""
","
","","","","","","null","<div style=""font-size:60px;"">+</div>","null","","fixation","","","","","","","","","","",""
"aa-learning-trial","83","1628430","0.0-9.0-2.0-1.5","4293","1","18","Female","approach_avoid_spark_v1","""event"",""trial"",""time""
""fullscreenenter"",""1"",""2657""
","
","
","""event"",""trial"",""time""
""fullscreenenter"",""1"",""2657""
","
","","","","","","634.1999998092651","images/cat7.png","","","learning","6","0","0","0","cat","pets","1","0","","good","[4]"
"html-keyboard-response","84","1628933","0.0-9.0-2.0-0.6","4293","1","18","Female","approach_avoid_spark_v1","""event"",""trial"",""time""
""fullscreenenter"",""1"",""2657""
","
","
","""event"",""trial"",""time""
""fullscreenenter"",""1"",""2657""
","
","","","","","","null","<div style=""font-size:60px;"">+</div>","null","","fixation","","","","","","","","","","",""
"aa-learning-trial","85","1631940","0.0-9.0-2.0-1.6","4293","1","18","Female","approach_avoid_spark_v1","""event"",""trial"",""time""
""fullscreenenter"",""1"",""2657""
","
","
","""event"",""trial"",""time""
""fullscreenenter"",""1"",""2657""
","
","","","","","","686.7000000476837","images/cat5.png","","","learning","2","2","1","1","cat","pets","1","0","","good","[4]"
"html-keyboard-response","86","1632442","0.0-9.0-2.0-0.7","4293","1","18","Female","approach_avoid_spark_v1","""event"",""trial"",""time""
""fullscreenenter"",""1"",""2657""
","
","
","""event"",""trial"",""time""
""fullscreenenter"",""1"",""2657""
","
","","","","","","null","<div style=""font-size:60px;"">+</div>","null","","fixation","","","","","","","","","","",""
"aa-learning-trial","87","1635447","0.0-9.0-2.0-1.7","4293","1","18","Female","approach_avoid_spark_v1","""event"",""trial"",""time""
""fullscreenenter"",""1"",""2657""
","
","
","""event"",""trial"",""time""
""fullscreenenter"",""1"",""2657""
","
","","","","","","701.9000000953674","images/rabbit5.png","","","learning","-3","-3","1","1","rabbit","pets","1","0","","bad","[-4]"
"html-keyboard-response","88","1635950","0.0-9.0-2.0-0.8","4293","1","18","Female","approach_avoid_spark_v1","""event"",""trial"",""time""
""fullscreenenter"",""1"",""2657""
","
","
","""event"",""trial"",""time""
""fullscreenenter"",""1"",""2657""
","
","","","","","","null","<div style=""font-size:60px;"">+</div>","null","","fixation","","","","","","","","","","",""
"aa-learning-trial","89","1638956","0.0-9.0-2.0-1.8","4293","1","18","Female","approach_avoid_spark_v1","""event"",""trial"",""time""
""fullscreenenter"",""1"",""2657""
","
","
","""event"",""trial"",""time""
""fullscreenenter"",""1"",""2657""
","
","","","","","","632.5","images/dog2.png","","","learning","[1]","1","1","1","dog","pets","1","0","","neutral","0"
"html-keyboard-response","90","1639461","0.0-9.0-2.0-0.9","4293","1","18","Female","approach_avoid_spark_v1","""event"",""trial"",""time""
""fullscreenenter"",""1"",""2657""
","
","
","""event"",""trial"",""time""
""fullscreenenter"",""1"",""2657""
","
","","","","","","null","<div style=""font-size:60px;"">+</div>","null","","fixation","","","","","","","","","","",""
"aa-learning-trial","91","1642467","0.0-9.0-2.0-1.9","4293","1","18","Female","approach_avoid_spark_v1","""event"",""trial"",""time""
""fullscreenenter"",""1"",""2657""
","
","
","""event"",""trial"",""time""
""fullscreenenter"",""1"",""2657""
","
","","","","","","359","images/dog3.png","","","learning","[1]","0","0","0","dog","pets","1","0","","neutral","0"
"html-keyboard-response","92","1642973","0.0-9.0-2.0-0.10","4293","1","18","Female","approach_avoid_spark_v1","""event"",""trial"",""time""
""fullscreenenter"",""1"",""2657""
","
","
","""event"",""trial"",""time""
""fullscreenenter"",""1"",""2657""
","
","","","","","","null","<div style=""font-size:60px;"">+</div>","null","","fixation","","","","","","","","","","",""
"aa-learning-trial","93","1645979","0.0-9.0-2.0-1.10","4293","1","18","Female","approach_avoid_spark_v1","""event"",""trial"",""time""
""fullscreenenter"",""1"",""2657""
","
","
","""event"",""trial"",""time""
""fullscreenenter"",""1"",""2657""
","
","","","","","","639.5999999046326","images/rabbit3.png","","","learning","-3","-3","1","1","rabbit","pets","1","0","","bad","[-4]"
"html-keyboard-response","94","1646481","0.0-9.0-2.0-0.11","4293","1","18","Female","approach_avoid_spark_v1","""event"",""trial"",""time""
""fullscreenenter"",""1"",""2657""
","
","
","""event"",""trial"",""time""
""fullscreenenter"",""1"",""2657""
","
","","","","","","null","<div style=""font-size:60px;"">+</div>","null","","fixation","","","","","","","","","","",""
"aa-learning-trial","95","1649488","0.0-9.0-2.0-1.11","4293","1","18","Female","approach_avoid_spark_v1","""event"",""trial"",""time""
""fullscreenenter"",""1"",""2657""
","
","
","""event"",""trial"",""time""
""fullscreenenter"",""1"",""2657""
","
","","","","","","549","images/rabbit1.png","","","learning","-3","-3","1","1","rabbit","pets","1","0","","bad","[-4]"
"html-keyboard-response","96","1649994","0.0-9.0-2.0-0.12","4293","1","18","Female","approach_avoid_spark_v1","""event"",""trial"",""time""
""fullscreenenter"",""1"",""2657""
","
","
","""event"",""trial"",""time""
""fullscreenenter"",""1"",""2657""
","
","","","","","","null","<div style=""font-size:60px;"">+</div>","null","","fixation","","","","","","","","","","",""
"aa-learning-trial","97","1653000","0.0-9.0-2.0-1.12","4293","1","18","Female","approach_avoid_spark_v1","""event"",""trial"",""time""
""fullscreenenter"",""1"",""2657""
","
","
","""event"",""trial"",""time""
""fullscreenenter"",""1"",""2657""
","
","","","","","","547","images/cat7.png","","","learning","2","2","1","1","cat","pets","1","0","","good","[4]"
"html-keyboard-response","98","1653506","0.0-9.0-2.0-0.13","4293","1","18","Female","approach_avoid_spark_v1","""event"",""trial"",""time""
""fullscreenenter"",""1"",""2657""
","
","
","""event"",""trial"",""time""
""fullscreenenter"",""1"",""2657""
","
","","","","","","null","<div style=""font-size:60px;"">+</div>","null","","fixation","","","","","","","","","","",""
"aa-learning-trial","99","1656512","0.0-9.0-2.0-1.13","4293","1","18","Female","approach_avoid_spark_v1","""event"",""trial"",""time""
""fullscreenenter"",""1"",""2657""
","
","
","""event"",""trial"",""time""
""fullscreenenter"",""1"",""2657""
","
","","","","","","652.2999999523163","images/dog4.png","","","learning","-1","-1","1","1","dog","pets","1","0","","neutral","0"
"html-keyboard-response","100","1657013","0.0-9.0-2.0-0.14","4293","1","18","Female","approach_avoid_spark_v1","""event"",""trial"",""time""
""fullscreenenter"",""1"",""2657""
","
","
","""event"",""trial"",""time""
""fullscreenenter"",""1"",""2657""
","
","","","","","","null","<div style=""font-size:60px;"">+</div>","null","","fixation","","","","","","","","","","",""
"aa-learning-trial","101","1660021","0.0-9.0-2.0-1.14","4293","1","18","Female","approach_avoid_spark_v1","""event"",""trial"",""time""
""fullscreenenter"",""1"",""2657""
","
","
","""event"",""trial"",""time""
""fullscreenenter"",""1"",""2657""
","
","","","","","","505.5","images/dog2.png","","","learning","-2","0","0","0","dog","pets","1","0","","neutral","0"
"html-keyboard-response","102","1660525","0.0-9.0-2.0-0.15","4293","1","18","Female","approach_avoid_spark_v1","""event"",""trial"",""time""
""fullscreenenter"",""1"",""2657""
","
","
","""event"",""trial"",""time""
""fullscreenenter"",""1"",""2657""
","
","","","","","","null","<div style=""font-size:60px;"">+</div>","null","","fixation","","","","","","","","","","",""
"aa-learning-trial","103","1663531","0.0-9.0-2.0-1.15","4293","1","18","Female","approach_avoid_spark_v1","""event"",""trial"",""time""
""fullscreenenter"",""1"",""2657""
","
","
","""event"",""trial"",""time""
""fullscreenenter"",""1"",""2657""
","
","","","","","","271.7000000476837","images/dog1.png","","","learning","-1","0","0","0","dog","pets","1","0","","neutral","0"
"html-keyboard-response","104","1664032","0.0-9.0-2.0-0.16","4293","1","18","Female","approach_avoid_spark_v1","""event"",""trial"",""time""
""fullscreenenter"",""1"",""2657""
","
","
","""event"",""trial"",""time""
""fullscreenenter"",""1"",""2657""
","
","","","","","","null","<div style=""font-size:60px;"">+</div>","null","","fixation","","","","","","","","","","",""
"aa-learning-trial","105","1667036","0.0-9.0-2.0-1.16","4293","1","18","Female","approach_avoid_spark_v1","""event"",""trial"",""time""
""fullscreenenter"",""1"",""2657""
","
","
","""event"",""trial"",""time""
""fullscreenenter"",""1"",""2657""
","
","","","","","","401.7999999523163","images/dog2.png","","","learning","1","0","0","0","dog","pets","1","0","","neutral","0"
"html-keyboard-response","106","1667541","0.0-9.0-2.0-0.17","4293","1","18","Female","approach_avoid_spark_v1","""event"",""trial"",""time""
""fullscreenenter"",""1"",""2657""
","
","
","""event"",""trial"",""time""
""fullscreenenter"",""1"",""2657""
","
","","","","","","null","<div style=""font-size:60px;"">+</div>","null","","fixation","","","","","","","","","","",""
"aa-learning-trial","107","1670545","0.0-9.0-2.0-1.17","4293","1","18","Female","approach_avoid_spark_v1","""event"",""trial"",""time""
""fullscreenenter"",""1"",""2657""
","
","
","""event"",""trial"",""time""
""fullscreenenter"",""1"",""2657""
","
","","","","","","310.30000019073486","images/rabbit1.png","","","learning","-3","-3","1","1","rabbit","pets","1","0","","bad","[-4]"
"html-keyboard-response","108","1671051","0.0-9.0-2.0-0.18","4293","1","18","Female","approach_avoid_spark_v1","""event"",""trial"",""time""
""fullscreenenter"",""1"",""2657""
","
","
","""event"",""trial"",""time""
""fullscreenenter"",""1"",""2657""
","
","","","","","","null","<div style=""font-size:60px;"">+</div>","null","","fixation","","","","","","","","","","",""
"aa-learning-trial","109","1674059","0.0-9.0-2.0-1.18","4293","1","18","Female","approach_avoid_spark_v1","""event"",""trial"",""time""
""fullscreenenter"",""1"",""2657""
","
","
","""event"",""trial"",""time""
""fullscreenenter"",""1"",""2657""
","
","","","","","","282.2999999523163","images/cat2.png","","","learning","5","5","1","1","cat","pets","1","0","","good","[4]"
"html-keyboard-response","110","1674560","0.0-9.0-2.0-0.19","4293","1","18","Female","approach_avoid_spark_v1","""event"",""trial"",""time""
""fullscreenenter"",""1"",""2657""
","
","
","""event"",""trial"",""time""
""fullscreenenter"",""1"",""2657""
","
","","","","","","null","<div style=""font-size:60px;"">+</div>","null","","fixation","","","","","","","","","","",""
"aa-learning-trial","111","1677563","0.0-9.0-2.0-1.19","4293","1","18","Female","approach_avoid_spark_v1","""event"",""trial"",""time""
""fullscreenenter"",""1"",""2657""
","
","
","""event"",""trial"",""time""
""fullscreenenter"",""1"",""2657""
","
","","","","","","548.5","images/cat1.png","","","learning","4","0","0","0","cat","pets","1","0","","good","[4]"
"html-keyboard-response","112","1678067","0.0-9.0-2.0-0.20","4293","1","18","Female","approach_avoid_spark_v1","""event"",""trial"",""time""
""fullscreenenter"",""1"",""2657""
","
","
","""event"",""trial"",""time""
""fullscreenenter"",""1"",""2657""
","
","","","","","","null","<div style=""font-size:60px;"">+</div>","null","","fixation","","","","","","","","","","",""
"aa-learning-trial","113","1681072","0.0-9.0-2.0-1.20","4293","1","18","Female","approach_avoid_spark_v1","""event"",""trial"",""time""
""fullscreenenter"",""1"",""2657""
","
","
","""event"",""trial"",""time""
""fullscreenenter"",""1"",""2657""
","
","","","","","","454","images/dog2.png","","","learning","-1","-1","1","1","dog","pets","1","0","","neutral","0"
"html-keyboard-response","114","1681578","0.0-9.0-2.0-0.21","4293","1","18","Female","approach_avoid_spark_v1","""event"",""trial"",""time""
""fullscreenenter"",""1"",""2657""
","
","
","""event"",""trial"",""time""
""fullscreenenter"",""1"",""2657""
","
","","","","","","null","<div style=""font-size:60px;"">+</div>","null","","fixation","","","","","","","","","","",""
"aa-learning-trial","115","1684582","0.0-9.0-2.0-1.21","4293","1","18","Female","approach_avoid_spark_v1","""event"",""trial"",""time""
""fullscreenenter"",""1"",""2657""
","
","
","""event"",""trial"",""time""
""fullscreenenter"",""1"",""2657""
","
","","","","","","834.2000000476837","images/rabbit1.png","","","learning","-4","-4","1","1","rabbit","pets","1","0","","bad","[-4]"
"html-keyboard-response","116","1685083","0.0-9.0-2.0-0.22","4293","1","18","Female","approach_avoid_spark_v1","""event"",""trial"",""time""
""fullscreenenter"",""1"",""2657""
","
","
","""event"",""trial"",""time""
""fullscreenenter"",""1"",""2657""
","
","","","","","","null","<div style=""font-size:60px;"">+</div>","null","","fixation","","","","","","","","","","",""
"aa-learning-trial","117","1688090","0.0-9.0-2.0-1.22","4293","1","18","Female","approach_avoid_spark_v1","""event"",""trial"",""time""
""fullscreenenter"",""1"",""2657""
","
","
","""event"",""trial"",""time""
""fullscreenenter"",""1"",""2657""
","
","","","","","","913.7000000476837","images/dog4.png","","","learning","[-1]","0","0","0","dog","pets","1","0","","neutral","0"
"html-keyboard-response","118","1688594","0.0-9.0-2.0-0.23","4293","1","18","Female","approach_avoid_spark_v1","""event"",""trial"",""time""
""fullscreenenter"",""1"",""2657""
","
","
","""event"",""trial"",""time""
""fullscreenenter"",""1"",""2657""
","
","","","","","","null","<div style=""font-size:60px;"">+</div>","null","","fixation","","","","","","","","","","",""
"aa-learning-trial","119","1691597","0.0-9.0-2.0-1.23","4293","1","18","Female","approach_avoid_spark_v1","""event"",""trial"",""time""
""fullscreenenter"",""1"",""2657""
","
","
","""event"",""trial"",""time""
""fullscreenenter"",""1"",""2657""
","
","","","","","","1735.4000000953674","images/cat5.png","","","learning","3","3","1","1","cat","pets","1","0","","good","[4]"
"html-keyboard-response","120","1692101","0.0-9.0-2.0-0.24","4293","1","18","Female","approach_avoid_spark_v1","""event"",""trial"",""time""
""fullscreenenter"",""1"",""2657""
","
","
","""event"",""trial"",""time""
""fullscreenenter"",""1"",""2657""
","
","","","","","","null","<div style=""font-size:60px;"">+</div>","null","","fixation","","","","","","","","","","",""
"aa-learning-trial","121","1695106","0.0-9.0-2.0-1.24","4293","1","18","Female","approach_avoid_spark_v1","""event"",""trial"",""time""
""fullscreenenter"",""1"",""2657""
","
","
","""event"",""trial"",""time""
""fullscreenenter"",""1"",""2657""
","
","","","","","","2139.2999999523163","images/dog2.png","","","learning","[-1]","-1","1","1","dog","pets","1","0","","neutral","0"
"html-keyboard-response","122","1695611","0.0-9.0-2.0-0.25","4293","1","18","Female","approach_avoid_spark_v1","""event"",""trial"",""time""
""fullscreenenter"",""1"",""2657""
","
","
","""event"",""trial"",""time""
""fullscreenenter"",""1"",""2657""
","
","","","","","","null","<div style=""font-size:60px;"">+</div>","null","","fixation","","","","","","","","","","",""
"aa-learning-trial","123","1698614","0.0-9.0-2.0-1.25","4293","1","18","Female","approach_avoid_spark_v1","""event"",""trial"",""time""
""fullscreenenter"",""1"",""2657""
","
","
","""event"",""trial"",""time""
""fullscreenenter"",""1"",""2657""
","
","","","","","","null","images/cat5.png","","","learning","2","-5","","null","cat","pets","1","0","","good","[4]"
"html-keyboard-response","124","1699118","0.0-9.0-2.0-0.26","4293","1","18","Female","approach_avoid_spark_v1","""event"",""trial"",""time""
""fullscreenenter"",""1"",""2657""
","
","
","""event"",""trial"",""time""
""fullscreenenter"",""1"",""2657""
","
","","","","","","null","<div style=""font-size:60px;"">+</div>","null","","fixation","","","","","","","","","","",""
"aa-learning-trial","125","1702123","0.0-9.0-2.0-1.26","4293","1","18","Female","approach_avoid_spark_v1","""event"",""trial"",""time""
""fullscreenenter"",""1"",""2657""
","
","
","""event"",""trial"",""time""
""fullscreenenter"",""1"",""2657""
","
","","","","","","null","images/dog2.png","","","learning","1","-5","","null","dog","pets","1","0","","neutral","0"
"html-keyboard-response","126","1702628","0.0-9.0-2.0-0.27","4293","1","18","Female","approach_avoid_spark_v1","""event"",""trial"",""time""
""fullscreenenter"",""1"",""2657""
","
","
","""event"",""trial"",""time""
""fullscreenenter"",""1"",""2657""
","
","","","","","","null","<div style=""font-size:60px;"">+</div>","null","","fixation","","","","","","","","","","",""
"aa-learning-trial","127","1705632","0.0-9.0-2.0-1.27","4293","1","18","Female","approach_avoid_spark_v1","""event"",""trial"",""time""
""fullscreenenter"",""1"",""2657""
","
","
","""event"",""trial"",""time""
""fullscreenenter"",""1"",""2657""
","
","","","","","","699.2999999523163","images/rabbit1.png","","","learning","-3","-3","1","1","rabbit","pets","1","0","","bad","[-4]"
"html-keyboard-response","128","1706137","0.0-9.0-2.0-0.28","4293","1","18","Female","approach_avoid_spark_v1","""event"",""trial"",""time""
""fullscreenenter"",""1"",""2657""
","
","
","""event"",""trial"",""time""
""fullscreenenter"",""1"",""2657""
","
","","","","","","null","<div style=""font-size:60px;"">+</div>","null","","fixation","","","","","","","","","","",""
"aa-learning-trial","129","1709143","0.0-9.0-2.0-1.28","4293","1","18","Female","approach_avoid_spark_v1","""event"",""trial"",""time""
""fullscreenenter"",""1"",""2657""
","
","
","""event"",""trial"",""time""
""fullscreenenter"",""1"",""2657""
","
","","","","","","988.5","images/cat7.png","","","learning","2","0","0","0","cat","pets","1","0","","good","[4]"
"html-keyboard-response","130","1709648","0.0-9.0-2.0-0.29","4293","1","18","Female","approach_avoid_spark_v1","""event"",""trial"",""time""
""fullscreenenter"",""1"",""2657""
","
","
","""event"",""trial"",""time""
""fullscreenenter"",""1"",""2657""
","
","","","","","","null","<div style=""font-size:60px;"">+</div>","null","","fixation","","","","","","","","","","",""
"aa-learning-trial","131","1712653","0.0-9.0-2.0-1.29","4293","1","18","Female","approach_avoid_spark_v1","""event"",""trial"",""time""
""fullscreenenter"",""1"",""2657""
","
","
","""event"",""trial"",""time""
""fullscreenenter"",""1"",""2657""
","
","","","","","","281","images/dog3.png","","","learning","1","1","1","1","dog","pets","1","0","","neutral","0"
"html-keyboard-response","132","1713154","0.0-9.0-2.0-0.30","4293","1","18","Female","approach_avoid_spark_v1","""event"",""trial"",""time""
""fullscreenenter"",""1"",""2657""
","
","
","""event"",""trial"",""time""
""fullscreenenter"",""1"",""2657""
","
","","","","","","null","<div style=""font-size:60px;"">+</div>","null","","fixation","","","","","","","","","","",""
"aa-learning-trial","133","1716160","0.0-9.0-2.0-1.30","4293","1","18","Female","approach_avoid_spark_v1","""event"",""trial"",""time""
""fullscreenenter"",""1"",""2657""
","
","
","""event"",""trial"",""time""
""fullscreenenter"",""1"",""2657""
","
","","","","","","595.2000000476837","images/cat5.png","","","learning","2","2","1","1","cat","pets","1","0","","good","[4]"
"html-keyboard-response","134","1716663","0.0-9.0-2.0-0.31","4293","1","18","Female","approach_avoid_spark_v1","""event"",""trial"",""time""
""fullscreenenter"",""1"",""2657""
","
","
","""event"",""trial"",""time""
""fullscreenenter"",""1"",""2657""
","
","","","","","","null","<div style=""font-size:60px;"">+</div>","null","","fixation","","","","","","","","","","",""
"aa-learning-trial","135","1719669","0.0-9.0-2.0-1.31","4293","1","18","Female","approach_avoid_spark_v1","""event"",""trial"",""time""
""fullscreenenter"",""1"",""2657""
","
","
","""event"",""trial"",""time""
""fullscreenenter"",""1"",""2657""
","
","","","","","","497.09999990463257","images/dog3.png","","","learning","-2","-2","1","1","dog","pets","1","0","","neutral","0"
"html-keyboard-response","136","1720170","0.0-9.0-2.0-0.32","4293","1","18","Female","approach_avoid_spark_v1","""event"",""trial"",""time""
""fullscreenenter"",""1"",""2657""
","
","
","""event"",""trial"",""time""
""fullscreenenter"",""1"",""2657""
","
","","","","","","null","<div style=""font-size:60px;"">+</div>","null","","fixation","","","","","","","","","","",""
"aa-learning-trial","137","1723176","0.0-9.0-2.0-1.32","4293","1","18","Female","approach_avoid_spark_v1","""event"",""trial"",""time""
""fullscreenenter"",""1"",""2657""
","
","
","""event"",""trial"",""time""
""fullscreenenter"",""1"",""2657""
","
","","","","","","434.10000014305115","images/cat5.png","","","learning","5","0","0","0","cat","pets","1","0","","good","[4]"
"html-keyboard-response","138","1723680","0.0-9.0-2.0-0.33","4293","1","18","Female","approach_avoid_spark_v1","""event"",""trial"",""time""
""fullscreenenter"",""1"",""2657""
","
","
","""event"",""trial"",""time""
""fullscreenenter"",""1"",""2657""
","
","","","","","","null","<div style=""font-size:60px;"">+</div>","null","","fixation","","","","","","","","","","",""
"aa-learning-trial","139","1726686","0.0-9.0-2.0-1.33","4293","1","18","Female","approach_avoid_spark_v1","""event"",""trial"",""time""
""fullscreenenter"",""1"",""2657""
","
","
","""event"",""trial"",""time""
""fullscreenenter"",""1"",""2657""
","
","","","","","","284.5","images/rabbit3.png","","","learning","-3","-3","1","1","rabbit","pets","1","0","","bad","[-4]"
"html-keyboard-response","140","1727189","0.0-9.0-2.0-0.34","4293","1","18","Female","approach_avoid_spark_v1","""event"",""trial"",""time""
""fullscreenenter"",""1"",""2657""
","
","
","""event"",""trial"",""time""
""fullscreenenter"",""1"",""2657""
","
","","","","","","null","<div style=""font-size:60px;"">+</div>","null","","fixation","","","","","","","","","","",""
"aa-learning-trial","141","1730192","0.0-9.0-2.0-1.34","4293","1","18","Female","approach_avoid_spark_v1","""event"",""trial"",""time""
""fullscreenenter"",""1"",""2657""
","
","
","""event"",""trial"",""time""
""fullscreenenter"",""1"",""2657""
","
","","","","","","282.7000000476837","images/dog4.png","","","learning","2","2","1","1","dog","pets","1","0","","neutral","0"
"html-keyboard-response","142","1730698","0.0-9.0-2.0-0.35","4293","1","18","Female","approach_avoid_spark_v1","""event"",""trial"",""time""
""fullscreenenter"",""1"",""2657""
","
","
","""event"",""trial"",""time""
""fullscreenenter"",""1"",""2657""
","
","","","","","","null","<div style=""font-size:60px;"">+</div>","null","","fixation","","","","","","","","","","",""
"aa-learning-trial","143","1733703","0.0-9.0-2.0-1.35","4293","1","18","Female","approach_avoid_spark_v1","""event"",""trial"",""time""
""fullscreenenter"",""1"",""2657""
","
","
","""event"",""trial"",""time""
""fullscreenenter"",""1"",""2657""
","
","","","","","","621.7000000476837","images/dog6.png","","","learning","[1]","1","1","1","dog","pets","1","0","","neutral","0"
"html-keyboard-response","144","1734208","0.0-9.0-2.0-0.36","4293","1","18","Female","approach_avoid_spark_v1","""event"",""trial"",""time""
""fullscreenenter"",""1"",""2657""
","
","
","""event"",""trial"",""time""
""fullscreenenter"",""1"",""2657""
","
","","","","","","null","<div style=""font-size:60px;"">+</div>","null","","fixation","","","","","","","","","","",""
"aa-learning-trial","145","1737215","0.0-9.0-2.0-1.36","4293","1","18","Female","approach_avoid_spark_v1","""event"",""trial"",""time""
""fullscreenenter"",""1"",""2657""
","
","
","""event"",""trial"",""time""
""fullscreenenter"",""1"",""2657""
","
","","","","","","724.7000000476837","images/rabbit6.png","","","learning","-2","0","0","0","rabbit","pets","1","0","","bad","[-4]"
"html-keyboard-response","146","1737719","0.0-9.0-2.0-0.37","4293","1","18","Female","approach_avoid_spark_v1","""event"",""trial"",""time""
""fullscreenenter"",""1"",""2657""
","
","
","""event"",""trial"",""time""
""fullscreenenter"",""1"",""2657""
","
","","","","","","null","<div style=""font-size:60px;"">+</div>","null","","fixation","","","","","","","","","","",""
"aa-learning-trial","147","1740725","0.0-9.0-2.0-1.37","4293","1","18","Female","approach_avoid_spark_v1","""event"",""trial"",""time""
""fullscreenenter"",""1"",""2657""
","
","
","""event"",""trial"",""time""
""fullscreenenter"",""1"",""2657""
","
","","","","","","643.7999999523163","images/dog3.png","","","learning","-3","-3","1","1","dog","pets","1","0","","neutral","0"
"html-keyboard-response","148","1741228","0.0-9.0-2.0-0.38","4293","1","18","Female","approach_avoid_spark_v1","""event"",""trial"",""time""
""fullscreenenter"",""1"",""2657""
","
","
","""event"",""trial"",""time""
""fullscreenenter"",""1"",""2657""
","
","","","","","","null","<div style=""font-size:60px;"">+</div>","null","","fixation","","","","","","","","","","",""
"aa-learning-trial","149","1744236","0.0-9.0-2.0-1.38","4293","1","18","Female","approach_avoid_spark_v1","""event"",""trial"",""time""
""fullscreenenter"",""1"",""2657""
","
","
","""event"",""trial"",""time""
""fullscreenenter"",""1"",""2657""
","
","","","","","","638.7999999523163","images/rabbit5.png","","","learning","-5","0","0","0","rabbit","pets","1","0","","bad","[-4]"
"html-keyboard-response","150","1744741","0.0-9.0-2.0-0.39","4293","1","18","Female","approach_avoid_spark_v1","""event"",""trial"",""time""
""fullscreenenter"",""1"",""2657""
","
","
","""event"",""trial"",""time""
""fullscreenenter"",""1"",""2657""
","
","","","","","","null","<div style=""font-size:60px;"">+</div>","null","","fixation","","","","","","","","","","",""
"aa-learning-trial","151","1747749","0.0-9.0-2.0-1.39","4293","1","18","Female","approach_avoid_spark_v1","""event"",""trial"",""time""
""fullscreenenter"",""1"",""2657""
","
","
","""event"",""trial"",""time""
""fullscreenenter"",""1"",""2657""
","
","","","","","","642.7999999523163","images/cat2.png","","","learning","4","4","1","1","cat","pets","1","0","","good","[4]"
"html-keyboard-response","152","1748252","0.0-9.0-2.0-0.40","4293","1","18","Female","approach_avoid_spark_v1","""event"",""trial"",""time""
""fullscreenenter"",""1"",""2657""
","
","
","""event"",""trial"",""time""
""fullscreenenter"",""1"",""2657""
","
","","","","","","null","<div style=""font-size:60px;"">+</div>","null","","fixation","","","","","","","","","","",""
"aa-learning-trial","153","1751258","0.0-9.0-2.0-1.40","4293","1","18","Female","approach_avoid_spark_v1","""event"",""trial"",""time""
""fullscreenenter"",""1"",""2657""
","
","
","""event"",""trial"",""time""
""fullscreenenter"",""1"",""2657""
","
","","","","","","750.2000000476837","images/rabbit3.png","","","learning","-3","-3","1","1","rabbit","pets","1","0","","bad","[-4]"
"html-keyboard-response","154","1751761","0.0-9.0-2.0-0.41","4293","1","18","Female","approach_avoid_spark_v1","""event"",""trial"",""time""
""fullscreenenter"",""1"",""2657""
","
","
","""event"",""trial"",""time""
""fullscreenenter"",""1"",""2657""
","
","","","","","","null","<div style=""font-size:60px;"">+</div>","null","","fixation","","","","","","","","","","",""
"aa-learning-trial","155","1754768","0.0-9.0-2.0-1.41","4293","1","18","Female","approach_avoid_spark_v1","""event"",""trial"",""time""
""fullscreenenter"",""1"",""2657""
","
","
","""event"",""trial"",""time""
""fullscreenenter"",""1"",""2657""
","
","","","","","","2097","images/rabbit3.png","","","learning","-5","0","0","0","rabbit","pets","1","0","","bad","[-4]"
"html-keyboard-response","156","1755269","0.0-9.0-2.0-0.42","4293","1","18","Female","approach_avoid_spark_v1","""event"",""trial"",""time""
""fullscreenenter"",""1"",""2657""
","
","
","""event"",""trial"",""time""
""fullscreenenter"",""1"",""2657""
","
","","","","","","null","<div style=""font-size:60px;"">+</div>","null","","fixation","","","","","","","","","","",""
"aa-learning-trial","157","1758275","0.0-9.0-2.0-1.42","4293","1","18","Female","approach_avoid_spark_v1","""event"",""trial"",""time""
""fullscreenenter"",""1"",""2657""
","
","
","""event"",""trial"",""time""
""fullscreenenter"",""1"",""2657""
","
","","","","","","1717","images/dog3.png","","","learning","1","0","0","0","dog","pets","1","0","","neutral","0"
"html-keyboard-response","158","1758778","0.0-9.0-2.0-0.43","4293","1","18","Female","approach_avoid_spark_v1","""event"",""trial"",""time""
""fullscreenenter"",""1"",""2657""
","
","
","""event"",""trial"",""time""
""fullscreenenter"",""1"",""2657""
","
","","","","","","null","<div style=""font-size:60px;"">+</div>","null","","fixation","","","","","","","","","","",""
"aa-learning-trial","159","1761785","0.0-9.0-2.0-1.43","4293","1","18","Female","approach_avoid_spark_v1","""event"",""trial"",""time""
""fullscreenenter"",""1"",""2657""
","
","
","""event"",""trial"",""time""
""fullscreenenter"",""1"",""2657""
","
","","","","","","741.2999999523163","images/rabbit5.png","","","learning","-3","-3","1","1","rabbit","pets","1","0","","bad","[-4]"
"html-keyboard-response","160","1762288","0.0-9.0-2.0-0.44","4293","1","18","Female","approach_avoid_spark_v1","""event"",""trial"",""time""
""fullscreenenter"",""1"",""2657""
","
","
","""event"",""trial"",""time""
""fullscreenenter"",""1"",""2657""
","
","","","","","","null","<div style=""font-size:60px;"">+</div>","null","","fixation","","","","","","","","","","",""
"aa-learning-trial","161","1765296","0.0-9.0-2.0-1.44","4293","1","18","Female","approach_avoid_spark_v1","""event"",""trial"",""time""
""fullscreenenter"",""1"",""2657""
","
","
","""event"",""trial"",""time""
""fullscreenenter"",""1"",""2657""
","
","","","","","","2197","images/cat4.png","","","learning","5","0","0","0","cat","pets","1","0","","good","[4]"
"html-keyboard-response","162","1765801","0.0-9.0-2.0-0.45","4293","1","18","Female","approach_avoid_spark_v1","""event"",""trial"",""time""
""fullscreenenter"",""1"",""2657""
","
","
","""event"",""trial"",""time""
""fullscreenenter"",""1"",""2657""
","
","","","","","","null","<div style=""font-size:60px;"">+</div>","null","","fixation","","","","","","","","","","",""
"aa-learning-trial","163","1768807","0.0-9.0-2.0-1.45","4293","1","18","Female","approach_avoid_spark_v1","""event"",""trial"",""time""
""fullscreenenter"",""1"",""2657""
","
","
","""event"",""trial"",""time""
""fullscreenenter"",""1"",""2657""
","
","","","","","","1960.0999999046326","images/rabbit7.png","","","learning","-3","0","0","0","rabbit","pets","1","0","","bad","[-4]"
"html-keyboard-response","164","1769312","0.0-9.0-2.0-0.46","4293","1","18","Female","approach_avoid_spark_v1","""event"",""trial"",""time""
""fullscreenenter"",""1"",""2657""
","
","
","""event"",""trial"",""time""
""fullscreenenter"",""1"",""2657""
","
","","","","","","null","<div style=""font-size:60px;"">+</div>","null","","fixation","","","","","","","","","","",""
"aa-learning-trial","165","1772318","0.0-9.0-2.0-1.46","4293","1","18","Female","approach_avoid_spark_v1","""event"",""trial"",""time""
""fullscreenenter"",""1"",""2657""
","
","
","""event"",""trial"",""time""
""fullscreenenter"",""1"",""2657""
","
","","","","","","1334.3000001907349","images/cat7.png","","","learning","5","5","1","1","cat","pets","1","0","","good","[4]"
"html-keyboard-response","166","1772821","0.0-9.0-2.0-0.47","4293","1","18","Female","approach_avoid_spark_v1","""event"",""trial"",""time""
""fullscreenenter"",""1"",""2657""
","
","
","""event"",""trial"",""time""
""fullscreenenter"",""1"",""2657""
","
","","","","","","null","<div style=""font-size:60px;"">+</div>","null","","fixation","","","","","","","","","","",""
"aa-learning-trial","167","1775828","0.0-9.0-2.0-1.47","4293","1","18","Female","approach_avoid_spark_v1","""event"",""trial"",""time""
""fullscreenenter"",""1"",""2657""
","
","
","""event"",""trial"",""time""
""fullscreenenter"",""1"",""2657""
","
","","","","","","938.1000001430511","images/rabbit1.png","","","learning","-4","-4","1","1","rabbit","pets","1","0","","bad","[-4]"
"html-keyboard-response","168","1776334","0.0-9.0-2.0-0.48","4293","1","18","Female","approach_avoid_spark_v1","""event"",""trial"",""time""
""fullscreenenter"",""1"",""2657""
","
","
","""event"",""trial"",""time""
""fullscreenenter"",""1"",""2657""
","
","","","","","","null","<div style=""font-size:60px;"">+</div>","null","","fixation","","","","","","","","","","",""
"aa-learning-trial","169","1779340","0.0-9.0-2.0-1.48","4293","1","18","Female","approach_avoid_spark_v1","""event"",""trial"",""time""
""fullscreenenter"",""1"",""2657""
","
","
","""event"",""trial"",""time""
""fullscreenenter"",""1"",""2657""
","
","","","","","","1665.3999998569489","images/cat7.png","","","learning","4","0","0","0","cat","pets","1","0","","good","[4]"
"html-keyboard-response","170","1779845","0.0-9.0-2.0-0.49","4293","1","18","Female","approach_avoid_spark_v1","""event"",""trial"",""time""
""fullscreenenter"",""1"",""2657""
","
","
","""event"",""trial"",""time""
""fullscreenenter"",""1"",""2657""
","
","","","","","","null","<div style=""font-size:60px;"">+</div>","null","","fixation","","","","","","","","","","",""
"aa-learning-trial","171","1782848","0.0-9.0-2.0-1.49","4293","1","18","Female","approach_avoid_spark_v1","""event"",""trial"",""time""
""fullscreenenter"",""1"",""2657""
","
","
","""event"",""trial"",""time""
""fullscreenenter"",""1"",""2657""
","
","","","","","","2281.7999999523163","images/rabbit3.png","","","learning","-4","-4","1","1","rabbit","pets","1","0","","bad","[-4]"
"html-keyboard-response","172","1783352","0.0-9.0-2.0-0.50","4293","1","18","Female","approach_avoid_spark_v1","""event"",""trial"",""time""
""fullscreenenter"",""1"",""2657""
","
","
","""event"",""trial"",""time""
""fullscreenenter"",""1"",""2657""
","
","","","","","","null","<div style=""font-size:60px;"">+</div>","null","","fixation","","","","","","","","","","",""
"aa-learning-trial","173","1786357","0.0-9.0-2.0-1.50","4293","1","18","Female","approach_avoid_spark_v1","""event"",""trial"",""time""
""fullscreenenter"",""1"",""2657""
","
","
","""event"",""trial"",""time""
""fullscreenenter"",""1"",""2657""
","
","","","","","","1532","images/cat7.png","","","learning","3","3","1","1","cat","pets","1","0","","good","[4]"
"html-button-response","174","1789804","0.0-9.0-3.0","4293","1","18","Female","approach_avoid_spark_v1","""event"",""trial"",""time""
""fullscreenenter"",""1"",""2657""
","
","
","""event"",""trial"",""time""
""fullscreenenter"",""1"",""2657""
","
","","","","","","3445.100000143051","<p> You have completed the round! <p> In this round, you earned -15 points! </p>","0","","break","","","","","","","","","","",""
"html-button-response","175","1791003","0.0-10.0","4293","1","18","Female","approach_avoid_spark_v1","""event"",""trial"",""time""
""fullscreenenter"",""1"",""2657""
","
","
","""event"",""trial"",""time""
""fullscreenenter"",""1"",""2657""
","
","","","","","","1197.8999998569489","<p> Now it's time to play another round. </p>","0","","transition_screen","","","","","","","","","","",""
"preload","176","1791120","0.0-11.0-0.0","4293","1","18","Female","approach_avoid_spark_v1","""event"",""trial"",""time""
""fullscreenenter"",""1"",""2657""
","
","
","""event"",""trial"",""time""
""fullscreenenter"",""1"",""2657""
","
","true","false","[]","[]","[]","","","","","","","","","","","","","","","",""
"learning-instructions","177","1797037","0.0-11.0-1.0-0.0","4293","1","18","Female","approach_avoid_spark_v1","""event"",""trial"",""time""
""fullscreenenter"",""1"",""2657""
","
","
","""event"",""trial"",""time""
""fullscreenenter"",""1"",""2657""
","
","","","","","","1453","<p> Your goal in this round is to take care of lots of farm animals. </p></div>","","0","instructions","","","","","","","","","","",""
"learning-instructions","178","1809637","0.0-11.0-1.0-0.1","4293","1","18","Female","approach_avoid_spark_v1","""event"",""trial"",""time""
""fullscreenenter"",""1"",""2657""
","
","
","""event"",""trial"",""time""
""fullscreenenter"",""1"",""2657""
","
","","","","","","1061.6999998092651","<p> Some farm animals are hungry, while other farm animals are already full.  </p><p> On each turn, you will see a farm animal.   </p><p> You need to decide whether to feed it or not.  </p>","","0","instructions","","","","","","","","","","",""
"learning-instructions","179","1817538","0.0-11.0-1.0-0.2","4293","1","18","Female","approach_avoid_spark_v1","""event"",""trial"",""time""
""fullscreenenter"",""1"",""2657""
","
","
","""event"",""trial"",""time""
""fullscreenenter"",""1"",""2657""
","
","","","","","","1569.7000000476837","<p> You can feed the farm animal by pressing 1 and leave the farm animal alone by pressing 0. </p><br><div class=""choice-instructions-grid""> <div class=""choice-option""><img src=""images/approach.png"" class=""choice-option-img"" stage=""instructions"" position=""0"" ><div class=""choice-option-text""> Press ""1."" </div></div><div class=""choice-option""><img src=""images/avoid.png"" class=""choice-option-img"" stage=""instructions"" position=""1"" ><div class=""choice-option-text""> Press ""0."" </div></div>","","0","instructions","","","","","","","","","","",""
"learning-instructions","180","1828971","0.0-11.0-1.0-0.3","4293","1","18","Female","approach_avoid_spark_v1","""event"",""trial"",""time""
""fullscreenenter"",""1"",""2657""
","
","
","""event"",""trial"",""time""
""fullscreenenter"",""1"",""2657""
","
","","","","","","1051.4000000953674","<p> If you feed a hungry farm animal, you will make it feel satisfied! </p><p> But if you feed the farm animal and it was already full, you will make it feel sick. </p>","","0","instructions","","","","","","","","","","",""
"learning-instructions","181","1847938","0.0-11.0-1.0-0.4","4293","1","18","Female","approach_avoid_spark_v1","""event"",""trial"",""time""
""fullscreenenter"",""1"",""2657""
","
","
","""event"",""trial"",""time""
""fullscreenenter"",""1"",""2657""
","
","","","","","","4487.5","<p> You will earn points based on how you made the farm animal feel. </p><p> If you made it satisfied, you will WIN anywhere from 1 - 9 points, </p><p> but if you made it sick, you will LOSE anywhere from 1 - 9 points. </p>","","0","instructions","","","","","","","","","","",""
"learning-instructions","182","1858089","0.0-11.0-1.0-0.5","4293","1","18","Female","approach_avoid_spark_v1","""event"",""trial"",""time""
""fullscreenenter"",""1"",""2657""
","
","
","""event"",""trial"",""time""
""fullscreenenter"",""1"",""2657""
","
","","","","","","3502.800000190735","<p> You will see how many points you won or lost in the center of the screen. </p><p> Here is what you would see if you won 5 points: </p><p style=""color:green;font-size:50px;font-weight:bolder"">5</p>","","0","instructions","","","","","","","","","","",""
"learning-instructions","183","1863654","0.0-11.0-1.0-0.6","4293","1","18","Female","approach_avoid_spark_v1","""event"",""trial"",""time""
""fullscreenenter"",""1"",""2657""
","
","
","""event"",""trial"",""time""
""fullscreenenter"",""1"",""2657""
","
","","","","","","2732.2000000476837","<p> And here is what you would see if you lost 3 points: </p><p style=""color:red;font-size:50px;font-weight:bolder"">-3</p>","","0","instructions","","","","","","","","","","",""
"learning-instructions","184","1883789","0.0-11.0-1.0-0.7","4293","1","18","Female","approach_avoid_spark_v1","""event"",""trial"",""time""
""fullscreenenter"",""1"",""2657""
","
","
","""event"",""trial"",""time""
""fullscreenenter"",""1"",""2657""
","
","","","","","","2135.9000000953674","<p> Some farm animals will become very satisfied or very sick. </p><p> These farm animals will make you win or lose LOTS of points. </p><p> Other farm animals have less strong feelings. </p><p> These farm animals will make you win or lose small amounts of points. </p>","","0","instructions","","","","","","","","","","",""
"learning-instructions","185","1901504","0.0-11.0-1.0-0.8","4293","1","18","Female","approach_avoid_spark_v1","""event"",""trial"",""time""
""fullscreenenter"",""1"",""2657""
","
","
","""event"",""trial"",""time""
""fullscreenenter"",""1"",""2657""
","
","","","","","","4240.799999952316","<p> If you choose to leave the farm animal alone, you will not win or lose any points. </p><p>  However, in the center of the screen, you will see the number of points you WOULD HAVE won or lost if you had fed the farm animal. </p>","","0","instructions","","","","","","","","","","",""
"learning-instructions","186","1920788","0.0-11.0-1.0-0.9","4293","1","18","Female","approach_avoid_spark_v1","""event"",""trial"",""time""
""fullscreenenter"",""1"",""2657""
","
","
","""event"",""trial"",""time""
""fullscreenenter"",""1"",""2657""
","
","","","","","","7081.799999952316","<p> Here is what you might see if you did not feed the farm animal but the animal was hungry: </p><p style=""color:grey; font-size:50px; display: inline-block; border-spacing: 15px; border-width:3px; border-style:solid; border-color:red"">  &nbsp; 6 &nbsp; </p><p> Remember, in this case, you would not win or lose ANY points because you did not feed the farm animal.  </p>","","0","instructions","","","","","","","","","","",""
"learning-instructions","187","1930121","0.0-11.0-1.0-0.10","4293","1","18","Female","approach_avoid_spark_v1","""event"",""trial"",""time""
""fullscreenenter"",""1"",""2657""
","
","
","""event"",""trial"",""time""
""fullscreenenter"",""1"",""2657""
","
","","","","","","787.9000000953674","<p> Try to make the best choice for each farm animal because </p><p> at the end of the game, you will earn bonus money based on how many points you earned. </p>","","0","instructions","","","","","","","","","","",""
"learning-instructions","188","1939639","0.0-11.0-1.0-0.11","4293","1","18","Female","approach_avoid_spark_v1","""event"",""trial"",""time""
""fullscreenenter"",""1"",""2657""
","
","
","""event"",""trial"",""time""
""fullscreenenter"",""1"",""2657""
","
","","","","","","1330.1000001430511","<p> You will have 3 seconds to make each choice. Try to respond before time runs out! </p><p> You will lose 5 points each time you do not make a response. </p>","","0","instructions","","","","","","","","","","",""
"html-keyboard-response","189","1940244","0.0-11.0-2.0-0.0","4293","1","18","Female","approach_avoid_spark_v1","""event"",""trial"",""time""
""fullscreenenter"",""1"",""2657""
","
","
","""event"",""trial"",""time""
""fullscreenenter"",""1"",""2657""
","
","","","","","","null","<div style=""font-size:60px;"">+</div>","null","","fixation","","","","","","","","","","",""
"aa-learning-trial","190","1943251","0.0-11.0-2.0-1.0","4293","1","18","Female","approach_avoid_spark_v1","""event"",""trial"",""time""
""fullscreenenter"",""1"",""2657""
","
","
","""event"",""trial"",""time""
""fullscreenenter"",""1"",""2657""
","
","","","","","","700.5","images/sheep5.png","","","learning","-4","-4","1","1","sheep","animals","2","1","","bad","[-6]"
"html-keyboard-response","191","1943755","0.0-11.0-2.0-0.1","4293","1","18","Female","approach_avoid_spark_v1","""event"",""trial"",""time""
""fullscreenenter"",""1"",""2657""
","
","
","""event"",""trial"",""time""
""fullscreenenter"",""1"",""2657""
","
","","","","","","null","<div style=""font-size:60px;"">+</div>","null","","fixation","","","","","","","","","","",""
"aa-learning-trial","192","1946762","0.0-11.0-2.0-1.1","4293","1","18","Female","approach_avoid_spark_v1","""event"",""trial"",""time""
""fullscreenenter"",""1"",""2657""
","
","
","""event"",""trial"",""time""
""fullscreenenter"",""1"",""2657""
","
","","","","","","258.5","images/goat5.png","","","learning","-1","-1","1","1","goat","animals","2","1","","good","[6]"
"html-keyboard-response","193","1947263","0.0-11.0-2.0-0.2","4293","1","18","Female","approach_avoid_spark_v1","""event"",""trial"",""time""
""fullscreenenter"",""1"",""2657""
","
","
","""event"",""trial"",""time""
""fullscreenenter"",""1"",""2657""
","
","","","","","","null","<div style=""font-size:60px;"">+</div>","null","","fixation","","","","","","","","","","",""
"aa-learning-trial","194","1950266","0.0-11.0-2.0-1.2","4293","1","18","Female","approach_avoid_spark_v1","""event"",""trial"",""time""
""fullscreenenter"",""1"",""2657""
","
","
","""event"",""trial"",""time""
""fullscreenenter"",""1"",""2657""
","
","","","","","","762.7999999523163","images/sheep7.png","","","learning","4","0","0","0","sheep","animals","2","1","","bad","[-6]"
"html-keyboard-response","195","1950768","0.0-11.0-2.0-0.3","4293","1","18","Female","approach_avoid_spark_v1","""event"",""trial"",""time""
""fullscreenenter"",""1"",""2657""
","
","
","""event"",""trial"",""time""
""fullscreenenter"",""1"",""2657""
","
","","","","","","null","<div style=""font-size:60px;"">+</div>","null","","fixation","","","","","","","","","","",""
"aa-learning-trial","196","1953776","0.0-11.0-2.0-1.3","4293","1","18","Female","approach_avoid_spark_v1","""event"",""trial"",""time""
""fullscreenenter"",""1"",""2657""
","
","
","""event"",""trial"",""time""
""fullscreenenter"",""1"",""2657""
","
","","","","","","150.29999995231628","images/sheep8.png","","","learning","2","2","1","1","sheep","animals","2","1","","bad","[-6]"
"html-keyboard-response","197","1954278","0.0-11.0-2.0-0.4","4293","1","18","Female","approach_avoid_spark_v1","""event"",""trial"",""time""
""fullscreenenter"",""1"",""2657""
","
","
","""event"",""trial"",""time""
""fullscreenenter"",""1"",""2657""
","
","","","","","","null","<div style=""font-size:60px;"">+</div>","null","","fixation","","","","","","","","","","",""
"aa-learning-trial","198","1957282","0.0-11.0-2.0-1.4","4293","1","18","Female","approach_avoid_spark_v1","""event"",""trial"",""time""
""fullscreenenter"",""1"",""2657""
","
","
","""event"",""trial"",""time""
""fullscreenenter"",""1"",""2657""
","
","","","","","","251.59999990463257","images/goat8.png","","","learning","-3","-3","1","1","goat","animals","2","1","","good","[6]"
"html-keyboard-response","199","1957789","0.0-11.0-2.0-0.5","4293","1","18","Female","approach_avoid_spark_v1","""event"",""trial"",""time""
""fullscreenenter"",""1"",""2657""
","
","
","""event"",""trial"",""time""
""fullscreenenter"",""1"",""2657""
","
","","","","","","null","<div style=""font-size:60px;"">+</div>","null","","fixation","","","","","","","","","","",""
"aa-learning-trial","200","1960794","0.0-11.0-2.0-1.5","4293","1","18","Female","approach_avoid_spark_v1","""event"",""trial"",""time""
""fullscreenenter"",""1"",""2657""
","
","
","""event"",""trial"",""time""
""fullscreenenter"",""1"",""2657""
","
","","","","","","483","images/horse2.png","","","learning","-5","-5","1","1","horse","animals","2","1","","neutral","0"
"html-keyboard-response","201","1961309","0.0-11.0-2.0-0.6","4293","1","18","Female","approach_avoid_spark_v1","""event"",""trial"",""time""
""fullscreenenter"",""1"",""2657""
","
","
","""event"",""trial"",""time""
""fullscreenenter"",""1"",""2657""
","
","","","","","","null","<div style=""font-size:60px;"">+</div>","null","","fixation","","","","","","","","","","",""
"aa-learning-trial","202","1964316","0.0-11.0-2.0-1.6","4293","1","18","Female","approach_avoid_spark_v1","""event"",""trial"",""time""
""fullscreenenter"",""1"",""2657""
","
","
","""event"",""trial"",""time""
""fullscreenenter"",""1"",""2657""
","
","","","","","","465.2000000476837","images/sheep5.png","","","learning","-4","0","0","0","sheep","animals","2","1","","bad","[-6]"
"html-keyboard-response","203","1964820","0.0-11.0-2.0-0.7","4293","1","18","Female","approach_avoid_spark_v1","""event"",""trial"",""time""
""fullscreenenter"",""1"",""2657""
","
","
","""event"",""trial"",""time""
""fullscreenenter"",""1"",""2657""
","
","","","","","","null","<div style=""font-size:60px;"">+</div>","null","","fixation","","","","","","","","","","",""
"aa-learning-trial","204","1967828","0.0-11.0-2.0-1.7","4293","1","18","Female","approach_avoid_spark_v1","""event"",""trial"",""time""
""fullscreenenter"",""1"",""2657""
","
","
","""event"",""trial"",""time""
""fullscreenenter"",""1"",""2657""
","
","","","","","","417.80000019073486","images/goat2.png","","","learning","-9","0","0","0","goat","animals","2","1","","good","[6]"
"html-keyboard-response","205","1968336","0.0-11.0-2.0-0.8","4293","1","18","Female","approach_avoid_spark_v1","""event"",""trial"",""time""
""fullscreenenter"",""1"",""2657""
","
","
","""event"",""trial"",""time""
""fullscreenenter"",""1"",""2657""
","
","","","","","","null","<div style=""font-size:60px;"">+</div>","null","","fixation","","","","","","","","","","",""
"aa-learning-trial","206","1971339","0.0-11.0-2.0-1.8","4293","1","18","Female","approach_avoid_spark_v1","""event"",""trial"",""time""
""fullscreenenter"",""1"",""2657""
","
","
","""event"",""trial"",""time""
""fullscreenenter"",""1"",""2657""
","
","","","","","","528","images/horse1.png","","","learning","6","0","0","0","horse","animals","2","1","","neutral","0"
"html-keyboard-response","207","1971843","0.0-11.0-2.0-0.9","4293","1","18","Female","approach_avoid_spark_v1","""event"",""trial"",""time""
""fullscreenenter"",""1"",""2657""
","
","
","""event"",""trial"",""time""
""fullscreenenter"",""1"",""2657""
","
","","","","","","null","<div style=""font-size:60px;"">+</div>","null","","fixation","","","","","","","","","","",""
"aa-learning-trial","208","1974849","0.0-11.0-2.0-1.9","4293","1","18","Female","approach_avoid_spark_v1","""event"",""trial"",""time""
""fullscreenenter"",""1"",""2657""
","
","
","""event"",""trial"",""time""
""fullscreenenter"",""1"",""2657""
","
","","","","","","388.69999980926514","images/sheep8.png","","","learning","2","2","1","1","sheep","animals","2","1","","bad","[-6]"
"html-keyboard-response","209","1975351","0.0-11.0-2.0-0.10","4293","1","18","Female","approach_avoid_spark_v1","""event"",""trial"",""time""
""fullscreenenter"",""1"",""2657""
","
","
","""event"",""trial"",""time""
""fullscreenenter"",""1"",""2657""
","
","","","","","","null","<div style=""font-size:60px;"">+</div>","null","","fixation","","","","","","","","","","",""
"aa-learning-trial","210","1978357","0.0-11.0-2.0-1.10","4293","1","18","Female","approach_avoid_spark_v1","""event"",""trial"",""time""
""fullscreenenter"",""1"",""2657""
","
","
","""event"",""trial"",""time""
""fullscreenenter"",""1"",""2657""
","
","","","","","","889.2999999523163","images/horse1.png","","","learning","6","6","1","1","horse","animals","2","1","","neutral","0"
"html-keyboard-response","211","1978860","0.0-11.0-2.0-0.11","4293","1","18","Female","approach_avoid_spark_v1","""event"",""trial"",""time""
""fullscreenenter"",""1"",""2657""
","
","
","""event"",""trial"",""time""
""fullscreenenter"",""1"",""2657""
","
","","","","","","null","<div style=""font-size:60px;"">+</div>","null","","fixation","","","","","","","","","","",""
"aa-learning-trial","212","1981867","0.0-11.0-2.0-1.11","4293","1","18","Female","approach_avoid_spark_v1","""event"",""trial"",""time""
""fullscreenenter"",""1"",""2657""
","
","
","""event"",""trial"",""time""
""fullscreenenter"",""1"",""2657""
","
","","","","","","531.5","images/goat8.png","","","learning","-3","0","0","0","goat","animals","2","1","","good","[6]"
"html-keyboard-response","213","1982372","0.0-11.0-2.0-0.12","4293","1","18","Female","approach_avoid_spark_v1","""event"",""trial"",""time""
""fullscreenenter"",""1"",""2657""
","
","
","""event"",""trial"",""time""
""fullscreenenter"",""1"",""2657""
","
","","","","","","null","<div style=""font-size:60px;"">+</div>","null","","fixation","","","","","","","","","","",""
"aa-learning-trial","214","1985378","0.0-11.0-2.0-1.12","4293","1","18","Female","approach_avoid_spark_v1","""event"",""trial"",""time""
""fullscreenenter"",""1"",""2657""
","
","
","""event"",""trial"",""time""
""fullscreenenter"",""1"",""2657""
","
","","","","","","473.5","images/horse7.png","","","learning","-2","-2","1","1","horse","animals","2","1","","neutral","0"
"html-keyboard-response","215","1985882","0.0-11.0-2.0-0.13","4293","1","18","Female","approach_avoid_spark_v1","""event"",""trial"",""time""
""fullscreenenter"",""1"",""2657""
","
","
","""event"",""trial"",""time""
""fullscreenenter"",""1"",""2657""
","
","","","","","","null","<div style=""font-size:60px;"">+</div>","null","","fixation","","","","","","","","","","",""
"aa-learning-trial","216","1988888","0.0-11.0-2.0-1.13","4293","1","18","Female","approach_avoid_spark_v1","""event"",""trial"",""time""
""fullscreenenter"",""1"",""2657""
","
","
","""event"",""trial"",""time""
""fullscreenenter"",""1"",""2657""
","
","","","","","","500.7999999523163","images/horse2.png","","","learning","-5","-5","1","1","horse","animals","2","1","","neutral","0"
"html-keyboard-response","217","1989392","0.0-11.0-2.0-0.14","4293","1","18","Female","approach_avoid_spark_v1","""event"",""trial"",""time""
""fullscreenenter"",""1"",""2657""
","
","
","""event"",""trial"",""time""
""fullscreenenter"",""1"",""2657""
","
","","","","","","null","<div style=""font-size:60px;"">+</div>","null","","fixation","","","","","","","","","","",""
"aa-learning-trial","218","1992398","0.0-11.0-2.0-1.14","4293","1","18","Female","approach_avoid_spark_v1","""event"",""trial"",""time""
""fullscreenenter"",""1"",""2657""
","
","
","""event"",""trial"",""time""
""fullscreenenter"",""1"",""2657""
","
","","","","","","51.299999952316284","images/goat2.png","","","learning","-9","0","0","0","goat","animals","2","1","","good","[6]"
"html-keyboard-response","219","1992903","0.0-11.0-2.0-0.15","4293","1","18","Female","approach_avoid_spark_v1","""event"",""trial"",""time""
""fullscreenenter"",""1"",""2657""
","
","
","""event"",""trial"",""time""
""fullscreenenter"",""1"",""2657""
","
","","","","","","null","<div style=""font-size:60px;"">+</div>","null","","fixation","","","","","","","","","","",""
"aa-learning-trial","220","1995909","0.0-11.0-2.0-1.15","4293","1","18","Female","approach_avoid_spark_v1","""event"",""trial"",""time""
""fullscreenenter"",""1"",""2657""
","
","
","""event"",""trial"",""time""
""fullscreenenter"",""1"",""2657""
","
","","","","","","693.5999999046326","images/goat1.png","","","learning","7","0","0","0","goat","animals","2","1","","good","[6]"
"html-keyboard-response","221","1996415","0.0-11.0-2.0-0.16","4293","1","18","Female","approach_avoid_spark_v1","""event"",""trial"",""time""
""fullscreenenter"",""1"",""2657""
","
","
","""event"",""trial"",""time""
""fullscreenenter"",""1"",""2657""
","
","","","","","","null","<div style=""font-size:60px;"">+</div>","null","","fixation","","","","","","","","","","",""
"aa-learning-trial","222","1999419","0.0-11.0-2.0-1.16","4293","1","18","Female","approach_avoid_spark_v1","""event"",""trial"",""time""
""fullscreenenter"",""1"",""2657""
","
","
","""event"",""trial"",""time""
""fullscreenenter"",""1"",""2657""
","
","","","","","","555.7999999523163","images/sheep5.png","","","learning","-4","-4","1","1","sheep","animals","2","1","","bad","[-6]"
"html-keyboard-response","223","1999920","0.0-11.0-2.0-0.17","4293","1","18","Female","approach_avoid_spark_v1","""event"",""trial"",""time""
""fullscreenenter"",""1"",""2657""
","
","
","""event"",""trial"",""time""
""fullscreenenter"",""1"",""2657""
","
","","","","","","null","<div style=""font-size:60px;"">+</div>","null","","fixation","","","","","","","","","","",""
"aa-learning-trial","224","2002928","0.0-11.0-2.0-1.17","4293","1","18","Female","approach_avoid_spark_v1","""event"",""trial"",""time""
""fullscreenenter"",""1"",""2657""
","
","
","""event"",""trial"",""time""
""fullscreenenter"",""1"",""2657""
","
","","","","","","200.80000019073486","images/goat6.png","","","learning","3","0","0","0","goat","animals","2","1","","good","[6]"
"html-keyboard-response","225","2003431","0.0-11.0-2.0-0.18","4293","1","18","Female","approach_avoid_spark_v1","""event"",""trial"",""time""
""fullscreenenter"",""1"",""2657""
","
","
","""event"",""trial"",""time""
""fullscreenenter"",""1"",""2657""
","
","","","","","","null","<div style=""font-size:60px;"">+</div>","null","","fixation","","","","","","","","","","",""
"aa-learning-trial","226","2006437","0.0-11.0-2.0-1.18","4293","1","18","Female","approach_avoid_spark_v1","""event"",""trial"",""time""
""fullscreenenter"",""1"",""2657""
","
","
","""event"",""trial"",""time""
""fullscreenenter"",""1"",""2657""
","
","","","","","","240","images/sheep8.png","","","learning","2","0","0","0","sheep","animals","2","1","","bad","[-6]"
"html-keyboard-response","227","2006941","0.0-11.0-2.0-0.19","4293","1","18","Female","approach_avoid_spark_v1","""event"",""trial"",""time""
""fullscreenenter"",""1"",""2657""
","
","
","""event"",""trial"",""time""
""fullscreenenter"",""1"",""2657""
","
","","","","","","null","<div style=""font-size:60px;"">+</div>","null","","fixation","","","","","","","","","","",""
"aa-learning-trial","228","2009948","0.0-11.0-2.0-1.19","4293","1","18","Female","approach_avoid_spark_v1","""event"",""trial"",""time""
""fullscreenenter"",""1"",""2657""
","
","
","""event"",""trial"",""time""
""fullscreenenter"",""1"",""2657""
","
","","","","","","null","images/horse1.png","","","learning","6","-5","","null","horse","animals","2","1","","neutral","0"
"html-keyboard-response","229","2010453","0.0-11.0-2.0-0.20","4293","1","18","Female","approach_avoid_spark_v1","""event"",""trial"",""time""
""fullscreenenter"",""1"",""2657""
","
","
","""event"",""trial"",""time""
""fullscreenenter"",""1"",""2657""
","
","","","","","","null","<div style=""font-size:60px;"">+</div>","null","","fixation","","","","","","","","","","",""
"aa-learning-trial","230","2013457","0.0-11.0-2.0-1.20","4293","1","18","Female","approach_avoid_spark_v1","""event"",""trial"",""time""
""fullscreenenter"",""1"",""2657""
","
","
","""event"",""trial"",""time""
""fullscreenenter"",""1"",""2657""
","
","","","","","","604.9000000953674","images/sheep6.png","","","learning","-7","-7","1","1","sheep","animals","2","1","","bad","[-6]"
"html-keyboard-response","231","2013962","0.0-11.0-2.0-0.21","4293","1","18","Female","approach_avoid_spark_v1","""event"",""trial"",""time""
""fullscreenenter"",""1"",""2657""
","
","
","""event"",""trial"",""time""
""fullscreenenter"",""1"",""2657""
","
","","","","","","null","<div style=""font-size:60px;"">+</div>","null","","fixation","","","","","","","","","","",""
"aa-learning-trial","232","2016965","0.0-11.0-2.0-1.21","4293","1","18","Female","approach_avoid_spark_v1","""event"",""trial"",""time""
""fullscreenenter"",""1"",""2657""
","
","
","""event"",""trial"",""time""
""fullscreenenter"",""1"",""2657""
","
","","","","","","237.79999995231628","images/horse1.png","","","learning","6","6","1","1","horse","animals","2","1","","neutral","0"
"html-keyboard-response","233","2017466","0.0-11.0-2.0-0.22","4293","1","18","Female","approach_avoid_spark_v1","""event"",""trial"",""time""
""fullscreenenter"",""1"",""2657""
","
","
","""event"",""trial"",""time""
""fullscreenenter"",""1"",""2657""
","
","","","","","","null","<div style=""font-size:60px;"">+</div>","null","","fixation","","","","","","","","","","",""
"aa-learning-trial","234","2020474","0.0-11.0-2.0-1.22","4293","1","18","Female","approach_avoid_spark_v1","""event"",""trial"",""time""
""fullscreenenter"",""1"",""2657""
","
","
","""event"",""trial"",""time""
""fullscreenenter"",""1"",""2657""
","
","","","","","","565.6000001430511","images/goat2.png","","","learning","-9","-9","1","1","goat","animals","2","1","","good","[6]"
"html-keyboard-response","235","2020978","0.0-11.0-2.0-0.23","4293","1","18","Female","approach_avoid_spark_v1","""event"",""trial"",""time""
""fullscreenenter"",""1"",""2657""
","
","
","""event"",""trial"",""time""
""fullscreenenter"",""1"",""2657""
","
","","","","","","null","<div style=""font-size:60px;"">+</div>","null","","fixation","","","","","","","","","","",""
"aa-learning-trial","236","2023984","0.0-11.0-2.0-1.23","4293","1","18","Female","approach_avoid_spark_v1","""event"",""trial"",""time""
""fullscreenenter"",""1"",""2657""
","
","
","""event"",""trial"",""time""
""fullscreenenter"",""1"",""2657""
","
","","","","","","708.6000001430511","images/horse7.png","","","learning","-2","-2","1","1","horse","animals","2","1","","neutral","0"
