"trial_type","trial_index","time_elapsed","internal_node_id","subject_id","task_condition","age","gender","task_version","interactions","blur_events","focus_events","fullscreenenter_events","fullscreenexit_events","success","timeout","failed_images","failed_audio","failed_video","rt","stimulus","response","button_pressed","task_part","approach_reward","points","key_press","option_selected","stim_cat","task_block","block_condition","block_number","correct","cat_type","mean_cat_reward"
"pavlovia","0","2","0.0-0.0","7731","1","22","Male","approach_avoid_spark_v1","""event"",""trial"",""time""
""fullscreenenter"",""1"",""2921""
","
","
","""event"",""trial"",""time""
""fullscreenenter"",""1"",""2921""
","
","","","","","","","","","","","","","","","","","","","","",""
"fullscreen","1","3894","0.0-1.0","7731","1","22","Male","approach_avoid_spark_v1","""event"",""trial"",""time""
""fullscreenenter"",""1"",""2921""
","
","
","""event"",""trial"",""time""
""fullscreenenter"",""1"",""2921""
","
","true","","","","","","","","","","","","","","","","","","","",""
"preload","2","55769","0.0-2.0","7731","1","22","Male","approach_avoid_spark_v1","""event"",""trial"",""time""
""fullscreenenter"",""1"",""2921""
","
","
","""event"",""trial"",""time""
""fullscreenenter"",""1"",""2921""
","
","true","false","[]","[]","[]","","","","","","","","","","","","","","","",""
"audio-keyboard-response","3","60723","0.0-3.0","7731","1","22","Male","approach_avoid_spark_v1","""event"",""trial"",""time""
""fullscreenenter"",""1"",""2921""
","
","
","""event"",""trial"",""time""
""fullscreenenter"",""1"",""2921""
","
","","","","","","3989.3333333333276","audio/beep_loop.wav"," ","","","","","","","","","","","","",""
"audio-button-response","4","65283","0.0-4.0","7731","1","22","Male","approach_avoid_spark_v1","""event"",""trial"",""time""
""fullscreenenter"",""1"",""2921""
","
","
","""event"",""trial"",""time""
""fullscreenenter"",""1"",""2921""
","
","","","","","","4560","audio/shark.wav","0","","","","","","","","","","","","",""
"audio-button-response","5","68323","0.0-5.0","7731","1","22","Male","approach_avoid_spark_v1","""event"",""trial"",""time""
""fullscreenenter"",""1"",""2921""
","
","
","""event"",""trial"",""time""
""fullscreenenter"",""1"",""2921""
","
","","","","","","2019","audio/turtle.wav","1","","","","","","","","","","","","",""
"preload","6","75018","0.0-6.0","7731","1","22","Male","approach_avoid_spark_v1","""event"",""trial"",""time""
""fullscreenenter"",""1"",""2921""
","
","
","""event"",""trial"",""time""
""fullscreenenter"",""1"",""2921""
","
","true","false","[]","[]","[]","","","","","","","","","","","","","","","",""
"html-keyboard-response","7","77196","0.0-7.0","7731","1","22","Male","approach_avoid_spark_v1","""event"",""trial"",""time""
""fullscreenenter"",""1"",""2921""
","
","
","""event"",""trial"",""time""
""fullscreenenter"",""1"",""2921""
","
","","","","","","2177.099999964237","Welcome to the experiment. Press any key to begin and to advance the instructions."," ","","","","","","","","","","","","",""
"learning-instructions","8","87003","0.0-8.0-0.0-0.0","7731","1","22","Male","approach_avoid_spark_v1","""event"",""trial"",""time""
""fullscreenenter"",""1"",""2921""
","
","
","""event"",""trial"",""time""
""fullscreenenter"",""1"",""2921""
","
","","","","","","2850.599999964237","<p> Welcome! Today you are going to play 6 different rounds of a decision-making game. </p><p> Use the mouse to click next to continue. </p>","","0","instructions","","","","","","","","","","",""
"learning-instructions","9","90463","0.0-8.0-0.0-0.1","7731","1","22","Male","approach_avoid_spark_v1","""event"",""trial"",""time""
""fullscreenenter"",""1"",""2921""
","
","
","""event"",""trial"",""time""
""fullscreenenter"",""1"",""2921""
","
","","","","","","720.5","<p> You will start with a practice round to learn the rules. </p>","","0","instructions","","","","","","","","","","",""
"learning-instructions","10","94523","0.0-8.0-0.0-0.2","7731","1","22","Male","approach_avoid_spark_v1","""event"",""trial"",""time""
""fullscreenenter"",""1"",""2921""
","
","
","""event"",""trial"",""time""
""fullscreenenter"",""1"",""2921""
","
","","","","","","590.5","<p> Your goal in this round is to give out sports equipment to kids. </p></div>","","0","instructions","","","","","","","","","","",""
"learning-instructions","11","102692","0.0-8.0-0.0-0.3","7731","1","22","Male","approach_avoid_spark_v1","""event"",""trial"",""time""
""fullscreenenter"",""1"",""2921""
","
","
","""event"",""trial"",""time""
""fullscreenenter"",""1"",""2921""
","
","","","","","","620.5","<p> The kids only like some of the equipment.  </p><p> On each turn, you will see a piece of sports equipment.   </p><p> You need to decide whether to give it to the kids or not.  </p>","","0","instructions","","","","","","","","","","",""
"learning-instructions","12","109794","0.0-8.0-0.0-0.4","7731","1","22","Male","approach_avoid_spark_v1","""event"",""trial"",""time""
""fullscreenenter"",""1"",""2921""
","
","
","""event"",""trial"",""time""
""fullscreenenter"",""1"",""2921""
","
","","","","","","2341.199999988079","<p> You can give them the equipment by pressing 1 and choose not to give it to them by pressing 0. </p><br><div class=""choice-instructions-grid""> <div class=""choice-option""><img src=""images/approach.png"" class=""choice-option-img"" stage=""instructions"" position=""0"" ><div class=""choice-option-text""> Press ""1."" </div></div><div class=""choice-option""><img src=""images/avoid.png"" class=""choice-option-img"" stage=""instructions"" position=""1"" ><div class=""choice-option-text""> Press ""0."" </div></div>","","0","instructions","","","","","","","","","","",""
"learning-instructions","13","118263","0.0-8.0-0.0-0.5","7731","1","22","Male","approach_avoid_spark_v1","""event"",""trial"",""time""
""fullscreenenter"",""1"",""2921""
","
","
","""event"",""trial"",""time""
""fullscreenenter"",""1"",""2921""
","
","","","","","","1081.199999988079","<p> If you give them a piece of equipment they like, they will be happy! </p><p> But if you give them a piece of equipment they do not like, they will be sad. </p>","","0","instructions","","","","","","","","","","",""
"learning-instructions","14","129354","0.0-8.0-0.0-0.6","7731","1","22","Male","approach_avoid_spark_v1","""event"",""trial"",""time""
""fullscreenenter"",""1"",""2921""
","
","
","""event"",""trial"",""time""
""fullscreenenter"",""1"",""2921""
","
","","","","","","570.8999999761581","<p> You will earn points based on how you make kids feel. </p><p> If you make them happy, you will WIN anywhere from 1 - 9 points, </p><p> but if you make them sad, you will LOSE anywhere from 1 - 9 points. </p>","","0","instructions","","","","","","","","","","",""
"learning-instructions","15","139674","0.0-8.0-0.0-0.7","7731","1","22","Male","approach_avoid_spark_v1","""event"",""trial"",""time""
""fullscreenenter"",""1"",""2921""
","
","
","""event"",""trial"",""time""
""fullscreenenter"",""1"",""2921""
","
","","","","","","760.8000000119209","<p> You will see how many points you won or lost in the center of the screen. </p><p> Here is what you would see if you won 6 points: </p><p style=""color:green;font-size:50px;font-weight:bolder"">6</p><p style=""color:green"">The text is GREEN because you WON points.</p>","","0","instructions","","","","","","","","","","",""
"learning-instructions","16","145773","0.0-8.0-0.0-0.8","7731","1","22","Male","approach_avoid_spark_v1","""event"",""trial"",""time""
""fullscreenenter"",""1"",""2921""
","
","
","""event"",""trial"",""time""
""fullscreenenter"",""1"",""2921""
","
","","","","","","590.5999999642372","<p> And here is what you would see if you lost 4 points: </p><p style=""color:red;font-size:50px;font-weight:bolder"">-4</p><p style=""color:red"">The text is RED because you LOST points. </p>","","0","instructions","","","","","","","","","","",""
"learning-instructions","17","161113","0.0-8.0-0.0-0.9","7731","1","22","Male","approach_avoid_spark_v1","""event"",""trial"",""time""
""fullscreenenter"",""1"",""2921""
","
","
","""event"",""trial"",""time""
""fullscreenenter"",""1"",""2921""
","
","","","","","","620.9000000357628","<p> Some of the equipment will make the kids VERY happy or sad. </p><p> These pieces of equipment will make you win or lose LOTS of points. </p><p> Other pieces of equipment will only make the kids a little happy or sad. </p><p> These pieces of equipment will make you win or lose small amounts of points. </p>","","0","instructions","","","","","","","","","","",""
"learning-instructions","18","172282","0.0-8.0-0.0-0.10","7731","1","22","Male","approach_avoid_spark_v1","""event"",""trial"",""time""
""fullscreenenter"",""1"",""2921""
","
","
","""event"",""trial"",""time""
""fullscreenenter"",""1"",""2921""
","
","","","","","","530.2999999523163","<p> If you choose not to give them the equipment, you will not win or lose any points. </p><p>  However, in the center of the screen, you will see the number of points you WOULD HAVE won or lost if you had given them the equipment. </p>","","0","instructions","","","","","","","","","","",""
"learning-instructions","19","206573","0.0-8.0-0.0-0.11","7731","1","22","Male","approach_avoid_spark_v1","""event"",""trial"",""time""
""fullscreenenter"",""1"",""2921""
","
","
","""event"",""trial"",""time""
""fullscreenenter"",""1"",""2921""
","
","","","","","","12750.399999976158","<p> Here is what you might see if you did not give the equipment to the kids but it would have made them happy: </p><p style=""color:grey; font-size:50px; display: inline-block; border-spacing: 15px; border-width:3px; border-style:solid; border-color:red"">  &nbsp; 7 &nbsp; </p><p> Remember, in this case, you would not win or lose ANY points because you did not give them the equipment.  </p><p style=""color:grey"">The text is GREY because you earned ZERO points. </p><p style=""color:red"">However, choosing to give the kids the equipment would have made you win points. The box around the text is RED because you chose the worse option. </p>","","0","instructions","","","","","","","","","","",""
"learning-instructions","20","228343","0.0-8.0-0.0-0.12","7731","1","22","Male","approach_avoid_spark_v1","""event"",""trial"",""time""
""fullscreenenter"",""1"",""2921""
","
","
","""event"",""trial"",""time""
""fullscreenenter"",""1"",""2921""
","
","","","","","","690","<p> Here is what you might see if you did not give the equipment to the kids but it would have made them sad: </p><p style=""color:grey;font-size:50px; display: inline-block; border-spacing: 15px; border-width:3px; border-style:solid; border-color:green"">  &nbsp; -8 &nbsp; </p><p> Remember, in this case, you would not win or lose ANY points because you did not give them the equipment.  </p><p style=""color:grey"">The text is GREY because you earned ZERO points. </p><p  style=""color:green""> Choosing to give the kids the equipment would have made you lose points. The box around the text is GREEN because you chose the better option.</p>","","0","instructions","","","","","","","","","","",""
"learning-instructions","21","238111","0.0-8.0-0.0-0.13","7731","1","22","Male","approach_avoid_spark_v1","""event"",""trial"",""time""
""fullscreenenter"",""1"",""2921""
","
","
","""event"",""trial"",""time""
""fullscreenenter"",""1"",""2921""
","
","","","","","","408.9000000357628","<p> You will have 3 seconds to make each choice. Try to respond before time runs out! </p><p> You will lose 5 points each time you do not make a response. </p>","","0","instructions","","","","","","","","","","",""
"learning-instructions","22","253174","0.0-8.0-0.0-0.14","7731","1","22","Male","approach_avoid_spark_v1","""event"",""trial"",""time""
""fullscreenenter"",""1"",""2921""
","
","
","""event"",""trial"",""time""
""fullscreenenter"",""1"",""2921""
","
","","","","","","9631.399999976158","<p> This is just a practice round, but in the real game, your bonus payment will depend on your total number of points.","","0","instructions","","","","","","","","","","",""
"learning-instructions","23","259716","0.0-8.0-0.0-0.15","7731","1","22","Male","approach_avoid_spark_v1","""event"",""trial"",""time""
""fullscreenenter"",""1"",""2921""
","
","
","""event"",""trial"",""time""
""fullscreenenter"",""1"",""2921""
","
","","","","","","772.7000000476837","<p> Remember, you can give them the equipment by pressing 1 and choose not to give it to them by pressing 0. </p><br><div class=""choice-instructions-grid""> <div class=""choice-option""><img src=""images/approach.png"" class=""choice-option-img"" stage=""instructions"" position=""0"" ><div class=""choice-option-text""> Press ""1."" </div></div><div class=""choice-option""><img src=""images/avoid.png"" class=""choice-option-img"" stage=""instructions"" position=""1"" ><div class=""choice-option-text""> Press ""0."" </div></div>","","0","instructions","","","","","","","","","","",""
"html-button-response","24","262641","0.0-8.0-1.0","7731","1","22","Male","approach_avoid_spark_v1","""event"",""trial"",""time""
""fullscreenenter"",""1"",""2921""
","
","
","""event"",""trial"",""time""
""fullscreenenter"",""1"",""2921""
","
","","","","","","2818.600000023842","<p> Ready to practice? </p>","0","","","","","","","","","","","","",""
"html-keyboard-response","25","263281","0.0-8.0-2.0-0.0","7731","1","22","Male","approach_avoid_spark_v1","""event"",""trial"",""time""
""fullscreenenter"",""1"",""2921""
","
","
","""event"",""trial"",""time""
""fullscreenenter"",""1"",""2921""
","
","","","","","","null","<div style=""font-size:60px;"">+</div>","null","","fixation","","","","","","","","","","",""
"aa-learning-trial","26","266301","0.0-8.0-2.0-1.0","7731","1","22","Male","approach_avoid_spark_v1","""event"",""trial"",""time""
""fullscreenenter"",""1"",""2921""
","
","
","""event"",""trial"",""time""
""fullscreenenter"",""1"",""2921""
","
","","","","","","2210.400000035763","images/racket2.png","","","learning","-5","0","0","0","practice","practice","practice","-1","","",""
"html-keyboard-response","27","266811","0.0-8.0-2.0-0.1","7731","1","22","Male","approach_avoid_spark_v1","""event"",""trial"",""time""
""fullscreenenter"",""1"",""2921""
","
","
","""event"",""trial"",""time""
""fullscreenenter"",""1"",""2921""
","
","","","","","","null","<div style=""font-size:60px;"">+</div>","null","","fixation","","","","","","","","","","",""
"aa-learning-trial","28","269831","0.0-8.0-2.0-1.1","7731","1","22","Male","approach_avoid_spark_v1","""event"",""trial"",""time""
""fullscreenenter"",""1"",""2921""
","
","
","""event"",""trial"",""time""
""fullscreenenter"",""1"",""2921""
","
","","","","","","1432.8999999761581","images/racket4.png","","","learning","-3","0","0","0","practice","practice","practice","-1","","",""
"html-keyboard-response","29","270341","0.0-8.0-2.0-0.2","7731","1","22","Male","approach_avoid_spark_v1","""event"",""trial"",""time""
""fullscreenenter"",""1"",""2921""
","
","
","""event"",""trial"",""time""
""fullscreenenter"",""1"",""2921""
","
","","","","","","null","<div style=""font-size:60px;"">+</div>","null","","fixation","","","","","","","","","","",""
"aa-learning-trial","30","273351","0.0-8.0-2.0-1.2","7731","1","22","Male","approach_avoid_spark_v1","""event"",""trial"",""time""
""fullscreenenter"",""1"",""2921""
","
","
","""event"",""trial"",""time""
""fullscreenenter"",""1"",""2921""
","
","","","","","","863.6999999880791","images/ball2.png","","","learning","5","0","0","0","practice","practice","practice","-1","","",""
"html-keyboard-response","31","273861","0.0-8.0-2.0-0.3","7731","1","22","Male","approach_avoid_spark_v1","""event"",""trial"",""time""
""fullscreenenter"",""1"",""2921""
","
","
","""event"",""trial"",""time""
""fullscreenenter"",""1"",""2921""
","
","","","","","","null","<div style=""font-size:60px;"">+</div>","null","","fixation","","","","","","","","","","",""
"aa-learning-trial","32","276876","0.0-8.0-2.0-1.3","7731","1","22","Male","approach_avoid_spark_v1","""event"",""trial"",""time""
""fullscreenenter"",""1"",""2921""
","
","
","""event"",""trial"",""time""
""fullscreenenter"",""1"",""2921""
","
","","","","","","1191.5","images/ball1.png","","","learning","-6","0","0","0","practice","practice","practice","-1","","",""
"html-keyboard-response","33","277391","0.0-8.0-2.0-0.4","7731","1","22","Male","approach_avoid_spark_v1","""event"",""trial"",""time""
""fullscreenenter"",""1"",""2921""
","
","
","""event"",""trial"",""time""
""fullscreenenter"",""1"",""2921""
","
","","","","","","null","<div style=""font-size:60px;"">+</div>","null","","fixation","","","","","","","","","","",""
"aa-learning-trial","34","280401","0.0-8.0-2.0-1.4","7731","1","22","Male","approach_avoid_spark_v1","""event"",""trial"",""time""
""fullscreenenter"",""1"",""2921""
","
","
","""event"",""trial"",""time""
""fullscreenenter"",""1"",""2921""
","
","","","","","","973.1000000238419","images/racket4.png","","","learning","7","0","0","0","practice","practice","practice","-1","","",""
"html-keyboard-response","35","280911","0.0-8.0-2.0-0.5","7731","1","22","Male","approach_avoid_spark_v1","""event"",""trial"",""time""
""fullscreenenter"",""1"",""2921""
","
","
","""event"",""trial"",""time""
""fullscreenenter"",""1"",""2921""
","
","","","","","","null","<div style=""font-size:60px;"">+</div>","null","","fixation","","","","","","","","","","",""
"aa-learning-trial","36","283921","0.0-8.0-2.0-1.5","7731","1","22","Male","approach_avoid_spark_v1","""event"",""trial"",""time""
""fullscreenenter"",""1"",""2921""
","
","
","""event"",""trial"",""time""
""fullscreenenter"",""1"",""2921""
","
","","","","","","1652.5","images/racket1.png","","","learning","3","0","0","0","practice","practice","practice","-1","","",""
"html-keyboard-response","37","284431","0.0-8.0-2.0-0.6","7731","1","22","Male","approach_avoid_spark_v1","""event"",""trial"",""time""
""fullscreenenter"",""1"",""2921""
","
","
","""event"",""trial"",""time""
""fullscreenenter"",""1"",""2921""
","
","","","","","","null","<div style=""font-size:60px;"">+</div>","null","","fixation","","","","","","","","","","",""
"aa-learning-trial","38","287441","0.0-8.0-2.0-1.6","7731","1","22","Male","approach_avoid_spark_v1","""event"",""trial"",""time""
""fullscreenenter"",""1"",""2921""
","
","
","""event"",""trial"",""time""
""fullscreenenter"",""1"",""2921""
","
","","","","","","1822.5","images/racket2.png","","","learning","-8","0","0","0","practice","practice","practice","-1","","",""
"html-keyboard-response","39","287961","0.0-8.0-2.0-0.7","7731","1","22","Male","approach_avoid_spark_v1","""event"",""trial"",""time""
""fullscreenenter"",""1"",""2921""
","
","
","""event"",""trial"",""time""
""fullscreenenter"",""1"",""2921""
","
","","","","","","null","<div style=""font-size:60px;"">+</div>","null","","fixation","","","","","","","","","","",""
"aa-learning-trial","40","290964","0.0-8.0-2.0-1.7","7731","1","22","Male","approach_avoid_spark_v1","""event"",""trial"",""time""
""fullscreenenter"",""1"",""2921""
","
","
","""event"",""trial"",""time""
""fullscreenenter"",""1"",""2921""
","
","","","","","","1508.7999999523163","images/ball3.png","","","learning","-3","0","0","0","practice","practice","practice","-1","","",""
"html-keyboard-response","41","291465","0.0-8.0-2.0-0.8","7731","1","22","Male","approach_avoid_spark_v1","""event"",""trial"",""time""
""fullscreenenter"",""1"",""2921""
","
","
","""event"",""trial"",""time""
""fullscreenenter"",""1"",""2921""
","
","","","","","","null","<div style=""font-size:60px;"">+</div>","null","","fixation","","","","","","","","","","",""
"aa-learning-trial","42","294468","0.0-8.0-2.0-1.8","7731","1","22","Male","approach_avoid_spark_v1","""event"",""trial"",""time""
""fullscreenenter"",""1"",""2921""
","
","
","""event"",""trial"",""time""
""fullscreenenter"",""1"",""2921""
","
","","","","","","2170.100000023842","images/ball4.png","","","learning","-1","0","0","0","practice","practice","practice","-1","","",""
"html-keyboard-response","43","294970","0.0-8.0-2.0-0.9","7731","1","22","Male","approach_avoid_spark_v1","""event"",""trial"",""time""
""fullscreenenter"",""1"",""2921""
","
","
","""event"",""trial"",""time""
""fullscreenenter"",""1"",""2921""
","
","","","","","","null","<div style=""font-size:60px;"">+</div>","null","","fixation","","","","","","","","","","",""
"aa-learning-trial","44","297972","0.0-8.0-2.0-1.9","7731","1","22","Male","approach_avoid_spark_v1","""event"",""trial"",""time""
""fullscreenenter"",""1"",""2921""
","
","
","""event"",""trial"",""time""
""fullscreenenter"",""1"",""2921""
","
","","","","","","1620.800000011921","images/ball1.png","","","learning","-2","0","0","0","practice","practice","practice","-1","","",""
"html-keyboard-response","45","298474","0.0-8.0-2.0-0.10","7731","1","22","Male","approach_avoid_spark_v1","""event"",""trial"",""time""
""fullscreenenter"",""1"",""2921""
","
","
","""event"",""trial"",""time""
""fullscreenenter"",""1"",""2921""
","
","","","","","","null","<div style=""font-size:60px;"">+</div>","null","","fixation","","","","","","","","","","",""
"aa-learning-trial","46","301476","0.0-8.0-2.0-1.10","7731","1","22","Male","approach_avoid_spark_v1","""event"",""trial"",""time""
""fullscreenenter"",""1"",""2921""
","
","
","""event"",""trial"",""time""
""fullscreenenter"",""1"",""2921""
","
","","","","","","1602.199999988079","images/ball4.png","","","learning","3","3","1","1","practice","practice","practice","-1","","",""
"html-keyboard-response","47","301978","0.0-8.0-2.0-0.11","7731","1","22","Male","approach_avoid_spark_v1","""event"",""trial"",""time""
""fullscreenenter"",""1"",""2921""
","
","
","""event"",""trial"",""time""
""fullscreenenter"",""1"",""2921""
","
","","","","","","null","<div style=""font-size:60px;"">+</div>","null","","fixation","","","","","","","","","","",""
"aa-learning-trial","48","304982","0.0-8.0-2.0-1.11","7731","1","22","Male","approach_avoid_spark_v1","""event"",""trial"",""time""
""fullscreenenter"",""1"",""2921""
","
","
","""event"",""trial"",""time""
""fullscreenenter"",""1"",""2921""
","
","","","","","","1563.5","images/racket4.png","","","learning","-9","-9","1","1","practice","practice","practice","-1","","",""
"html-button-response","49","307585","0.0-8.0-3.0","7731","1","22","Male","approach_avoid_spark_v1","""event"",""trial"",""time""
""fullscreenenter"",""1"",""2921""
","
","
","""event"",""trial"",""time""
""fullscreenenter"",""1"",""2921""
","
","","","","","","2601.099999964237","<p> You earned -6 points in the practice round! </p>","0","","break","","","","","","","","","","",""
"learning-instructions","50","315438","0.0-8.0-4.0-0.0","7731","1","22","Male","approach_avoid_spark_v1","""event"",""trial"",""time""
""fullscreenenter"",""1"",""2921""
","
","
","""event"",""trial"",""time""
""fullscreenenter"",""1"",""2921""
","
","","","","","","895.1999999880791","<p> It's almost time to start the real game. </p><p> Before you start, we're going to ask you a few questions about how the game works. </p>","","0","instructions","","","","","","","","","","",""
"preload","51","318024","0.0-8.0-5.0","7731","1","22","Male","approach_avoid_spark_v1","""event"",""trial"",""time""
""fullscreenenter"",""1"",""2921""
","
","
","""event"",""trial"",""time""
""fullscreenenter"",""1"",""2921""
","
","true","false","[]","[]","[]","","","","","","","","","","","","","","","",""
"comp-q","52","325319","0.0-8.0-6.0-0.0","7731","1","22","Male","approach_avoid_spark_v1","""event"",""trial"",""time""
""fullscreenenter"",""1"",""2921""
","
","
","""event"",""trial"",""time""
""fullscreenenter"",""1"",""2921""
","
","","","","","","2296.2000000476837","<p> <b> True or False? </b> </p><p> If you see a number in GREY, that means you earned that many points. </p>","","1","comp_question","","","","","","","","","true","",""
"comp-q","53","335624","0.0-8.0-6.0-1.0","7731","1","22","Male","approach_avoid_spark_v1","""event"",""trial"",""time""
""fullscreenenter"",""1"",""2921""
","
","
","""event"",""trial"",""time""
""fullscreenenter"",""1"",""2921""
","
","","","","","","1941","<p><b> That's right! </b> If you see a grey number, it means you earned ZERO points. <br> The grey numbers show the points you WOULD HAVE earned if you had made the other choice. </p>","","0","comp_answer","","","","","","","","","","",""
"comp-q","54","341272","0.0-8.0-7.0-0.0","7731","1","22","Male","approach_avoid_spark_v1","""event"",""trial"",""time""
""fullscreenenter"",""1"",""2921""
","
","
","""event"",""trial"",""time""
""fullscreenenter"",""1"",""2921""
","
","","","","","","950.1999999880791","<p> <b> True or False? </b> </p><p> You will have as much time as you want to make each choice. </p>","","1","comp_question","","","","","","","","","true","",""
"comp-q","55","346434","0.0-8.0-7.0-1.0","7731","1","22","Male","approach_avoid_spark_v1","""event"",""trial"",""time""
""fullscreenenter"",""1"",""2921""
","
","
","""event"",""trial"",""time""
""fullscreenenter"",""1"",""2921""
","
","","","","","","1110.800000011921","<p> <b> That's right! </b> You will only have 3 seconds to make each choice. </p>","","0","comp_answer","","","","","","","","","","",""
"comp-q","56","351943","0.0-8.0-8.0-0.0","7731","1","22","Male","approach_avoid_spark_v1","""event"",""trial"",""time""
""fullscreenenter"",""1"",""2921""
","
","
","""event"",""trial"",""time""
""fullscreenenter"",""1"",""2921""
","
","","","","","","840.3999999761581","<p> <b> True or False? </b> </p><p> You should use the '1' and '0' keys to make your choices. </p>","","0","comp_question","","","","","","","","","true","",""
"comp-q","57","358143","0.0-8.0-8.0-1.0","7731","1","22","Male","approach_avoid_spark_v1","""event"",""trial"",""time""
""fullscreenenter"",""1"",""2921""
","
","
","""event"",""trial"",""time""
""fullscreenenter"",""1"",""2921""
","
","","","","","","1580.6000000238419","<p> <b> That's right! </b> You should use the '1' and '0' keys to make each choice. </p>","","0","comp_answer","","","","","","","","","","",""
"learning-instructions","58","368326","0.0-8.0-9.0-0.0","7731","1","22","Male","approach_avoid_spark_v1","""event"",""trial"",""time""
""fullscreenenter"",""1"",""2921""
","
","
","""event"",""trial"",""time""
""fullscreenenter"",""1"",""2921""
","
","","","","","","3893.199999988079","<p> It's now time to start the real game. </p>Do your best, because the points you earn in the next rounds will influence your bonus payment. </p>","","0","instructions","","","","","","","","","","",""
"preload","59","368452","0.0-9.0-0.0","7731","1","22","Male","approach_avoid_spark_v1","""event"",""trial"",""time""
""fullscreenenter"",""1"",""2921""
","
","
","""event"",""trial"",""time""
""fullscreenenter"",""1"",""2921""
","
","true","false","[]","[]","[]","","","","","","","","","","","","","","","",""
"learning-instructions","60","374416","0.0-9.0-1.0-0.0","7731","1","22","Male","approach_avoid_spark_v1","""event"",""trial"",""time""
""fullscreenenter"",""1"",""2921""
","
","
","""event"",""trial"",""time""
""fullscreenenter"",""1"",""2921""
","
","","","","","","1983.3999999761581","<p> Your goal in this round is to take care of lots of animals. </p></div>","","0","instructions","","","","","","","","","","",""
"learning-instructions","61","385363","0.0-9.0-1.0-0.1","7731","1","22","Male","approach_avoid_spark_v1","""event"",""trial"",""time""
""fullscreenenter"",""1"",""2921""
","
","
","""event"",""trial"",""time""
""fullscreenenter"",""1"",""2921""
","
","","","","","","1240.3999999761581","<p> Some animals want to be pet, while other animals want to be left alone.  </p><p> On each turn, you will see an animal.   </p><p> You need to decide whether to pet it or not.  </p>","","0","instructions","","","","","","","","","","",""
"learning-instructions","62","392854","0.0-9.0-1.0-0.2","7731","1","22","Male","approach_avoid_spark_v1","""event"",""trial"",""time""
""fullscreenenter"",""1"",""2921""
","
","
","""event"",""trial"",""time""
""fullscreenenter"",""1"",""2921""
","
","","","","","","650.6000000238419","<p> You can pet the animal by pressing 1 and leave the animal alone by pressing 0. </p><br><div class=""choice-instructions-grid""> <div class=""choice-option""><img src=""images/approach.png"" class=""choice-option-img"" stage=""instructions"" position=""0"" ><div class=""choice-option-text""> Press ""1."" </div></div><div class=""choice-option""><img src=""images/avoid.png"" class=""choice-option-img"" stage=""instructions"" position=""1"" ><div class=""choice-option-text""> Press ""0."" </div></div>","","0","instructions","","","","","","","","","","",""
"learning-instructions","63","404713","0.0-9.0-1.0-0.3","7731","1","22","Male","approach_avoid_spark_v1","""event"",""trial"",""time""
""fullscreenenter"",""1"",""2921""
","
","
","""event"",""trial"",""time""
""fullscreenenter"",""1"",""2921""
","
","","","","","","950.3000000119209","<p> If you pet an animal that wants to be pet, you will make it feel happy! </p><p> But if you pet an animal that wants to be left alone, you will make it feel angry. </p>","","0","instructions","","","","","","","","","","",""
"learning-instructions","64","422143","0.0-9.0-1.0-0.4","7731","1","22","Male","approach_avoid_spark_v1","""event"",""trial"",""time""
""fullscreenenter"",""1"",""2921""
","
","
","""event"",""trial"",""time""
""fullscreenenter"",""1"",""2921""
","
","","","","","","1180.699999988079","<p> You will earn points based on how you made the animal feel. </p><p> If you made it feel happy, you will WIN anywhere from 1 - 9 points, </p><p> but if you made it feel angry, you will LOSE anywhere from 1 - 9 points. </p>","","0","instructions","","","","","","","","","","",""
"learning-instructions","65","431933","0.0-9.0-1.0-0.5","7731","1","22","Male","approach_avoid_spark_v1","""event"",""trial"",""time""
""fullscreenenter"",""1"",""2921""
","
","
","""event"",""trial"",""time""
""fullscreenenter"",""1"",""2921""
","
","","","","","","951","<p> You will see how many points you won or lost in the center of the screen. </p><p> Here is what you would see if you won 5 points: </p><p style=""color:green;font-size:50px;font-weight:bolder"">5</p>","","0","instructions","","","","","","","","","","",""
"learning-instructions","66","436703","0.0-9.0-1.0-0.6","7731","1","22","Male","approach_avoid_spark_v1","""event"",""trial"",""time""
""fullscreenenter"",""1"",""2921""
","
","
","""event"",""trial"",""time""
""fullscreenenter"",""1"",""2921""
","
","","","","","","1041.1000000238419","<p> And here is what you would see if you lost 3 points: </p><p style=""color:red;font-size:50px;font-weight:bolder"">-3</p>","","0","instructions","","","","","","","","","","",""
"learning-instructions","67","451923","0.0-9.0-1.0-0.7","7731","1","22","Male","approach_avoid_spark_v1","""event"",""trial"",""time""
""fullscreenenter"",""1"",""2921""
","
","
","""event"",""trial"",""time""
""fullscreenenter"",""1"",""2921""
","
","","","","","","739.6000000238419","<p> Some animals will become very happy or very angry. </p><p> These animals will make you win or lose LOTS of points. </p><p> Other animals have less strong feelings. </p><p> These animals will make you win or lose small amounts of points. </p>","","0","instructions","","","","","","","","","","",""
"learning-instructions","68","464153","0.0-9.0-1.0-0.8","7731","1","22","Male","approach_avoid_spark_v1","""event"",""trial"",""time""
""fullscreenenter"",""1"",""2921""
","
","
","""event"",""trial"",""time""
""fullscreenenter"",""1"",""2921""
","
","","","","","","660.5","<p> If you choose to leave the animal alone, you will not win or lose any points. </p><p>  However, in the center of the screen, you will see the number of points you WOULD HAVE won or lost if you had pet the animal. </p>","","0","instructions","","","","","","","","","","",""
"learning-instructions","69","476833","0.0-9.0-1.0-0.9","7731","1","22","Male","approach_avoid_spark_v1","""event"",""trial"",""time""
""fullscreenenter"",""1"",""2921""
","
","
","""event"",""trial"",""time""
""fullscreenenter"",""1"",""2921""
","
","","","","","","780.2999999523163","<p> Here is what you might see if you did not pet the animal but the animal wanted to be pet: </p><p style=""color:grey; font-size:50px; display: inline-block; border-spacing: 15px; border-width:3px; border-style:solid; border-color:red"">  &nbsp; 6 &nbsp; </p><p> Remember, in this case, you would not win or lose ANY points because you did not pet the animal.  </p>","","0","instructions","","","","","","","","","","",""
"learning-instructions","70","485513","0.0-9.0-1.0-0.10","7731","1","22","Male","approach_avoid_spark_v1","""event"",""trial"",""time""
""fullscreenenter"",""1"",""2921""
","
","
","""event"",""trial"",""time""
""fullscreenenter"",""1"",""2921""
","
","","","","","","1379.800000011921","<p> Try to make the best choice for each animal because </p><p> at the end of the game, you will earn bonus money based on how many points you earned. </p>","","0","instructions","","","","","","","","","","",""
"learning-instructions","71","494663","0.0-9.0-1.0-0.11","7731","1","22","Male","approach_avoid_spark_v1","""event"",""trial"",""time""
""fullscreenenter"",""1"",""2921""
","
","
","""event"",""trial"",""time""
""fullscreenenter"",""1"",""2921""
","
","","","","","","960.1999999880791","<p> You will have 3 seconds to make each choice. Try to respond before time runs out! </p><p> You will lose 5 points each time you do not make a response. </p>","","0","instructions","","","","","","","","","","",""
"html-keyboard-response","72","495291","0.0-9.0-2.0-0.0","7731","1","22","Male","approach_avoid_spark_v1","""event"",""trial"",""time""
""fullscreenenter"",""1"",""2921""
","
","
","""event"",""trial"",""time""
""fullscreenenter"",""1"",""2921""
","
","","","","","","null","<div style=""font-size:60px;"">+</div>","null","","fixation","","","","","","","","","","",""
"aa-learning-trial","73","498301","0.0-9.0-2.0-1.0","7731","1","22","Male","approach_avoid_spark_v1","""event"",""trial"",""time""
""fullscreenenter"",""1"",""2921""
","
","
","""event"",""trial"",""time""
""fullscreenenter"",""1"",""2921""
","
","","","","","","2087.199999988079","images/cat5.png","","","learning","8","0","0","0","cat","pets","1","0","","good","[6]"
"html-keyboard-response","74","498821","0.0-9.0-2.0-0.1","7731","1","22","Male","approach_avoid_spark_v1","""event"",""trial"",""time""
""fullscreenenter"",""1"",""2921""
","
","
","""event"",""trial"",""time""
""fullscreenenter"",""1"",""2921""
","
","","","","","","null","<div style=""font-size:60px;"">+</div>","null","","fixation","","","","","","","","","","",""
"aa-learning-trial","75","501831","0.0-9.0-2.0-1.1","7731","1","22","Male","approach_avoid_spark_v1","""event"",""trial"",""time""
""fullscreenenter"",""1"",""2921""
","
","
","""event"",""trial"",""time""
""fullscreenenter"",""1"",""2921""
","
","","","","","","1129.800000011921","images/dog1.png","","","learning","3","3","1","1","dog","pets","1","0","","neutral","0"
"html-keyboard-response","76","502341","0.0-9.0-2.0-0.2","7731","1","22","Male","approach_avoid_spark_v1","""event"",""trial"",""time""
""fullscreenenter"",""1"",""2921""
","
","
","""event"",""trial"",""time""
""fullscreenenter"",""1"",""2921""
","
","","","","","","null","<div style=""font-size:60px;"">+</div>","null","","fixation","","","","","","","","","","",""
"aa-learning-trial","77","505351","0.0-9.0-2.0-1.2","7731","1","22","Male","approach_avoid_spark_v1","""event"",""trial"",""time""
""fullscreenenter"",""1"",""2921""
","
","
","""event"",""trial"",""time""
""fullscreenenter"",""1"",""2921""
","
","","","","","","547.2999999523163","images/dog3.png","","","learning","-1","-1","1","1","dog","pets","1","0","","neutral","0"
"html-keyboard-response","78","505871","0.0-9.0-2.0-0.3","7731","1","22","Male","approach_avoid_spark_v1","""event"",""trial"",""time""
""fullscreenenter"",""1"",""2921""
","
","
","""event"",""trial"",""time""
""fullscreenenter"",""1"",""2921""
","
","","","","","","null","<div style=""font-size:60px;"">+</div>","null","","fixation","","","","","","","","","","",""
"aa-learning-trial","79","508881","0.0-9.0-2.0-1.3","7731","1","22","Male","approach_avoid_spark_v1","""event"",""trial"",""time""
""fullscreenenter"",""1"",""2921""
","
","
","""event"",""trial"",""time""
""fullscreenenter"",""1"",""2921""
","
","","","","","","712.6000000238419","images/cat5.png","","","learning","7","7","1","1","cat","pets","1","0","","good","[6]"
"html-keyboard-response","80","509390","0.0-9.0-2.0-0.4","7731","1","22","Male","approach_avoid_spark_v1","""event"",""trial"",""time""
""fullscreenenter"",""1"",""2921""
","
","
","""event"",""trial"",""time""
""fullscreenenter"",""1"",""2921""
","
","","","","","","null","<div style=""font-size:60px;"">+</div>","null","","fixation","","","","","","","","","","",""
"aa-learning-trial","81","512401","0.0-9.0-2.0-1.4","7731","1","22","Male","approach_avoid_spark_v1","""event"",""trial"",""time""
""fullscreenenter"",""1"",""2921""
","
","
","""event"",""trial"",""time""
""fullscreenenter"",""1"",""2921""
","
","","","","","","1035.9000000357628","images/rodent8.png","","","learning","-5","0","0","0","rodent","pets","1","0","","bad","[-6]"
"html-keyboard-response","82","512921","0.0-9.0-2.0-0.5","7731","1","22","Male","approach_avoid_spark_v1","""event"",""trial"",""time""
""fullscreenenter"",""1"",""2921""
","
","
","""event"",""trial"",""time""
""fullscreenenter"",""1"",""2921""
","
","","","","","","null","<div style=""font-size:60px;"">+</div>","null","","fixation","","","","","","","","","","",""
"aa-learning-trial","83","515931","0.0-9.0-2.0-1.5","7731","1","22","Male","approach_avoid_spark_v1","""event"",""trial"",""time""
""fullscreenenter"",""1"",""2921""
","
","
","""event"",""trial"",""time""
""fullscreenenter"",""1"",""2921""
","
","","","","","","1208.0999999642372","images/cat6.png","","","learning","7","7","1","1","cat","pets","1","0","","good","[6]"
"html-keyboard-response","84","516441","0.0-9.0-2.0-0.6","7731","1","22","Male","approach_avoid_spark_v1","""event"",""trial"",""time""
""fullscreenenter"",""1"",""2921""
","
","
","""event"",""trial"",""time""
""fullscreenenter"",""1"",""2921""
","
","","","","","","null","<div style=""font-size:60px;"">+</div>","null","","fixation","","","","","","","","","","",""
"aa-learning-trial","85","519451","0.0-9.0-2.0-1.6","7731","1","22","Male","approach_avoid_spark_v1","""event"",""trial"",""time""
""fullscreenenter"",""1"",""2921""
","
","
","""event"",""trial"",""time""
""fullscreenenter"",""1"",""2921""
","
","","","","","","805.1000000238419","images/rodent3.png","","","learning","-5","0","0","0","rodent","pets","1","0","","bad","[-6]"
"html-keyboard-response","86","519971","0.0-9.0-2.0-0.7","7731","1","22","Male","approach_avoid_spark_v1","""event"",""trial"",""time""
""fullscreenenter"",""1"",""2921""
","
","
","""event"",""trial"",""time""
""fullscreenenter"",""1"",""2921""
","
","","","","","","null","<div style=""font-size:60px;"">+</div>","null","","fixation","","","","","","","","","","",""
"aa-learning-trial","87","522981","0.0-9.0-2.0-1.7","7731","1","22","Male","approach_avoid_spark_v1","""event"",""trial"",""time""
""fullscreenenter"",""1"",""2921""
","
","
","""event"",""trial"",""time""
""fullscreenenter"",""1"",""2921""
","
","","","","","","448","images/dog8.png","","","learning","[1]","1","1","1","dog","pets","1","0","","neutral","0"
"html-keyboard-response","88","523487","0.0-9.0-2.0-0.8","7731","1","22","Male","approach_avoid_spark_v1","""event"",""trial"",""time""
""fullscreenenter"",""1"",""2921""
","
","
","""event"",""trial"",""time""
""fullscreenenter"",""1"",""2921""
","
","","","","","","null","<div style=""font-size:60px;"">+</div>","null","","fixation","","","","","","","","","","",""
"aa-learning-trial","89","526489","0.0-9.0-2.0-1.8","7731","1","22","Male","approach_avoid_spark_v1","""event"",""trial"",""time""
""fullscreenenter"",""1"",""2921""
","
","
","""event"",""trial"",""time""
""fullscreenenter"",""1"",""2921""
","
","","","","","","549.3000000119209","images/rodent4.png","","","learning","-6","0","0","0","rodent","pets","1","0","","bad","[-6]"
"html-keyboard-response","90","526991","0.0-9.0-2.0-0.9","7731","1","22","Male","approach_avoid_spark_v1","""event"",""trial"",""time""
""fullscreenenter"",""1"",""2921""
","
","
","""event"",""trial"",""time""
""fullscreenenter"",""1"",""2921""
","
","","","","","","null","<div style=""font-size:60px;"">+</div>","null","","fixation","","","","","","","","","","",""
"aa-learning-trial","91","529992","0.0-9.0-2.0-1.9","7731","1","22","Male","approach_avoid_spark_v1","""event"",""trial"",""time""
""fullscreenenter"",""1"",""2921""
","
","
","""event"",""trial"",""time""
""fullscreenenter"",""1"",""2921""
","
","","","","","","879.6999999880791","images/dog3.png","","","learning","2","0","0","0","dog","pets","1","0","","neutral","0"
"html-keyboard-response","92","530495","0.0-9.0-2.0-0.10","7731","1","22","Male","approach_avoid_spark_v1","""event"",""trial"",""time""
""fullscreenenter"",""1"",""2921""
","
","
","""event"",""trial"",""time""
""fullscreenenter"",""1"",""2921""
","
","","","","","","null","<div style=""font-size:60px;"">+</div>","null","","fixation","","","","","","","","","","",""
"aa-learning-trial","93","533498","0.0-9.0-2.0-1.10","7731","1","22","Male","approach_avoid_spark_v1","""event"",""trial"",""time""
""fullscreenenter"",""1"",""2921""
","
","
","""event"",""trial"",""time""
""fullscreenenter"",""1"",""2921""
","
","","","","","","541.6999999880791","images/cat2.png","","","learning","5","5","1","1","cat","pets","1","0","","good","[6]"
"html-keyboard-response","94","533999","0.0-9.0-2.0-0.11","7731","1","22","Male","approach_avoid_spark_v1","""event"",""trial"",""time""
""fullscreenenter"",""1"",""2921""
","
","
","""event"",""trial"",""time""
""fullscreenenter"",""1"",""2921""
","
","","","","","","null","<div style=""font-size:60px;"">+</div>","null","","fixation","","","","","","","","","","",""
"aa-learning-trial","95","537003","0.0-9.0-2.0-1.11","7731","1","22","Male","approach_avoid_spark_v1","""event"",""trial"",""time""
""fullscreenenter"",""1"",""2921""
","
","
","""event"",""trial"",""time""
""fullscreenenter"",""1"",""2921""
","
","","","","","","543.8000000119209","images/cat6.png","","","learning","6","6","1","1","cat","pets","1","0","","good","[6]"
"html-keyboard-response","96","537505","0.0-9.0-2.0-0.12","7731","1","22","Male","approach_avoid_spark_v1","""event"",""trial"",""time""
""fullscreenenter"",""1"",""2921""
","
","
","""event"",""trial"",""time""
""fullscreenenter"",""1"",""2921""
","
","","","","","","null","<div style=""font-size:60px;"">+</div>","null","","fixation","","","","","","","","","","",""
"aa-learning-trial","97","540509","0.0-9.0-2.0-1.12","7731","1","22","Male","approach_avoid_spark_v1","""event"",""trial"",""time""
""fullscreenenter"",""1"",""2921""
","
","
","""event"",""trial"",""time""
""fullscreenenter"",""1"",""2921""
","
","","","","","","508.10000002384186","images/dog8.png","","","learning","3","3","1","1","dog","pets","1","0","","neutral","0"
"html-keyboard-response","98","541010","0.0-9.0-2.0-0.13","7731","1","22","Male","approach_avoid_spark_v1","""event"",""trial"",""time""
""fullscreenenter"",""1"",""2921""
","
","
","""event"",""trial"",""time""
""fullscreenenter"",""1"",""2921""
","
","","","","","","null","<div style=""font-size:60px;"">+</div>","null","","fixation","","","","","","","","","","",""
"aa-learning-trial","99","544012","0.0-9.0-2.0-1.13","7731","1","22","Male","approach_avoid_spark_v1","""event"",""trial"",""time""
""fullscreenenter"",""1"",""2921""
","
","
","""event"",""trial"",""time""
""fullscreenenter"",""1"",""2921""
","
","","","","","","620.5","images/rodent3.png","","","learning","-3","0","0","0","rodent","pets","1","0","","bad","[-6]"
"html-keyboard-response","100","544514","0.0-9.0-2.0-0.14","7731","1","22","Male","approach_avoid_spark_v1","""event"",""trial"",""time""
""fullscreenenter"",""1"",""2921""
","
","
","""event"",""trial"",""time""
""fullscreenenter"",""1"",""2921""
","
","","","","","","null","<div style=""font-size:60px;"">+</div>","null","","fixation","","","","","","","","","","",""
"aa-learning-trial","101","547517","0.0-9.0-2.0-1.14","7731","1","22","Male","approach_avoid_spark_v1","""event"",""trial"",""time""
""fullscreenenter"",""1"",""2921""
","
","
","""event"",""trial"",""time""
""fullscreenenter"",""1"",""2921""
","
","","","","","","562.7999999523163","images/rodent4.png","","","learning","-6","0","0","0","rodent","pets","1","0","","bad","[-6]"
"html-keyboard-response","102","548019","0.0-9.0-2.0-0.15","7731","1","22","Male","approach_avoid_spark_v1","""event"",""trial"",""time""
""fullscreenenter"",""1"",""2921""
","
","
","""event"",""trial"",""time""
""fullscreenenter"",""1"",""2921""
","
","","","","","","null","<div style=""font-size:60px;"">+</div>","null","","fixation","","","","","","","","","","",""
"aa-learning-trial","103","551022","0.0-9.0-2.0-1.15","7731","1","22","Male","approach_avoid_spark_v1","""event"",""trial"",""time""
""fullscreenenter"",""1"",""2921""
","
","
","""event"",""trial"",""time""
""fullscreenenter"",""1"",""2921""
","
","","","","","","536.6000000238419","images/rodent5.png","","","learning","-8","0","0","0","rodent","pets","1","0","","bad","[-6]"
"html-keyboard-response","104","551522","0.0-9.0-2.0-0.16","7731","1","22","Male","approach_avoid_spark_v1","""event"",""trial"",""time""
""fullscreenenter"",""1"",""2921""
","
","
","""event"",""trial"",""time""
""fullscreenenter"",""1"",""2921""
","
","","","","","","null","<div style=""font-size:60px;"">+</div>","null","","fixation","","","","","","","","","","",""
"aa-learning-trial","105","554526","0.0-9.0-2.0-1.16","7731","1","22","Male","approach_avoid_spark_v1","""event"",""trial"",""time""
""fullscreenenter"",""1"",""2921""
","
","
","""event"",""trial"",""time""
""fullscreenenter"",""1"",""2921""
","
","","","","","","485.5999999642372","images/rodent8.png","","","learning","-6","0","0","0","rodent","pets","1","0","","bad","[-6]"
"html-keyboard-response","106","555027","0.0-9.0-2.0-0.17","7731","1","22","Male","approach_avoid_spark_v1","""event"",""trial"",""time""
""fullscreenenter"",""1"",""2921""
","
","
","""event"",""trial"",""time""
""fullscreenenter"",""1"",""2921""
","
","","","","","","null","<div style=""font-size:60px;"">+</div>","null","","fixation","","","","","","","","","","",""
"aa-learning-trial","107","558029","0.0-9.0-2.0-1.17","7731","1","22","Male","approach_avoid_spark_v1","""event"",""trial"",""time""
""fullscreenenter"",""1"",""2921""
","
","
","""event"",""trial"",""time""
""fullscreenenter"",""1"",""2921""
","
","","","","","","389.69999998807907","images/rodent3.png","","","learning","-4","0","0","0","rodent","pets","1","0","","bad","[-6]"
"html-keyboard-response","108","558530","0.0-9.0-2.0-0.18","7731","1","22","Male","approach_avoid_spark_v1","""event"",""trial"",""time""
""fullscreenenter"",""1"",""2921""
","
","
","""event"",""trial"",""time""
""fullscreenenter"",""1"",""2921""
","
","","","","","","null","<div style=""font-size:60px;"">+</div>","null","","fixation","","","","","","","","","","",""
"aa-learning-trial","109","561533","0.0-9.0-2.0-1.18","7731","1","22","Male","approach_avoid_spark_v1","""event"",""trial"",""time""
""fullscreenenter"",""1"",""2921""
","
","
","""event"",""trial"",""time""
""fullscreenenter"",""1"",""2921""
","
","","","","","","865.7000000476837","images/dog7.png","","","learning","[-1]","-1","1","1","dog","pets","1","0","","neutral","0"
"html-keyboard-response","110","562035","0.0-9.0-2.0-0.19","7731","1","22","Male","approach_avoid_spark_v1","""event"",""trial"",""time""
""fullscreenenter"",""1"",""2921""
","
","
","""event"",""trial"",""time""
""fullscreenenter"",""1"",""2921""
","
","","","","","","null","<div style=""font-size:60px;"">+</div>","null","","fixation","","","","","","","","","","",""
"aa-learning-trial","111","565038","0.0-9.0-2.0-1.19","7731","1","22","Male","approach_avoid_spark_v1","""event"",""trial"",""time""
""fullscreenenter"",""1"",""2921""
","
","
","""event"",""trial"",""time""
""fullscreenenter"",""1"",""2921""
","
","","","","","","923","images/cat5.png","","","learning","8","8","1","1","cat","pets","1","0","","good","[6]"
"html-keyboard-response","112","565539","0.0-9.0-2.0-0.20","7731","1","22","Male","approach_avoid_spark_v1","""event"",""trial"",""time""
""fullscreenenter"",""1"",""2921""
","
","
","""event"",""trial"",""time""
""fullscreenenter"",""1"",""2921""
","
","","","","","","null","<div style=""font-size:60px;"">+</div>","null","","fixation","","","","","","","","","","",""
"aa-learning-trial","113","568542","0.0-9.0-2.0-1.20","7731","1","22","Male","approach_avoid_spark_v1","""event"",""trial"",""time""
""fullscreenenter"",""1"",""2921""
","
","
","""event"",""trial"",""time""
""fullscreenenter"",""1"",""2921""
","
","","","","","","785.6000000238419","images/dog3.png","","","learning","1","0","0","0","dog","pets","1","0","","neutral","0"
"html-keyboard-response","114","569043","0.0-9.0-2.0-0.21","7731","1","22","Male","approach_avoid_spark_v1","""event"",""trial"",""time""
""fullscreenenter"",""1"",""2921""
","
","
","""event"",""trial"",""time""
""fullscreenenter"",""1"",""2921""
","
","","","","","","null","<div style=""font-size:60px;"">+</div>","null","","fixation","","","","","","","","","","",""
"aa-learning-trial","115","572045","0.0-9.0-2.0-1.21","7731","1","22","Male","approach_avoid_spark_v1","""event"",""trial"",""time""
""fullscreenenter"",""1"",""2921""
","
","
","""event"",""trial"",""time""
""fullscreenenter"",""1"",""2921""
","
","","","","","","541.2999999523163","images/rodent4.png","","","learning","-7","0","0","0","rodent","pets","1","0","","bad","[-6]"
"html-keyboard-response","116","572546","0.0-9.0-2.0-0.22","7731","1","22","Male","approach_avoid_spark_v1","""event"",""trial"",""time""
""fullscreenenter"",""1"",""2921""
","
","
","""event"",""trial"",""time""
""fullscreenenter"",""1"",""2921""
","
","","","","","","null","<div style=""font-size:60px;"">+</div>","null","","fixation","","","","","","","","","","",""
"aa-learning-trial","117","575550","0.0-9.0-2.0-1.22","7731","1","22","Male","approach_avoid_spark_v1","""event"",""trial"",""time""
""fullscreenenter"",""1"",""2921""
","
","
","""event"",""trial"",""time""
""fullscreenenter"",""1"",""2921""
","
","","","","","","1551.8999999761581","images/dog1.png","","","learning","[-1]","-1","1","1","dog","pets","1","0","","neutral","0"
"html-keyboard-response","118","576051","0.0-9.0-2.0-0.23","7731","1","22","Male","approach_avoid_spark_v1","""event"",""trial"",""time""
""fullscreenenter"",""1"",""2921""
","
","
","""event"",""trial"",""time""
""fullscreenenter"",""1"",""2921""
","
","","","","","","null","<div style=""font-size:60px;"">+</div>","null","","fixation","","","","","","","","","","",""
"aa-learning-trial","119","579053","0.0-9.0-2.0-1.23","7731","1","22","Male","approach_avoid_spark_v1","""event"",""trial"",""time""
""fullscreenenter"",""1"",""2921""
","
","
","""event"",""trial"",""time""
""fullscreenenter"",""1"",""2921""
","
","","","","","","813.5","images/dog3.png","","","learning","1","1","1","1","dog","pets","1","0","","neutral","0"
"html-keyboard-response","120","579555","0.0-9.0-2.0-0.24","7731","1","22","Male","approach_avoid_spark_v1","""event"",""trial"",""time""
""fullscreenenter"",""1"",""2921""
","
","
","""event"",""trial"",""time""
""fullscreenenter"",""1"",""2921""
","
","","","","","","null","<div style=""font-size:60px;"">+</div>","null","","fixation","","","","","","","","","","",""
"aa-learning-trial","121","582558","0.0-9.0-2.0-1.24","7731","1","22","Male","approach_avoid_spark_v1","""event"",""trial"",""time""
""fullscreenenter"",""1"",""2921""
","
","
","""event"",""trial"",""time""
""fullscreenenter"",""1"",""2921""
","
","","","","","","524.6999999880791","images/rodent4.png","","","learning","-5","0","0","0","rodent","pets","1","0","","bad","[-6]"
"html-keyboard-response","122","583059","0.0-9.0-2.0-0.25","7731","1","22","Male","approach_avoid_spark_v1","""event"",""trial"",""time""
""fullscreenenter"",""1"",""2921""
","
","
","""event"",""trial"",""time""
""fullscreenenter"",""1"",""2921""
","
","","","","","","null","<div style=""font-size:60px;"">+</div>","null","","fixation","","","","","","","","","","",""
"aa-learning-trial","123","586061","0.0-9.0-2.0-1.25","7731","1","22","Male","approach_avoid_spark_v1","""event"",""trial"",""time""
""fullscreenenter"",""1"",""2921""
","
","
","""event"",""trial"",""time""
""fullscreenenter"",""1"",""2921""
","
","","","","","","742.8000000119209","images/cat6.png","","","learning","5","5","1","1","cat","pets","1","0","","good","[6]"
"html-keyboard-response","124","586569","0.0-9.0-2.0-0.26","7731","1","22","Male","approach_avoid_spark_v1","""event"",""trial"",""time""
""fullscreenenter"",""1"",""2921""
","
","
","""event"",""trial"",""time""
""fullscreenenter"",""1"",""2921""
","
","","","","","","null","<div style=""font-size:60px;"">+</div>","null","","fixation","","","","","","","","","","",""
"aa-learning-trial","125","589572","0.0-9.0-2.0-1.26","7731","1","22","Male","approach_avoid_spark_v1","""event"",""trial"",""time""
""fullscreenenter"",""1"",""2921""
","
","
","""event"",""trial"",""time""
""fullscreenenter"",""1"",""2921""
","
","","","","","","894.2000000476837","images/rodent6.png","","","learning","-5","0","0","0","rodent","pets","1","0","","bad","[-6]"
"html-keyboard-response","126","590073","0.0-9.0-2.0-0.27","7731","1","22","Male","approach_avoid_spark_v1","""event"",""trial"",""time""
""fullscreenenter"",""1"",""2921""
","
","
","""event"",""trial"",""time""
""fullscreenenter"",""1"",""2921""
","
","","","","","","null","<div style=""font-size:60px;"">+</div>","null","","fixation","","","","","","","","","","",""
"aa-learning-trial","127","593076","0.0-9.0-2.0-1.27","7731","1","22","Male","approach_avoid_spark_v1","""event"",""trial"",""time""
""fullscreenenter"",""1"",""2921""
","
","
","""event"",""trial"",""time""
""fullscreenenter"",""1"",""2921""
","
","","","","","","570.3000000119209","images/rodent3.png","","","learning","-4","0","0","0","rodent","pets","1","0","","bad","[-6]"
"html-keyboard-response","128","593578","0.0-9.0-2.0-0.28","7731","1","22","Male","approach_avoid_spark_v1","""event"",""trial"",""time""
""fullscreenenter"",""1"",""2921""
","
","
","""event"",""trial"",""time""
""fullscreenenter"",""1"",""2921""
","
","","","","","","null","<div style=""font-size:60px;"">+</div>","null","","fixation","","","","","","","","","","",""
"aa-learning-trial","129","596581","0.0-9.0-2.0-1.28","7731","1","22","Male","approach_avoid_spark_v1","""event"",""trial"",""time""
""fullscreenenter"",""1"",""2921""
","
","
","""event"",""trial"",""time""
""fullscreenenter"",""1"",""2921""
","
","","","","","","494.7999999523163","images/rodent4.png","","","learning","-6","0","0","0","rodent","pets","1","0","","bad","[-6]"
"html-keyboard-response","130","597085","0.0-9.0-2.0-0.29","7731","1","22","Male","approach_avoid_spark_v1","""event"",""trial"",""time""
""fullscreenenter"",""1"",""2921""
","
","
","""event"",""trial"",""time""
""fullscreenenter"",""1"",""2921""
","
","","","","","","null","<div style=""font-size:60px;"">+</div>","null","","fixation","","","","","","","","","","",""
"aa-learning-trial","131","600087","0.0-9.0-2.0-1.29","7731","1","22","Male","approach_avoid_spark_v1","""event"",""trial"",""time""
""fullscreenenter"",""1"",""2921""
","
","
","""event"",""trial"",""time""
""fullscreenenter"",""1"",""2921""
","
","","","","","","744.6000000238419","images/cat5.png","","","learning","4","4","1","1","cat","pets","1","0","","good","[6]"
"html-keyboard-response","132","600588","0.0-9.0-2.0-0.30","7731","1","22","Male","approach_avoid_spark_v1","""event"",""trial"",""time""
""fullscreenenter"",""1"",""2921""
","
","
","""event"",""trial"",""time""
""fullscreenenter"",""1"",""2921""
","
","","","","","","null","<div style=""font-size:60px;"">+</div>","null","","fixation","","","","","","","","","","",""
"aa-learning-trial","133","603591","0.0-9.0-2.0-1.30","7731","1","22","Male","approach_avoid_spark_v1","""event"",""trial"",""time""
""fullscreenenter"",""1"",""2921""
","
","
","""event"",""trial"",""time""
""fullscreenenter"",""1"",""2921""
","
","","","","","","1809.8999999761581","images/dog1.png","","","learning","[1]","1","1","1","dog","pets","1","0","","neutral","0"
"html-keyboard-response","134","604092","0.0-9.0-2.0-0.31","7731","1","22","Male","approach_avoid_spark_v1","""event"",""trial"",""time""
""fullscreenenter"",""1"",""2921""
","
","
","""event"",""trial"",""time""
""fullscreenenter"",""1"",""2921""
","
","","","","","","null","<div style=""font-size:60px;"">+</div>","null","","fixation","","","","","","","","","","",""
"aa-learning-trial","135","607095","0.0-9.0-2.0-1.31","7731","1","22","Male","approach_avoid_spark_v1","""event"",""trial"",""time""
""fullscreenenter"",""1"",""2921""
","
","
","""event"",""trial"",""time""
""fullscreenenter"",""1"",""2921""
","
","","","","","","593.3000000119209","images/dog8.png","","","learning","3","3","1","1","dog","pets","1","0","","neutral","0"
"html-keyboard-response","136","607597","0.0-9.0-2.0-0.32","7731","1","22","Male","approach_avoid_spark_v1","""event"",""trial"",""time""
""fullscreenenter"",""1"",""2921""
","
","
","""event"",""trial"",""time""
""fullscreenenter"",""1"",""2921""
","
","","","","","","null","<div style=""font-size:60px;"">+</div>","null","","fixation","","","","","","","","","","",""
"aa-learning-trial","137","610600","0.0-9.0-2.0-1.32","7731","1","22","Male","approach_avoid_spark_v1","""event"",""trial"",""time""
""fullscreenenter"",""1"",""2921""
","
","
","""event"",""trial"",""time""
""fullscreenenter"",""1"",""2921""
","
","","","","","","604.6999999880791","images/cat6.png","","","learning","6","6","1","1","cat","pets","1","0","","good","[6]"
"html-keyboard-response","138","611101","0.0-9.0-2.0-0.33","7731","1","22","Male","approach_avoid_spark_v1","""event"",""trial"",""time""
""fullscreenenter"",""1"",""2921""
","
","
","""event"",""trial"",""time""
""fullscreenenter"",""1"",""2921""
","
","","","","","","null","<div style=""font-size:60px;"">+</div>","null","","fixation","","","","","","","","","","",""
"aa-learning-trial","139","614103","0.0-9.0-2.0-1.33","7731","1","22","Male","approach_avoid_spark_v1","""event"",""trial"",""time""
""fullscreenenter"",""1"",""2921""
","
","
","""event"",""trial"",""time""
""fullscreenenter"",""1"",""2921""
","
","","","","","","637.9000000357628","images/rodent4.png","","","learning","-5","0","0","0","rodent","pets","1","0","","bad","[-6]"
"html-keyboard-response","140","614604","0.0-9.0-2.0-0.34","7731","1","22","Male","approach_avoid_spark_v1","""event"",""trial"",""time""
""fullscreenenter"",""1"",""2921""
","
","
","""event"",""trial"",""time""
""fullscreenenter"",""1"",""2921""
","
","","","","","","null","<div style=""font-size:60px;"">+</div>","null","","fixation","","","","","","","","","","",""
"aa-learning-trial","141","617607","0.0-9.0-2.0-1.34","7731","1","22","Male","approach_avoid_spark_v1","""event"",""trial"",""time""
""fullscreenenter"",""1"",""2921""
","
","
","""event"",""trial"",""time""
""fullscreenenter"",""1"",""2921""
","
","","","","","","464.9000000357628","images/rodent8.png","","","learning","-5","0","0","0","rodent","pets","1","0","","bad","[-6]"
"html-keyboard-response","142","618108","0.0-9.0-2.0-0.35","7731","1","22","Male","approach_avoid_spark_v1","""event"",""trial"",""time""
""fullscreenenter"",""1"",""2921""
","
","
","""event"",""trial"",""time""
""fullscreenenter"",""1"",""2921""
","
","","","","","","null","<div style=""font-size:60px;"">+</div>","null","","fixation","","","","","","","","","","",""
"aa-learning-trial","143","621112","0.0-9.0-2.0-1.35","7731","1","22","Male","approach_avoid_spark_v1","""event"",""trial"",""time""
""fullscreenenter"",""1"",""2921""
","
","
","""event"",""trial"",""time""
""fullscreenenter"",""1"",""2921""
","
","","","","","","587.2000000476837","images/dog8.png","","","learning","3","3","1","1","dog","pets","1","0","","neutral","0"
"html-keyboard-response","144","621614","0.0-9.0-2.0-0.36","7731","1","22","Male","approach_avoid_spark_v1","""event"",""trial"",""time""
""fullscreenenter"",""1"",""2921""
","
","
","""event"",""trial"",""time""
""fullscreenenter"",""1"",""2921""
","
","","","","","","null","<div style=""font-size:60px;"">+</div>","null","","fixation","","","","","","","","","","",""
"aa-learning-trial","145","624616","0.0-9.0-2.0-1.36","7731","1","22","Male","approach_avoid_spark_v1","""event"",""trial"",""time""
""fullscreenenter"",""1"",""2921""
","
","
","""event"",""trial"",""time""
""fullscreenenter"",""1"",""2921""
","
","","","","","","745.8000000119209","images/cat2.png","","","learning","5","5","1","1","cat","pets","1","0","","good","[6]"
"html-keyboard-response","146","625118","0.0-9.0-2.0-0.37","7731","1","22","Male","approach_avoid_spark_v1","""event"",""trial"",""time""
""fullscreenenter"",""1"",""2921""
","
","
","""event"",""trial"",""time""
""fullscreenenter"",""1"",""2921""
","
","","","","","","null","<div style=""font-size:60px;"">+</div>","null","","fixation","","","","","","","","","","",""
"aa-learning-trial","147","628120","0.0-9.0-2.0-1.37","7731","1","22","Male","approach_avoid_spark_v1","""event"",""trial"",""time""
""fullscreenenter"",""1"",""2921""
","
","
","""event"",""trial"",""time""
""fullscreenenter"",""1"",""2921""
","
","","","","","","843.1999999880791","images/dog4.png","","","learning","-3","-3","1","1","dog","pets","1","0","","neutral","0"
"html-keyboard-response","148","628621","0.0-9.0-2.0-0.38","7731","1","22","Male","approach_avoid_spark_v1","""event"",""trial"",""time""
""fullscreenenter"",""1"",""2921""
","
","
","""event"",""trial"",""time""
""fullscreenenter"",""1"",""2921""
","
","","","","","","null","<div style=""font-size:60px;"">+</div>","null","","fixation","","","","","","","","","","",""
"aa-learning-trial","149","631625","0.0-9.0-2.0-1.38","7731","1","22","Male","approach_avoid_spark_v1","""event"",""trial"",""time""
""fullscreenenter"",""1"",""2921""
","
","
","""event"",""trial"",""time""
""fullscreenenter"",""1"",""2921""
","
","","","","","","665.6999999880791","images/cat2.png","","","learning","4","4","1","1","cat","pets","1","0","","good","[6]"
"html-keyboard-response","150","632127","0.0-9.0-2.0-0.39","7731","1","22","Male","approach_avoid_spark_v1","""event"",""trial"",""time""
""fullscreenenter"",""1"",""2921""
","
","
","""event"",""trial"",""time""
""fullscreenenter"",""1"",""2921""
","
","","","","","","null","<div style=""font-size:60px;"">+</div>","null","","fixation","","","","","","","","","","",""
"aa-learning-trial","151","635131","0.0-9.0-2.0-1.39","7731","1","22","Male","approach_avoid_spark_v1","""event"",""trial"",""time""
""fullscreenenter"",""1"",""2921""
","
","
","""event"",""trial"",""time""
""fullscreenenter"",""1"",""2921""
","
","","","","","","609.1999999880791","images/cat5.png","","","learning","7","7","1","1","cat","pets","1","0","","good","[6]"
"html-keyboard-response","152","635633","0.0-9.0-2.0-0.40","7731","1","22","Male","approach_avoid_spark_v1","""event"",""trial"",""time""
""fullscreenenter"",""1"",""2921""
","
","
","""event"",""trial"",""time""
""fullscreenenter"",""1"",""2921""
","
","","","","","","null","<div style=""font-size:60px;"">+</div>","null","","fixation","","","","","","","","","","",""
"aa-learning-trial","153","638635","0.0-9.0-2.0-1.40","7731","1","22","Male","approach_avoid_spark_v1","""event"",""trial"",""time""
""fullscreenenter"",""1"",""2921""
","
","
","""event"",""trial"",""time""
""fullscreenenter"",""1"",""2921""
","
","","","","","","592.1000000238419","images/rodent3.png","","","learning","-6","0","0","0","rodent","pets","1","0","","bad","[-6]"
"html-keyboard-response","154","639138","0.0-9.0-2.0-0.41","7731","1","22","Male","approach_avoid_spark_v1","""event"",""trial"",""time""
""fullscreenenter"",""1"",""2921""
","
","
","""event"",""trial"",""time""
""fullscreenenter"",""1"",""2921""
","
","","","","","","null","<div style=""font-size:60px;"">+</div>","null","","fixation","","","","","","","","","","",""
"aa-learning-trial","155","642140","0.0-9.0-2.0-1.41","7731","1","22","Male","approach_avoid_spark_v1","""event"",""trial"",""time""
""fullscreenenter"",""1"",""2921""
","
","
","""event"",""trial"",""time""
""fullscreenenter"",""1"",""2921""
","
","","","","","","836.3999999761581","images/dog3.png","","","learning","-1","-1","1","1","dog","pets","1","0","","neutral","0"
"html-keyboard-response","156","642641","0.0-9.0-2.0-0.42","7731","1","22","Male","approach_avoid_spark_v1","""event"",""trial"",""time""
""fullscreenenter"",""1"",""2921""
","
","
","""event"",""trial"",""time""
""fullscreenenter"",""1"",""2921""
","
","","","","","","null","<div style=""font-size:60px;"">+</div>","null","","fixation","","","","","","","","","","",""
"aa-learning-trial","157","645644","0.0-9.0-2.0-1.42","7731","1","22","Male","approach_avoid_spark_v1","""event"",""trial"",""time""
""fullscreenenter"",""1"",""2921""
","
","
","""event"",""trial"",""time""
""fullscreenenter"",""1"",""2921""
","
","","","","","","554.6999999880791","images/cat6.png","","","learning","8","8","1","1","cat","pets","1","0","","good","[6]"
"html-keyboard-response","158","646146","0.0-9.0-2.0-0.43","7731","1","22","Male","approach_avoid_spark_v1","""event"",""trial"",""time""
""fullscreenenter"",""1"",""2921""
","
","
","""event"",""trial"",""time""
""fullscreenenter"",""1"",""2921""
","
","","","","","","null","<div style=""font-size:60px;"">+</div>","null","","fixation","","","","","","","","","","",""
"aa-learning-trial","159","649149","0.0-9.0-2.0-1.43","7731","1","22","Male","approach_avoid_spark_v1","""event"",""trial"",""time""
""fullscreenenter"",""1"",""2921""
","
","
","""event"",""trial"",""time""
""fullscreenenter"",""1"",""2921""
","
","","","","","","476.89999997615814","images/cat6.png","","","learning","4","4","1","1","cat","pets","1","0","","good","[6]"
"html-keyboard-response","160","649651","0.0-9.0-2.0-0.44","7731","1","22","Male","approach_avoid_spark_v1","""event"",""trial"",""time""
""fullscreenenter"",""1"",""2921""
","
","
","""event"",""trial"",""time""
""fullscreenenter"",""1"",""2921""
","
","","","","","","null","<div style=""font-size:60px;"">+</div>","null","","fixation","","","","","","","","","","",""
"aa-learning-trial","161","652655","0.0-9.0-2.0-1.44","7731","1","22","Male","approach_avoid_spark_v1","""event"",""trial"",""time""
""fullscreenenter"",""1"",""2921""
","
","
","""event"",""trial"",""time""
""fullscreenenter"",""1"",""2921""
","
","","","","","","640.2000000476837","images/dog8.png","","","learning","-2","-2","1","1","dog","pets","1","0","","neutral","0"
"html-keyboard-response","162","653155","0.0-9.0-2.0-0.45","7731","1","22","Male","approach_avoid_spark_v1","""event"",""trial"",""time""
""fullscreenenter"",""1"",""2921""
","
","
","""event"",""trial"",""time""
""fullscreenenter"",""1"",""2921""
","
","","","","","","null","<div style=""font-size:60px;"">+</div>","null","","fixation","","","","","","","","","","",""
"aa-learning-trial","163","656157","0.0-9.0-2.0-1.45","7731","1","22","Male","approach_avoid_spark_v1","""event"",""trial"",""time""
""fullscreenenter"",""1"",""2921""
","
","
","""event"",""trial"",""time""
""fullscreenenter"",""1"",""2921""
","
","","","","","","691.7999999523163","images/cat7.png","","","learning","7","7","1","1","cat","pets","1","0","","good","[6]"
"html-keyboard-response","164","656660","0.0-9.0-2.0-0.46","7731","1","22","Male","approach_avoid_spark_v1","""event"",""trial"",""time""
""fullscreenenter"",""1"",""2921""
","
","
","""event"",""trial"",""time""
""fullscreenenter"",""1"",""2921""
","
","","","","","","null","<div style=""font-size:60px;"">+</div>","null","","fixation","","","","","","","","","","",""
"aa-learning-trial","165","659663","0.0-9.0-2.0-1.46","7731","1","22","Male","approach_avoid_spark_v1","""event"",""trial"",""time""
""fullscreenenter"",""1"",""2921""
","
","
","""event"",""trial"",""time""
""fullscreenenter"",""1"",""2921""
","
","","","","","","630.0999999642372","images/cat3.png","","","learning","3","3","1","1","cat","pets","1","0","","good","[6]"
"html-keyboard-response","166","660165","0.0-9.0-2.0-0.47","7731","1","22","Male","approach_avoid_spark_v1","""event"",""trial"",""time""
""fullscreenenter"",""1"",""2921""
","
","
","""event"",""trial"",""time""
""fullscreenenter"",""1"",""2921""
","
","","","","","","null","<div style=""font-size:60px;"">+</div>","null","","fixation","","","","","","","","","","",""
"aa-learning-trial","167","663168","0.0-9.0-2.0-1.47","7731","1","22","Male","approach_avoid_spark_v1","""event"",""trial"",""time""
""fullscreenenter"",""1"",""2921""
","
","
","""event"",""trial"",""time""
""fullscreenenter"",""1"",""2921""
","
","","","","","","580.6999999880791","images/rodent3.png","","","learning","-6","0","0","0","rodent","pets","1","0","","bad","[-6]"
"html-keyboard-response","168","663669","0.0-9.0-2.0-0.48","7731","1","22","Male","approach_avoid_spark_v1","""event"",""trial"",""time""
""fullscreenenter"",""1"",""2921""
","
","
","""event"",""trial"",""time""
""fullscreenenter"",""1"",""2921""
","
","","","","","","null","<div style=""font-size:60px;"">+</div>","null","","fixation","","","","","","","","","","",""
"aa-learning-trial","169","666671","0.0-9.0-2.0-1.48","7731","1","22","Male","approach_avoid_spark_v1","""event"",""trial"",""time""
""fullscreenenter"",""1"",""2921""
","
","
","""event"",""trial"",""time""
""fullscreenenter"",""1"",""2921""
","
","","","","","","567.3000000119209","images/dog8.png","","","learning","3","3","1","1","dog","pets","1","0","","neutral","0"
"html-keyboard-response","170","667182","0.0-9.0-2.0-0.49","7731","1","22","Male","approach_avoid_spark_v1","""event"",""trial"",""time""
""fullscreenenter"",""1"",""2921""
","
","
","""event"",""trial"",""time""
""fullscreenenter"",""1"",""2921""
","
","","","","","","null","<div style=""font-size:60px;"">+</div>","null","","fixation","","","","","","","","","","",""
"aa-learning-trial","171","670184","0.0-9.0-2.0-1.49","7731","1","22","Male","approach_avoid_spark_v1","""event"",""trial"",""time""
""fullscreenenter"",""1"",""2921""
","
","
","""event"",""trial"",""time""
""fullscreenenter"",""1"",""2921""
","
","","","","","","847.6999999880791","images/dog3.png","","","learning","1","1","1","1","dog","pets","1","0","","neutral","0"
"html-keyboard-response","172","670685","0.0-9.0-2.0-0.50","7731","1","22","Male","approach_avoid_spark_v1","""event"",""trial"",""time""
""fullscreenenter"",""1"",""2921""
","
","
","""event"",""trial"",""time""
""fullscreenenter"",""1"",""2921""
","
","","","","","","null","<div style=""font-size:60px;"">+</div>","null","","fixation","","","","","","","","","","",""
"aa-learning-trial","173","673688","0.0-9.0-2.0-1.50","7731","1","22","Male","approach_avoid_spark_v1","""event"",""trial"",""time""
""fullscreenenter"",""1"",""2921""
","
","
","""event"",""trial"",""time""
""fullscreenenter"",""1"",""2921""
","
","","","","","","524.9000000357628","images/cat5.png","","","learning","7","7","1","1","cat","pets","1","0","","good","[6]"
"html-button-response","174","676393","0.0-9.0-3.0","7731","1","22","Male","approach_avoid_spark_v1","""event"",""trial"",""time""
""fullscreenenter"",""1"",""2921""
","
","
","""event"",""trial"",""time""
""fullscreenenter"",""1"",""2921""
","
","","","","","","2703.900000035763","<p> You have completed the round! <p> In this round, you earned 103 points! </p>","0","","break","","","","","","","","","","",""
"html-button-response","175","705407","0.0-10.0","7731","1","22","Male","approach_avoid_spark_v1","""event"",""trial"",""time""
""fullscreenenter"",""1"",""2921""
","
","
","""event"",""trial"",""time""
""fullscreenenter"",""1"",""2921""
","
","","","","","","29012.400000035763","<p> Now it's time to play another round. </p>","0","","transition_screen","","","","","","","","","","",""
"preload","176","705518","0.0-11.0-0.0","7731","1","22","Male","approach_avoid_spark_v1","""event"",""trial"",""time""
""fullscreenenter"",""1"",""2921""
","
","
","""event"",""trial"",""time""
""fullscreenenter"",""1"",""2921""
","
","true","false","[]","[]","[]","","","","","","","","","","","","","","","",""
"learning-instructions","177","711956","0.0-11.0-1.0-0.0","7731","1","22","Male","approach_avoid_spark_v1","""event"",""trial"",""time""
""fullscreenenter"",""1"",""2921""
","
","
","""event"",""trial"",""time""
""fullscreenenter"",""1"",""2921""
","
","","","","","","1331.5","<p> Your goal in this round is to eat tasty fruit. </p></div>","","0","instructions","","","","","","","","","","",""
"learning-instructions","178","723005","0.0-11.0-1.0-0.1","7731","1","22","Male","approach_avoid_spark_v1","""event"",""trial"",""time""
""fullscreenenter"",""1"",""2921""
","
","
","""event"",""trial"",""time""
""fullscreenenter"",""1"",""2921""
","
","","","","","","1161","<p> Some of the fruits you will see are tasty. Others are rotten on the inside.  </p><p> On each turn, you will see a fruit.   </p><p> You need to decide whether to eat it or not.  </p>","","0","instructions","","","","","","","","","","",""
"learning-instructions","179","745988","0.0-11.0-1.0-0.2","7731","1","22","Male","approach_avoid_spark_v1","""event"",""trial"",""time""
""fullscreenenter"",""1"",""2921""
","
","
","""event"",""trial"",""time""
""fullscreenenter"",""1"",""2921""
","
","","","","","","15759.5","<p> You can eat the fruit by pressing 1 and choose not to eat it by pressing 0. </p><br><div class=""choice-instructions-grid""> <div class=""choice-option""><img src=""images/approach.png"" class=""choice-option-img"" stage=""instructions"" position=""0"" ><div class=""choice-option-text""> Press ""1."" </div></div><div class=""choice-option""><img src=""images/avoid.png"" class=""choice-option-img"" stage=""instructions"" position=""1"" ><div class=""choice-option-text""> Press ""0."" </div></div>","","0","instructions","","","","","","","","","","",""
"learning-instructions","180","756169","0.0-11.0-1.0-0.3","7731","1","22","Male","approach_avoid_spark_v1","""event"",""trial"",""time""
""fullscreenenter"",""1"",""2921""
","
","
","""event"",""trial"",""time""
""fullscreenenter"",""1"",""2921""
","
","","","","","","700.8000000119209","<p> If you eat the fruit and it was tasty, you will win points! </p><p> But if you eat the fruit and it was rotten, you will lose points. </p>","","0","instructions","","","","","","","","","","",""
"learning-instructions","181","772189","0.0-11.0-1.0-0.4","7731","1","22","Male","approach_avoid_spark_v1","""event"",""trial"",""time""
""fullscreenenter"",""1"",""2921""
","
","
","""event"",""trial"",""time""
""fullscreenenter"",""1"",""2921""
","
","","","","","","1150.6000000238419","<p> You will earn points based on how tasty or rotten the fruit was. </p><p> If it was tasty, you will WIN anywhere from 1 - 9 points, </p><p> but if it was rotten, you will LOSE anywhere from 1 - 9 points. </p>","","0","instructions","","","","","","","","","","",""
"learning-instructions","182","779439","0.0-11.0-1.0-0.5","7731","1","22","Male","approach_avoid_spark_v1","""event"",""trial"",""time""
""fullscreenenter"",""1"",""2921""
","
","
","""event"",""trial"",""time""
""fullscreenenter"",""1"",""2921""
","
","","","","","","580.8000000119209","<p> You will see how many points you won or lost in the center of the screen. </p><p> Here is what you would see if you earned 5 points: </p><p style=""color:green;font-size:50px;font-weight:bolder"">5</p>","","0","instructions","","","","","","","","","","",""
"learning-instructions","183","782579","0.0-11.0-1.0-0.6","7731","1","22","Male","approach_avoid_spark_v1","""event"",""trial"",""time""
""fullscreenenter"",""1"",""2921""
","
","
","""event"",""trial"",""time""
""fullscreenenter"",""1"",""2921""
","
","","","","","","291.10000002384186","<p> And here is what you would see if you lost 3 points: </p><p style=""color:red;font-size:50px;font-weight:bolder"">-3</p>","","0","instructions","","","","","","","","","","",""
"learning-instructions","184","809344","0.0-11.0-1.0-0.7","7731","1","22","Male","approach_avoid_spark_v1","""event"",""trial"",""time""
""fullscreenenter"",""1"",""2921""
","
","
","""event"",""trial"",""time""
""fullscreenenter"",""1"",""2921""
","
","","","","","","10680.5","<p> Some fruit is very tasty or very rotten. </p><p> These fruits will make you win or lose LOTS of points. </p><p> Other fruits are only kind of tasty or kind of rotten. </p><p> These fruits will make you win or lose small amounts of points. </p>","","0","instructions","","","","","","","","","","",""
"learning-instructions","185","820873","0.0-11.0-1.0-0.8","7731","1","22","Male","approach_avoid_spark_v1","""event"",""trial"",""time""
""fullscreenenter"",""1"",""2921""
","
","
","""event"",""trial"",""time""
""fullscreenenter"",""1"",""2921""
","
","","","","","","620.3000000119209","<p> If you choose to not eat the fruit, you will not win or lose any points. </p><p>  However, in the center of the screen, you will see the number of points you WOULD HAVE earned if you had eaten the fruit. </p>","","0","instructions","","","","","","","","","","",""
"learning-instructions","186","831634","0.0-11.0-1.0-0.9","7731","1","22","Male","approach_avoid_spark_v1","""event"",""trial"",""time""
""fullscreenenter"",""1"",""2921""
","
","
","""event"",""trial"",""time""
""fullscreenenter"",""1"",""2921""
","
","","","","","","640.6000000238419","<p> Here is what you might see if you did not eat the fruit but the fruit was tasty: </p><p style=""color:grey; font-size:50px; display: inline-block; border-spacing: 15px; border-width:3px; border-style:solid; border-color:red"">  &nbsp; 6 &nbsp; </p><p> Remember, in this case, you would not win or lose ANY points because you did not eat the fruit.  </p>","","0","instructions","","","","","","","","","","",""
"learning-instructions","187","842665","0.0-11.0-1.0-0.10","7731","1","22","Male","approach_avoid_spark_v1","""event"",""trial"",""time""
""fullscreenenter"",""1"",""2921""
","
","
","""event"",""trial"",""time""
""fullscreenenter"",""1"",""2921""
","
","","","","","","601.0999999642372","<p> Try to make the best choice for each fruit because </p><p> at the end of the game, you will earn bonus money based on how many points you earned. </p>","","0","instructions","","","","","","","","","","",""
"learning-instructions","188","851504","0.0-11.0-1.0-0.11","7731","1","22","Male","approach_avoid_spark_v1","""event"",""trial"",""time""
""fullscreenenter"",""1"",""2921""
","
","
","""event"",""trial"",""time""
""fullscreenenter"",""1"",""2921""
","
","","","","","","630.4000000357628","<p> You will have 3 seconds to make each choice. Try to respond before time runs out! </p><p> You will lose 5 points each time you do not make a response. </p>","","0","instructions","","","","","","","","","","",""
"html-keyboard-response","189","852132","0.0-11.0-2.0-0.0","7731","1","22","Male","approach_avoid_spark_v1","""event"",""trial"",""time""
""fullscreenenter"",""1"",""2921""
","
","
","""event"",""trial"",""time""
""fullscreenenter"",""1"",""2921""
","
","","","","","","null","<div style=""font-size:60px;"">+</div>","null","","fixation","","","","","","","","","","",""
"aa-learning-trial","190","855152","0.0-11.0-2.0-1.0","7731","1","22","Male","approach_avoid_spark_v1","""event"",""trial"",""time""
""fullscreenenter"",""1"",""2921""
","
","
","""event"",""trial"",""time""
""fullscreenenter"",""1"",""2921""
","
","","","","","","996.1000000238419","images/banana3.png","","","learning","6","0","0","0","banana","fruit","2","1","","good","[5]"
"html-keyboard-response","191","855662","0.0-11.0-2.0-0.1","7731","1","22","Male","approach_avoid_spark_v1","""event"",""trial"",""time""
""fullscreenenter"",""1"",""2921""
","
","
","""event"",""trial"",""time""
""fullscreenenter"",""1"",""2921""
","
","","","","","","null","<div style=""font-size:60px;"">+</div>","null","","fixation","","","","","","","","","","",""
"aa-learning-trial","192","858672","0.0-11.0-2.0-1.1","7731","1","22","Male","approach_avoid_spark_v1","""event"",""trial"",""time""
""fullscreenenter"",""1"",""2921""
","
","
","""event"",""trial"",""time""
""fullscreenenter"",""1"",""2921""
","
","","","","","","594.1000000238419","images/apple2.png","","","learning","8","8","1","1","apple","fruit","2","1","","bad","[-3]"
"html-keyboard-response","193","859182","0.0-11.0-2.0-0.2","7731","1","22","Male","approach_avoid_spark_v1","""event"",""trial"",""time""
""fullscreenenter"",""1"",""2921""
","
","
","""event"",""trial"",""time""
""fullscreenenter"",""1"",""2921""
","
","","","","","","null","<div style=""font-size:60px;"">+</div>","null","","fixation","","","","","","","","","","",""
"aa-learning-trial","194","862202","0.0-11.0-2.0-1.2","7731","1","22","Male","approach_avoid_spark_v1","""event"",""trial"",""time""
""fullscreenenter"",""1"",""2921""
","
","
","""event"",""trial"",""time""
""fullscreenenter"",""1"",""2921""
","
","","","","","","472.39999997615814","images/apple2.png","","","learning","8","8","1","1","apple","fruit","2","1","","bad","[-3]"
"html-keyboard-response","195","862708","0.0-11.0-2.0-0.3","7731","1","22","Male","approach_avoid_spark_v1","""event"",""trial"",""time""
""fullscreenenter"",""1"",""2921""
","
","
","""event"",""trial"",""time""
""fullscreenenter"",""1"",""2921""
","
","","","","","","null","<div style=""font-size:60px;"">+</div>","null","","fixation","","","","","","","","","","",""
"aa-learning-trial","196","865723","0.0-11.0-2.0-1.3","7731","1","22","Male","approach_avoid_spark_v1","""event"",""trial"",""time""
""fullscreenenter"",""1"",""2921""
","
","
","""event"",""trial"",""time""
""fullscreenenter"",""1"",""2921""
","
","","","","","","818.8999999761581","images/orange4.png","","","learning","-9","-9","1","1","orange","fruit","2","1","","neutral","0"
"html-keyboard-response","197","866227","0.0-11.0-2.0-0.4","7731","1","22","Male","approach_avoid_spark_v1","""event"",""trial"",""time""
""fullscreenenter"",""1"",""2921""
","
","
","""event"",""trial"",""time""
""fullscreenenter"",""1"",""2921""
","
","","","","","","null","<div style=""font-size:60px;"">+</div>","null","","fixation","","","","","","","","","","",""
"aa-learning-trial","198","869247","0.0-11.0-2.0-1.4","7731","1","22","Male","approach_avoid_spark_v1","""event"",""trial"",""time""
""fullscreenenter"",""1"",""2921""
","
","
","""event"",""trial"",""time""
""fullscreenenter"",""1"",""2921""
","
","","","","","","1085.8999999761581","images/orange8.png","","","learning","-4","-4","1","1","orange","fruit","2","1","","neutral","0"
"html-keyboard-response","199","869767","0.0-11.0-2.0-0.5","7731","1","22","Male","approach_avoid_spark_v1","""event"",""trial"",""time""
""fullscreenenter"",""1"",""2921""
","
","
","""event"",""trial"",""time""
""fullscreenenter"",""1"",""2921""
","
","","","","","","null","<div style=""font-size:60px;"">+</div>","null","","fixation","","","","","","","","","","",""
"aa-learning-trial","200","872772","0.0-11.0-2.0-1.5","7731","1","22","Male","approach_avoid_spark_v1","""event"",""trial"",""time""
""fullscreenenter"",""1"",""2921""
","
","
","""event"",""trial"",""time""
""fullscreenenter"",""1"",""2921""
","
","","","","","","668.4000000357628","images/apple1.png","","","learning","4","4","1","1","apple","fruit","2","1","","bad","[-3]"
"html-keyboard-response","201","873282","0.0-11.0-2.0-0.6","7731","1","22","Male","approach_avoid_spark_v1","""event"",""trial"",""time""
""fullscreenenter"",""1"",""2921""
","
","
","""event"",""trial"",""time""
""fullscreenenter"",""1"",""2921""
","
","","","","","","null","<div style=""font-size:60px;"">+</div>","null","","fixation","","","","","","","","","","",""
"aa-learning-trial","202","876302","0.0-11.0-2.0-1.6","7731","1","22","Male","approach_avoid_spark_v1","""event"",""trial"",""time""
""fullscreenenter"",""1"",""2921""
","
","
","""event"",""trial"",""time""
""fullscreenenter"",""1"",""2921""
","
","","","","","","655.1999999880791","images/apple8.png","","","learning","1","1","1","1","apple","fruit","2","1","","bad","[-3]"
"html-keyboard-response","203","876812","0.0-11.0-2.0-0.7","7731","1","22","Male","approach_avoid_spark_v1","""event"",""trial"",""time""
""fullscreenenter"",""1"",""2921""
","
","
","""event"",""trial"",""time""
""fullscreenenter"",""1"",""2921""
","
","","","","","","null","<div style=""font-size:60px;"">+</div>","null","","fixation","","","","","","","","","","",""
"aa-learning-trial","204","879822","0.0-11.0-2.0-1.7","7731","1","22","Male","approach_avoid_spark_v1","""event"",""trial"",""time""
""fullscreenenter"",""1"",""2921""
","
","
","""event"",""trial"",""time""
""fullscreenenter"",""1"",""2921""
","
","","","","","","674","images/orange8.png","","","learning","-4","0","0","0","orange","fruit","2","1","","neutral","0"
"html-keyboard-response","205","880342","0.0-11.0-2.0-0.8","7731","1","22","Male","approach_avoid_spark_v1","""event"",""trial"",""time""
""fullscreenenter"",""1"",""2921""
","
","
","""event"",""trial"",""time""
""fullscreenenter"",""1"",""2921""
","
","","","","","","null","<div style=""font-size:60px;"">+</div>","null","","fixation","","","","","","","","","","",""
"aa-learning-trial","206","883346","0.0-11.0-2.0-1.8","7731","1","22","Male","approach_avoid_spark_v1","""event"",""trial"",""time""
""fullscreenenter"",""1"",""2921""
","
","
","""event"",""trial"",""time""
""fullscreenenter"",""1"",""2921""
","
","","","","","","581.5","images/banana7.png","","","learning","-2","-2","1","1","banana","fruit","2","1","","good","[5]"
"html-keyboard-response","207","883851","0.0-11.0-2.0-0.9","7731","1","22","Male","approach_avoid_spark_v1","""event"",""trial"",""time""
""fullscreenenter"",""1"",""2921""
","
","
","""event"",""trial"",""time""
""fullscreenenter"",""1"",""2921""
","
","","","","","","null","<div style=""font-size:60px;"">+</div>","null","","fixation","","","","","","","","","","",""
"aa-learning-trial","208","886853","0.0-11.0-2.0-1.9","7731","1","22","Male","approach_avoid_spark_v1","""event"",""trial"",""time""
""fullscreenenter"",""1"",""2921""
","
","
","""event"",""trial"",""time""
""fullscreenenter"",""1"",""2921""
","
","","","","","","632.8000000119209","images/banana5.png","","","learning","3","3","1","1","banana","fruit","2","1","","good","[5]"
"html-keyboard-response","209","887354","0.0-11.0-2.0-0.10","7731","1","22","Male","approach_avoid_spark_v1","""event"",""trial"",""time""
""fullscreenenter"",""1"",""2921""
","
","
","""event"",""trial"",""time""
""fullscreenenter"",""1"",""2921""
","
","","","","","","null","<div style=""font-size:60px;"">+</div>","null","","fixation","","","","","","","","","","",""
"aa-learning-trial","210","890357","0.0-11.0-2.0-1.10","7731","1","22","Male","approach_avoid_spark_v1","""event"",""trial"",""time""
""fullscreenenter"",""1"",""2921""
","
","
","""event"",""trial"",""time""
""fullscreenenter"",""1"",""2921""
","
","","","","","","835.3000000119209","images/orange7.png","","","learning","7","0","0","0","orange","fruit","2","1","","neutral","0"
"html-keyboard-response","211","890858","0.0-11.0-2.0-0.11","7731","1","22","Male","approach_avoid_spark_v1","""event"",""trial"",""time""
""fullscreenenter"",""1"",""2921""
","
","
","""event"",""trial"",""time""
""fullscreenenter"",""1"",""2921""
","
","","","","","","null","<div style=""font-size:60px;"">+</div>","null","","fixation","","","","","","","","","","",""
"aa-learning-trial","212","893861","0.0-11.0-2.0-1.11","7731","1","22","Male","approach_avoid_spark_v1","""event"",""trial"",""time""
""fullscreenenter"",""1"",""2921""
","
","
","""event"",""trial"",""time""
""fullscreenenter"",""1"",""2921""
","
","","","","","","605","images/banana7.png","","","learning","-2","-2","1","1","banana","fruit","2","1","","good","[5]"
"html-keyboard-response","213","894363","0.0-11.0-2.0-0.12","7731","1","22","Male","approach_avoid_spark_v1","""event"",""trial"",""time""
""fullscreenenter"",""1"",""2921""
","
","
","""event"",""trial"",""time""
""fullscreenenter"",""1"",""2921""
","
","","","","","","null","<div style=""font-size:60px;"">+</div>","null","","fixation","","","","","","","","","","",""
"aa-learning-trial","214","897366","0.0-11.0-2.0-1.12","7731","1","22","Male","approach_avoid_spark_v1","""event"",""trial"",""time""
""fullscreenenter"",""1"",""2921""
","
","
","""event"",""trial"",""time""
""fullscreenenter"",""1"",""2921""
","
","","","","","","789","images/orange7.png","","","learning","7","7","1","1","orange","fruit","2","1","","neutral","0"
"html-keyboard-response","215","897867","0.0-11.0-2.0-0.13","7731","1","22","Male","approach_avoid_spark_v1","""event"",""trial"",""time""
""fullscreenenter"",""1"",""2921""
","
","
","""event"",""trial"",""time""
""fullscreenenter"",""1"",""2921""
","
","","","","","","null","<div style=""font-size:60px;"">+</div>","null","","fixation","","","","","","","","","","",""
"aa-learning-trial","216","900870","0.0-11.0-2.0-1.13","7731","1","22","Male","approach_avoid_spark_v1","""event"",""trial"",""time""
""fullscreenenter"",""1"",""2921""
","
","
","""event"",""trial"",""time""
""fullscreenenter"",""1"",""2921""
","
","","","","","","815.1000000238419","images/banana3.png","","","learning","6","6","1","1","banana","fruit","2","1","","good","[5]"
"html-keyboard-response","217","901371","0.0-11.0-2.0-0.14","7731","1","22","Male","approach_avoid_spark_v1","""event"",""trial"",""time""
""fullscreenenter"",""1"",""2921""
","
","
","""event"",""trial"",""time""
""fullscreenenter"",""1"",""2921""
","
","","","","","","null","<div style=""font-size:60px;"">+</div>","null","","fixation","","","","","","","","","","",""
"aa-learning-trial","218","904374","0.0-11.0-2.0-1.14","7731","1","22","Male","approach_avoid_spark_v1","""event"",""trial"",""time""
""fullscreenenter"",""1"",""2921""
","
","
","""event"",""trial"",""time""
""fullscreenenter"",""1"",""2921""
","
","","","","","","735","images/apple8.png","","","learning","1","1","1","1","apple","fruit","2","1","","bad","[-3]"
"html-keyboard-response","219","904876","0.0-11.0-2.0-0.15","7731","1","22","Male","approach_avoid_spark_v1","""event"",""trial"",""time""
""fullscreenenter"",""1"",""2921""
","
","
","""event"",""trial"",""time""
""fullscreenenter"",""1"",""2921""
","
","","","","","","null","<div style=""font-size:60px;"">+</div>","null","","fixation","","","","","","","","","","",""
"aa-learning-trial","220","907878","0.0-11.0-2.0-1.15","7731","1","22","Male","approach_avoid_spark_v1","""event"",""trial"",""time""
""fullscreenenter"",""1"",""2921""
","
","
","""event"",""trial"",""time""
""fullscreenenter"",""1"",""2921""
","
","","","","","","676.3999999761581","images/orange1.png","","","learning","-1","0","0","0","orange","fruit","2","1","","neutral","0"
"html-keyboard-response","221","908379","0.0-11.0-2.0-0.16","7731","1","22","Male","approach_avoid_spark_v1","""event"",""trial"",""time""
""fullscreenenter"",""1"",""2921""
","
","
","""event"",""trial"",""time""
""fullscreenenter"",""1"",""2921""
","
","","","","","","null","<div style=""font-size:60px;"">+</div>","null","","fixation","","","","","","","","","","",""
"aa-learning-trial","222","911382","0.0-11.0-2.0-1.16","7731","1","22","Male","approach_avoid_spark_v1","""event"",""trial"",""time""
""fullscreenenter"",""1"",""2921""
","
","
","""event"",""trial"",""time""
""fullscreenenter"",""1"",""2921""
","
","","","","","","1076.6000000238419","images/orange2.png","","","learning","5","5","1","1","orange","fruit","2","1","","neutral","0"
"html-keyboard-response","223","911884","0.0-11.0-2.0-0.17","7731","1","22","Male","approach_avoid_spark_v1","""event"",""trial"",""time""
""fullscreenenter"",""1"",""2921""
","
","
","""event"",""trial"",""time""
""fullscreenenter"",""1"",""2921""
","
","","","","","","null","<div style=""font-size:60px;"">+</div>","null","","fixation","","","","","","","","","","",""
"aa-learning-trial","224","914886","0.0-11.0-2.0-1.17","7731","1","22","Male","approach_avoid_spark_v1","""event"",""trial"",""time""
""fullscreenenter"",""1"",""2921""
","
","
","""event"",""trial"",""time""
""fullscreenenter"",""1"",""2921""
","
","","","","","","1276.199999988079","images/orange4.png","","","learning","-9","0","0","0","orange","fruit","2","1","","neutral","0"
"html-keyboard-response","225","915388","0.0-11.0-2.0-0.18","7731","1","22","Male","approach_avoid_spark_v1","""event"",""trial"",""time""
""fullscreenenter"",""1"",""2921""
","
","
","""event"",""trial"",""time""
""fullscreenenter"",""1"",""2921""
","
","","","","","","null","<div style=""font-size:60px;"">+</div>","null","","fixation","","","","","","","","","","",""
"aa-learning-trial","226","918391","0.0-11.0-2.0-1.18","7731","1","22","Male","approach_avoid_spark_v1","""event"",""trial"",""time""
""fullscreenenter"",""1"",""2921""
","
","
","""event"",""trial"",""time""
""fullscreenenter"",""1"",""2921""
","
","","","","","","699.6999999880791","images/apple8.png","","","learning","1","1","1","1","apple","fruit","2","1","","bad","[-3]"
"html-keyboard-response","227","918893","0.0-11.0-2.0-0.19","7731","1","22","Male","approach_avoid_spark_v1","""event"",""trial"",""time""
""fullscreenenter"",""1"",""2921""
","
","
","""event"",""trial"",""time""
""fullscreenenter"",""1"",""2921""
","
","","","","","","null","<div style=""font-size:60px;"">+</div>","null","","fixation","","","","","","","","","","",""
"aa-learning-trial","228","921901","0.0-11.0-2.0-1.19","7731","1","22","Male","approach_avoid_spark_v1","""event"",""trial"",""time""
""fullscreenenter"",""1"",""2921""
","
","
","""event"",""trial"",""time""
""fullscreenenter"",""1"",""2921""
","
","","","","","","541.4000000357628","images/apple2.png","","","learning","8","8","1","1","apple","fruit","2","1","","bad","[-3]"
"html-keyboard-response","229","922403","0.0-11.0-2.0-0.20","7731","1","22","Male","approach_avoid_spark_v1","""event"",""trial"",""time""
""fullscreenenter"",""1"",""2921""
","
","
","""event"",""trial"",""time""
""fullscreenenter"",""1"",""2921""
","
","","","","","","null","<div style=""font-size:60px;"">+</div>","null","","fixation","","","","","","","","","","",""
"aa-learning-trial","230","925406","0.0-11.0-2.0-1.20","7731","1","22","Male","approach_avoid_spark_v1","""event"",""trial"",""time""
""fullscreenenter"",""1"",""2921""
","
","
","""event"",""trial"",""time""
""fullscreenenter"",""1"",""2921""
","
","","","","","","1369.800000011921","images/banana7.png","","","learning","-2","0","0","0","banana","fruit","2","1","","good","[5]"
"html-keyboard-response","231","925907","0.0-11.0-2.0-0.21","7731","1","22","Male","approach_avoid_spark_v1","""event"",""trial"",""time""
""fullscreenenter"",""1"",""2921""
","
","
","""event"",""trial"",""time""
""fullscreenenter"",""1"",""2921""
","
","","","","","","null","<div style=""font-size:60px;"">+</div>","null","","fixation","","","","","","","","","","",""
"aa-learning-trial","232","928909","0.0-11.0-2.0-1.21","7731","1","22","Male","approach_avoid_spark_v1","""event"",""trial"",""time""
""fullscreenenter"",""1"",""2921""
","
","
","""event"",""trial"",""time""
""fullscreenenter"",""1"",""2921""
","
","","","","","","1215.8999999761581","images/orange8.png","","","learning","-4","0","0","0","orange","fruit","2","1","","neutral","0"
"html-keyboard-response","233","929411","0.0-11.0-2.0-0.22","7731","1","22","Male","approach_avoid_spark_v1","""event"",""trial"",""time""
""fullscreenenter"",""1"",""2921""
","
","
","""event"",""trial"",""time""
""fullscreenenter"",""1"",""2921""
","
","","","","","","null","<div style=""font-size:60px;"">+</div>","null","","fixation","","","","","","","","","","",""
"aa-learning-trial","234","932414","0.0-11.0-2.0-1.22","7731","1","22","Male","approach_avoid_spark_v1","""event"",""trial"",""time""
""fullscreenenter"",""1"",""2921""
","
","
","""event"",""trial"",""time""
""fullscreenenter"",""1"",""2921""
","
","","","","","","804.5","images/banana3.png","","","learning","6","6","1","1","banana","fruit","2","1","","good","[5]"
"html-keyboard-response","235","932929","0.0-11.0-2.0-0.23","7731","1","22","Male","approach_avoid_spark_v1","""event"",""trial"",""time""
""fullscreenenter"",""1"",""2921""
","
","
","""event"",""trial"",""time""
""fullscreenenter"",""1"",""2921""
","
","","","","","","null","<div style=""font-size:60px;"">+</div>","null","","fixation","","","","","","","","","","",""
"aa-learning-trial","236","935932","0.0-11.0-2.0-1.23","7731","1","22","Male","approach_avoid_spark_v1","""event"",""trial"",""time""
""fullscreenenter"",""1"",""2921""
","
","
","""event"",""trial"",""time""
""fullscreenenter"",""1"",""2921""
","
","","","","","","538","images/apple8.png","","","learning","1","1","1","1","apple","fruit","2","1","","bad","[-3]"
"html-keyboard-response","237","936435","0.0-11.0-2.0-0.24","7731","1","22","Male","approach_avoid_spark_v1","""event"",""trial"",""time""
""fullscreenenter"",""1"",""2921""
","
","
","""event"",""trial"",""time""
""fullscreenenter"",""1"",""2921""
","
","","","","","","null","<div style=""font-size:60px;"">+</div>","null","","fixation","","","","","","","","","","",""
"aa-learning-trial","238","939438","0.0-11.0-2.0-1.24","7731","1","22","Male","approach_avoid_spark_v1","""event"",""trial"",""time""
""fullscreenenter"",""1"",""2921""
","
","
","""event"",""trial"",""time""
""fullscreenenter"",""1"",""2921""
","
