"trial_type","trial_index","time_elapsed","internal_node_id","subject_id","task_condition","age","gender","task_version","interactions","blur_events","focus_events","fullscreenenter_events","fullscreenexit_events","success","timeout","failed_images","failed_audio","failed_video","rt","stimulus","response","button_pressed","task_part","approach_reward","points","key_press","option_selected","stim_cat","task_block","block_condition","block_number","correct","cat_type","mean_cat_reward"
"pavlovia","0","6","0.0-0.0","7086","2","24","Male","approach_avoid_spark_v1","""event"",""trial"",""time""
""fullscreenenter"",""1"",""2966""
","
","
","""event"",""trial"",""time""
""fullscreenenter"",""1"",""2966""
","
","","","","","","","","","","","","","","","","","","","","",""
"fullscreen","1","3917","0.0-1.0","7086","2","24","Male","approach_avoid_spark_v1","""event"",""trial"",""time""
""fullscreenenter"",""1"",""2966""
","
","
","""event"",""trial"",""time""
""fullscreenenter"",""1"",""2966""
","
","true","","","","","","","","","","","","","","","","","","","",""
"preload","2","68679","0.0-2.0","7086","2","24","Male","approach_avoid_spark_v1","""event"",""trial"",""time""
""fullscreenenter"",""1"",""2966""
","
","
","""event"",""trial"",""time""
""fullscreenenter"",""1"",""2966""
","
","true","false","[]","[]","[]","","","","","","","","","","","","","","","",""
"audio-keyboard-response","3","74474","0.0-3.0","7086","2","24","Male","approach_avoid_spark_v1","""event"",""trial"",""time""
""fullscreenenter"",""1"",""2966""
","
","
","""event"",""trial"",""time""
""fullscreenenter"",""1"",""2966""
","
","","","","","","0","audio/beep_loop.wav"," ","","","","","","","","","","","","",""
"audio-button-response","4","81194","0.0-4.0","7086","2","24","Male","approach_avoid_spark_v1","""event"",""trial"",""time""
""fullscreenenter"",""1"",""2966""
","
","
","""event"",""trial"",""time""
""fullscreenenter"",""1"",""2966""
","
","","","","","","6409","audio/shark.wav","0","","","","","","","","","","","","",""
"audio-button-response","5","92562","0.0-5.0","7086","2","24","Male","approach_avoid_spark_v1","""event"",""trial"",""time""
""fullscreenenter"",""1"",""2966""
","
","
","""event"",""trial"",""time""
""fullscreenenter"",""1"",""2966""
","
","","","","","","10040","audio/turtle.wav","0","","","","","","","","","","","","",""
"preload","6","113379","0.0-6.0","7086","2","24","Male","approach_avoid_spark_v1","""event"",""trial"",""time""
""fullscreenenter"",""1"",""2966""
","
","
","""event"",""trial"",""time""
""fullscreenenter"",""1"",""2966""
","
","true","false","[]","[]","[]","","","","","","","","","","","","","","","",""
"html-keyboard-response","7","116480","0.0-7.0","7086","2","24","Male","approach_avoid_spark_v1","""event"",""trial"",""time""
""fullscreenenter"",""1"",""2966""
","
","
","""event"",""trial"",""time""
""fullscreenenter"",""1"",""2966""
","
","","","","","","3099","Welcome to the experiment. Press any key to begin and to advance the instructions.","enter","","","","","","","","","","","","",""
"learning-instructions","8","125162","0.0-8.0-0.0-0.0","7086","2","24","Male","approach_avoid_spark_v1","""event"",""trial"",""time""
""fullscreenenter"",""1"",""2966""
","
","
","""event"",""trial"",""time""
""fullscreenenter"",""1"",""2966""
","
","","","","","","1730","<p> Welcome! Today you are going to play 6 different rounds of a decision-making game. </p><p> Use the mouse to click next to continue. </p>","","0","instructions","","","","","","","","","","",""
"learning-instructions","9","129864","0.0-8.0-0.0-0.1","7086","2","24","Male","approach_avoid_spark_v1","""event"",""trial"",""time""
""fullscreenenter"",""1"",""2966""
","
","
","""event"",""trial"",""time""
""fullscreenenter"",""1"",""2966""
","
","","","","","","1974.9999999999854","<p> You will start with a practice round to learn the rules. </p>","","0","instructions","","","","","","","","","","",""
"learning-instructions","10","134529","0.0-8.0-0.0-0.2","7086","2","24","Male","approach_avoid_spark_v1","""event"",""trial"",""time""
""fullscreenenter"",""1"",""2966""
","
","
","""event"",""trial"",""time""
""fullscreenenter"",""1"",""2966""
","
","","","","","","1218","<p> Your goal in this round is to give out sports equipment to kids. </p></div>","","0","instructions","","","","","","","","","","",""
"learning-instructions","11","143880","0.0-8.0-0.0-0.3","7086","2","24","Male","approach_avoid_spark_v1","""event"",""trial"",""time""
""fullscreenenter"",""1"",""2966""
","
","
","""event"",""trial"",""time""
""fullscreenenter"",""1"",""2966""
","
","","","","","","1815","<p> The kids only like some of the equipment.  </p><p> On each turn, you will see a piece of sports equipment.   </p><p> You need to decide whether to give it to the kids or not.  </p>","","0","instructions","","","","","","","","","","",""
"learning-instructions","12","149679","0.0-8.0-0.0-0.4","7086","2","24","Male","approach_avoid_spark_v1","""event"",""trial"",""time""
""fullscreenenter"",""1"",""2966""
","
","
","""event"",""trial"",""time""
""fullscreenenter"",""1"",""2966""
","
","","","","","","1054","<p> You can give them the equipment by pressing 1 and choose not to give it to them by pressing 0. </p><br><div class=""choice-instructions-grid""> <div class=""choice-option""><img src=""images/approach.png"" class=""choice-option-img"" stage=""instructions"" position=""0"" ><div class=""choice-option-text""> Press ""1."" </div></div><div class=""choice-option""><img src=""images/avoid.png"" class=""choice-option-img"" stage=""instructions"" position=""1"" ><div class=""choice-option-text""> Press ""0."" </div></div>","","0","instructions","","","","","","","","","","",""
"learning-instructions","13","158478","0.0-8.0-0.0-0.5","7086","2","24","Male","approach_avoid_spark_v1","""event"",""trial"",""time""
""fullscreenenter"",""1"",""2966""
","
","
","""event"",""trial"",""time""
""fullscreenenter"",""1"",""2966""
","
","","","","","","1425","<p> If you give them a piece of equipment they like, they will be happy! </p><p> But if you give them a piece of equipment they do not like, they will be sad. </p>","","0","instructions","","","","","","","","","","",""
"learning-instructions","14","170446","0.0-8.0-0.0-0.6","7086","2","24","Male","approach_avoid_spark_v1","""event"",""trial"",""time""
""fullscreenenter"",""1"",""2966""
","
","
","""event"",""trial"",""time""
""fullscreenenter"",""1"",""2966""
","
","","","","","","1470","<p> You will earn points based on how you make kids feel. </p><p> If you make them happy, you will WIN anywhere from 1 - 9 points, </p><p> but if you make them sad, you will LOSE anywhere from 1 - 9 points. </p>","","0","instructions","","","","","","","","","","",""
"learning-instructions","15","181179","0.0-8.0-0.0-0.7","7086","2","24","Male","approach_avoid_spark_v1","""event"",""trial"",""time""
""fullscreenenter"",""1"",""2966""
","
","
","""event"",""trial"",""time""
""fullscreenenter"",""1"",""2966""
","
","","","","","","1182.999999999971","<p> You will see how many points you won or lost in the center of the screen. </p><p> Here is what you would see if you won 6 points: </p><p style=""color:green;font-size:50px;font-weight:bolder"">6</p><p style=""color:green"">The text is GREEN because you WON points.</p>","","0","instructions","","","","","","","","","","",""
"learning-instructions","16","187577","0.0-8.0-0.0-0.8","7086","2","24","Male","approach_avoid_spark_v1","""event"",""trial"",""time""
""fullscreenenter"",""1"",""2966""
","
","
","""event"",""trial"",""time""
""fullscreenenter"",""1"",""2966""
","
","","","","","","896","<p> And here is what you would see if you lost 4 points: </p><p style=""color:red;font-size:50px;font-weight:bolder"">-4</p><p style=""color:red"">The text is RED because you LOST points. </p>","","0","instructions","","","","","","","","","","",""
"learning-instructions","17","203394","0.0-8.0-0.0-0.9","7086","2","24","Male","approach_avoid_spark_v1","""event"",""trial"",""time""
""fullscreenenter"",""1"",""2966""
","
","
","""event"",""trial"",""time""
""fullscreenenter"",""1"",""2966""
","
","","","","","","1109.000000000029","<p> Some of the equipment will make the kids VERY happy or sad. </p><p> These pieces of equipment will make you win or lose LOTS of points. </p><p> Other pieces of equipment will only make the kids a little happy or sad. </p><p> These pieces of equipment will make you win or lose small amounts of points. </p>","","0","instructions","","","","","","","","","","",""
"learning-instructions","18","214779","0.0-8.0-0.0-0.10","7086","2","24","Male","approach_avoid_spark_v1","""event"",""trial"",""time""
""fullscreenenter"",""1"",""2966""
","
","
","""event"",""trial"",""time""
""fullscreenenter"",""1"",""2966""
","
","","","","","","768","<p> If you choose not to give them the equipment, you will not win or lose any points. </p><p>  However, in the center of the screen, you will see the number of points you WOULD HAVE won or lost if you had given them the equipment. </p>","","0","instructions","","","","","","","","","","",""
"learning-instructions","19","238012","0.0-8.0-0.0-0.11","7086","2","24","Male","approach_avoid_spark_v1","""event"",""trial"",""time""
""fullscreenenter"",""1"",""2966""
","
","
","""event"",""trial"",""time""
""fullscreenenter"",""1"",""2966""
","
","","","","","","1709","<p> Here is what you might see if you did not give the equipment to the kids but it would have made them happy: </p><p style=""color:grey; font-size:50px; display: inline-block; border-spacing: 15px; border-width:3px; border-style:solid; border-color:red"">  &nbsp; 7 &nbsp; </p><p> Remember, in this case, you would not win or lose ANY points because you did not give them the equipment.  </p><p style=""color:grey"">The text is GREY because you earned ZERO points. </p><p style=""color:red"">However, choosing to give the kids the equipment would have made you win points. The box around the text is RED because you chose the worse option. </p>","","0","instructions","","","","","","","","","","",""
"learning-instructions","20","260894","0.0-8.0-0.0-0.12","7086","2","24","Male","approach_avoid_spark_v1","""event"",""trial"",""time""
""fullscreenenter"",""1"",""2966""
","
","
","""event"",""trial"",""time""
""fullscreenenter"",""1"",""2966""
","
","","","","","","1811.999999999971","<p> Here is what you might see if you did not give the equipment to the kids but it would have made them sad: </p><p style=""color:grey;font-size:50px; display: inline-block; border-spacing: 15px; border-width:3px; border-style:solid; border-color:green"">  &nbsp; -8 &nbsp; </p><p> Remember, in this case, you would not win or lose ANY points because you did not give them the equipment.  </p><p style=""color:grey"">The text is GREY because you earned ZERO points. </p><p  style=""color:green""> Choosing to give the kids the equipment would have made you lose points. The box around the text is GREEN because you chose the better option.</p>","","0","instructions","","","","","","","","","","",""
"learning-instructions","21","271396","0.0-8.0-0.0-0.13","7086","2","24","Male","approach_avoid_spark_v1","""event"",""trial"",""time""
""fullscreenenter"",""1"",""2966""
","
","
","""event"",""trial"",""time""
""fullscreenenter"",""1"",""2966""
","
","","","","","","1008","<p> You will have 3 seconds to make each choice. Try to respond before time runs out! </p><p> You will lose 5 points each time you do not make a response. </p>","","0","instructions","","","","","","","","","","",""
"learning-instructions","22","277397","0.0-8.0-0.0-0.14","7086","2","24","Male","approach_avoid_spark_v1","""event"",""trial"",""time""
""fullscreenenter"",""1"",""2966""
","
","
","""event"",""trial"",""time""
""fullscreenenter"",""1"",""2966""
","
","","","","","","600","<p> This is just a practice round, but in the real game, your bonus payment will depend on your total number of points.","","0","instructions","","","","","","","","","","",""
"learning-instructions","23","283880","0.0-8.0-0.0-0.15","7086","2","24","Male","approach_avoid_spark_v1","""event"",""trial"",""time""
""fullscreenenter"",""1"",""2966""
","
","
","""event"",""trial"",""time""
""fullscreenenter"",""1"",""2966""
","
","","","","","","733","<p> Remember, you can give them the equipment by pressing 1 and choose not to give it to them by pressing 0. </p><br><div class=""choice-instructions-grid""> <div class=""choice-option""><img src=""images/approach.png"" class=""choice-option-img"" stage=""instructions"" position=""0"" ><div class=""choice-option-text""> Press ""1."" </div></div><div class=""choice-option""><img src=""images/avoid.png"" class=""choice-option-img"" stage=""instructions"" position=""1"" ><div class=""choice-option-text""> Press ""0."" </div></div>","","0","instructions","","","","","","","","","","",""
"html-button-response","24","285462","0.0-8.0-1.0","7086","2","24","Male","approach_avoid_spark_v1","""event"",""trial"",""time""
""fullscreenenter"",""1"",""2966""
","
","
","""event"",""trial"",""time""
""fullscreenenter"",""1"",""2966""
","
","","","","","","1476","<p> Ready to practice? </p>","0","","","","","","","","","","","","",""
"html-keyboard-response","25","286068","0.0-8.0-2.0-0.0","7086","2","24","Male","approach_avoid_spark_v1","""event"",""trial"",""time""
""fullscreenenter"",""1"",""2966""
","
","
","""event"",""trial"",""time""
""fullscreenenter"",""1"",""2966""
","
","","","","","","null","<div style=""font-size:60px;"">+</div>","null","","fixation","","","","","","","","","","",""
"aa-learning-trial","26","289073","0.0-8.0-2.0-1.0","7086","2","24","Male","approach_avoid_spark_v1","""event"",""trial"",""time""
""fullscreenenter"",""1"",""2966""
","
","
","""event"",""trial"",""time""
""fullscreenenter"",""1"",""2966""
","
","","","","","","2962","images/ball2.png","","","learning","5","5","1","1","practice","practice","practice","-1","","",""
"html-keyboard-response","27","289575","0.0-8.0-2.0-0.1","7086","2","24","Male","approach_avoid_spark_v1","""event"",""trial"",""time""
""fullscreenenter"",""1"",""2966""
","
","
","""event"",""trial"",""time""
""fullscreenenter"",""1"",""2966""
","
","","","","","","null","<div style=""font-size:60px;"">+</div>","null","","fixation","","","","","","","","","","",""
"aa-learning-trial","28","292578","0.0-8.0-2.0-1.1","7086","2","24","Male","approach_avoid_spark_v1","""event"",""trial"",""time""
""fullscreenenter"",""1"",""2966""
","
","
","""event"",""trial"",""time""
""fullscreenenter"",""1"",""2966""
","
","","","","","","1704","images/ball2.png","","","learning","-7","-7","1","1","practice","practice","practice","-1","","",""
"html-keyboard-response","29","293081","0.0-8.0-2.0-0.2","7086","2","24","Male","approach_avoid_spark_v1","""event"",""trial"",""time""
""fullscreenenter"",""1"",""2966""
","
","
","""event"",""trial"",""time""
""fullscreenenter"",""1"",""2966""
","
","","","","","","null","<div style=""font-size:60px;"">+</div>","null","","fixation","","","","","","","","","","",""
"aa-learning-trial","30","296085","0.0-8.0-2.0-1.2","7086","2","24","Male","approach_avoid_spark_v1","""event"",""trial"",""time""
""fullscreenenter"",""1"",""2966""
","
","
","""event"",""trial"",""time""
""fullscreenenter"",""1"",""2966""
","
","","","","","","875","images/racket4.png","","","learning","3","3","1","1","practice","practice","practice","-1","","",""
"html-keyboard-response","31","296587","0.0-8.0-2.0-0.3","7086","2","24","Male","approach_avoid_spark_v1","""event"",""trial"",""time""
""fullscreenenter"",""1"",""2966""
","
","
","""event"",""trial"",""time""
""fullscreenenter"",""1"",""2966""
","
","","","","","","null","<div style=""font-size:60px;"">+</div>","null","","fixation","","","","","","","","","","",""
"aa-learning-trial","32","299591","0.0-8.0-2.0-1.3","7086","2","24","Male","approach_avoid_spark_v1","""event"",""trial"",""time""
""fullscreenenter"",""1"",""2966""
","
","
","""event"",""trial"",""time""
""fullscreenenter"",""1"",""2966""
","
","","","","","","778","images/racket2.png","","","learning","-8","-8","1","1","practice","practice","practice","-1","","",""
"html-keyboard-response","33","300095","0.0-8.0-2.0-0.4","7086","2","24","Male","approach_avoid_spark_v1","""event"",""trial"",""time""
""fullscreenenter"",""1"",""2966""
","
","
","""event"",""trial"",""time""
""fullscreenenter"",""1"",""2966""
","
","","","","","","null","<div style=""font-size:60px;"">+</div>","null","","fixation","","","","","","","","","","",""
"aa-learning-trial","34","303100","0.0-8.0-2.0-1.4","7086","2","24","Male","approach_avoid_spark_v1","""event"",""trial"",""time""
""fullscreenenter"",""1"",""2966""
","
","
","""event"",""trial"",""time""
""fullscreenenter"",""1"",""2966""
","
","","","","","","805","images/ball1.png","","","learning","-5","-5","1","1","practice","practice","practice","-1","","",""
"html-keyboard-response","35","303604","0.0-8.0-2.0-0.5","7086","2","24","Male","approach_avoid_spark_v1","""event"",""trial"",""time""
""fullscreenenter"",""1"",""2966""
","
","
","""event"",""trial"",""time""
""fullscreenenter"",""1"",""2966""
","
","","","","","","null","<div style=""font-size:60px;"">+</div>","null","","fixation","","","","","","","","","","",""
"aa-learning-trial","36","306608","0.0-8.0-2.0-1.5","7086","2","24","Male","approach_avoid_spark_v1","""event"",""trial"",""time""
""fullscreenenter"",""1"",""2966""
","
","
","""event"",""trial"",""time""
""fullscreenenter"",""1"",""2966""
","
","","","","","","991","images/ball2.png","","","learning","9","0","0","0","practice","practice","practice","-1","","",""
"html-keyboard-response","37","307110","0.0-8.0-2.0-0.6","7086","2","24","Male","approach_avoid_spark_v1","""event"",""trial"",""time""
""fullscreenenter"",""1"",""2966""
","
","
","""event"",""trial"",""time""
""fullscreenenter"",""1"",""2966""
","
","","","","","","null","<div style=""font-size:60px;"">+</div>","null","","fixation","","","","","","","","","","",""
"aa-learning-trial","38","310113","0.0-8.0-2.0-1.6","7086","2","24","Male","approach_avoid_spark_v1","""event"",""trial"",""time""
""fullscreenenter"",""1"",""2966""
","
","
","""event"",""trial"",""time""
""fullscreenenter"",""1"",""2966""
","
","","","","","","1100","images/ball3.png","","","learning","5","0","0","0","practice","practice","practice","-1","","",""
"html-keyboard-response","39","310617","0.0-8.0-2.0-0.7","7086","2","24","Male","approach_avoid_spark_v1","""event"",""trial"",""time""
""fullscreenenter"",""1"",""2966""
","
","
","""event"",""trial"",""time""
""fullscreenenter"",""1"",""2966""
","
","","","","","","null","<div style=""font-size:60px;"">+</div>","null","","fixation","","","","","","","","","","",""
"aa-learning-trial","40","313621","0.0-8.0-2.0-1.7","7086","2","24","Male","approach_avoid_spark_v1","""event"",""trial"",""time""
""fullscreenenter"",""1"",""2966""
","
","
","""event"",""trial"",""time""
""fullscreenenter"",""1"",""2966""
","
","","","","","","1045","images/ball1.png","","","learning","-1","0","0","0","practice","practice","practice","-1","","",""
"html-keyboard-response","41","314124","0.0-8.0-2.0-0.8","7086","2","24","Male","approach_avoid_spark_v1","""event"",""trial"",""time""
""fullscreenenter"",""1"",""2966""
","
","
","""event"",""trial"",""time""
""fullscreenenter"",""1"",""2966""
","
","","","","","","null","<div style=""font-size:60px;"">+</div>","null","","fixation","","","","","","","","","","",""
"aa-learning-trial","42","317128","0.0-8.0-2.0-1.8","7086","2","24","Male","approach_avoid_spark_v1","""event"",""trial"",""time""
""fullscreenenter"",""1"",""2966""
","
","
","""event"",""trial"",""time""
""fullscreenenter"",""1"",""2966""
","
","","","","","","877.0000000000582","images/ball4.png","","","learning","5","5","1","1","practice","practice","practice","-1","","",""
"html-keyboard-response","43","317631","0.0-8.0-2.0-0.9","7086","2","24","Male","approach_avoid_spark_v1","""event"",""trial"",""time""
""fullscreenenter"",""1"",""2966""
","
","
","""event"",""trial"",""time""
""fullscreenenter"",""1"",""2966""
","
","","","","","","null","<div style=""font-size:60px;"">+</div>","null","","fixation","","","","","","","","","","",""
"aa-learning-trial","44","320634","0.0-8.0-2.0-1.9","7086","2","24","Male","approach_avoid_spark_v1","""event"",""trial"",""time""
""fullscreenenter"",""1"",""2966""
","
","
","""event"",""trial"",""time""
""fullscreenenter"",""1"",""2966""
","
","","","","","","611.9999999999418","images/ball2.png","","","learning","-4","-4","1","1","practice","practice","practice","-1","","",""
"html-keyboard-response","45","321137","0.0-8.0-2.0-0.10","7086","2","24","Male","approach_avoid_spark_v1","""event"",""trial"",""time""
""fullscreenenter"",""1"",""2966""
","
","
","""event"",""trial"",""time""
""fullscreenenter"",""1"",""2966""
","
","","","","","","null","<div style=""font-size:60px;"">+</div>","null","","fixation","","","","","","","","","","",""
"aa-learning-trial","46","324140","0.0-8.0-2.0-1.10","7086","2","24","Male","approach_avoid_spark_v1","""event"",""trial"",""time""
""fullscreenenter"",""1"",""2966""
","
","
","""event"",""trial"",""time""
""fullscreenenter"",""1"",""2966""
","
","","","","","","1978","images/ball4.png","","","learning","-2","-2","1","1","practice","practice","practice","-1","","",""
"html-keyboard-response","47","324643","0.0-8.0-2.0-0.11","7086","2","24","Male","approach_avoid_spark_v1","""event"",""trial"",""time""
""fullscreenenter"",""1"",""2966""
","
","
","""event"",""trial"",""time""
""fullscreenenter"",""1"",""2966""
","
","","","","","","null","<div style=""font-size:60px;"">+</div>","null","","fixation","","","","","","","","","","",""
"aa-learning-trial","48","327648","0.0-8.0-2.0-1.11","7086","2","24","Male","approach_avoid_spark_v1","""event"",""trial"",""time""
""fullscreenenter"",""1"",""2966""
","
","
","""event"",""trial"",""time""
""fullscreenenter"",""1"",""2966""
","
","","","","","","987","images/ball2.png","","","learning","-7","0","0","0","practice","practice","practice","-1","","",""
"html-button-response","49","330395","0.0-8.0-3.0","7086","2","24","Male","approach_avoid_spark_v1","""event"",""trial"",""time""
""fullscreenenter"",""1"",""2966""
","
","
","""event"",""trial"",""time""
""fullscreenenter"",""1"",""2966""
","
","","","","","","2746.000000000058","<p> You earned -13 points in the practice round! </p>","0","","break","","","","","","","","","","",""
"learning-instructions","50","547337","0.0-8.0-4.0-0.0","7086","2","24","Male","approach_avoid_spark_v1","""event"",""trial"",""time""
""fullscreenenter"",""1"",""2966""
","
","
","""event"",""trial"",""time""
""fullscreenenter"",""1"",""2966""
","
","","","","","","210986","<p> It's almost time to start the real game. </p><p> Before you start, we're going to ask you a few questions about how the game works. </p>","","0","instructions","","","","","","","","","","",""
"preload","51","553765","0.0-8.0-5.0","7086","2","24","Male","approach_avoid_spark_v1","""event"",""trial"",""time""
""fullscreenenter"",""1"",""2966""
","
","
","""event"",""trial"",""time""
""fullscreenenter"",""1"",""2966""
","
","true","false","[]","[]","[]","","","","","","","","","","","","","","","",""
"comp-q","52","560238","0.0-8.0-6.0-0.0","7086","2","24","Male","approach_avoid_spark_v1","""event"",""trial"",""time""
""fullscreenenter"",""1"",""2966""
","
","
","""event"",""trial"",""time""
""fullscreenenter"",""1"",""2966""
","
","","","","","","1483","<p> <b> True or False? </b> </p><p> If you see a number in GREY, that means you earned that many points. </p>","","1","comp_question","","","","","","","","","true","",""
"comp-q","53","569671","0.0-8.0-6.0-1.0","7086","2","24","Male","approach_avoid_spark_v1","""event"",""trial"",""time""
""fullscreenenter"",""1"",""2966""
","
","
","""event"",""trial"",""time""
""fullscreenenter"",""1"",""2966""
","
","","","","","","1082","<p><b> That's right! </b> If you see a grey number, it means you earned ZERO points. <br> The grey numbers show the points you WOULD HAVE earned if you had made the other choice. </p>","","0","comp_answer","","","","","","","","","","",""
"comp-q","54","575136","0.0-8.0-7.0-0.0","7086","2","24","Male","approach_avoid_spark_v1","""event"",""trial"",""time""
""fullscreenenter"",""1"",""2966""
","
","
","""event"",""trial"",""time""
""fullscreenenter"",""1"",""2966""
","
","","","","","","776","<p> <b> True or False? </b> </p><p> You will have as much time as you want to make each choice. </p>","","1","comp_question","","","","","","","","","true","",""
"comp-q","55","580620","0.0-8.0-7.0-1.0","7086","2","24","Male","approach_avoid_spark_v1","""event"",""trial"",""time""
""fullscreenenter"",""1"",""2966""
","
","
","""event"",""trial"",""time""
""fullscreenenter"",""1"",""2966""
","
","","","","","","1445","<p> <b> That's right! </b> You will only have 3 seconds to make each choice. </p>","","0","comp_answer","","","","","","","","","","",""
"comp-q","56","586203","0.0-8.0-8.0-0.0","7086","2","24","Male","approach_avoid_spark_v1","""event"",""trial"",""time""
""fullscreenenter"",""1"",""2966""
","
","
","""event"",""trial"",""time""
""fullscreenenter"",""1"",""2966""
","
","","","","","","933","<p> <b> True or False? </b> </p><p> You should use the '1' and '0' keys to make your choices. </p>","","0","comp_question","","","","","","","","","true","",""
"comp-q","57","597469","0.0-8.0-8.0-1.0","7086","2","24","Male","approach_avoid_spark_v1","""event"",""trial"",""time""
""fullscreenenter"",""1"",""2966""
","
","
","""event"",""trial"",""time""
""fullscreenenter"",""1"",""2966""
","
","","","","","","6661","<p> <b> That's right! </b> You should use the '1' and '0' keys to make each choice. </p>","","0","comp_answer","","","","","","","","","","",""
"learning-instructions","58","655037","0.0-8.0-9.0-0.0","7086","2","24","Male","approach_avoid_spark_v1","""event"",""trial"",""time""
""fullscreenenter"",""1"",""2966""
","
","
","""event"",""trial"",""time""
""fullscreenenter"",""1"",""2966""
","
","","","","","","51307","<p> It's now time to start the real game. </p>Do your best, because the points you earn in the next rounds will influence your bonus payment. </p>","","0","instructions","","","","","","","","","","",""
"preload","59","655149","0.0-9.0-0.0","7086","2","24","Male","approach_avoid_spark_v1","""event"",""trial"",""time""
""fullscreenenter"",""1"",""2966""
","
","
","""event"",""trial"",""time""
""fullscreenenter"",""1"",""2966""
","
","true","false","[]","[]","[]","","","","","","","","","","","","","","","",""
"learning-instructions","60","661974","0.0-9.0-1.0-0.0","7086","2","24","Male","approach_avoid_spark_v1","""event"",""trial"",""time""
""fullscreenenter"",""1"",""2966""
","
","
","""event"",""trial"",""time""
""fullscreenenter"",""1"",""2966""
","
","","","","","","1483","<p> Your goal in this round is to sell different plants to a picky customer. </p></div>","","0","instructions","","","","","","","","","","",""
"learning-instructions","61","673503","0.0-9.0-1.0-0.1","7086","2","24","Male","approach_avoid_spark_v1","""event"",""trial"",""time""
""fullscreenenter"",""1"",""2966""
","
","
","""event"",""trial"",""time""
""fullscreenenter"",""1"",""2966""
","
","","","","","","1508","<p> The customer likes some plants and dislikes others.  </p><p> On each turn, you will see a plant.   </p><p> You need to decide whether to offer it to the customer or not.  </p>","","0","instructions","","","","","","","","","","",""
"learning-instructions","62","681219","0.0-9.0-1.0-0.2","7086","2","24","Male","approach_avoid_spark_v1","""event"",""trial"",""time""
""fullscreenenter"",""1"",""2966""
","
","
","""event"",""trial"",""time""
""fullscreenenter"",""1"",""2966""
","
","","","","","","1757","<p> You can offer the plant by pressing 1 and decide to not offer it by pressing 0. </p><br><div class=""choice-instructions-grid""> <div class=""choice-option""><img src=""images/approach.png"" class=""choice-option-img"" stage=""instructions"" position=""0"" ><div class=""choice-option-text""> Press ""1."" </div></div><div class=""choice-option""><img src=""images/avoid.png"" class=""choice-option-img"" stage=""instructions"" position=""1"" ><div class=""choice-option-text""> Press ""0."" </div></div>","","0","instructions","","","","","","","","","","",""
"learning-instructions","63","692270","0.0-9.0-1.0-0.3","7086","2","24","Male","approach_avoid_spark_v1","""event"",""trial"",""time""
""fullscreenenter"",""1"",""2966""
","
","
","""event"",""trial"",""time""
""fullscreenenter"",""1"",""2966""
","
","","","","","","1420.0000000001164","<p> If you offer a plant to the customer that she likes, she will be very pleased! </p><p> But if you offer a plant that she does NOT like, she will be annoyed. </p>","","0","instructions","","","","","","","","","","",""
"learning-instructions","64","707737","0.0-9.0-1.0-0.4","7086","2","24","Male","approach_avoid_spark_v1","""event"",""trial"",""time""
""fullscreenenter"",""1"",""2966""
","
","
","""event"",""trial"",""time""
""fullscreenenter"",""1"",""2966""
","
","","","","","","1979","<p> You will earn points based on how you made the customer feel. </p><p> If you made her pleased, you will WIN anywhere from 1 - 9 points, </p><p> but if you made her annoyed, you will LOSE anywhere from 1 - 9 points. </p>","","0","instructions","","","","","","","","","","",""
"learning-instructions","65","717136","0.0-9.0-1.0-0.5","7086","2","24","Male","approach_avoid_spark_v1","""event"",""trial"",""time""
""fullscreenenter"",""1"",""2966""
","
","
","""event"",""trial"",""time""
""fullscreenenter"",""1"",""2966""
","
","","","","","","1567.9999999998836","<p> You will see how many points you won or lost in the center of the screen. </p><p> Here is what you would see if you won 5 points: </p><p style=""color:green;font-size:50px;font-weight:bolder"">5</p>","","0","instructions","","","","","","","","","","",""
"learning-instructions","66","722218","0.0-9.0-1.0-0.6","7086","2","24","Male","approach_avoid_spark_v1","""event"",""trial"",""time""
""fullscreenenter"",""1"",""2966""
","
","
","""event"",""trial"",""time""
""fullscreenenter"",""1"",""2966""
","
","","","","","","1553","<p> And here is what you would see if you lost 3 points: </p><p style=""color:red;font-size:50px;font-weight:bolder"">-3</p>","","0","instructions","","","","","","","","","","",""
"learning-instructions","67","751806","0.0-9.0-1.0-0.7","7086","2","24","Male","approach_avoid_spark_v1","""event"",""trial"",""time""
""fullscreenenter"",""1"",""2966""
","
","
","""event"",""trial"",""time""
""fullscreenenter"",""1"",""2966""
","
","","","","","","14074","<p> Some plants will make the customer VERY pleased or annoyed. </p><p> These plants will make you win or lose LOTS of points. </p><p> The customer will have less strong feelings about other plants. </p><p> These plants will make you win or lose small amounts of points. </p>","","0","instructions","","","","","","","","","","",""
"learning-instructions","68","766703","0.0-9.0-1.0-0.8","7086","2","24","Male","approach_avoid_spark_v1","""event"",""trial"",""time""
""fullscreenenter"",""1"",""2966""
","
","
","""event"",""trial"",""time""
""fullscreenenter"",""1"",""2966""
","
","","","","","","1282","<p> If you choose to not offer the plant to the customer, you will not win or lose any points. </p><p>  However, in the center of the screen, you will see the number of points you WOULD HAVE won or lost if you had offered the plant. </p>","","0","instructions","","","","","","","","","","",""
"learning-instructions","69","780019","0.0-9.0-1.0-0.9","7086","2","24","Male","approach_avoid_spark_v1","""event"",""trial"",""time""
""fullscreenenter"",""1"",""2966""
","
","
","""event"",""trial"",""time""
""fullscreenenter"",""1"",""2966""
","
","","","","","","1211","<p> Here is what you might see if you did not offer the plant but the customer would have liked it: </p><p style=""color:grey; font-size:50px; display: inline-block; border-spacing: 15px; border-width:3px; border-style:solid; border-color:red"">  &nbsp; 6 &nbsp; </p><p> Remember, in this case, you would not win or lose ANY points because you did not offer the plant.  </p>","","0","instructions","","","","","","","","","","",""
"learning-instructions","70","789439","0.0-9.0-1.0-0.10","7086","2","24","Male","approach_avoid_spark_v1","""event"",""trial"",""time""
""fullscreenenter"",""1"",""2966""
","
","
","""event"",""trial"",""time""
""fullscreenenter"",""1"",""2966""
","
","","","","","","1401","<p> Try to make the best choice for each plant because </p><p> at the end of the game, you will earn bonus money based on how many points you earned. </p>","","0","instructions","","","","","","","","","","",""
"learning-instructions","71","799085","0.0-9.0-1.0-0.11","7086","2","24","Male","approach_avoid_spark_v1","""event"",""trial"",""time""
""fullscreenenter"",""1"",""2966""
","
","
","""event"",""trial"",""time""
""fullscreenenter"",""1"",""2966""
","
","","","","","","1469","<p> You will have 3 seconds to make each choice. Try to respond before time runs out! </p><p> You will lose 5 points each time you do not make a response. </p>","","0","instructions","","","","","","","","","","",""
"html-keyboard-response","72","799689","0.0-9.0-2.0-0.0","7086","2","24","Male","approach_avoid_spark_v1","""event"",""trial"",""time""
""fullscreenenter"",""1"",""2966""
","
","
","""event"",""trial"",""time""
""fullscreenenter"",""1"",""2966""
","
","","","","","","null","<div style=""font-size:60px;"">+</div>","null","","fixation","","","","","","","","","","",""
"aa-learning-trial","73","802693","0.0-9.0-2.0-1.0","7086","2","24","Male","approach_avoid_spark_v1","""event"",""trial"",""time""
""fullscreenenter"",""1"",""2966""
","
","
","""event"",""trial"",""time""
""fullscreenenter"",""1"",""2966""
","
","","","","","","2075.9999999998836","images/cactus1.png","","","learning","8","0","0","0","cactus","plants","2","0","","neutral","0"
"html-keyboard-response","74","803196","0.0-9.0-2.0-0.1","7086","2","24","Male","approach_avoid_spark_v1","""event"",""trial"",""time""
""fullscreenenter"",""1"",""2966""
","
","
","""event"",""trial"",""time""
""fullscreenenter"",""1"",""2966""
","
","","","","","","null","<div style=""font-size:60px;"">+</div>","null","","fixation","","","","","","","","","","",""
"aa-learning-trial","75","806200","0.0-9.0-2.0-1.1","7086","2","24","Male","approach_avoid_spark_v1","""event"",""trial"",""time""
""fullscreenenter"",""1"",""2966""
","
","
","""event"",""trial"",""time""
""fullscreenenter"",""1"",""2966""
","
","","","","","","963","images/bush6.png","","","learning","7","7","1","1","bush","plants","2","0","","good","[4]"
"html-keyboard-response","76","806702","0.0-9.0-2.0-0.2","7086","2","24","Male","approach_avoid_spark_v1","""event"",""trial"",""time""
""fullscreenenter"",""1"",""2966""
","
","
","""event"",""trial"",""time""
""fullscreenenter"",""1"",""2966""
","
","","","","","","null","<div style=""font-size:60px;"">+</div>","null","","fixation","","","","","","","","","","",""
"aa-learning-trial","77","809706","0.0-9.0-2.0-1.2","7086","2","24","Male","approach_avoid_spark_v1","""event"",""trial"",""time""
""fullscreenenter"",""1"",""2966""
","
","
","""event"",""trial"",""time""
""fullscreenenter"",""1"",""2966""
","
","","","","","","638","images/flower4.png","","","learning","-1","-1","1","1","flower","plants","2","0","","bad","[-4]"
"html-keyboard-response","78","810209","0.0-9.0-2.0-0.3","7086","2","24","Male","approach_avoid_spark_v1","""event"",""trial"",""time""
""fullscreenenter"",""1"",""2966""
","
","
","""event"",""trial"",""time""
""fullscreenenter"",""1"",""2966""
","
","","","","","","null","<div style=""font-size:60px;"">+</div>","null","","fixation","","","","","","","","","","",""
"aa-learning-trial","79","813213","0.0-9.0-2.0-1.3","7086","2","24","Male","approach_avoid_spark_v1","""event"",""trial"",""time""
""fullscreenenter"",""1"",""2966""
","
","
","""event"",""trial"",""time""
""fullscreenenter"",""1"",""2966""
","
","","","","","","644","images/bush6.png","","","learning","7","7","1","1","bush","plants","2","0","","good","[4]"
"html-keyboard-response","80","813715","0.0-9.0-2.0-0.4","7086","2","24","Male","approach_avoid_spark_v1","""event"",""trial"",""time""
""fullscreenenter"",""1"",""2966""
","
","
","""event"",""trial"",""time""
""fullscreenenter"",""1"",""2966""
","
","","","","","","null","<div style=""font-size:60px;"">+</div>","null","","fixation","","","","","","","","","","",""
"aa-learning-trial","81","816718","0.0-9.0-2.0-1.4","7086","2","24","Male","approach_avoid_spark_v1","""event"",""trial"",""time""
""fullscreenenter"",""1"",""2966""
","
","
","""event"",""trial"",""time""
""fullscreenenter"",""1"",""2966""
","
","","","","","","701","images/cactus3.png","","","learning","3","0","0","0","cactus","plants","2","0","","neutral","0"
"html-keyboard-response","82","817221","0.0-9.0-2.0-0.5","7086","2","24","Male","approach_avoid_spark_v1","""event"",""trial"",""time""
""fullscreenenter"",""1"",""2966""
","
","
","""event"",""trial"",""time""
""fullscreenenter"",""1"",""2966""
","
","","","","","","null","<div style=""font-size:60px;"">+</div>","null","","fixation","","","","","","","","","","",""
"aa-learning-trial","83","820225","0.0-9.0-2.0-1.5","7086","2","24","Male","approach_avoid_spark_v1","""event"",""trial"",""time""
""fullscreenenter"",""1"",""2966""
","
","
","""event"",""trial"",""time""
""fullscreenenter"",""1"",""2966""
","
","","","","","","1488","images/flower7.png","","","learning","-5","0","0","0","flower","plants","2","0","","bad","[-4]"
"html-keyboard-response","84","820726","0.0-9.0-2.0-0.6","7086","2","24","Male","approach_avoid_spark_v1","""event"",""trial"",""time""
""fullscreenenter"",""1"",""2966""
","
","
","""event"",""trial"",""time""
""fullscreenenter"",""1"",""2966""
","
","","","","","","null","<div style=""font-size:60px;"">+</div>","null","","fixation","","","","","","","","","","",""
"aa-learning-trial","85","823730","0.0-9.0-2.0-1.6","7086","2","24","Male","approach_avoid_spark_v1","""event"",""trial"",""time""
""fullscreenenter"",""1"",""2966""
","
","
","""event"",""trial"",""time""
""fullscreenenter"",""1"",""2966""
","
","","","","","","1287","images/cactus4.png","","","learning","-3","-3","1","1","cactus","plants","2","0","","neutral","0"
"html-keyboard-response","86","824232","0.0-9.0-2.0-0.7","7086","2","24","Male","approach_avoid_spark_v1","""event"",""trial"",""time""
""fullscreenenter"",""1"",""2966""
","
","
","""event"",""trial"",""time""
""fullscreenenter"",""1"",""2966""
","
","","","","","","null","<div style=""font-size:60px;"">+</div>","null","","fixation","","","","","","","","","","",""
"aa-learning-trial","87","827236","0.0-9.0-2.0-1.7","7086","2","24","Male","approach_avoid_spark_v1","""event"",""trial"",""time""
""fullscreenenter"",""1"",""2966""
","
","
","""event"",""trial"",""time""
""fullscreenenter"",""1"",""2966""
","
","","","","","","1255.0000000001164","images/flower4.png","","","learning","-1","-1","1","1","flower","plants","2","0","","bad","[-4]"
"html-keyboard-response","88","827738","0.0-9.0-2.0-0.8","7086","2","24","Male","approach_avoid_spark_v1","""event"",""trial"",""time""
""fullscreenenter"",""1"",""2966""
","
","
","""event"",""trial"",""time""
""fullscreenenter"",""1"",""2966""
","
","","","","","","null","<div style=""font-size:60px;"">+</div>","null","","fixation","","","","","","","","","","",""
"aa-learning-trial","89","830741","0.0-9.0-2.0-1.8","7086","2","24","Male","approach_avoid_spark_v1","""event"",""trial"",""time""
""fullscreenenter"",""1"",""2966""
","
","
","""event"",""trial"",""time""
""fullscreenenter"",""1"",""2966""
","
","","","","","","764","images/flower1.png","","","learning","5","5","1","1","flower","plants","2","0","","bad","[-4]"
"html-keyboard-response","90","831243","0.0-9.0-2.0-0.9","7086","2","24","Male","approach_avoid_spark_v1","""event"",""trial"",""time""
""fullscreenenter"",""1"",""2966""
","
","
","""event"",""trial"",""time""
""fullscreenenter"",""1"",""2966""
","
","","","","","","null","<div style=""font-size:60px;"">+</div>","null","","fixation","","","","","","","","","","",""
"aa-learning-trial","91","834247","0.0-9.0-2.0-1.9","7086","2","24","Male","approach_avoid_spark_v1","""event"",""trial"",""time""
""fullscreenenter"",""1"",""2966""
","
","
","""event"",""trial"",""time""
""fullscreenenter"",""1"",""2966""
","
","","","","","","1001","images/bush1.png","","","learning","-4","-4","1","1","bush","plants","2","0","","good","[4]"
"html-keyboard-response","92","834749","0.0-9.0-2.0-0.10","7086","2","24","Male","approach_avoid_spark_v1","""event"",""trial"",""time""
""fullscreenenter"",""1"",""2966""
","
","
","""event"",""trial"",""time""
""fullscreenenter"",""1"",""2966""
","
","","","","","","null","<div style=""font-size:60px;"">+</div>","null","","fixation","","","","","","","","","","",""
"aa-learning-trial","93","837754","0.0-9.0-2.0-1.10","7086","2","24","Male","approach_avoid_spark_v1","""event"",""trial"",""time""
""fullscreenenter"",""1"",""2966""
","
","
","""event"",""trial"",""time""
""fullscreenenter"",""1"",""2966""
","
","","","","","","1299","images/cactus4.png","","","learning","-3","-3","1","1","cactus","plants","2","0","","neutral","0"
"html-keyboard-response","94","838256","0.0-9.0-2.0-0.11","7086","2","24","Male","approach_avoid_spark_v1","""event"",""trial"",""time""
""fullscreenenter"",""1"",""2966""
","
","
","""event"",""trial"",""time""
""fullscreenenter"",""1"",""2966""
","
","","","","","","null","<div style=""font-size:60px;"">+</div>","null","","fixation","","","","","","","","","","",""
"aa-learning-trial","95","841260","0.0-9.0-2.0-1.11","7086","2","24","Male","approach_avoid_spark_v1","""event"",""trial"",""time""
""fullscreenenter"",""1"",""2966""
","
","
","""event"",""trial"",""time""
""fullscreenenter"",""1"",""2966""
","
","","","","","","147","images/bush1.png","","","learning","-4","0","0","0","bush","plants","2","0","","good","[4]"
"html-keyboard-response","96","841762","0.0-9.0-2.0-0.12","7086","2","24","Male","approach_avoid_spark_v1","""event"",""trial"",""time""
""fullscreenenter"",""1"",""2966""
","
","
","""event"",""trial"",""time""
""fullscreenenter"",""1"",""2966""
","
","","","","","","null","<div style=""font-size:60px;"">+</div>","null","","fixation","","","","","","","","","","",""
"aa-learning-trial","97","844765","0.0-9.0-2.0-1.12","7086","2","24","Male","approach_avoid_spark_v1","""event"",""trial"",""time""
""fullscreenenter"",""1"",""2966""
","
","
","""event"",""trial"",""time""
""fullscreenenter"",""1"",""2966""
","
","","","","","","1036","images/flower1.png","","","learning","5","0","0","0","flower","plants","2","0","","bad","[-4]"
"html-keyboard-response","98","845268","0.0-9.0-2.0-0.13","7086","2","24","Male","approach_avoid_spark_v1","""event"",""trial"",""time""
""fullscreenenter"",""1"",""2966""
","
","
","""event"",""trial"",""time""
""fullscreenenter"",""1"",""2966""
","
","","","","","","null","<div style=""font-size:60px;"">+</div>","null","","fixation","","","","","","","","","","",""
"aa-learning-trial","99","848271","0.0-9.0-2.0-1.13","7086","2","24","Male","approach_avoid_spark_v1","""event"",""trial"",""time""
""fullscreenenter"",""1"",""2966""
","
","
","""event"",""trial"",""time""
""fullscreenenter"",""1"",""2966""
","
","","","","","","772.0000000001164","images/cactus3.png","","","learning","3","3","1","1","cactus","plants","2","0","","neutral","0"
"html-keyboard-response","100","848773","0.0-9.0-2.0-0.14","7086","2","24","Male","approach_avoid_spark_v1","""event"",""trial"",""time""
""fullscreenenter"",""1"",""2966""
","
","
","""event"",""trial"",""time""
""fullscreenenter"",""1"",""2966""
","
","","","","","","null","<div style=""font-size:60px;"">+</div>","null","","fixation","","","","","","","","","","",""
"aa-learning-trial","101","851776","0.0-9.0-2.0-1.14","7086","2","24","Male","approach_avoid_spark_v1","""event"",""trial"",""time""
""fullscreenenter"",""1"",""2966""
","
","
","""event"",""trial"",""time""
""fullscreenenter"",""1"",""2966""
","
","","","","","","771","images/bush8.png","","","learning","1","1","1","1","bush","plants","2","0","","good","[4]"
"html-keyboard-response","102","852279","0.0-9.0-2.0-0.15","7086","2","24","Male","approach_avoid_spark_v1","""event"",""trial"",""time""
""fullscreenenter"",""1"",""2966""
","
","
","""event"",""trial"",""time""
""fullscreenenter"",""1"",""2966""
","
","","","","","","null","<div style=""font-size:60px;"">+</div>","null","","fixation","","","","","","","","","","",""
"aa-learning-trial","103","855283","0.0-9.0-2.0-1.15","7086","2","24","Male","approach_avoid_spark_v1","""event"",""trial"",""time""
""fullscreenenter"",""1"",""2966""
","
","
","""event"",""trial"",""time""
""fullscreenenter"",""1"",""2966""
","
","","","","","","1110","images/cactus1.png","","","learning","8","8","1","1","cactus","plants","2","0","","neutral","0"
"html-keyboard-response","104","855785","0.0-9.0-2.0-0.16","7086","2","24","Male","approach_avoid_spark_v1","""event"",""trial"",""time""
""fullscreenenter"",""1"",""2966""
","
","
","""event"",""trial"",""time""
""fullscreenenter"",""1"",""2966""
","
","","","","","","null","<div style=""font-size:60px;"">+</div>","null","","fixation","","","","","","","","","","",""
"aa-learning-trial","105","858788","0.0-9.0-2.0-1.16","7086","2","24","Male","approach_avoid_spark_v1","""event"",""trial"",""time""
""fullscreenenter"",""1"",""2966""
","
","
","""event"",""trial"",""time""
""fullscreenenter"",""1"",""2966""
","
","","","","","","832","images/cactus4.png","","","learning","-3","-3","1","1","cactus","plants","2","0","","neutral","0"
"html-keyboard-response","106","859290","0.0-9.0-2.0-0.17","7086","2","24","Male","approach_avoid_spark_v1","""event"",""trial"",""time""
""fullscreenenter"",""1"",""2966""
","
","
","""event"",""trial"",""time""
""fullscreenenter"",""1"",""2966""
","
","","","","","","null","<div style=""font-size:60px;"">+</div>","null","","fixation","","","","","","","","","","",""
"aa-learning-trial","107","862294","0.0-9.0-2.0-1.17","7086","2","24","Male","approach_avoid_spark_v1","""event"",""trial"",""time""
""fullscreenenter"",""1"",""2966""
","
","
","""event"",""trial"",""time""
""fullscreenenter"",""1"",""2966""
","
","","","","","","1036","images/flower1.png","","","learning","5","0","0","0","flower","plants","2","0","","bad","[-4]"
"html-keyboard-response","108","862797","0.0-9.0-2.0-0.18","7086","2","24","Male","approach_avoid_spark_v1","""event"",""trial"",""time""
""fullscreenenter"",""1"",""2966""
","
","
","""event"",""trial"",""time""
""fullscreenenter"",""1"",""2966""
","
","","","","","","null","<div style=""font-size:60px;"">+</div>","null","","fixation","","","","","","","","","","",""
"aa-learning-trial","109","865801","0.0-9.0-2.0-1.18","7086","2","24","Male","approach_avoid_spark_v1","""event"",""trial"",""time""
""fullscreenenter"",""1"",""2966""
","
","
","""event"",""trial"",""time""
""fullscreenenter"",""1"",""2966""
","
","","","","","","1135","images/flower4.png","","","learning","-1","-1","1","1","flower","plants","2","0","","bad","[-4]"
"html-keyboard-response","110","866304","0.0-9.0-2.0-0.19","7086","2","24","Male","approach_avoid_spark_v1","""event"",""trial"",""time""
""fullscreenenter"",""1"",""2966""
","
","
","""event"",""trial"",""time""
""fullscreenenter"",""1"",""2966""
","
","","","","","","null","<div style=""font-size:60px;"">+</div>","null","","fixation","","","","","","","","","","",""
"aa-learning-trial","111","869308","0.0-9.0-2.0-1.19","7086","2","24","Male","approach_avoid_spark_v1","""event"",""trial"",""time""
""fullscreenenter"",""1"",""2966""
","
","
","""event"",""trial"",""time""
""fullscreenenter"",""1"",""2966""
","
","","","","","","1978","images/flower7.png","","","learning","-5","-5","1","1","flower","plants","2","0","","bad","[-4]"
"html-keyboard-response","112","869811","0.0-9.0-2.0-0.20","7086","2","24","Male","approach_avoid_spark_v1","""event"",""trial"",""time""
""fullscreenenter"",""1"",""2966""
","
","
","""event"",""trial"",""time""
""fullscreenenter"",""1"",""2966""
","
","","","","","","null","<div style=""font-size:60px;"">+</div>","null","","fixation","","","","","","","","","","",""
"aa-learning-trial","113","872814","0.0-9.0-2.0-1.20","7086","2","24","Male","approach_avoid_spark_v1","""event"",""trial"",""time""
""fullscreenenter"",""1"",""2966""
","
","
","""event"",""trial"",""time""
""fullscreenenter"",""1"",""2966""
","
","","","","","","1191","images/cactus3.png","","","learning","3","3","1","1","cactus","plants","2","0","","neutral","0"
"html-keyboard-response","114","873317","0.0-9.0-2.0-0.21","7086","2","24","Male","approach_avoid_spark_v1","""event"",""trial"",""time""
""fullscreenenter"",""1"",""2966""
","
","
","""event"",""trial"",""time""
""fullscreenenter"",""1"",""2966""
","
","","","","","","null","<div style=""font-size:60px;"">+</div>","null","","fixation","","","","","","","","","","",""
"aa-learning-trial","115","876320","0.0-9.0-2.0-1.21","7086","2","24","Male","approach_avoid_spark_v1","""event"",""trial"",""time""
""fullscreenenter"",""1"",""2966""
","
","
","""event"",""trial"",""time""
""fullscreenenter"",""1"",""2966""
","
","","","","","","1453","images/cactus1.png","","","learning","8","0","0","0","cactus","plants","2","0","","neutral","0"
"html-keyboard-response","116","876822","0.0-9.0-2.0-0.22","7086","2","24","Male","approach_avoid_spark_v1","""event"",""trial"",""time""
""fullscreenenter"",""1"",""2966""
","
","
","""event"",""trial"",""time""
""fullscreenenter"",""1"",""2966""
","
","","","","","","null","<div style=""font-size:60px;"">+</div>","null","","fixation","","","","","","","","","","",""
"aa-learning-trial","117","879825","0.0-9.0-2.0-1.22","7086","2","24","Male","approach_avoid_spark_v1","""event"",""trial"",""time""
""fullscreenenter"",""1"",""2966""
","
","
","""event"",""trial"",""time""
""fullscreenenter"",""1"",""2966""
","
","","","","","","1025.0000000001164","images/cactus3.png","","","learning","3","0","0","0","cactus","plants","2","0","","neutral","0"
"html-keyboard-response","118","880327","0.0-9.0-2.0-0.23","7086","2","24","Male","approach_avoid_spark_v1","""event"",""trial"",""time""
""fullscreenenter"",""1"",""2966""
","
","
","""event"",""trial"",""time""
""fullscreenenter"",""1"",""2966""
","
","","","","","","null","<div style=""font-size:60px;"">+</div>","null","","fixation","","","","","","","","","","",""
"aa-learning-trial","119","883331","0.0-9.0-2.0-1.23","7086","2","24","Male","approach_avoid_spark_v1","""event"",""trial"",""time""
""fullscreenenter"",""1"",""2966""
","
","
","""event"",""trial"",""time""
""fullscreenenter"",""1"",""2966""
","
","","","","","","2096","images/flower1.png","","","learning","5","0","0","0","flower","plants","2","0","","bad","[-4]"
"html-keyboard-response","120","883832","0.0-9.0-2.0-0.24","7086","2","24","Male","approach_avoid_spark_v1","""event"",""trial"",""time""
""fullscreenenter"",""1"",""2966""
","
","
","""event"",""trial"",""time""
""fullscreenenter"",""1"",""2966""
","
","","","","","","null","<div style=""font-size:60px;"">+</div>","null","","fixation","","","","","","","","","","",""
"aa-learning-trial","121","886835","0.0-9.0-2.0-1.24","7086","2","24","Male","approach_avoid_spark_v1","""event"",""trial"",""time""
""fullscreenenter"",""1"",""2966""
","
","
","""event"",""trial"",""time""
""fullscreenenter"",""1"",""2966""
","
","","","","","","1555","images/flower3.png","","","learning","-9","0","0","0","flower","plants","2","0","","bad","[-4]"
"html-keyboard-response","122","887338","0.0-9.0-2.0-0.25","7086","2","24","Male","approach_avoid_spark_v1","""event"",""trial"",""time""
""fullscreenenter"",""1"",""2966""
","
","
","""event"",""trial"",""time""
""fullscreenenter"",""1"",""2966""
","
","","","","","","null","<div style=""font-size:60px;"">+</div>","null","","fixation","","","","","","","","","","",""
"aa-learning-trial","123","890343","0.0-9.0-2.0-1.25","7086","2","24","Male","approach_avoid_spark_v1","""event"",""trial"",""time""
""fullscreenenter"",""1"",""2966""
","
","
","""event"",""trial"",""time""
""fullscreenenter"",""1"",""2966""
","
","","","","","","704","images/cactus3.png","","","learning","3","3","1","1","cactus","plants","2","0","","neutral","0"
"html-keyboard-response","124","890846","0.0-9.0-2.0-0.26","7086","2","24","Male","approach_avoid_spark_v1","""event"",""trial"",""time""
""fullscreenenter"",""1"",""2966""
","
","
","""event"",""trial"",""time""
""fullscreenenter"",""1"",""2966""
","
","","","","","","null","<div style=""font-size:60px;"">+</div>","null","","fixation","","","","","","","","","","",""
"aa-learning-trial","125","893850","0.0-9.0-2.0-1.26","7086","2","24","Male","approach_avoid_spark_v1","""event"",""trial"",""time""
""fullscreenenter"",""1"",""2966""
","
","
","""event"",""trial"",""time""
""fullscreenenter"",""1"",""2966""
","
","","","","","","722.0000000001164","images/bush1.png","","","learning","-4","-4","1","1","bush","plants","2","0","","good","[4]"
"html-keyboard-response","126","894352","0.0-9.0-2.0-0.27","7086","2","24","Male","approach_avoid_spark_v1","""event"",""trial"",""time""
""fullscreenenter"",""1"",""2966""
","
","
","""event"",""trial"",""time""
""fullscreenenter"",""1"",""2966""
","
","","","","","","null","<div style=""font-size:60px;"">+</div>","null","","fixation","","","","","","","","","","",""
"aa-learning-trial","127","897356","0.0-9.0-2.0-1.27","7086","2","24","Male","approach_avoid_spark_v1","""event"",""trial"",""time""
""fullscreenenter"",""1"",""2966""
","
","
","""event"",""trial"",""time""
""fullscreenenter"",""1"",""2966""
","
","","","","","","715","images/bush1.png","","","learning","-4","-4","1","1","bush","plants","2","0","","good","[4]"
"html-keyboard-response","128","897859","0.0-9.0-2.0-0.28","7086","2","24","Male","approach_avoid_spark_v1","""event"",""trial"",""time""
""fullscreenenter"",""1"",""2966""
","
","
","""event"",""trial"",""time""
""fullscreenenter"",""1"",""2966""
","
","","","","","","null","<div style=""font-size:60px;"">+</div>","null","","fixation","","","","","","","","","","",""
"aa-learning-trial","129","900861","0.0-9.0-2.0-1.28","7086","2","24","Male","approach_avoid_spark_v1","""event"",""trial"",""time""
""fullscreenenter"",""1"",""2966""
","
","
","""event"",""trial"",""time""
""fullscreenenter"",""1"",""2966""
","
","","","","","","968","images/bush6.png","","","learning","7","7","1","1","bush","plants","2","0","","good","[4]"
"html-keyboard-response","130","901363","0.0-9.0-2.0-0.29","7086","2","24","Male","approach_avoid_spark_v1","""event"",""trial"",""time""
""fullscreenenter"",""1"",""2966""
","
","
","""event"",""trial"",""time""
""fullscreenenter"",""1"",""2966""
","
","","","","","","null","<div style=""font-size:60px;"">+</div>","null","","fixation","","","","","","","","","","",""
"aa-learning-trial","131","904367","0.0-9.0-2.0-1.29","7086","2","24","Male","approach_avoid_spark_v1","""event"",""trial"",""time""
""fullscreenenter"",""1"",""2966""
","
","
","""event"",""trial"",""time""
""fullscreenenter"",""1"",""2966""
","
","","","","","","1008.0000000001164","images/cactus4.png","","","learning","-3","0","0","0","cactus","plants","2","0","","neutral","0"
"html-keyboard-response","132","904869","0.0-9.0-2.0-0.30","7086","2","24","Male","approach_avoid_spark_v1","""event"",""trial"",""time""
""fullscreenenter"",""1"",""2966""
","
","
","""event"",""trial"",""time""
""fullscreenenter"",""1"",""2966""
","
","","","","","","null","<div style=""font-size:60px;"">+</div>","null","","fixation","","","","","","","","","","",""
"aa-learning-trial","133","907873","0.0-9.0-2.0-1.30","7086","2","24","Male","approach_avoid_spark_v1","""event"",""trial"",""time""
""fullscreenenter"",""1"",""2966""
","
","
","""event"",""trial"",""time""
""fullscreenenter"",""1"",""2966""
","
","","","","","","628","images/bush8.png","","","learning","1","1","1","1","bush","plants","2","0","","good","[4]"
"html-keyboard-response","134","908377","0.0-9.0-2.0-0.31","7086","2","24","Male","approach_avoid_spark_v1","""event"",""trial"",""time""
""fullscreenenter"",""1"",""2966""
","
","
","""event"",""trial"",""time""
""fullscreenenter"",""1"",""2966""
","
","","","","","","null","<div style=""font-size:60px;"">+</div>","null","","fixation","","","","","","","","","","",""
"aa-learning-trial","135","911381","0.0-9.0-2.0-1.31","7086","2","24","Male","approach_avoid_spark_v1","""event"",""trial"",""time""
""fullscreenenter"",""1"",""2966""
","
","
","""event"",""trial"",""time""
""fullscreenenter"",""1"",""2966""
","
","","","","","","1315","images/flower4.png","","","learning","-1","0","0","0","flower","plants","2","0","","bad","[-4]"
"html-keyboard-response","136","911885","0.0-9.0-2.0-0.32","7086","2","24","Male","approach_avoid_spark_v1","""event"",""trial"",""time""
""fullscreenenter"",""1"",""2966""
","
","
","""event"",""trial"",""time""
""fullscreenenter"",""1"",""2966""
","
","","","","","","null","<div style=""font-size:60px;"">+</div>","null","","fixation","","","","","","","","","","",""
"aa-learning-trial","137","914889","0.0-9.0-2.0-1.32","7086","2","24","Male","approach_avoid_spark_v1","""event"",""trial"",""time""
""fullscreenenter"",""1"",""2966""
","
","
","""event"",""trial"",""time""
""fullscreenenter"",""1"",""2966""
","
","","","","","","1012.9999999998836","images/flower7.png","","","learning","-5","0","0","0","flower","plants","2","0","","bad","[-4]"
"html-keyboard-response","138","915392","0.0-9.0-2.0-0.33","7086","2","24","Male","approach_avoid_spark_v1","""event"",""trial"",""time""
""fullscreenenter"",""1"",""2966""
","
","
","""event"",""trial"",""time""
""fullscreenenter"",""1"",""2966""
","
","","","","","","null","<div style=""font-size:60px;"">+</div>","null","","fixation","","","","","","","","","","",""
"aa-learning-trial","139","918396","0.0-9.0-2.0-1.33","7086","2","24","Male","approach_avoid_spark_v1","""event"",""trial"",""time""
""fullscreenenter"",""1"",""2966""
","
","
","""event"",""trial"",""time""
""fullscreenenter"",""1"",""2966""
","
","","","","","","1036","images/flower4.png","","","learning","-1","-1","1","1","flower","plants","2","0","","bad","[-4]"
"html-keyboard-response","140","918898","0.0-9.0-2.0-0.34","7086","2","24","Male","approach_avoid_spark_v1","""event"",""trial"",""time""
""fullscreenenter"",""1"",""2966""
","
","
","""event"",""trial"",""time""
""fullscreenenter"",""1"",""2966""
","
","","","","","","null","<div style=""font-size:60px;"">+</div>","null","","fixation","","","","","","","","","","",""
"aa-learning-trial","141","921902","0.0-9.0-2.0-1.34","7086","2","24","Male","approach_avoid_spark_v1","""event"",""trial"",""time""
""fullscreenenter"",""1"",""2966""
","
","
","""event"",""trial"",""time""
""fullscreenenter"",""1"",""2966""
","
","","","","","","1016.0000000001164","images/flower4.png","","","learning","-1","-1","1","1","flower","plants","2","0","","bad","[-4]"
"html-keyboard-response","142","922405","0.0-9.0-2.0-0.35","7086","2","24","Male","approach_avoid_spark_v1","""event"",""trial"",""time""
""fullscreenenter"",""1"",""2966""
","
","
","""event"",""trial"",""time""
""fullscreenenter"",""1"",""2966""
","
","","","","","","null","<div style=""font-size:60px;"">+</div>","null","","fixation","","","","","","","","","","",""
"aa-learning-trial","143","925409","0.0-9.0-2.0-1.35","7086","2","24","Male","approach_avoid_spark_v1","""event"",""trial"",""time""
""fullscreenenter"",""1"",""2966""
","
","
","""event"",""trial"",""time""
""fullscreenenter"",""1"",""2966""
","
","","","","","","869","images/flower1.png","","","learning","5","0","0","0","flower","plants","2","0","","bad","[-4]"
"html-keyboard-response","144","925912","0.0-9.0-2.0-0.36","7086","2","24","Male","approach_avoid_spark_v1","""event"",""trial"",""time""
""fullscreenenter"",""1"",""2966""
","
","
","""event"",""trial"",""time""
""fullscreenenter"",""1"",""2966""
","
","","","","","","null","<div style=""font-size:60px;"">+</div>","null","","fixation","","","","","","","","","","",""
"aa-learning-trial","145","928915","0.0-9.0-2.0-1.36","7086","2","24","Male","approach_avoid_spark_v1","""event"",""trial"",""time""
""fullscreenenter"",""1"",""2966""
","
","
","""event"",""trial"",""time""
""fullscreenenter"",""1"",""2966""
","
","","","","","","536.0000000001164","images/bush6.png","","","learning","7","7","1","1","bush","plants","2","0","","good","[4]"
"html-keyboard-response","146","929417","0.0-9.0-2.0-0.37","7086","2","24","Male","approach_avoid_spark_v1","""event"",""trial"",""time""
""fullscreenenter"",""1"",""2966""
","
","
","""event"",""trial"",""time""
""fullscreenenter"",""1"",""2966""
","
","","","","","","null","<div style=""font-size:60px;"">+</div>","null","","fixation","","","","","","","","","","",""
"aa-learning-trial","147","932420","0.0-9.0-2.0-1.37","7086","2","24","Male","approach_avoid_spark_v1","""event"",""trial"",""time""
""fullscreenenter"",""1"",""2966""
","
","
","""event"",""trial"",""time""
""fullscreenenter"",""1"",""2966""
","
","","","","","","2034","images/bush2.png","","","learning","4","0","0","0","bush","plants","2","0","","good","[4]"
"html-keyboard-response","148","932922","0.0-9.0-2.0-0.38","7086","2","24","Male","approach_avoid_spark_v1","""event"",""trial"",""time""
""fullscreenenter"",""1"",""2966""
","
","
","""event"",""trial"",""time""
""fullscreenenter"",""1"",""2966""
","
","","","","","","null","<div style=""font-size:60px;"">+</div>","null","","fixation","","","","","","","","","","",""
"aa-learning-trial","149","935924","0.0-9.0-2.0-1.38","7086","2","24","Male","approach_avoid_spark_v1","""event"",""trial"",""time""
""fullscreenenter"",""1"",""2966""
","
","
","""event"",""trial"",""time""
""fullscreenenter"",""1"",""2966""
","
","","","","","","2697","images/cactus4.png","","","learning","-3","-3","1","1","cactus","plants","2","0","","neutral","0"
"html-keyboard-response","150","936427","0.0-9.0-2.0-0.39","7086","2","24","Male","approach_avoid_spark_v1","""event"",""trial"",""time""
""fullscreenenter"",""1"",""2966""
","
","
","""event"",""trial"",""time""
""fullscreenenter"",""1"",""2966""
","
","","","","","","null","<div style=""font-size:60px;"">+</div>","null","","fixation","","","","","","","","","","",""
"aa-learning-trial","151","939433","0.0-9.0-2.0-1.39","7086","2","24","Male","approach_avoid_spark_v1","""event"",""trial"",""time""
""fullscreenenter"",""1"",""2966""
","
","
","""event"",""trial"",""time""
""fullscreenenter"",""1"",""2966""
","
","","","","","","850","images/bush1.png","","","learning","-4","-4","1","1","bush","plants","2","0","","good","[4]"
"html-keyboard-response","152","939935","0.0-9.0-2.0-0.40","7086","2","24","Male","approach_avoid_spark_v1","""event"",""trial"",""time""
""fullscreenenter"",""1"",""2966""
","
","
","""event"",""trial"",""time""
""fullscreenenter"",""1"",""2966""
","
","","","","","","null","<div style=""font-size:60px;"">+</div>","null","","fixation","","","","","","","","","","",""
"aa-learning-trial","153","942939","0.0-9.0-2.0-1.40","7086","2","24","Male","approach_avoid_spark_v1","""event"",""trial"",""time""
""fullscreenenter"",""1"",""2966""
","
","
","""event"",""trial"",""time""
""fullscreenenter"",""1"",""2966""
","
","","","","","","null","images/cactus8.png","","","learning","-6","-5","","null","cactus","plants","2","0","","neutral","0"
"html-keyboard-response","154","943441","0.0-9.0-2.0-0.41","7086","2","24","Male","approach_avoid_spark_v1","""event"",""trial"",""time""
""fullscreenenter"",""1"",""2966""
","
","
","""event"",""trial"",""time""
""fullscreenenter"",""1"",""2966""
","
","","","","","","null","<div style=""font-size:60px;"">+</div>","null","","fixation","","","","","","","","","","",""
"aa-learning-trial","155","946445","0.0-9.0-2.0-1.41","7086","2","24","Male","approach_avoid_spark_v1","""event"",""trial"",""time""
""fullscreenenter"",""1"",""2966""
","
","
","""event"",""trial"",""time""
""fullscreenenter"",""1"",""2966""
","
","","","","","","null","images/bush6.png","","","learning","7","-5","","null","bush","plants","2","0","","good","[4]"
"html-keyboard-response","156","946947","0.0-9.0-2.0-0.42","7086","2","24","Male","approach_avoid_spark_v1","""event"",""trial"",""time""
""fullscreenenter"",""1"",""2966""
","
","
","""event"",""trial"",""time""
""fullscreenenter"",""1"",""2966""
","
","","","","","","null","<div style=""font-size:60px;"">+</div>","null","","fixation","","","","","","","","","","",""
"aa-learning-trial","157","949951","0.0-9.0-2.0-1.42","7086","2","24","Male","approach_avoid_spark_v1","""event"",""trial"",""time""
""fullscreenenter"",""1"",""2966""
","
","
","""event"",""trial"",""time""
""fullscreenenter"",""1"",""2966""
","
","","","","","","640.0000000001164","images/cactus3.png","","","learning","3","3","1","1","cactus","plants","2","0","","neutral","0"
"html-keyboard-response","158","950453","0.0-9.0-2.0-0.43","7086","2","24","Male","approach_avoid_spark_v1","""event"",""trial"",""time""
""fullscreenenter"",""1"",""2966""
","
","
","""event"",""trial"",""time""
""fullscreenenter"",""1"",""2966""
","
","","","","","","null","<div style=""font-size:60px;"">+</div>","null","","fixation","","","","","","","","","","",""
"aa-learning-trial","159","953458","0.0-9.0-2.0-1.43","7086","2","24","Male","approach_avoid_spark_v1","""event"",""trial"",""time""
""fullscreenenter"",""1"",""2966""
","
","
","""event"",""trial"",""time""
""fullscreenenter"",""1"",""2966""
","
","","","","","","396","images/bush3.png","","","learning","-8","-8","1","1","bush","plants","2","0","","good","[4]"
"html-keyboard-response","160","953960","0.0-9.0-2.0-0.44","7086","2","24","Male","approach_avoid_spark_v1","""event"",""trial"",""time""
""fullscreenenter"",""1"",""2966""
","
","
","""event"",""trial"",""time""
""fullscreenenter"",""1"",""2966""
","
","","","","","","null","<div style=""font-size:60px;"">+</div>","null","","fixation","","","","","","","","","","",""
"aa-learning-trial","161","956964","0.0-9.0-2.0-1.44","7086","2","24","Male","approach_avoid_spark_v1","""event"",""trial"",""time""
""fullscreenenter"",""1"",""2966""
","
","
","""event"",""trial"",""time""
""fullscreenenter"",""1"",""2966""
","
","","","","","","1165","images/cactus4.png","","","learning","-3","0","0","0","cactus","plants","2","0","","neutral","0"
"html-keyboard-response","162","957466","0.0-9.0-2.0-0.45","7086","2","24","Male","approach_avoid_spark_v1","""event"",""trial"",""time""
""fullscreenenter"",""1"",""2966""
","
","
","""event"",""trial"",""time""
""fullscreenenter"",""1"",""2966""
","
","","","","","","null","<div style=""font-size:60px;"">+</div>","null","","fixation","","","","","","","","","","",""
"aa-learning-trial","163","960470","0.0-9.0-2.0-1.45","7086","2","24","Male","approach_avoid_spark_v1","""event"",""trial"",""time""
""fullscreenenter"",""1"",""2966""
","
","
","""event"",""trial"",""time""
""fullscreenenter"",""1"",""2966""
","
","","","","","","609","images/bush8.png","","","learning","1","1","1","1","bush","plants","2","0","","good","[4]"
"html-keyboard-response","164","960972","0.0-9.0-2.0-0.46","7086","2","24","Male","approach_avoid_spark_v1","""event"",""trial"",""time""
""fullscreenenter"",""1"",""2966""
","
","
","""event"",""trial"",""time""
""fullscreenenter"",""1"",""2966""
","
","","","","","","null","<div style=""font-size:60px;"">+</div>","null","","fixation","","","","","","","","","","",""
"aa-learning-trial","165","963975","0.0-9.0-2.0-1.46","7086","2","24","Male","approach_avoid_spark_v1","""event"",""trial"",""time""
""fullscreenenter"",""1"",""2966""
","
","
","""event"",""trial"",""time""
""fullscreenenter"",""1"",""2966""
","
","","","","","","1646","images/bush1.png","","","learning","-4","0","0","0","bush","plants","2","0","","good","[4]"
"html-keyboard-response","166","964478","0.0-9.0-2.0-0.47","7086","2","24","Male","approach_avoid_spark_v1","""event"",""trial"",""time""
""fullscreenenter"",""1"",""2966""
","
","
","""event"",""trial"",""time""
""fullscreenenter"",""1"",""2966""
","
","","","","","","null","<div style=""font-size:60px;"">+</div>","null","","fixation","","","","","","","","","","",""
"aa-learning-trial","167","967481","0.0-9.0-2.0-1.47","7086","2","24","Male","approach_avoid_spark_v1","""event"",""trial"",""time""
""fullscreenenter"",""1"",""2966""
","
","
","""event"",""trial"",""time""
""fullscreenenter"",""1"",""2966""
","
","","","","","","557","images/bush6.png","","","learning","7","7","1","1","bush","plants","2","0","","good","[4]"
"html-keyboard-response","168","967984","0.0-9.0-2.0-0.48","7086","2","24","Male","approach_avoid_spark_v1","""event"",""trial"",""time""
""fullscreenenter"",""1"",""2966""
","
","
","""event"",""trial"",""time""
""fullscreenenter"",""1"",""2966""
","
","","","","","","null","<div style=""font-size:60px;"">+</div>","null","","fixation","","","","","","","","","","",""
"aa-learning-trial","169","970987","0.0-9.0-2.0-1.48","7086","2","24","Male","approach_avoid_spark_v1","""event"",""trial"",""time""
""fullscreenenter"",""1"",""2966""
","
","
","""event"",""trial"",""time""
""fullscreenenter"",""1"",""2966""
","
","","","","","","1480","images/flower1.png","","","learning","5","5","1","1","flower","plants","2","0","","bad","[-4]"
"html-keyboard-response","170","971488","0.0-9.0-2.0-0.49","7086","2","24","Male","approach_avoid_spark_v1","""event"",""trial"",""time""
""fullscreenenter"",""1"",""2966""
","
","
","""event"",""trial"",""time""
""fullscreenenter"",""1"",""2966""
","
","","","","","","null","<div style=""font-size:60px;"">+</div>","null","","fixation","","","","","","","","","","",""
"aa-learning-trial","171","974493","0.0-9.0-2.0-1.49","7086","2","24","Male","approach_avoid_spark_v1","""event"",""trial"",""time""
""fullscreenenter"",""1"",""2966""
","
","
","""event"",""trial"",""time""
""fullscreenenter"",""1"",""2966""
","
","","","","","","1069","images/flower5.png","","","learning","9","0","0","0","flower","plants","2","0","","bad","[-4]"
"html-keyboard-response","172","974997","0.0-9.0-2.0-0.50","7086","2","24","Male","approach_avoid_spark_v1","""event"",""trial"",""time""
""fullscreenenter"",""1"",""2966""
","
","
","""event"",""trial"",""time""
""fullscreenenter"",""1"",""2966""
","
","","","","","","null","<div style=""font-size:60px;"">+</div>","null","","fixation","","","","","","","","","","",""
"aa-learning-trial","173","978002","0.0-9.0-2.0-1.50","7086","2","24","Male","approach_avoid_spark_v1","""event"",""trial"",""time""
""fullscreenenter"",""1"",""2966""
","
","
","""event"",""trial"",""time""
""fullscreenenter"",""1"",""2966""
","
","","","","","","1283","images/cactus5.png","","","learning","-2","-2","1","1","cactus","plants","2","0","","neutral","0"
"html-button-response","174","983402","0.0-9.0-3.0","7086","2","24","Male","approach_avoid_spark_v1","""event"",""trial"",""time""
""fullscreenenter"",""1"",""2966""
","
","
","""event"",""trial"",""time""
""fullscreenenter"",""1"",""2966""
","
","","","","","","5397","<p> You have completed the round! <p> In this round, you earned 10 points! </p>","0","","break","","","","","","","","","","",""
"html-button-response","175","984735","0.0-10.0","7086","2","24","Male","approach_avoid_spark_v1","""event"",""trial"",""time""
""fullscreenenter"",""1"",""2966""
","
","
","""event"",""trial"",""time""
""fullscreenenter"",""1"",""2966""
","
","","","","","","1331","<p> Now it's time to play another round. </p>","0","","transition_screen","","","","","","","","","","",""
"preload","176","984846","0.0-11.0-0.0","7086","2","24","Male","approach_avoid_spark_v1","""event"",""trial"",""time""
""fullscreenenter"",""1"",""2966""
","
","
","""event"",""trial"",""time""
""fullscreenenter"",""1"",""2966""
","
","true","false","[]","[]","[]","","","","","","","","","","","","","","","",""
"learning-instructions","177","991753","0.0-11.0-1.0-0.0","7086","2","24","Male","approach_avoid_spark_v1","""event"",""trial"",""time""
""fullscreenenter"",""1"",""2966""
","
","
","""event"",""trial"",""time""
""fullscreenenter"",""1"",""2966""
","
","","","","","","2005.9999999998836","<p> Your goal in this round is to take care of lots of farm animals. </p></div>","","0","instructions","","","","","","","","","","",""
"learning-instructions","178","1004004","0.0-11.0-1.0-0.1","7086","2","24","Male","approach_avoid_spark_v1","""event"",""trial"",""time""
""fullscreenenter"",""1"",""2966""
","
","
","""event"",""trial"",""time""
""fullscreenenter"",""1"",""2966""
","
","","","","","","1718","<p> Some farm animals are hungry, while other farm animals are already full.  </p><p> On each turn, you will see a farm animal.   </p><p> You need to decide whether to feed it or not.  </p>","","0","instructions","","","","","","","","","","",""
"learning-instructions","179","1015668","0.0-11.0-1.0-0.2","7086","2","24","Male","approach_avoid_spark_v1","""event"",""trial"",""time""
""fullscreenenter"",""1"",""2966""
","
","
","""event"",""trial"",""time""
""fullscreenenter"",""1"",""2966""
","
","","","","","","5496","<p> You can feed the farm animal by pressing 1 and leave the farm animal alone by pressing 0. </p><br><div class=""choice-instructions-grid""> <div class=""choice-option""><img src=""images/approach.png"" class=""choice-option-img"" stage=""instructions"" position=""0"" ><div class=""choice-option-text""> Press ""1."" </div></div><div class=""choice-option""><img src=""images/avoid.png"" class=""choice-option-img"" stage=""instructions"" position=""1"" ><div class=""choice-option-text""> Press ""0."" </div></div>","","0","instructions","","","","","","","","","","",""
"learning-instructions","180","1027485","0.0-11.0-1.0-0.3","7086","2","24","Male","approach_avoid_spark_v1","""event"",""trial"",""time""
""fullscreenenter"",""1"",""2966""
","
","
","""event"",""trial"",""time""
""fullscreenenter"",""1"",""2966""
","
","","","","","","1642","<p> If you feed a hungry farm animal, you will make it feel satisfied! </p><p> But if you feed the farm animal and it was already full, you will make it feel sick. </p>","","0","instructions","","","","","","","","","","",""
"learning-instructions","181","1041768","0.0-11.0-1.0-0.4","7086","2","24","Male","approach_avoid_spark_v1","""event"",""trial"",""time""
""fullscreenenter"",""1"",""2966""
","
","
","""event"",""trial"",""time""
""fullscreenenter"",""1"",""2966""
","
","","","","","","983.0000000001164","<p> You will earn points based on how you made the farm animal feel. </p><p> If you made it satisfied, you will WIN anywhere from 1 - 9 points, </p><p> but if you made it sick, you will LOSE anywhere from 1 - 9 points. </p>","","0","instructions","","","","","","","","","","",""
"learning-instructions","182","1049984","0.0-11.0-1.0-0.5","7086","2","24","Male","approach_avoid_spark_v1","""event"",""trial"",""time""
""fullscreenenter"",""1"",""2966""
","
","
","""event"",""trial"",""time""
""fullscreenenter"",""1"",""2966""
","
","","","","","","1572","<p> You will see how many points you won or lost in the center of the screen. </p><p> Here is what you would see if you won 5 points: </p><p style=""color:green;font-size:50px;font-weight:bolder"">5</p>","","0","instructions","","","","","","","","","","",""
"learning-instructions","183","1054718","0.0-11.0-1.0-0.6","7086","2","24","Male","approach_avoid_spark_v1","""event"",""trial"",""time""
""fullscreenenter"",""1"",""2966""
","
","
","""event"",""trial"",""time""
""fullscreenenter"",""1"",""2966""
","
","","","","","","1905","<p> And here is what you would see if you lost 3 points: </p><p style=""color:red;font-size:50px;font-weight:bolder"">-3</p>","","0","instructions","","","","","","","","","","",""
"learning-instructions","184","1072717","0.0-11.0-1.0-0.7","7086","2","24","Male","approach_avoid_spark_v1","""event"",""trial"",""time""
""fullscreenenter"",""1"",""2966""
","
","
","""event"",""trial"",""time""
""fullscreenenter"",""1"",""2966""
","
","","","","","","1433","<p> Some farm animals will become very satisfied or very sick. </p><p> These farm animals will make you win or lose LOTS of points. </p><p> Other farm animals have less strong feelings. </p><p> These farm animals will make you win or lose small amounts of points. </p>","","0","instructions","","","","","","","","","","",""
"learning-instructions","185","1087384","0.0-11.0-1.0-0.8","7086","2","24","Male","approach_avoid_spark_v1","""event"",""trial"",""time""
""fullscreenenter"",""1"",""2966""
","
","
","""event"",""trial"",""time""
""fullscreenenter"",""1"",""2966""
","
","","","","","","1634","<p> If you choose to leave the farm animal alone, you will not win or lose any points. </p><p>  However, in the center of the screen, you will see the number of points you WOULD HAVE won or lost if you had fed the farm animal. </p>","","0","instructions","","","","","","","","","","",""
"learning-instructions","186","1147418","0.0-11.0-1.0-0.9","7086","2","24","Male","approach_avoid_spark_v1","""event"",""trial"",""time""
""fullscreenenter"",""1"",""2966""
","
","
","""event"",""trial"",""time""
""fullscreenenter"",""1"",""2966""
","
","","","","","","47864","<p> Here is what you might see if you did not feed the farm animal but the animal was hungry: </p><p style=""color:grey; font-size:50px; display: inline-block; border-spacing: 15px; border-width:3px; border-style:solid; border-color:red"">  &nbsp; 6 &nbsp; </p><p> Remember, in this case, you would not win or lose ANY points because you did not feed the farm animal.  </p>","","0","instructions","","","","","","","","","","",""
"learning-instructions","187","1157418","0.0-11.0-1.0-0.10","7086","2","24","Male","approach_avoid_spark_v1","""event"",""trial"",""time""
""fullscreenenter"",""1"",""2966""
","
","
","""event"",""trial"",""time""
""fullscreenenter"",""1"",""2966""
","
","","","","","","1823","<p> Try to make the best choice for each farm animal because </p><p> at the end of the game, you will earn bonus money based on how many points you earned. </p>","","0","instructions","","","","","","","","","","",""
"learning-instructions","188","1167018","0.0-11.0-1.0-0.11","7086","2","24","Male","approach_avoid_spark_v1","""event"",""trial"",""time""
""fullscreenenter"",""1"",""2966""
","
","
","""event"",""trial"",""time""
""fullscreenenter"",""1"",""2966""
","
","","","","","","1414.9999999997672","<p> You will have 3 seconds to make each choice. Try to respond before time runs out! </p><p> You will lose 5 points each time you do not make a response. </p>","","0","instructions","","","","","","","","","","",""
"html-keyboard-response","189","1167622","0.0-11.0-2.0-0.0","7086","2","24","Male","approach_avoid_spark_v1","""event"",""trial"",""time""
""fullscreenenter"",""1"",""2966""
","
","
","""event"",""trial"",""time""
""fullscreenenter"",""1"",""2966""
","
","","","","","","null","<div style=""font-size:60px;"">+</div>","null","","fixation","","","","","","","","","","",""
"aa-learning-trial","190","1170628","0.0-11.0-2.0-1.0","7086","2","24","Male","approach_avoid_spark_v1","""event"",""trial"",""time""
""fullscreenenter"",""1"",""2966""
","
","
","""event"",""trial"",""time""
""fullscreenenter"",""1"",""2966""
","
","","","","","","1358","images/cow1.png","","","learning","8","8","1","1","cow","animals","1","1","","good","[6]"
"html-keyboard-response","191","1171130","0.0-11.0-2.0-0.1","7086","2","24","Male","approach_avoid_spark_v1","""event"",""trial"",""time""
""fullscreenenter"",""1"",""2966""
","
","
","""event"",""trial"",""time""
""fullscreenenter"",""1"",""2966""
","
","","","","","","null","<div style=""font-size:60px;"">+</div>","null","","fixation","","","","","","","","","","",""
"aa-learning-trial","192","1174133","0.0-11.0-2.0-1.1","7086","2","24","Male","approach_avoid_spark_v1","""event"",""trial"",""time""
""fullscreenenter"",""1"",""2966""
","
","
","""event"",""trial"",""time""
""fullscreenenter"",""1"",""2966""
","
","","","","","","686","images/sheep4.png","","","learning","1","1","1","1","sheep","animals","1","1","","neutral","0"
"html-keyboard-response","193","1174635","0.0-11.0-2.0-0.2","7086","2","24","Male","approach_avoid_spark_v1","""event"",""trial"",""time""
""fullscreenenter"",""1"",""2966""
","
","
","""event"",""trial"",""time""
""fullscreenenter"",""1"",""2966""
","
","","","","","","null","<div style=""font-size:60px;"">+</div>","null","","fixation","","","","","","","","","","",""
"aa-learning-trial","194","1177639","0.0-11.0-2.0-1.2","7086","2","24","Male","approach_avoid_spark_v1","""event"",""trial"",""time""
""fullscreenenter"",""1"",""2966""
","
","
","""event"",""trial"",""time""
""fullscreenenter"",""1"",""2966""
","
","","","","","","685","images/cow6.png","","","learning","6","6","1","1","cow","animals","1","1","","good","[6]"
"html-keyboard-response","195","1178141","0.0-11.0-2.0-0.3","7086","2","24","Male","approach_avoid_spark_v1","""event"",""trial"",""time""
""fullscreenenter"",""1"",""2966""
","
","
","""event"",""trial"",""time""
""fullscreenenter"",""1"",""2966""
","
","","","","","","null","<div style=""font-size:60px;"">+</div>","null","","fixation","","","","","","","","","","",""
"aa-learning-trial","196","1181144","0.0-11.0-2.0-1.3","7086","2","24","Male","approach_avoid_spark_v1","""event"",""trial"",""time""
""fullscreenenter"",""1"",""2966""
","
","
","""event"",""trial"",""time""
""fullscreenenter"",""1"",""2966""
","
","","","","","","669.0000000002328","images/sheep8.png","","","learning","[-1]","-1","1","1","sheep","animals","1","1","","neutral","0"
"html-keyboard-response","197","1181647","0.0-11.0-2.0-0.4","7086","2","24","Male","approach_avoid_spark_v1","""event"",""trial"",""time""
""fullscreenenter"",""1"",""2966""
","
","
","""event"",""trial"",""time""
""fullscreenenter"",""1"",""2966""
","
","","","","","","null","<div style=""font-size:60px;"">+</div>","null","","fixation","","","","","","","","","","",""
"aa-learning-trial","198","1184650","0.0-11.0-2.0-1.4","7086","2","24","Male","approach_avoid_spark_v1","""event"",""trial"",""time""
""fullscreenenter"",""1"",""2966""
","
","
","""event"",""trial"",""time""
""fullscreenenter"",""1"",""2966""
","
","","","","","","825","images/cow1.png","","","learning","7","7","1","1","cow","animals","1","1","","good","[6]"
"html-keyboard-response","199","1185152","0.0-11.0-2.0-0.5","7086","2","24","Male","approach_avoid_spark_v1","""event"",""trial"",""time""
""fullscreenenter"",""1"",""2966""
","
","
","""event"",""trial"",""time""
""fullscreenenter"",""1"",""2966""
","
","","","","","","null","<div style=""font-size:60px;"">+</div>","null","","fixation","","","","","","","","","","",""
"aa-learning-trial","200","1188154","0.0-11.0-2.0-1.5","7086","2","24","Male","approach_avoid_spark_v1","""event"",""trial"",""time""
""fullscreenenter"",""1"",""2966""
","
","
","""event"",""trial"",""time""
""fullscreenenter"",""1"",""2966""
","
","","","","","","947","images/horse2.png","","","learning","-3","0","0","0","horse","animals","1","1","","bad","[-5]"
"html-keyboard-response","201","1188656","0.0-11.0-2.0-0.6","7086","2","24","Male","approach_avoid_spark_v1","""event"",""trial"",""time""
""fullscreenenter"",""1"",""2966""
","
","
","""event"",""trial"",""time""
""fullscreenenter"",""1"",""2966""
","
","","","","","","null","<div style=""font-size:60px;"">+</div>","null","","fixation","","","","","","","","","","",""
"aa-learning-trial","202","1191660","0.0-11.0-2.0-1.6","7086","2","24","Male","approach_avoid_spark_v1","""event"",""trial"",""time""
""fullscreenenter"",""1"",""2966""
","
","
","""event"",""trial"",""time""
""fullscreenenter"",""1"",""2966""
","
","","","","","","1129","images/horse2.png","","","learning","-5","-5","1","1","horse","animals","1","1","","bad","[-5]"
"html-keyboard-response","203","1192161","0.0-11.0-2.0-0.7","7086","2","24","Male","approach_avoid_spark_v1","""event"",""trial"",""time""
""fullscreenenter"",""1"",""2966""
","
","
","""event"",""trial"",""time""
""fullscreenenter"",""1"",""2966""
","
","","","","","","null","<div style=""font-size:60px;"">+</div>","null","","fixation","","","","","","","","","","",""
"aa-learning-trial","204","1195165","0.0-11.0-2.0-1.7","7086","2","24","Male","approach_avoid_spark_v1","""event"",""trial"",""time""
""fullscreenenter"",""1"",""2966""
","
","
","""event"",""trial"",""time""
""fullscreenenter"",""1"",""2966""
","
","","","","","","1281","images/horse3.png","","","learning","-6","-6","1","1","horse","animals","1","1","","bad","[-5]"
"html-keyboard-response","205","1195667","0.0-11.0-2.0-0.8","7086","2","24","Male","approach_avoid_spark_v1","""event"",""trial"",""time""
""fullscreenenter"",""1"",""2966""
","
","
","""event"",""trial"",""time""
""fullscreenenter"",""1"",""2966""
","
","","","","","","null","<div style=""font-size:60px;"">+</div>","null","","fixation","","","","","","","","","","",""
"aa-learning-trial","206","1198671","0.0-11.0-2.0-1.8","7086","2","24","Male","approach_avoid_spark_v1","""event"",""trial"",""time""
""fullscreenenter"",""1"",""2966""
","
","
","""event"",""trial"",""time""
""fullscreenenter"",""1"",""2966""
","
","","","","","","673","images/cow6.png","","","learning","5","5","1","1","cow","animals","1","1","","good","[6]"
"html-keyboard-response","207","1199173","0.0-11.0-2.0-0.9","7086","2","24","Male","approach_avoid_spark_v1","""event"",""trial"",""time""
""fullscreenenter"",""1"",""2966""
","
","
","""event"",""trial"",""time""
""fullscreenenter"",""1"",""2966""
","
","","","","","","null","<div style=""font-size:60px;"">+</div>","null","","fixation","","","","","","","","","","",""
"aa-learning-trial","208","1202177","0.0-11.0-2.0-1.9","7086","2","24","Male","approach_avoid_spark_v1","""event"",""trial"",""time""
""fullscreenenter"",""1"",""2966""
","
","
","""event"",""trial"",""time""
""fullscreenenter"",""1"",""2966""
","
","","","","","","1057","images/sheep6.png","","","learning","[1]","1","1","1","sheep","animals","1","1","","neutral","0"
"html-keyboard-response","209","1202679","0.0-11.0-2.0-0.10","7086","2","24","Male","approach_avoid_spark_v1","""event"",""trial"",""time""
""fullscreenenter"",""1"",""2966""
","
","
","""event"",""trial"",""time""
""fullscreenenter"",""1"",""2966""
","
","","","","","","null","<div style=""font-size:60px;"">+</div>","null","","fixation","","","","","","","","","","",""
"aa-learning-trial","210","1205683","0.0-11.0-2.0-1.10","7086","2","24","Male","approach_avoid_spark_v1","""event"",""trial"",""time""
""fullscreenenter"",""1"",""2966""
","
","
","""event"",""trial"",""time""
""fullscreenenter"",""1"",""2966""
","
","","","","","","898","images/cow2.png","","","learning","7","7","1","1","cow","animals","1","1","","good","[6]"
"html-keyboard-response","211","1206185","0.0-11.0-2.0-0.11","7086","2","24","Male","approach_avoid_spark_v1","""event"",""trial"",""time""
""fullscreenenter"",""1"",""2966""
","
","
","""event"",""trial"",""time""
""fullscreenenter"",""1"",""2966""
","
","","","","","","null","<div style=""font-size:60px;"">+</div>","null","","fixation","","","","","","","","","","",""
"aa-learning-trial","212","1209188","0.0-11.0-2.0-1.11","7086","2","24","Male","approach_avoid_spark_v1","""event"",""trial"",""time""
""fullscreenenter"",""1"",""2966""
","
","
","""event"",""trial"",""time""
""fullscreenenter"",""1"",""2966""
","
","","","","","","1156","images/sheep4.png","","","learning","[-1]","-1","1","1","sheep","animals","1","1","","neutral","0"
"html-keyboard-response","213","1209691","0.0-11.0-2.0-0.12","7086","2","24","Male","approach_avoid_spark_v1","""event"",""trial"",""time""
""fullscreenenter"",""1"",""2966""
","
","
","""event"",""trial"",""time""
""fullscreenenter"",""1"",""2966""
","
","","","","","","null","<div style=""font-size:60px;"">+</div>","null","","fixation","","","","","","","","","","",""
"aa-learning-trial","214","1212694","0.0-11.0-2.0-1.12","7086","2","24","Male","approach_avoid_spark_v1","""event"",""trial"",""time""
""fullscreenenter"",""1"",""2966""
","
","
","""event"",""trial"",""time""
""fullscreenenter"",""1"",""2966""
","
","","","","","","975","images/horse7.png","","","learning","-3","0","0","0","horse","animals","1","1","","bad","[-5]"
"html-keyboard-response","215","1213196","0.0-11.0-2.0-0.13","7086","2","24","Male","approach_avoid_spark_v1","""event"",""trial"",""time""
""fullscreenenter"",""1"",""2966""
","
","
","""event"",""trial"",""time""
""fullscreenenter"",""1"",""2966""
","
","","","","","","null","<div style=""font-size:60px;"">+</div>","null","","fixation","","","","","","","","","","",""
"aa-learning-trial","216","1216200","0.0-11.0-2.0-1.13","7086","2","24","Male","approach_avoid_spark_v1","""event"",""trial"",""time""
""fullscreenenter"",""1"",""2966""
","
","
","""event"",""trial"",""time""
""fullscreenenter"",""1"",""2966""
","
","","","","","","1323","images/sheep8.png","","","learning","-1","0","0","0","sheep","animals","1","1","","neutral","0"
"html-keyboard-response","217","1216702","0.0-11.0-2.0-0.14","7086","2","24","Male","approach_avoid_spark_v1","""event"",""trial"",""time""
""fullscreenenter"",""1"",""2966""
","
","
","""event"",""trial"",""time""
""fullscreenenter"",""1"",""2966""
","
","","","","","","null","<div style=""font-size:60px;"">+</div>","null","","fixation","","","","","","","","","","",""
"aa-learning-trial","218","1219706","0.0-11.0-2.0-1.14","7086","2","24","Male","approach_avoid_spark_v1","""event"",""trial"",""time""
""fullscreenenter"",""1"",""2966""
","
","
","""event"",""trial"",""time""
""fullscreenenter"",""1"",""2966""
","
","","","","","","1196.0000000002328","images/horse3.png","","","learning","-8","-8","1","1","horse","animals","1","1","","bad","[-5]"
"html-keyboard-response","219","1220208","0.0-11.0-2.0-0.15","7086","2","24","Male","approach_avoid_spark_v1","""event"",""trial"",""time""
""fullscreenenter"",""1"",""2966""
","
","
","""event"",""trial"",""time""
""fullscreenenter"",""1"",""2966""
","
","","","","","","null","<div style=""font-size:60px;"">+</div>","null","","fixation","","","","","","","","","","",""
"aa-learning-trial","220","1223212","0.0-11.0-2.0-1.15","7086","2","24","Male","approach_avoid_spark_v1","""event"",""trial"",""time""
""fullscreenenter"",""1"",""2966""
","
","
","""event"",""trial"",""time""
""fullscreenenter"",""1"",""2966""
","
","","","","","","1328","images/sheep8.png","","","learning","4","4","1","1","sheep","animals","1","1","","neutral","0"
"html-keyboard-response","221","1223714","0.0-11.0-2.0-0.16","7086","2","24","Male","approach_avoid_spark_v1","""event"",""trial"",""time""
""fullscreenenter"",""1"",""2966""
","
","
","""event"",""trial"",""time""
""fullscreenenter"",""1"",""2966""
","
","","","","","","null","<div style=""font-size:60px;"">+</div>","null","","fixation","","","","","","","","","","",""
"aa-learning-trial","222","1226717","0.0-11.0-2.0-1.16","7086","2","24","Male","approach_avoid_spark_v1","""event"",""trial"",""time""
""fullscreenenter"",""1"",""2966""
","
","
","""event"",""trial"",""time""
""fullscreenenter"",""1"",""2966""
","
","","","","","","700","images/cow1.png","","","learning","6","6","1","1","cow","animals","1","1","","good","[6]"
"html-keyboard-response","223","1227219","0.0-11.0-2.0-0.17","7086","2","24","Male","approach_avoid_spark_v1","""event"",""trial"",""time""
""fullscreenenter"",""1"",""2966""
","
","
","""event"",""trial"",""time""
""fullscreenenter"",""1"",""2966""
","
","","","","","","null","<div style=""font-size:60px;"">+</div>","null","","fixation","","","","","","","","","","",""
"aa-learning-trial","224","1230223","0.0-11.0-2.0-1.17","7086","2","24","Male","approach_avoid_spark_v1","""event"",""trial"",""time""
""fullscreenenter"",""1"",""2966""
","
","
","""event"",""trial"",""time""
""fullscreenenter"",""1"",""2966""
","
","","","","","","764.0000000002328","images/horse2.png","","","learning","-3","-3","1","1","horse","animals","1","1","","bad","[-5]"
"html-keyboard-response","225","1230724","0.0-11.0-2.0-0.18","7086","2","24","Male","approach_avoid_spark_v1","""event"",""trial"",""time""
""fullscreenenter"",""1"",""2966""
","
","
","""event"",""trial"",""time""
""fullscreenenter"",""1"",""2966""
","
","","","","","","null","<div style=""font-size:60px;"">+</div>","null","","fixation","","","","","","","","","","",""
"aa-learning-trial","226","1233728","0.0-11.0-2.0-1.18","7086","2","24","Male","approach_avoid_spark_v1","""event"",""trial"",""time""
""fullscreenenter"",""1"",""2966""
","
","
","""event"",""trial"",""time""
""fullscreenenter"",""1"",""2966""
","
","","","","","","1118.9999999997672","images/sheep4.png","","","learning","1","0","0","0","sheep","animals","1","1","","neutral","0"
"html-keyboard-response","227","1234230","0.0-11.0-2.0-0.19","7086","2","24","Male","approach_avoid_spark_v1","""event"",""trial"",""time""
""fullscreenenter"",""1"",""2966""
","
","
","""event"",""trial"",""time""
""fullscreenenter"",""1"",""2966""
","
","","","","","","null","<div style=""font-size:60px;"">+</div>","null","","fixation","","","","","","","","","","",""
"aa-learning-trial","228","1237234","0.0-11.0-2.0-1.19","7086","2","24","Male","approach_avoid_spark_v1","""event"",""trial"",""time""
""fullscreenenter"",""1"",""2966""
","
","
","""event"",""trial"",""time""
""fullscreenenter"",""1"",""2966""
","
","","","","","","1010","images/sheep8.png","","","learning","1","1","1","1","sheep","animals","1","1","","neutral","0"
"html-keyboard-response","229","1237735","0.0-11.0-2.0-0.20","7086","2","24","Male","approach_avoid_spark_v1","""event"",""trial"",""time""
""fullscreenenter"",""1"",""2966""
","
","
","""event"",""trial"",""time""
""fullscreenenter"",""1"",""2966""
","
","","","","","","null","<div style=""font-size:60px;"">+</div>","null","","fixation","","","","","","","","","","",""
"aa-learning-trial","230","1240739","0.0-11.0-2.0-1.20","7086","2","24","Male","approach_avoid_spark_v1","""event"",""trial"",""time""
""fullscreenenter"",""1"",""2966""
","
","
","""event"",""trial"",""time""
""fullscreenenter"",""1"",""2966""
","
","","","","","","1053","images/sheep6.png","","","learning","[1]","1","1","1","sheep","animals","1","1","","neutral","0"
"html-keyboard-response","231","1241241","0.0-11.0-2.0-0.21","7086","2","24","Male","approach_avoid_spark_v1","""event"",""trial"",""time""
""fullscreenenter"",""1"",""2966""
","
","
","""event"",""trial"",""time""
""fullscreenenter"",""1"",""2966""
","
","","","","","","null","<div style=""font-size:60px;"">+</div>","null","","fixation","","","","","","","","","","",""
"aa-learning-trial","232","1244244","0.0-11.0-2.0-1.21","7086","2","24","Male","approach_avoid_spark_v1","""event"",""trial"",""time""
""fullscreenenter"",""1"",""2966""
","
","
","""event"",""trial"",""time""
""fullscreenenter"",""1"",""2966""
","
","","","","","","1207","images/horse3.png","","","learning","-6","-6","1","1","horse","animals","1","1","","bad","[-5]"
"html-keyboard-response","233","1244746","0.0-11.0-2.0-0.22","7086","2","24","Male","approach_avoid_spark_v1","""event"",""trial"",""time""
""fullscreenenter"",""1"",""2966""
","
","
","""event"",""trial"",""time""
""fullscreenenter"",""1"",""2966""
","
","","","","","","null","<div style=""font-size:60px;"">+</div>","null","","fixation","","","","","","","","","","",""
"aa-learning-trial","234","1247750","0.0-11.0-2.0-1.22","7086","2","24","Male","approach_avoid_spark_v1","""event"",""trial"",""time""
""fullscreenenter"",""1"",""2966""
","
","
","""event"",""trial"",""time""
""fullscreenenter"",""1"",""2966""
","
","","","","","","813","images/cow4.png","","","learning","5","5","1","1","cow","animals","1","1","","good","[6]"
"html-keyboard-response","235","1248252","0.0-11.0-2.0-0.23","7086","2","24","Male","approach_avoid_spark_v1","""event"",""trial"",""time""
""fullscreenenter"",""1"",""2966""
","
","
","""event"",""trial"",""time""
""fullscreenenter"",""1"",""2966""
","
","","","","","","null","<div style=""font-size:60px;"">+</div>","null","","fixation","","","","","","","","","","",""
"aa-learning-trial","236","1251256","0.0-11.0-2.0-1.23","7086","2","24","Male","approach_avoid_spark_v1","""event"",""trial"",""time""
""fullscreenenter"",""1"",""2966""
","
","
","""event"",""trial"",""time""
""fullscreenenter"",""1"",""2966""
","
","","","","","","819","images/sheep7.png","","","learning","-1","-1","1","1","sheep","animals","1","1","","neutral","0"
"html-keyboard-response","237","1251758","0.0-11.0-2.0-0.24","7086","2","24","Male","approach_avoid_spark_v1","""event"",""trial"",""time""
""fullscreenenter"",""1"",""2966""
","
","
","""event"",""trial"",""time""
""fullscreenenter"",""1"",""2966""
","
","","","","","","null","<div style=""font-size:60px;"">+</div>","null","","fixation","","","","","","","","","","",""
"aa-learning-trial","238","1254762","0.0-11.0-2.0-1.24","7086","2","24","Male","approach_avoid_spark_v1","""event"",""trial"",""time""
""fullscreenenter"",""1"",""2966""
","
","
","""event"",""trial"",""time""
""fullscreenenter"",""1"",""2966""
","
","","","","","","1408.0000000002328","images/cow6.png","","","learning","8","8","1","1","cow","animals","1","1","","good","[6]"
"html-keyboard-response","239","1255264","0.0-11.0-2.0-0.25","7086","2","24","Male","approach_avoid_spark_v1","""event"",""trial"",""time""
""fullscreenenter"",""1"",""2966""
","
","
","""event"",""trial"",""time""
""fullscreenenter"",""1"",""2966""
","
","","","","","","null","<div style=""font-size:60px;"">+</div>","null","","fixation","","","","","","","","","","",""
"aa-learning-trial","240","1258268","0.0-11.0-2.0-1.25","7086","2","24","Male","approach_avoid_spark_v1","""event"",""trial"",""time""
""fullscreenenter"",""1"",""2966""
","
","
","""event"",""trial"",""time""
""fullscreenenter"",""1"",""2966""
","
