"trial_type","trial_index","time_elapsed","internal_node_id","subject_id","task_condition","age","gender","task_version","interactions","blur_events","focus_events","fullscreenenter_events","fullscreenexit_events","success","timeout","failed_images","failed_audio","failed_video","rt","stimulus","response","button_pressed","task_part","approach_reward","points","key_press","option_selected","stim_cat","task_block","block_condition","block_number","correct","cat_type","mean_cat_reward"
"pavlovia","0","4","0.0-0.0","4097","1","17","Female","approach_avoid_spark_v1","""event"",""trial"",""time""
""fullscreenenter"",""1"",""6912""
","
","
","""event"",""trial"",""time""
""fullscreenenter"",""1"",""6912""
","
","","","","","","","","","","","","","","","","","","","","",""
"fullscreen","1","7865","0.0-1.0","4097","1","17","Female","approach_avoid_spark_v1","""event"",""trial"",""time""
""fullscreenenter"",""1"",""6912""
","
","
","""event"",""trial"",""time""
""fullscreenenter"",""1"",""6912""
","
","true","","","","","","","","","","","","","","","","","","","",""
"preload","2","14411","0.0-2.0","4097","1","17","Female","approach_avoid_spark_v1","""event"",""trial"",""time""
""fullscreenenter"",""1"",""6912""
""blur"",""3"",""20007""
""focus"",""3"",""22164""
","""event"",""trial"",""time""
""blur"",""3"",""20007""
","""event"",""trial"",""time""
""focus"",""3"",""22164""
","""event"",""trial"",""time""
""fullscreenenter"",""1"",""6912""
","
","true","false","[]","[]","[]","","","","","","","","","","","","","","","",""
"audio-keyboard-response","3","23226","0.0-3.0","4097","1","17","Female","approach_avoid_spark_v1","""event"",""trial"",""time""
""fullscreenenter"",""1"",""6912""
""blur"",""3"",""20007""
""focus"",""3"",""22164""
","""event"",""trial"",""time""
""blur"",""3"",""20007""
","""event"",""trial"",""time""
""focus"",""3"",""22164""
","""event"",""trial"",""time""
""fullscreenenter"",""1"",""6912""
","
","","","","","","0","audio/beep_loop.wav"," ","","","","","","","","","","","","",""
"audio-button-response","4","25113","0.0-4.0","4097","1","17","Female","approach_avoid_spark_v1","""event"",""trial"",""time""
""fullscreenenter"",""1"",""6912""
""blur"",""3"",""20007""
""focus"",""3"",""22164""
","""event"",""trial"",""time""
""blur"",""3"",""20007""
","""event"",""trial"",""time""
""focus"",""3"",""22164""
","""event"",""trial"",""time""
""fullscreenenter"",""1"",""6912""
","
","","","","","","1776","audio/shark.wav","4","","","","","","","","","","","","",""
"audio-button-response","5","27878","0.0-5.0","4097","1","17","Female","approach_avoid_spark_v1","""event"",""trial"",""time""
""fullscreenenter"",""1"",""6912""
""blur"",""3"",""20007""
""focus"",""3"",""22164""
","""event"",""trial"",""time""
""blur"",""3"",""20007""
","""event"",""trial"",""time""
""focus"",""3"",""22164""
","""event"",""trial"",""time""
""fullscreenenter"",""1"",""6912""
","
","","","","","","1759","audio/turtle.wav","1","","","","","","","","","","","","",""
"preload","6","31811","0.0-6.0","4097","1","17","Female","approach_avoid_spark_v1","""event"",""trial"",""time""
""fullscreenenter"",""1"",""6912""
""blur"",""3"",""20007""
""focus"",""3"",""22164""
","""event"",""trial"",""time""
""blur"",""3"",""20007""
","""event"",""trial"",""time""
""focus"",""3"",""22164""
","""event"",""trial"",""time""
""fullscreenenter"",""1"",""6912""
","
","true","false","[]","[]","[]","","","","","","","","","","","","","","","",""
"html-keyboard-response","7","36797","0.0-7.0","4097","1","17","Female","approach_avoid_spark_v1","""event"",""trial"",""time""
""fullscreenenter"",""1"",""6912""
""blur"",""3"",""20007""
""focus"",""3"",""22164""
","""event"",""trial"",""time""
""blur"",""3"",""20007""
","""event"",""trial"",""time""
""focus"",""3"",""22164""
","""event"",""trial"",""time""
""fullscreenenter"",""1"",""6912""
","
","","","","","","4984","Welcome to the experiment. Press any key to begin and to advance the instructions."," ","","","","","","","","","","","","",""
"learning-instructions","8","45181","0.0-8.0-0.0-0.0","4097","1","17","Female","approach_avoid_spark_v1","""event"",""trial"",""time""
""fullscreenenter"",""1"",""6912""
""blur"",""3"",""20007""
""focus"",""3"",""22164""
","""event"",""trial"",""time""
""blur"",""3"",""20007""
","""event"",""trial"",""time""
""focus"",""3"",""22164""
","""event"",""trial"",""time""
""fullscreenenter"",""1"",""6912""
","
","","","","","","1421","<p> Welcome! Today you are going to play 6 different rounds of a decision-making game. </p><p> Use the mouse to click next to continue. </p>","","0","instructions","","","","","","","","","","",""
"learning-instructions","9","49069","0.0-8.0-0.0-0.1","4097","1","17","Female","approach_avoid_spark_v1","""event"",""trial"",""time""
""fullscreenenter"",""1"",""6912""
""blur"",""3"",""20007""
""focus"",""3"",""22164""
","""event"",""trial"",""time""
""blur"",""3"",""20007""
","""event"",""trial"",""time""
""focus"",""3"",""22164""
","""event"",""trial"",""time""
""fullscreenenter"",""1"",""6912""
","
","","","","","","1163","<p> You will start with a practice round to learn the rules. </p>","","0","instructions","","","","","","","","","","",""
"learning-instructions","10","52944","0.0-8.0-0.0-0.2","4097","1","17","Female","approach_avoid_spark_v1","""event"",""trial"",""time""
""fullscreenenter"",""1"",""6912""
""blur"",""3"",""20007""
""focus"",""3"",""22164""
","""event"",""trial"",""time""
""blur"",""3"",""20007""
","""event"",""trial"",""time""
""focus"",""3"",""22164""
","""event"",""trial"",""time""
""fullscreenenter"",""1"",""6912""
","
","","","","","","428","<p> Your goal in this round is to give out sports equipment to kids. </p></div>","","0","instructions","","","","","","","","","","",""
"learning-instructions","11","61761","0.0-8.0-0.0-0.3","4097","1","17","Female","approach_avoid_spark_v1","""event"",""trial"",""time""
""fullscreenenter"",""1"",""6912""
""blur"",""3"",""20007""
""focus"",""3"",""22164""
","""event"",""trial"",""time""
""blur"",""3"",""20007""
","""event"",""trial"",""time""
""focus"",""3"",""22164""
","""event"",""trial"",""time""
""fullscreenenter"",""1"",""6912""
","
","","","","","","1271","<p> The kids only like some of the equipment.  </p><p> On each turn, you will see a piece of sports equipment.   </p><p> You need to decide whether to give it to the kids or not.  </p>","","0","instructions","","","","","","","","","","",""
"learning-instructions","12","82818","0.0-8.0-0.0-0.4","4097","1","17","Female","approach_avoid_spark_v1","""event"",""trial"",""time""
""fullscreenenter"",""1"",""6912""
""blur"",""3"",""20007""
""focus"",""3"",""22164""
","""event"",""trial"",""time""
""blur"",""3"",""20007""
","""event"",""trial"",""time""
""focus"",""3"",""22164""
","""event"",""trial"",""time""
""fullscreenenter"",""1"",""6912""
","
","","","","","","16307","<p> You can give them the equipment by pressing 1 and choose not to give it to them by pressing 0. </p><br><div class=""choice-instructions-grid""> <div class=""choice-option""><img src=""images/approach.png"" class=""choice-option-img"" stage=""instructions"" position=""0"" ><div class=""choice-option-text""> Press ""1."" </div></div><div class=""choice-option""><img src=""images/avoid.png"" class=""choice-option-img"" stage=""instructions"" position=""1"" ><div class=""choice-option-text""> Press ""0."" </div></div>","","0","instructions","","","","","","","","","","",""
"learning-instructions","13","90731","0.0-8.0-0.0-0.5","4097","1","17","Female","approach_avoid_spark_v1","""event"",""trial"",""time""
""fullscreenenter"",""1"",""6912""
""blur"",""3"",""20007""
""focus"",""3"",""22164""
","""event"",""trial"",""time""
""blur"",""3"",""20007""
","""event"",""trial"",""time""
""focus"",""3"",""22164""
","""event"",""trial"",""time""
""fullscreenenter"",""1"",""6912""
","
","","","","","","527","<p> If you give them a piece of equipment they like, they will be happy! </p><p> But if you give them a piece of equipment they do not like, they will be sad. </p>","","0","instructions","","","","","","","","","","",""
"learning-instructions","14","101781","0.0-8.0-0.0-0.6","4097","1","17","Female","approach_avoid_spark_v1","""event"",""trial"",""time""
""fullscreenenter"",""1"",""6912""
""blur"",""3"",""20007""
""focus"",""3"",""22164""
","""event"",""trial"",""time""
""blur"",""3"",""20007""
","""event"",""trial"",""time""
""focus"",""3"",""22164""
","""event"",""trial"",""time""
""fullscreenenter"",""1"",""6912""
","
","","","","","","544","<p> You will earn points based on how you make kids feel. </p><p> If you make them happy, you will WIN anywhere from 1 - 9 points, </p><p> but if you make them sad, you will LOSE anywhere from 1 - 9 points. </p>","","0","instructions","","","","","","","","","","",""
"learning-instructions","15","112907","0.0-8.0-0.0-0.7","4097","1","17","Female","approach_avoid_spark_v1","""event"",""trial"",""time""
""fullscreenenter"",""1"",""6912""
""blur"",""3"",""20007""
""focus"",""3"",""22164""
","""event"",""trial"",""time""
""blur"",""3"",""20007""
","""event"",""trial"",""time""
""focus"",""3"",""22164""
","""event"",""trial"",""time""
""fullscreenenter"",""1"",""6912""
","
","","","","","","1573.0000000000146","<p> You will see how many points you won or lost in the center of the screen. </p><p> Here is what you would see if you won 6 points: </p><p style=""color:green;font-size:50px;font-weight:bolder"">6</p><p style=""color:green"">The text is GREEN because you WON points.</p>","","0","instructions","","","","","","","","","","",""
"learning-instructions","16","119428","0.0-8.0-0.0-0.8","4097","1","17","Female","approach_avoid_spark_v1","""event"",""trial"",""time""
""fullscreenenter"",""1"",""6912""
""blur"",""3"",""20007""
""focus"",""3"",""22164""
","""event"",""trial"",""time""
""blur"",""3"",""20007""
","""event"",""trial"",""time""
""focus"",""3"",""22164""
","""event"",""trial"",""time""
""fullscreenenter"",""1"",""6912""
","
","","","","","","1019.9999999999854","<p> And here is what you would see if you lost 4 points: </p><p style=""color:red;font-size:50px;font-weight:bolder"">-4</p><p style=""color:red"">The text is RED because you LOST points. </p>","","0","instructions","","","","","","","","","","",""
"learning-instructions","17","134710","0.0-8.0-0.0-0.9","4097","1","17","Female","approach_avoid_spark_v1","""event"",""trial"",""time""
""fullscreenenter"",""1"",""6912""
""blur"",""3"",""20007""
""focus"",""3"",""22164""
","""event"",""trial"",""time""
""blur"",""3"",""20007""
","""event"",""trial"",""time""
""focus"",""3"",""22164""
","""event"",""trial"",""time""
""fullscreenenter"",""1"",""6912""
","
","","","","","","573","<p> Some of the equipment will make the kids VERY happy or sad. </p><p> These pieces of equipment will make you win or lose LOTS of points. </p><p> Other pieces of equipment will only make the kids a little happy or sad. </p><p> These pieces of equipment will make you win or lose small amounts of points. </p>","","0","instructions","","","","","","","","","","",""
"learning-instructions","18","147891","0.0-8.0-0.0-0.10","4097","1","17","Female","approach_avoid_spark_v1","""event"",""trial"",""time""
""fullscreenenter"",""1"",""6912""
""blur"",""3"",""20007""
""focus"",""3"",""22164""
","""event"",""trial"",""time""
""blur"",""3"",""20007""
","""event"",""trial"",""time""
""focus"",""3"",""22164""
","""event"",""trial"",""time""
""fullscreenenter"",""1"",""6912""
","
","","","","","","2560.000000000029","<p> If you choose not to give them the equipment, you will not win or lose any points. </p><p>  However, in the center of the screen, you will see the number of points you WOULD HAVE won or lost if you had given them the equipment. </p>","","0","instructions","","","","","","","","","","",""
"learning-instructions","19","170736","0.0-8.0-0.0-0.11","4097","1","17","Female","approach_avoid_spark_v1","""event"",""trial"",""time""
""fullscreenenter"",""1"",""6912""
""blur"",""3"",""20007""
""focus"",""3"",""22164""
","""event"",""trial"",""time""
""blur"",""3"",""20007""
","""event"",""trial"",""time""
""focus"",""3"",""22164""
","""event"",""trial"",""time""
""fullscreenenter"",""1"",""6912""
","
","","","","","","1317","<p> Here is what you might see if you did not give the equipment to the kids but it would have made them happy: </p><p style=""color:grey; font-size:50px; display: inline-block; border-spacing: 15px; border-width:3px; border-style:solid; border-color:red"">  &nbsp; 7 &nbsp; </p><p> Remember, in this case, you would not win or lose ANY points because you did not give them the equipment.  </p><p style=""color:grey"">The text is GREY because you earned ZERO points. </p><p style=""color:red"">However, choosing to give the kids the equipment would have made you win points. The box around the text is RED because you chose the worse option. </p>","","0","instructions","","","","","","","","","","",""
"learning-instructions","20","192845","0.0-8.0-0.0-0.12","4097","1","17","Female","approach_avoid_spark_v1","""event"",""trial"",""time""
""fullscreenenter"",""1"",""6912""
""blur"",""3"",""20007""
""focus"",""3"",""22164""
","""event"",""trial"",""time""
""blur"",""3"",""20007""
","""event"",""trial"",""time""
""focus"",""3"",""22164""
","""event"",""trial"",""time""
""fullscreenenter"",""1"",""6912""
","
","","","","","","1038","<p> Here is what you might see if you did not give the equipment to the kids but it would have made them sad: </p><p style=""color:grey;font-size:50px; display: inline-block; border-spacing: 15px; border-width:3px; border-style:solid; border-color:green"">  &nbsp; -8 &nbsp; </p><p> Remember, in this case, you would not win or lose ANY points because you did not give them the equipment.  </p><p style=""color:grey"">The text is GREY because you earned ZERO points. </p><p  style=""color:green""> Choosing to give the kids the equipment would have made you lose points. The box around the text is GREEN because you chose the better option.</p>","","0","instructions","","","","","","","","","","",""
"learning-instructions","21","223930","0.0-8.0-0.0-0.13","4097","1","17","Female","approach_avoid_spark_v1","""event"",""trial"",""time""
""fullscreenenter"",""1"",""6912""
""blur"",""3"",""20007""
""focus"",""3"",""22164""
","""event"",""trial"",""time""
""blur"",""3"",""20007""
","""event"",""trial"",""time""
""focus"",""3"",""22164""
","""event"",""trial"",""time""
""fullscreenenter"",""1"",""6912""
","
","","","","","","22113","<p> You will have 3 seconds to make each choice. Try to respond before time runs out! </p><p> You will lose 5 points each time you do not make a response. </p>","","0","instructions","","","","","","","","","","",""
"learning-instructions","22","233396","0.0-8.0-0.0-0.14","4097","1","17","Female","approach_avoid_spark_v1","""event"",""trial"",""time""
""fullscreenenter"",""1"",""6912""
""blur"",""3"",""20007""
""focus"",""3"",""22164""
","""event"",""trial"",""time""
""blur"",""3"",""20007""
","""event"",""trial"",""time""
""focus"",""3"",""22164""
","""event"",""trial"",""time""
""fullscreenenter"",""1"",""6912""
","
","","","","","","4057","<p> This is just a practice round, but in the real game, your bonus payment will depend on your total number of points.","","0","instructions","","","","","","","","","","",""
"learning-instructions","23","242543","0.0-8.0-0.0-0.15","4097","1","17","Female","approach_avoid_spark_v1","""event"",""trial"",""time""
""fullscreenenter"",""1"",""6912""
""blur"",""3"",""20007""
""focus"",""3"",""22164""
","""event"",""trial"",""time""
""blur"",""3"",""20007""
","""event"",""trial"",""time""
""focus"",""3"",""22164""
","""event"",""trial"",""time""
""fullscreenenter"",""1"",""6912""
","
","","","","","","3387","<p> Remember, you can give them the equipment by pressing 1 and choose not to give it to them by pressing 0. </p><br><div class=""choice-instructions-grid""> <div class=""choice-option""><img src=""images/approach.png"" class=""choice-option-img"" stage=""instructions"" position=""0"" ><div class=""choice-option-text""> Press ""1."" </div></div><div class=""choice-option""><img src=""images/avoid.png"" class=""choice-option-img"" stage=""instructions"" position=""1"" ><div class=""choice-option-text""> Press ""0."" </div></div>","","0","instructions","","","","","","","","","","",""
"html-button-response","24","309629","0.0-8.0-1.0","4097","1","17","Female","approach_avoid_spark_v1","""event"",""trial"",""time""
""fullscreenenter"",""1"",""6912""
""blur"",""3"",""20007""
""focus"",""3"",""22164""
","""event"",""trial"",""time""
""blur"",""3"",""20007""
","""event"",""trial"",""time""
""focus"",""3"",""22164""
","""event"",""trial"",""time""
""fullscreenenter"",""1"",""6912""
","
","","","","","","66980","<p> Ready to practice? </p>","0","","","","","","","","","","","","",""
"html-keyboard-response","25","310233","0.0-8.0-2.0-0.0","4097","1","17","Female","approach_avoid_spark_v1","""event"",""trial"",""time""
""fullscreenenter"",""1"",""6912""
""blur"",""3"",""20007""
""focus"",""3"",""22164""
","""event"",""trial"",""time""
""blur"",""3"",""20007""
","""event"",""trial"",""time""
""focus"",""3"",""22164""
","""event"",""trial"",""time""
""fullscreenenter"",""1"",""6912""
","
","","","","","","null","<div style=""font-size:60px;"">+</div>","null","","fixation","","","","","","","","","","",""
"aa-learning-trial","26","313239","0.0-8.0-2.0-1.0","4097","1","17","Female","approach_avoid_spark_v1","""event"",""trial"",""time""
""fullscreenenter"",""1"",""6912""
""blur"",""3"",""20007""
""focus"",""3"",""22164""
","""event"",""trial"",""time""
""blur"",""3"",""20007""
","""event"",""trial"",""time""
""focus"",""3"",""22164""
","""event"",""trial"",""time""
""fullscreenenter"",""1"",""6912""
","
","","","","","","1191","images/racket1.png","","","learning","7","7","1","1","practice","practice","practice","-1","","",""
"html-keyboard-response","27","313742","0.0-8.0-2.0-0.1","4097","1","17","Female","approach_avoid_spark_v1","""event"",""trial"",""time""
""fullscreenenter"",""1"",""6912""
""blur"",""3"",""20007""
""focus"",""3"",""22164""
","""event"",""trial"",""time""
""blur"",""3"",""20007""
","""event"",""trial"",""time""
""focus"",""3"",""22164""
","""event"",""trial"",""time""
""fullscreenenter"",""1"",""6912""
","
","","","","","","null","<div style=""font-size:60px;"">+</div>","null","","fixation","","","","","","","","","","",""
"aa-learning-trial","28","316745","0.0-8.0-2.0-1.1","4097","1","17","Female","approach_avoid_spark_v1","""event"",""trial"",""time""
""fullscreenenter"",""1"",""6912""
""blur"",""3"",""20007""
""focus"",""3"",""22164""
","""event"",""trial"",""time""
""blur"",""3"",""20007""
","""event"",""trial"",""time""
""focus"",""3"",""22164""
","""event"",""trial"",""time""
""fullscreenenter"",""1"",""6912""
","
","","","","","","1032","images/ball2.png","","","learning","1","1","1","1","practice","practice","practice","-1","","",""
"html-keyboard-response","29","317248","0.0-8.0-2.0-0.2","4097","1","17","Female","approach_avoid_spark_v1","""event"",""trial"",""time""
""fullscreenenter"",""1"",""6912""
""blur"",""3"",""20007""
""focus"",""3"",""22164""
","""event"",""trial"",""time""
""blur"",""3"",""20007""
","""event"",""trial"",""time""
""focus"",""3"",""22164""
","""event"",""trial"",""time""
""fullscreenenter"",""1"",""6912""
","
","","","","","","null","<div style=""font-size:60px;"">+</div>","null","","fixation","","","","","","","","","","",""
"aa-learning-trial","30","320258","0.0-8.0-2.0-1.2","4097","1","17","Female","approach_avoid_spark_v1","""event"",""trial"",""time""
""fullscreenenter"",""1"",""6912""
""blur"",""3"",""20007""
""focus"",""3"",""22164""
","""event"",""trial"",""time""
""blur"",""3"",""20007""
","""event"",""trial"",""time""
""focus"",""3"",""22164""
","""event"",""trial"",""time""
""fullscreenenter"",""1"",""6912""
","
","","","","","","1486.0000000000582","images/ball3.png","","","learning","4","-5","2","","practice","practice","practice","-1","","",""
"html-keyboard-response","31","320761","0.0-8.0-2.0-0.3","4097","1","17","Female","approach_avoid_spark_v1","""event"",""trial"",""time""
""fullscreenenter"",""1"",""6912""
""blur"",""3"",""20007""
""focus"",""3"",""22164""
","""event"",""trial"",""time""
""blur"",""3"",""20007""
","""event"",""trial"",""time""
""focus"",""3"",""22164""
","""event"",""trial"",""time""
""fullscreenenter"",""1"",""6912""
","
","","","","","","null","<div style=""font-size:60px;"">+</div>","null","","fixation","","","","","","","","","","",""
"aa-learning-trial","32","323766","0.0-8.0-2.0-1.3","4097","1","17","Female","approach_avoid_spark_v1","""event"",""trial"",""time""
""fullscreenenter"",""1"",""6912""
""blur"",""3"",""20007""
""focus"",""3"",""22164""
","""event"",""trial"",""time""
""blur"",""3"",""20007""
","""event"",""trial"",""time""
""focus"",""3"",""22164""
","""event"",""trial"",""time""
""fullscreenenter"",""1"",""6912""
","
","","","","","","618","images/racket3.png","","","learning","-4","-4","1","1","practice","practice","practice","-1","","",""
"html-keyboard-response","33","324269","0.0-8.0-2.0-0.4","4097","1","17","Female","approach_avoid_spark_v1","""event"",""trial"",""time""
""fullscreenenter"",""1"",""6912""
""blur"",""3"",""20007""
""focus"",""3"",""22164""
","""event"",""trial"",""time""
""blur"",""3"",""20007""
","""event"",""trial"",""time""
""focus"",""3"",""22164""
","""event"",""trial"",""time""
""fullscreenenter"",""1"",""6912""
","
","","","","","","null","<div style=""font-size:60px;"">+</div>","null","","fixation","","","","","","","","","","",""
"aa-learning-trial","34","327274","0.0-8.0-2.0-1.4","4097","1","17","Female","approach_avoid_spark_v1","""event"",""trial"",""time""
""fullscreenenter"",""1"",""6912""
""blur"",""3"",""20007""
""focus"",""3"",""22164""
","""event"",""trial"",""time""
""blur"",""3"",""20007""
","""event"",""trial"",""time""
""focus"",""3"",""22164""
","""event"",""trial"",""time""
""fullscreenenter"",""1"",""6912""
","
","","","","","","633","images/ball2.png","","","learning","8","8","1","1","practice","practice","practice","-1","","",""
"html-keyboard-response","35","327775","0.0-8.0-2.0-0.5","4097","1","17","Female","approach_avoid_spark_v1","""event"",""trial"",""time""
""fullscreenenter"",""1"",""6912""
""blur"",""3"",""20007""
""focus"",""3"",""22164""
","""event"",""trial"",""time""
""blur"",""3"",""20007""
","""event"",""trial"",""time""
""focus"",""3"",""22164""
","""event"",""trial"",""time""
""fullscreenenter"",""1"",""6912""
","
","","","","","","null","<div style=""font-size:60px;"">+</div>","null","","fixation","","","","","","","","","","",""
"aa-learning-trial","36","330779","0.0-8.0-2.0-1.5","4097","1","17","Female","approach_avoid_spark_v1","""event"",""trial"",""time""
""fullscreenenter"",""1"",""6912""
""blur"",""3"",""20007""
""focus"",""3"",""22164""
","""event"",""trial"",""time""
""blur"",""3"",""20007""
","""event"",""trial"",""time""
""focus"",""3"",""22164""
","""event"",""trial"",""time""
""fullscreenenter"",""1"",""6912""
","
","","","","","","877","images/racket3.png","","","learning","6","-5","2","","practice","practice","practice","-1","","",""
"html-keyboard-response","37","331281","0.0-8.0-2.0-0.6","4097","1","17","Female","approach_avoid_spark_v1","""event"",""trial"",""time""
""fullscreenenter"",""1"",""6912""
""blur"",""3"",""20007""
""focus"",""3"",""22164""
","""event"",""trial"",""time""
""blur"",""3"",""20007""
","""event"",""trial"",""time""
""focus"",""3"",""22164""
","""event"",""trial"",""time""
""fullscreenenter"",""1"",""6912""
","
","","","","","","null","<div style=""font-size:60px;"">+</div>","null","","fixation","","","","","","","","","","",""
"aa-learning-trial","38","334285","0.0-8.0-2.0-1.6","4097","1","17","Female","approach_avoid_spark_v1","""event"",""trial"",""time""
""fullscreenenter"",""1"",""6912""
""blur"",""3"",""20007""
""focus"",""3"",""22164""
","""event"",""trial"",""time""
""blur"",""3"",""20007""
","""event"",""trial"",""time""
""focus"",""3"",""22164""
","""event"",""trial"",""time""
""fullscreenenter"",""1"",""6912""
","
","","","","","","1229","images/ball3.png","","","learning","-3","-3","1","1","practice","practice","practice","-1","","",""
"html-keyboard-response","39","334787","0.0-8.0-2.0-0.7","4097","1","17","Female","approach_avoid_spark_v1","""event"",""trial"",""time""
""fullscreenenter"",""1"",""6912""
""blur"",""3"",""20007""
""focus"",""3"",""22164""
","""event"",""trial"",""time""
""blur"",""3"",""20007""
","""event"",""trial"",""time""
""focus"",""3"",""22164""
","""event"",""trial"",""time""
""fullscreenenter"",""1"",""6912""
","
","","","","","","null","<div style=""font-size:60px;"">+</div>","null","","fixation","","","","","","","","","","",""
"aa-learning-trial","40","337790","0.0-8.0-2.0-1.7","4097","1","17","Female","approach_avoid_spark_v1","""event"",""trial"",""time""
""fullscreenenter"",""1"",""6912""
""blur"",""3"",""20007""
""focus"",""3"",""22164""
","""event"",""trial"",""time""
""blur"",""3"",""20007""
","""event"",""trial"",""time""
""focus"",""3"",""22164""
","""event"",""trial"",""time""
""fullscreenenter"",""1"",""6912""
","
","","","","","","874","images/ball4.png","","","learning","2","-5","2","","practice","practice","practice","-1","","",""
"html-keyboard-response","41","338292","0.0-8.0-2.0-0.8","4097","1","17","Female","approach_avoid_spark_v1","""event"",""trial"",""time""
""fullscreenenter"",""1"",""6912""
""blur"",""3"",""20007""
""focus"",""3"",""22164""
","""event"",""trial"",""time""
""blur"",""3"",""20007""
","""event"",""trial"",""time""
""focus"",""3"",""22164""
","""event"",""trial"",""time""
""fullscreenenter"",""1"",""6912""
","
","","","","","","null","<div style=""font-size:60px;"">+</div>","null","","fixation","","","","","","","","","","",""
"aa-learning-trial","42","341295","0.0-8.0-2.0-1.8","4097","1","17","Female","approach_avoid_spark_v1","""event"",""trial"",""time""
""fullscreenenter"",""1"",""6912""
""blur"",""3"",""20007""
""focus"",""3"",""22164""
","""event"",""trial"",""time""
""blur"",""3"",""20007""
","""event"",""trial"",""time""
""focus"",""3"",""22164""
","""event"",""trial"",""time""
""fullscreenenter"",""1"",""6912""
","
","","","","","","1270.9999999999418","images/racket2.png","","","learning","2","2","1","1","practice","practice","practice","-1","","",""
"html-keyboard-response","43","341798","0.0-8.0-2.0-0.9","4097","1","17","Female","approach_avoid_spark_v1","""event"",""trial"",""time""
""fullscreenenter"",""1"",""6912""
""blur"",""3"",""20007""
""focus"",""3"",""22164""
","""event"",""trial"",""time""
""blur"",""3"",""20007""
","""event"",""trial"",""time""
""focus"",""3"",""22164""
","""event"",""trial"",""time""
""fullscreenenter"",""1"",""6912""
","
","","","","","","null","<div style=""font-size:60px;"">+</div>","null","","fixation","","","","","","","","","","",""
"aa-learning-trial","44","344801","0.0-8.0-2.0-1.9","4097","1","17","Female","approach_avoid_spark_v1","""event"",""trial"",""time""
""fullscreenenter"",""1"",""6912""
""blur"",""3"",""20007""
""focus"",""3"",""22164""
","""event"",""trial"",""time""
""blur"",""3"",""20007""
","""event"",""trial"",""time""
""focus"",""3"",""22164""
","""event"",""trial"",""time""
""fullscreenenter"",""1"",""6912""
","
","","","","","","956","images/racket1.png","","","learning","-6","-6","1","1","practice","practice","practice","-1","","",""
"html-keyboard-response","45","345303","0.0-8.0-2.0-0.10","4097","1","17","Female","approach_avoid_spark_v1","""event"",""trial"",""time""
""fullscreenenter"",""1"",""6912""
""blur"",""3"",""20007""
""focus"",""3"",""22164""
","""event"",""trial"",""time""
""blur"",""3"",""20007""
","""event"",""trial"",""time""
""focus"",""3"",""22164""
","""event"",""trial"",""time""
""fullscreenenter"",""1"",""6912""
","
","","","","","","null","<div style=""font-size:60px;"">+</div>","null","","fixation","","","","","","","","","","",""
"aa-learning-trial","46","348306","0.0-8.0-2.0-1.10","4097","1","17","Female","approach_avoid_spark_v1","""event"",""trial"",""time""
""fullscreenenter"",""1"",""6912""
""blur"",""3"",""20007""
""focus"",""3"",""22164""
","""event"",""trial"",""time""
""blur"",""3"",""20007""
","""event"",""trial"",""time""
""focus"",""3"",""22164""
","""event"",""trial"",""time""
""fullscreenenter"",""1"",""6912""
","
","","","","","","1863","images/racket3.png","","","learning","-3","-5","2","","practice","practice","practice","-1","","",""
"html-keyboard-response","47","348809","0.0-8.0-2.0-0.11","4097","1","17","Female","approach_avoid_spark_v1","""event"",""trial"",""time""
""fullscreenenter"",""1"",""6912""
""blur"",""3"",""20007""
""focus"",""3"",""22164""
","""event"",""trial"",""time""
""blur"",""3"",""20007""
","""event"",""trial"",""time""
""focus"",""3"",""22164""
","""event"",""trial"",""time""
""fullscreenenter"",""1"",""6912""
","
","","","","","","null","<div style=""font-size:60px;"">+</div>","null","","fixation","","","","","","","","","","",""
"aa-learning-trial","48","351813","0.0-8.0-2.0-1.11","4097","1","17","Female","approach_avoid_spark_v1","""event"",""trial"",""time""
""fullscreenenter"",""1"",""6912""
""blur"",""3"",""20007""
""focus"",""3"",""22164""
","""event"",""trial"",""time""
""blur"",""3"",""20007""
","""event"",""trial"",""time""
""focus"",""3"",""22164""
","""event"",""trial"",""time""
""fullscreenenter"",""1"",""6912""
","
","","","","","","1502","images/racket2.png","","","learning","-7","-7","1","1","practice","practice","practice","-1","","",""
"html-button-response","49","357008","0.0-8.0-3.0","4097","1","17","Female","approach_avoid_spark_v1","""event"",""trial"",""time""
""fullscreenenter"",""1"",""6912""
""blur"",""3"",""20007""
""focus"",""3"",""22164""
","""event"",""trial"",""time""
""blur"",""3"",""20007""
","""event"",""trial"",""time""
""focus"",""3"",""22164""
","""event"",""trial"",""time""
""fullscreenenter"",""1"",""6912""
","
","","","","","","5192.000000000058","<p> You earned -22 points in the practice round! </p>","0","","break","","","","","","","","","","",""
"learning-instructions","50","405218","0.0-8.0-4.0-0.0","4097","1","17","Female","approach_avoid_spark_v1","""event"",""trial"",""time""
""fullscreenenter"",""1"",""6912""
""blur"",""3"",""20007""
""focus"",""3"",""22164""
","""event"",""trial"",""time""
""blur"",""3"",""20007""
","""event"",""trial"",""time""
""focus"",""3"",""22164""
","""event"",""trial"",""time""
""fullscreenenter"",""1"",""6912""
","
","","","","","","42252.00000000006","<p> It's almost time to start the real game. </p><p> Before you start, we're going to ask you a few questions about how the game works. </p>","","0","instructions","","","","","","","","","","",""
"preload","51","407742","0.0-8.0-5.0","4097","1","17","Female","approach_avoid_spark_v1","""event"",""trial"",""time""
""fullscreenenter"",""1"",""6912""
""blur"",""3"",""20007""
""focus"",""3"",""22164""
","""event"",""trial"",""time""
""blur"",""3"",""20007""
","""event"",""trial"",""time""
""focus"",""3"",""22164""
","""event"",""trial"",""time""
""fullscreenenter"",""1"",""6912""
","
","true","false","[]","[]","[]","","","","","","","","","","","","","","","",""
"comp-q","52","416176","0.0-8.0-6.0-0.0","4097","1","17","Female","approach_avoid_spark_v1","""event"",""trial"",""time""
""fullscreenenter"",""1"",""6912""
""blur"",""3"",""20007""
""focus"",""3"",""22164""
","""event"",""trial"",""time""
""blur"",""3"",""20007""
","""event"",""trial"",""time""
""focus"",""3"",""22164""
","""event"",""trial"",""time""
""fullscreenenter"",""1"",""6912""
","
","","","","","","3439","<p> <b> True or False? </b> </p><p> If you see a number in GREY, that means you earned that many points. </p>","","1","comp_question","","","","","","","","","true","",""
"comp-q","53","427080","0.0-8.0-6.0-1.0","4097","1","17","Female","approach_avoid_spark_v1","""event"",""trial"",""time""
""fullscreenenter"",""1"",""6912""
""blur"",""3"",""20007""
""focus"",""3"",""22164""
","""event"",""trial"",""time""
""blur"",""3"",""20007""
","""event"",""trial"",""time""
""focus"",""3"",""22164""
","""event"",""trial"",""time""
""fullscreenenter"",""1"",""6912""
","
","","","","","","2545","<p><b> That's right! </b> If you see a grey number, it means you earned ZERO points. <br> The grey numbers show the points you WOULD HAVE earned if you had made the other choice. </p>","","0","comp_answer","","","","","","","","","","",""
"comp-q","54","432440","0.0-8.0-7.0-0.0","4097","1","17","Female","approach_avoid_spark_v1","""event"",""trial"",""time""
""fullscreenenter"",""1"",""6912""
""blur"",""3"",""20007""
""focus"",""3"",""22164""
","""event"",""trial"",""time""
""blur"",""3"",""20007""
","""event"",""trial"",""time""
""focus"",""3"",""22164""
","""event"",""trial"",""time""
""fullscreenenter"",""1"",""6912""
","
","","","","","","673","<p> <b> True or False? </b> </p><p> You will have as much time as you want to make each choice. </p>","","1","comp_question","","","","","","","","","true","",""
"comp-q","55","438159","0.0-8.0-7.0-1.0","4097","1","17","Female","approach_avoid_spark_v1","""event"",""trial"",""time""
""fullscreenenter"",""1"",""6912""
""blur"",""3"",""20007""
""focus"",""3"",""22164""
","""event"",""trial"",""time""
""blur"",""3"",""20007""
","""event"",""trial"",""time""
""focus"",""3"",""22164""
","""event"",""trial"",""time""
""fullscreenenter"",""1"",""6912""
","
","","","","","","1680.0000000000582","<p> <b> That's right! </b> You will only have 3 seconds to make each choice. </p>","","0","comp_answer","","","","","","","","","","",""
"comp-q","56","445277","0.0-8.0-8.0-0.0","4097","1","17","Female","approach_avoid_spark_v1","""event"",""trial"",""time""
""fullscreenenter"",""1"",""6912""
""blur"",""3"",""20007""
""focus"",""3"",""22164""
","""event"",""trial"",""time""
""blur"",""3"",""20007""
","""event"",""trial"",""time""
""focus"",""3"",""22164""
","""event"",""trial"",""time""
""fullscreenenter"",""1"",""6912""
","
","","","","","","2463","<p> <b> True or False? </b> </p><p> You should use the '1' and '0' keys to make your choices. </p>","","0","comp_question","","","","","","","","","true","",""
"comp-q","57","451050","0.0-8.0-8.0-1.0","4097","1","17","Female","approach_avoid_spark_v1","""event"",""trial"",""time""
""fullscreenenter"",""1"",""6912""
""blur"",""3"",""20007""
""focus"",""3"",""22164""
","""event"",""trial"",""time""
""blur"",""3"",""20007""
","""event"",""trial"",""time""
""focus"",""3"",""22164""
","""event"",""trial"",""time""
""fullscreenenter"",""1"",""6912""
","
","","","","","","1165.9999999999418","<p> <b> That's right! </b> You should use the '1' and '0' keys to make each choice. </p>","","0","comp_answer","","","","","","","","","","",""
"learning-instructions","58","458609","0.0-8.0-9.0-0.0","4097","1","17","Female","approach_avoid_spark_v1","""event"",""trial"",""time""
""fullscreenenter"",""1"",""6912""
""blur"",""3"",""20007""
""focus"",""3"",""22164""
","""event"",""trial"",""time""
""blur"",""3"",""20007""
","""event"",""trial"",""time""
""focus"",""3"",""22164""
","""event"",""trial"",""time""
""fullscreenenter"",""1"",""6912""
","
","","","","","","1288","<p> It's now time to start the real game. </p>Do your best, because the points you earn in the next rounds will influence your bonus payment. </p>","","0","instructions","","","","","","","","","","",""
"preload","59","458722","0.0-9.0-0.0","4097","1","17","Female","approach_avoid_spark_v1","""event"",""trial"",""time""
""fullscreenenter"",""1"",""6912""
""blur"",""3"",""20007""
""focus"",""3"",""22164""
","""event"",""trial"",""time""
""blur"",""3"",""20007""
","""event"",""trial"",""time""
""focus"",""3"",""22164""
","""event"",""trial"",""time""
""fullscreenenter"",""1"",""6912""
","
","true","false","[]","[]","[]","","","","","","","","","","","","","","","",""
"learning-instructions","60","467697","0.0-9.0-1.0-0.0","4097","1","17","Female","approach_avoid_spark_v1","""event"",""trial"",""time""
""fullscreenenter"",""1"",""6912""
""blur"",""3"",""20007""
""focus"",""3"",""22164""
","""event"",""trial"",""time""
""blur"",""3"",""20007""
","""event"",""trial"",""time""
""focus"",""3"",""22164""
","""event"",""trial"",""time""
""fullscreenenter"",""1"",""6912""
","
","","","","","","3735","<p> Your goal in this round is to take your friend for rides in different vehicles. </p></div>","","0","instructions","","","","","","","","","","",""
"learning-instructions","61","478708","0.0-9.0-1.0-0.1","4097","1","17","Female","approach_avoid_spark_v1","""event"",""trial"",""time""
""fullscreenenter"",""1"",""6912""
""blur"",""3"",""20007""
""focus"",""3"",""22164""
","""event"",""trial"",""time""
""blur"",""3"",""20007""
","""event"",""trial"",""time""
""focus"",""3"",""22164""
","""event"",""trial"",""time""
""fullscreenenter"",""1"",""6912""
","
","","","","","","978","<p> Your friend enjoys riding in some vehicles but not in others.  </p><p> On each turn, you will see a vehicle.   </p><p> You need to decide whether to take your friend for a ride or not.  </p>","","0","instructions","","","","","","","","","","",""
"learning-instructions","62","486264","0.0-9.0-1.0-0.2","4097","1","17","Female","approach_avoid_spark_v1","""event"",""trial"",""time""
""fullscreenenter"",""1"",""6912""
""blur"",""3"",""20007""
""focus"",""3"",""22164""
","""event"",""trial"",""time""
""blur"",""3"",""20007""
","""event"",""trial"",""time""
""focus"",""3"",""22164""
","""event"",""trial"",""time""
""fullscreenenter"",""1"",""6912""
","
","","","","","","996","<p> You can take your friend for a ride in the vehicle by pressing 1 and skip the ride by pressing 0. </p><br><div class=""choice-instructions-grid""> <div class=""choice-option""><img src=""images/approach.png"" class=""choice-option-img"" stage=""instructions"" position=""0"" ><div class=""choice-option-text""> Press ""1."" </div></div><div class=""choice-option""><img src=""images/avoid.png"" class=""choice-option-img"" stage=""instructions"" position=""1"" ><div class=""choice-option-text""> Press ""0."" </div></div>","","0","instructions","","","","","","","","","","",""
"learning-instructions","63","495795","0.0-9.0-1.0-0.3","4097","1","17","Female","approach_avoid_spark_v1","""event"",""trial"",""time""
""fullscreenenter"",""1"",""6912""
""blur"",""3"",""20007""
""focus"",""3"",""22164""
","""event"",""trial"",""time""
""blur"",""3"",""20007""
","""event"",""trial"",""time""
""focus"",""3"",""22164""
","""event"",""trial"",""time""
""fullscreenenter"",""1"",""6912""
","
","","","","","","724","<p> If you take them for a ride in a vehicle they like, they will be thrilled! </p><p> But if you take them for a ride in a vehicle they do not like, they will be upset. </p>","","0","instructions","","","","","","","","","","",""
"learning-instructions","64","547616","0.0-9.0-1.0-0.4","4097","1","17","Female","approach_avoid_spark_v1","""event"",""trial"",""time""
""fullscreenenter"",""1"",""6912""
""blur"",""3"",""20007""
""focus"",""3"",""22164""
","""event"",""trial"",""time""
""blur"",""3"",""20007""
","""event"",""trial"",""time""
""focus"",""3"",""22164""
","""event"",""trial"",""time""
""fullscreenenter"",""1"",""6912""
","
","","","","","","40011","<p> You will earn points based on how you made your friend feel. </p><p> If you made him thrilled, you will WIN anywhere from 1 - 9 points, </p><p> but if you made him upset, you will LOSE anywhere from 1 - 9 points. </p>","","0","instructions","","","","","","","","","","",""
"learning-instructions","65","555832","0.0-9.0-1.0-0.5","4097","1","17","Female","approach_avoid_spark_v1","""event"",""trial"",""time""
""fullscreenenter"",""1"",""6912""
""blur"",""3"",""20007""
""focus"",""3"",""22164""
","""event"",""trial"",""time""
""blur"",""3"",""20007""
","""event"",""trial"",""time""
""focus"",""3"",""22164""
","""event"",""trial"",""time""
""fullscreenenter"",""1"",""6912""
","
","","","","","","748.9999999998836","<p> You will see how many points you won or lost in the center of the screen. </p><p> Here is what you would see if you won 5 points: </p><p style=""color:green;font-size:50px;font-weight:bolder"">5</p>","","0","instructions","","","","","","","","","","",""
"learning-instructions","66","562595","0.0-9.0-1.0-0.6","4097","1","17","Female","approach_avoid_spark_v1","""event"",""trial"",""time""
""fullscreenenter"",""1"",""6912""
""blur"",""3"",""20007""
""focus"",""3"",""22164""
","""event"",""trial"",""time""
""blur"",""3"",""20007""
","""event"",""trial"",""time""
""focus"",""3"",""22164""
","""event"",""trial"",""time""
""fullscreenenter"",""1"",""6912""
","
","","","","","","2723","<p> And here is what you would see if you lost 3 points: </p><p style=""color:red;font-size:50px;font-weight:bolder"">-3</p>","","0","instructions","","","","","","","","","","",""
"learning-instructions","67","584946","0.0-9.0-1.0-0.7","4097","1","17","Female","approach_avoid_spark_v1","""event"",""trial"",""time""
""fullscreenenter"",""1"",""6912""
""blur"",""3"",""20007""
""focus"",""3"",""22164""
","""event"",""trial"",""time""
""blur"",""3"",""20007""
","""event"",""trial"",""time""
""focus"",""3"",""22164""
","""event"",""trial"",""time""
""fullscreenenter"",""1"",""6912""
","
","","","","","","5882","<p> Some vehicles will make your friend REALLY thrilled or upset. </p><p> These vehicles will make you win or lose LOTS of points. </p><p> Other vehicles will only make him feel a little thrilled or upset. </p><p> These vehicles will make you win or lose small amounts of points. </p>","","0","instructions","","","","","","","","","","",""
"learning-instructions","68","599837","0.0-9.0-1.0-0.8","4097","1","17","Female","approach_avoid_spark_v1","""event"",""trial"",""time""
""fullscreenenter"",""1"",""6912""
""blur"",""3"",""20007""
""focus"",""3"",""22164""
","""event"",""trial"",""time""
""blur"",""3"",""20007""
","""event"",""trial"",""time""
""focus"",""3"",""22164""
","""event"",""trial"",""time""
""fullscreenenter"",""1"",""6912""
","
","","","","","","2962","<p> If you choose to skip the ride, you will not win or lose any points. </p><p>  However, in the center of the screen, you will see the number of points you WOULD HAVE won or lost if you had taken your friend for a ride. </p>","","0","instructions","","","","","","","","","","",""
"learning-instructions","69","612836","0.0-9.0-1.0-0.9","4097","1","17","Female","approach_avoid_spark_v1","""event"",""trial"",""time""
""fullscreenenter"",""1"",""6912""
""blur"",""3"",""20007""
""focus"",""3"",""22164""
","""event"",""trial"",""time""
""blur"",""3"",""20007""
","""event"",""trial"",""time""
""focus"",""3"",""22164""
","""event"",""trial"",""time""
""fullscreenenter"",""1"",""6912""
","
","","","","","","1631","<p> Here is what you might see if you did not take your friend for a ride but he would have enjoyed it: </p><p style=""color:grey; font-size:50px; display: inline-block; border-spacing: 15px; border-width:3px; border-style:solid; border-color:red"">  &nbsp; 6 &nbsp; </p><p> Remember, in this case, you would not win or lose ANY points because you skipped the ride.  </p>","","0","instructions","","","","","","","","","","",""
"learning-instructions","70","627221","0.0-9.0-1.0-0.10","4097","1","17","Female","approach_avoid_spark_v1","""event"",""trial"",""time""
""fullscreenenter"",""1"",""6912""
""blur"",""3"",""20007""
""focus"",""3"",""22164""
","""event"",""trial"",""time""
""blur"",""3"",""20007""
","""event"",""trial"",""time""
""focus"",""3"",""22164""
","""event"",""trial"",""time""
""fullscreenenter"",""1"",""6912""
","
","","","","","","3766","<p> Try to make the best choice for each vehicle because </p><p> at the end of the game, you will earn bonus money based on how many points you earned. </p>","","0","instructions","","","","","","","","","","",""
"learning-instructions","71","647309","0.0-9.0-1.0-0.11","4097","1","17","Female","approach_avoid_spark_v1","""event"",""trial"",""time""
""fullscreenenter"",""1"",""6912""
""blur"",""3"",""20007""
""focus"",""3"",""22164""
","""event"",""trial"",""time""
""blur"",""3"",""20007""
","""event"",""trial"",""time""
""focus"",""3"",""22164""
","""event"",""trial"",""time""
""fullscreenenter"",""1"",""6912""
","
","","","","","","11894","<p> You will have 3 seconds to make each choice. Try to respond before time runs out! </p><p> You will lose 5 points each time you do not make a response. </p>","","0","instructions","","","","","","","","","","",""
"html-keyboard-response","72","647913","0.0-9.0-2.0-0.0","4097","1","17","Female","approach_avoid_spark_v1","""event"",""trial"",""time""
""fullscreenenter"",""1"",""6912""
""blur"",""3"",""20007""
""focus"",""3"",""22164""
","""event"",""trial"",""time""
""blur"",""3"",""20007""
","""event"",""trial"",""time""
""focus"",""3"",""22164""
","""event"",""trial"",""time""
""fullscreenenter"",""1"",""6912""
","
","","","","","","null","<div style=""font-size:60px;"">+</div>","null","","fixation","","","","","","","","","","",""
"aa-learning-trial","73","650918","0.0-9.0-2.0-1.0","4097","1","17","Female","approach_avoid_spark_v1","""event"",""trial"",""time""
""fullscreenenter"",""1"",""6912""
""blur"",""3"",""20007""
""focus"",""3"",""22164""
","""event"",""trial"",""time""
""blur"",""3"",""20007""
","""event"",""trial"",""time""
""focus"",""3"",""22164""
","""event"",""trial"",""time""
""fullscreenenter"",""1"",""6912""
","
","","","","","","2898.0000000001164","images/boat7.png","","","learning","4","4","1","1","boat","vehicles","1","0","","good","[3]"
"html-keyboard-response","74","651419","0.0-9.0-2.0-0.1","4097","1","17","Female","approach_avoid_spark_v1","""event"",""trial"",""time""
""fullscreenenter"",""1"",""6912""
""blur"",""3"",""20007""
""focus"",""3"",""22164""
","""event"",""trial"",""time""
""blur"",""3"",""20007""
","""event"",""trial"",""time""
""focus"",""3"",""22164""
","""event"",""trial"",""time""
""fullscreenenter"",""1"",""6912""
","
","","","","","","null","<div style=""font-size:60px;"">+</div>","null","","fixation","","","","","","","","","","",""
"aa-learning-trial","75","654423","0.0-9.0-2.0-1.1","4097","1","17","Female","approach_avoid_spark_v1","""event"",""trial"",""time""
""fullscreenenter"",""1"",""6912""
""blur"",""3"",""20007""
""focus"",""3"",""22164""
","""event"",""trial"",""time""
""blur"",""3"",""20007""
","""event"",""trial"",""time""
""focus"",""3"",""22164""
","""event"",""trial"",""time""
""fullscreenenter"",""1"",""6912""
","
","","","","","","1325","images/boat7.png","","","learning","2","2","1","1","boat","vehicles","1","0","","good","[3]"
"html-keyboard-response","76","654925","0.0-9.0-2.0-0.2","4097","1","17","Female","approach_avoid_spark_v1","""event"",""trial"",""time""
""fullscreenenter"",""1"",""6912""
""blur"",""3"",""20007""
""focus"",""3"",""22164""
","""event"",""trial"",""time""
""blur"",""3"",""20007""
","""event"",""trial"",""time""
""focus"",""3"",""22164""
","""event"",""trial"",""time""
""fullscreenenter"",""1"",""6912""
","
","","","","","","null","<div style=""font-size:60px;"">+</div>","null","","fixation","","","","","","","","","","",""
"aa-learning-trial","77","657930","0.0-9.0-2.0-1.2","4097","1","17","Female","approach_avoid_spark_v1","""event"",""trial"",""time""
""fullscreenenter"",""1"",""6912""
""blur"",""3"",""20007""
""focus"",""3"",""22164""
","""event"",""trial"",""time""
""blur"",""3"",""20007""
","""event"",""trial"",""time""
""focus"",""3"",""22164""
","""event"",""trial"",""time""
""fullscreenenter"",""1"",""6912""
","
","","","","","","635","images/train4.png","","","learning","-1","-5","2","","train","vehicles","1","0","","neutral","0"
"html-keyboard-response","78","658432","0.0-9.0-2.0-0.3","4097","1","17","Female","approach_avoid_spark_v1","""event"",""trial"",""time""
""fullscreenenter"",""1"",""6912""
""blur"",""3"",""20007""
""focus"",""3"",""22164""
","""event"",""trial"",""time""
""blur"",""3"",""20007""
","""event"",""trial"",""time""
""focus"",""3"",""22164""
","""event"",""trial"",""time""
""fullscreenenter"",""1"",""6912""
","
","","","","","","null","<div style=""font-size:60px;"">+</div>","null","","fixation","","","","","","","","","","",""
"aa-learning-trial","79","661438","0.0-9.0-2.0-1.3","4097","1","17","Female","approach_avoid_spark_v1","""event"",""trial"",""time""
""fullscreenenter"",""1"",""6912""
""blur"",""3"",""20007""
""focus"",""3"",""22164""
","""event"",""trial"",""time""
""blur"",""3"",""20007""
","""event"",""trial"",""time""
""focus"",""3"",""22164""
","""event"",""trial"",""time""
""fullscreenenter"",""1"",""6912""
","
","","","","","","2405","images/train8.png","","","learning","[1]","0","0","0","train","vehicles","1","0","","neutral","0"
"html-keyboard-response","80","661940","0.0-9.0-2.0-0.4","4097","1","17","Female","approach_avoid_spark_v1","""event"",""trial"",""time""
""fullscreenenter"",""1"",""6912""
""blur"",""3"",""20007""
""focus"",""3"",""22164""
","""event"",""trial"",""time""
""blur"",""3"",""20007""
","""event"",""trial"",""time""
""focus"",""3"",""22164""
","""event"",""trial"",""time""
""fullscreenenter"",""1"",""6912""
","
","","","","","","null","<div style=""font-size:60px;"">+</div>","null","","fixation","","","","","","","","","","",""
"aa-learning-trial","81","664943","0.0-9.0-2.0-1.4","4097","1","17","Female","approach_avoid_spark_v1","""event"",""trial"",""time""
""fullscreenenter"",""1"",""6912""
""blur"",""3"",""20007""
""focus"",""3"",""22164""
","""event"",""trial"",""time""
""blur"",""3"",""20007""
","""event"",""trial"",""time""
""focus"",""3"",""22164""
","""event"",""trial"",""time""
""fullscreenenter"",""1"",""6912""
","
","","","","","","568","images/train8.png","","","learning","2","2","1","1","train","vehicles","1","0","","neutral","0"
"html-keyboard-response","82","665445","0.0-9.0-2.0-0.5","4097","1","17","Female","approach_avoid_spark_v1","""event"",""trial"",""time""
""fullscreenenter"",""1"",""6912""
""blur"",""3"",""20007""
""focus"",""3"",""22164""
","""event"",""trial"",""time""
""blur"",""3"",""20007""
","""event"",""trial"",""time""
""focus"",""3"",""22164""
","""event"",""trial"",""time""
""fullscreenenter"",""1"",""6912""
","
","","","","","","null","<div style=""font-size:60px;"">+</div>","null","","fixation","","","","","","","","","","",""
"aa-learning-trial","83","668449","0.0-9.0-2.0-1.5","4097","1","17","Female","approach_avoid_spark_v1","""event"",""trial"",""time""
""fullscreenenter"",""1"",""6912""
""blur"",""3"",""20007""
""focus"",""3"",""22164""
","""event"",""trial"",""time""
""blur"",""3"",""20007""
","""event"",""trial"",""time""
""focus"",""3"",""22164""
","""event"",""trial"",""time""
""fullscreenenter"",""1"",""6912""
","
","","","","","","1280","images/boat3.png","","","learning","4","0","0","0","boat","vehicles","1","0","","good","[3]"
"html-keyboard-response","84","668951","0.0-9.0-2.0-0.6","4097","1","17","Female","approach_avoid_spark_v1","""event"",""trial"",""time""
""fullscreenenter"",""1"",""6912""
""blur"",""3"",""20007""
""focus"",""3"",""22164""
","""event"",""trial"",""time""
""blur"",""3"",""20007""
","""event"",""trial"",""time""
""focus"",""3"",""22164""
","""event"",""trial"",""time""
""fullscreenenter"",""1"",""6912""
","
","","","","","","null","<div style=""font-size:60px;"">+</div>","null","","fixation","","","","","","","","","","",""
"aa-learning-trial","85","671954","0.0-9.0-2.0-1.6","4097","1","17","Female","approach_avoid_spark_v1","""event"",""trial"",""time""
""fullscreenenter"",""1"",""6912""
""blur"",""3"",""20007""
""focus"",""3"",""22164""
","""event"",""trial"",""time""
""blur"",""3"",""20007""
","""event"",""trial"",""time""
""focus"",""3"",""22164""
","""event"",""trial"",""time""
""fullscreenenter"",""1"",""6912""
","
","","","","","","889","images/train2.png","","","learning","-2","-2","1","1","train","vehicles","1","0","","neutral","0"
"html-keyboard-response","86","672456","0.0-9.0-2.0-0.7","4097","1","17","Female","approach_avoid_spark_v1","""event"",""trial"",""time""
""fullscreenenter"",""1"",""6912""
""blur"",""3"",""20007""
""focus"",""3"",""22164""
","""event"",""trial"",""time""
""blur"",""3"",""20007""
","""event"",""trial"",""time""
""focus"",""3"",""22164""
","""event"",""trial"",""time""
""fullscreenenter"",""1"",""6912""
","
","","","","","","null","<div style=""font-size:60px;"">+</div>","null","","fixation","","","","","","","","","","",""
"aa-learning-trial","87","675460","0.0-9.0-2.0-1.7","4097","1","17","Female","approach_avoid_spark_v1","""event"",""trial"",""time""
""fullscreenenter"",""1"",""6912""
""blur"",""3"",""20007""
""focus"",""3"",""22164""
","""event"",""trial"",""time""
""blur"",""3"",""20007""
","""event"",""trial"",""time""
""focus"",""3"",""22164""
","""event"",""trial"",""time""
""fullscreenenter"",""1"",""6912""
","
","","","","","","1733.9999999998836","images/plane6.png","","","learning","-2","0","0","0","plane","vehicles","1","0","","bad","[-3]"
"html-keyboard-response","88","675963","0.0-9.0-2.0-0.8","4097","1","17","Female","approach_avoid_spark_v1","""event"",""trial"",""time""
""fullscreenenter"",""1"",""6912""
""blur"",""3"",""20007""
""focus"",""3"",""22164""
","""event"",""trial"",""time""
""blur"",""3"",""20007""
","""event"",""trial"",""time""
""focus"",""3"",""22164""
","""event"",""trial"",""time""
""fullscreenenter"",""1"",""6912""
","
","","","","","","null","<div style=""font-size:60px;"">+</div>","null","","fixation","","","","","","","","","","",""
"aa-learning-trial","89","678966","0.0-9.0-2.0-1.8","4097","1","17","Female","approach_avoid_spark_v1","""event"",""trial"",""time""
""fullscreenenter"",""1"",""6912""
""blur"",""3"",""20007""
""focus"",""3"",""22164""
","""event"",""trial"",""time""
""blur"",""3"",""20007""
","""event"",""trial"",""time""
""focus"",""3"",""22164""
","""event"",""trial"",""time""
""fullscreenenter"",""1"",""6912""
","
","","","","","","863.0000000001164","images/boat3.png","","","learning","4","0","0","0","boat","vehicles","1","0","","good","[3]"
"html-keyboard-response","90","679470","0.0-9.0-2.0-0.9","4097","1","17","Female","approach_avoid_spark_v1","""event"",""trial"",""time""
""fullscreenenter"",""1"",""6912""
""blur"",""3"",""20007""
""focus"",""3"",""22164""
","""event"",""trial"",""time""
""blur"",""3"",""20007""
","""event"",""trial"",""time""
""focus"",""3"",""22164""
","""event"",""trial"",""time""
""fullscreenenter"",""1"",""6912""
","
","","","","","","null","<div style=""font-size:60px;"">+</div>","null","","fixation","","","","","","","","","","",""
"aa-learning-trial","91","682472","0.0-9.0-2.0-1.9","4097","1","17","Female","approach_avoid_spark_v1","""event"",""trial"",""time""
""fullscreenenter"",""1"",""6912""
""blur"",""3"",""20007""
""focus"",""3"",""22164""
","""event"",""trial"",""time""
""blur"",""3"",""20007""
","""event"",""trial"",""time""
""focus"",""3"",""22164""
","""event"",""trial"",""time""
""fullscreenenter"",""1"",""6912""
","
","","","","","","729","images/plane2.png","","","learning","-2","-2","1","1","plane","vehicles","1","0","","bad","[-3]"
"html-keyboard-response","92","682975","0.0-9.0-2.0-0.10","4097","1","17","Female","approach_avoid_spark_v1","""event"",""trial"",""time""
""fullscreenenter"",""1"",""6912""
""blur"",""3"",""20007""
""focus"",""3"",""22164""
","""event"",""trial"",""time""
""blur"",""3"",""20007""
","""event"",""trial"",""time""
""focus"",""3"",""22164""
","""event"",""trial"",""time""
""fullscreenenter"",""1"",""6912""
","
","","","","","","null","<div style=""font-size:60px;"">+</div>","null","","fixation","","","","","","","","","","",""
"aa-learning-trial","93","685978","0.0-9.0-2.0-1.10","4097","1","17","Female","approach_avoid_spark_v1","""event"",""trial"",""time""
""fullscreenenter"",""1"",""6912""
""blur"",""3"",""20007""
""focus"",""3"",""22164""
","""event"",""trial"",""time""
""blur"",""3"",""20007""
","""event"",""trial"",""time""
""focus"",""3"",""22164""
","""event"",""trial"",""time""
""fullscreenenter"",""1"",""6912""
","
","","","","","","813","images/plane6.png","","","learning","-3","-3","1","1","plane","vehicles","1","0","","bad","[-3]"
"html-keyboard-response","94","686481","0.0-9.0-2.0-0.11","4097","1","17","Female","approach_avoid_spark_v1","""event"",""trial"",""time""
""fullscreenenter"",""1"",""6912""
""blur"",""3"",""20007""
""focus"",""3"",""22164""
","""event"",""trial"",""time""
""blur"",""3"",""20007""
","""event"",""trial"",""time""
""focus"",""3"",""22164""
","""event"",""trial"",""time""
""fullscreenenter"",""1"",""6912""
","
","","","","","","null","<div style=""font-size:60px;"">+</div>","null","","fixation","","","","","","","","","","",""
"aa-learning-trial","95","689485","0.0-9.0-2.0-1.11","4097","1","17","Female","approach_avoid_spark_v1","""event"",""trial"",""time""
""fullscreenenter"",""1"",""6912""
""blur"",""3"",""20007""
""focus"",""3"",""22164""
","""event"",""trial"",""time""
""blur"",""3"",""20007""
","""event"",""trial"",""time""
""focus"",""3"",""22164""
","""event"",""trial"",""time""
""fullscreenenter"",""1"",""6912""
","
","","","","","","861.9999999998836","images/boat1.png","","","learning","2","2","1","1","boat","vehicles","1","0","","good","[3]"
"html-keyboard-response","96","689987","0.0-9.0-2.0-0.12","4097","1","17","Female","approach_avoid_spark_v1","""event"",""trial"",""time""
""fullscreenenter"",""1"",""6912""
""blur"",""3"",""20007""
""focus"",""3"",""22164""
","""event"",""trial"",""time""
""blur"",""3"",""20007""
","""event"",""trial"",""time""
""focus"",""3"",""22164""
","""event"",""trial"",""time""
""fullscreenenter"",""1"",""6912""
","
","","","","","","null","<div style=""font-size:60px;"">+</div>","null","","fixation","","","","","","","","","","",""
"aa-learning-trial","97","692990","0.0-9.0-2.0-1.12","4097","1","17","Female","approach_avoid_spark_v1","""event"",""trial"",""time""
""fullscreenenter"",""1"",""6912""
""blur"",""3"",""20007""
""focus"",""3"",""22164""
","""event"",""trial"",""time""
""blur"",""3"",""20007""
","""event"",""trial"",""time""
""focus"",""3"",""22164""
","""event"",""trial"",""time""
""fullscreenenter"",""1"",""6912""
","
","","","","","","1377","images/train2.png","","","learning","[-1]","0","0","0","train","vehicles","1","0","","neutral","0"
"html-keyboard-response","98","693493","0.0-9.0-2.0-0.13","4097","1","17","Female","approach_avoid_spark_v1","""event"",""trial"",""time""
""fullscreenenter"",""1"",""6912""
""blur"",""3"",""20007""
""focus"",""3"",""22164""
","""event"",""trial"",""time""
""blur"",""3"",""20007""
","""event"",""trial"",""time""
""focus"",""3"",""22164""
","""event"",""trial"",""time""
""fullscreenenter"",""1"",""6912""
","
","","","","","","null","<div style=""font-size:60px;"">+</div>","null","","fixation","","","","","","","","","","",""
"aa-learning-trial","99","696496","0.0-9.0-2.0-1.13","4097","1","17","Female","approach_avoid_spark_v1","""event"",""trial"",""time""
""fullscreenenter"",""1"",""6912""
""blur"",""3"",""20007""
""focus"",""3"",""22164""
","""event"",""trial"",""time""
""blur"",""3"",""20007""
","""event"",""trial"",""time""
""focus"",""3"",""22164""
","""event"",""trial"",""time""
""fullscreenenter"",""1"",""6912""
","
","","","","","","948","images/plane2.png","","","learning","-1","0","0","0","plane","vehicles","1","0","","bad","[-3]"
"html-keyboard-response","100","696998","0.0-9.0-2.0-0.14","4097","1","17","Female","approach_avoid_spark_v1","""event"",""trial"",""time""
""fullscreenenter"",""1"",""6912""
""blur"",""3"",""20007""
""focus"",""3"",""22164""
","""event"",""trial"",""time""
""blur"",""3"",""20007""
","""event"",""trial"",""time""
""focus"",""3"",""22164""
","""event"",""trial"",""time""
""fullscreenenter"",""1"",""6912""
","
","","","","","","null","<div style=""font-size:60px;"">+</div>","null","","fixation","","","","","","","","","","",""
"aa-learning-trial","101","700002","0.0-9.0-2.0-1.14","4097","1","17","Female","approach_avoid_spark_v1","""event"",""trial"",""time""
""fullscreenenter"",""1"",""6912""
""blur"",""3"",""20007""
""focus"",""3"",""22164""
","""event"",""trial"",""time""
""blur"",""3"",""20007""
","""event"",""trial"",""time""
""focus"",""3"",""22164""
","""event"",""trial"",""time""
""fullscreenenter"",""1"",""6912""
","
","","","","","","745","images/plane1.png","","","learning","-1","0","0","0","plane","vehicles","1","0","","bad","[-3]"
"html-keyboard-response","102","700504","0.0-9.0-2.0-0.15","4097","1","17","Female","approach_avoid_spark_v1","""event"",""trial"",""time""
""fullscreenenter"",""1"",""6912""
""blur"",""3"",""20007""
""focus"",""3"",""22164""
","""event"",""trial"",""time""
""blur"",""3"",""20007""
","""event"",""trial"",""time""
""focus"",""3"",""22164""
","""event"",""trial"",""time""
""fullscreenenter"",""1"",""6912""
","
","","","","","","null","<div style=""font-size:60px;"">+</div>","null","","fixation","","","","","","","","","","",""
"aa-learning-trial","103","703506","0.0-9.0-2.0-1.15","4097","1","17","Female","approach_avoid_spark_v1","""event"",""trial"",""time""
""fullscreenenter"",""1"",""6912""
""blur"",""3"",""20007""
""focus"",""3"",""22164""
","""event"",""trial"",""time""
""blur"",""3"",""20007""
","""event"",""trial"",""time""
""focus"",""3"",""22164""
","""event"",""trial"",""time""
""fullscreenenter"",""1"",""6912""
","
","","","","","","1236","images/boat7.png","","","learning","5","5","1","1","boat","vehicles","1","0","","good","[3]"
"html-keyboard-response","104","704008","0.0-9.0-2.0-0.16","4097","1","17","Female","approach_avoid_spark_v1","""event"",""trial"",""time""
""fullscreenenter"",""1"",""6912""
""blur"",""3"",""20007""
""focus"",""3"",""22164""
","""event"",""trial"",""time""
""blur"",""3"",""20007""
","""event"",""trial"",""time""
""focus"",""3"",""22164""
","""event"",""trial"",""time""
""fullscreenenter"",""1"",""6912""
","
","","","","","","null","<div style=""font-size:60px;"">+</div>","null","","fixation","","","","","","","","","","",""
"aa-learning-trial","105","707012","0.0-9.0-2.0-1.16","4097","1","17","Female","approach_avoid_spark_v1","""event"",""trial"",""time""
""fullscreenenter"",""1"",""6912""
""blur"",""3"",""20007""
""focus"",""3"",""22164""
","""event"",""trial"",""time""
""blur"",""3"",""20007""
","""event"",""trial"",""time""
""focus"",""3"",""22164""
","""event"",""trial"",""time""
""fullscreenenter"",""1"",""6912""
","
","","","","","","965","images/boat1.png","","","learning","3","3","1","1","boat","vehicles","1","0","","good","[3]"
"html-keyboard-response","106","707514","0.0-9.0-2.0-0.17","4097","1","17","Female","approach_avoid_spark_v1","""event"",""trial"",""time""
""fullscreenenter"",""1"",""6912""
""blur"",""3"",""20007""
""focus"",""3"",""22164""
","""event"",""trial"",""time""
""blur"",""3"",""20007""
","""event"",""trial"",""time""
""focus"",""3"",""22164""
","""event"",""trial"",""time""
""fullscreenenter"",""1"",""6912""
","
","","","","","","null","<div style=""font-size:60px;"">+</div>","null","","fixation","","","","","","","","","","",""
"aa-learning-trial","107","710518","0.0-9.0-2.0-1.17","4097","1","17","Female","approach_avoid_spark_v1","""event"",""trial"",""time""
""fullscreenenter"",""1"",""6912""
""blur"",""3"",""20007""
""focus"",""3"",""22164""
","""event"",""trial"",""time""
""blur"",""3"",""20007""
","""event"",""trial"",""time""
""focus"",""3"",""22164""
","""event"",""trial"",""time""
""fullscreenenter"",""1"",""6912""
","
","","","","","","1177.9999999998836","images/plane8.png","","","learning","-3","-3","1","1","plane","vehicles","1","0","","bad","[-3]"
"html-keyboard-response","108","711020","0.0-9.0-2.0-0.18","4097","1","17","Female","approach_avoid_spark_v1","""event"",""trial"",""time""
""fullscreenenter"",""1"",""6912""
""blur"",""3"",""20007""
""focus"",""3"",""22164""
","""event"",""trial"",""time""
""blur"",""3"",""20007""
","""event"",""trial"",""time""
""focus"",""3"",""22164""
","""event"",""trial"",""time""
""fullscreenenter"",""1"",""6912""
","
","","","","","","null","<div style=""font-size:60px;"">+</div>","null","","fixation","","","","","","","","","","",""
"aa-learning-trial","109","714024","0.0-9.0-2.0-1.18","4097","1","17","Female","approach_avoid_spark_v1","""event"",""trial"",""time""
""fullscreenenter"",""1"",""6912""
""blur"",""3"",""20007""
""focus"",""3"",""22164""
","""event"",""trial"",""time""
""blur"",""3"",""20007""
","""event"",""trial"",""time""
""focus"",""3"",""22164""
","""event"",""trial"",""time""
""fullscreenenter"",""1"",""6912""
","
","","","","","","1132","images/plane6.png","","","learning","-2","-2","1","1","plane","vehicles","1","0","","bad","[-3]"
"html-keyboard-response","110","714526","0.0-9.0-2.0-0.19","4097","1","17","Female","approach_avoid_spark_v1","""event"",""trial"",""time""
""fullscreenenter"",""1"",""6912""
""blur"",""3"",""20007""
""focus"",""3"",""22164""
","""event"",""trial"",""time""
""blur"",""3"",""20007""
","""event"",""trial"",""time""
""focus"",""3"",""22164""
","""event"",""trial"",""time""
""fullscreenenter"",""1"",""6912""
","
","","","","","","null","<div style=""font-size:60px;"">+</div>","null","","fixation","","","","","","","","","","",""
"aa-learning-trial","111","717530","0.0-9.0-2.0-1.19","4097","1","17","Female","approach_avoid_spark_v1","""event"",""trial"",""time""
""fullscreenenter"",""1"",""6912""
""blur"",""3"",""20007""
""focus"",""3"",""22164""
","""event"",""trial"",""time""
""blur"",""3"",""20007""
","""event"",""trial"",""time""
""focus"",""3"",""22164""
","""event"",""trial"",""time""
""fullscreenenter"",""1"",""6912""
","
","","","","","","1631","images/train3.png","","","learning","3","0","0","0","train","vehicles","1","0","","neutral","0"
"html-keyboard-response","112","718032","0.0-9.0-2.0-0.20","4097","1","17","Female","approach_avoid_spark_v1","""event"",""trial"",""time""
""fullscreenenter"",""1"",""6912""
""blur"",""3"",""20007""
""focus"",""3"",""22164""
","""event"",""trial"",""time""
""blur"",""3"",""20007""
","""event"",""trial"",""time""
""focus"",""3"",""22164""
","""event"",""trial"",""time""
""fullscreenenter"",""1"",""6912""
","
","","","","","","null","<div style=""font-size:60px;"">+</div>","null","","fixation","","","","","","","","","","",""
"aa-learning-trial","113","721036","0.0-9.0-2.0-1.20","4097","1","17","Female","approach_avoid_spark_v1","""event"",""trial"",""time""
""fullscreenenter"",""1"",""6912""
""blur"",""3"",""20007""
""focus"",""3"",""22164""
","""event"",""trial"",""time""
""blur"",""3"",""20007""
","""event"",""trial"",""time""
""focus"",""3"",""22164""
","""event"",""trial"",""time""
""fullscreenenter"",""1"",""6912""
","
","","","","","","954","images/boat6.png","","","learning","4","4","1","1","boat","vehicles","1","0","","good","[3]"
"html-keyboard-response","114","721538","0.0-9.0-2.0-0.21","4097","1","17","Female","approach_avoid_spark_v1","""event"",""trial"",""time""
""fullscreenenter"",""1"",""6912""
""blur"",""3"",""20007""
""focus"",""3"",""22164""
","""event"",""trial"",""time""
""blur"",""3"",""20007""
","""event"",""trial"",""time""
""focus"",""3"",""22164""
","""event"",""trial"",""time""
""fullscreenenter"",""1"",""6912""
","
","","","","","","null","<div style=""font-size:60px;"">+</div>","null","","fixation","","","","","","","","","","",""
"aa-learning-trial","115","724542","0.0-9.0-2.0-1.21","4097","1","17","Female","approach_avoid_spark_v1","""event"",""trial"",""time""
""fullscreenenter"",""1"",""6912""
""blur"",""3"",""20007""
""focus"",""3"",""22164""
","""event"",""trial"",""time""
""blur"",""3"",""20007""
","""event"",""trial"",""time""
""focus"",""3"",""22164""
","""event"",""trial"",""time""
""fullscreenenter"",""1"",""6912""
","
","","","","","","978.9999999998836","images/plane2.png","","","learning","-4","0","0","0","plane","vehicles","1","0","","bad","[-3]"
"html-keyboard-response","116","725045","0.0-9.0-2.0-0.22","4097","1","17","Female","approach_avoid_spark_v1","""event"",""trial"",""time""
""fullscreenenter"",""1"",""6912""
""blur"",""3"",""20007""
""focus"",""3"",""22164""
","""event"",""trial"",""time""
""blur"",""3"",""20007""
","""event"",""trial"",""time""
""focus"",""3"",""22164""
","""event"",""trial"",""time""
""fullscreenenter"",""1"",""6912""
","
","","","","","","null","<div style=""font-size:60px;"">+</div>","null","","fixation","","","","","","","","","","",""
"aa-learning-trial","117","728049","0.0-9.0-2.0-1.22","4097","1","17","Female","approach_avoid_spark_v1","""event"",""trial"",""time""
""fullscreenenter"",""1"",""6912""
""blur"",""3"",""20007""
""focus"",""3"",""22164""
","""event"",""trial"",""time""
""blur"",""3"",""20007""
","""event"",""trial"",""time""
""focus"",""3"",""22164""
","""event"",""trial"",""time""
""fullscreenenter"",""1"",""6912""
","
","","","","","","1134","images/boat5.png","","","learning","4","4","1","1","boat","vehicles","1","0","","good","[3]"
"html-keyboard-response","118","728551","0.0-9.0-2.0-0.23","4097","1","17","Female","approach_avoid_spark_v1","""event"",""trial"",""time""
""fullscreenenter"",""1"",""6912""
""blur"",""3"",""20007""
""focus"",""3"",""22164""
","""event"",""trial"",""time""
""blur"",""3"",""20007""
","""event"",""trial"",""time""
""focus"",""3"",""22164""
","""event"",""trial"",""time""
""fullscreenenter"",""1"",""6912""
","
","","","","","","null","<div style=""font-size:60px;"">+</div>","null","","fixation","","","","","","","","","","",""
"aa-learning-trial","119","731555","0.0-9.0-2.0-1.23","4097","1","17","Female","approach_avoid_spark_v1","""event"",""trial"",""time""
""fullscreenenter"",""1"",""6912""
""blur"",""3"",""20007""
""focus"",""3"",""22164""
","""event"",""trial"",""time""
""blur"",""3"",""20007""
","""event"",""trial"",""time""
""focus"",""3"",""22164""
","""event"",""trial"",""time""
""fullscreenenter"",""1"",""6912""
","
","","","","","","962","images/train4.png","","","learning","[-1]","0","0","0","train","vehicles","1","0","","neutral","0"
"html-keyboard-response","120","732057","0.0-9.0-2.0-0.24","4097","1","17","Female","approach_avoid_spark_v1","""event"",""trial"",""time""
""fullscreenenter"",""1"",""6912""
""blur"",""3"",""20007""
""focus"",""3"",""22164""
","""event"",""trial"",""time""
""blur"",""3"",""20007""
","""event"",""trial"",""time""
""focus"",""3"",""22164""
","""event"",""trial"",""time""
""fullscreenenter"",""1"",""6912""
","
","","","","","","null","<div style=""font-size:60px;"">+</div>","null","","fixation","","","","","","","","","","",""
"aa-learning-trial","121","735061","0.0-9.0-2.0-1.24","4097","1","17","Female","approach_avoid_spark_v1","""event"",""trial"",""time""
""fullscreenenter"",""1"",""6912""
""blur"",""3"",""20007""
""focus"",""3"",""22164""
","""event"",""trial"",""time""
""blur"",""3"",""20007""
","""event"",""trial"",""time""
""focus"",""3"",""22164""
","""event"",""trial"",""time""
""fullscreenenter"",""1"",""6912""
","
","","","","","","1109","images/train6.png","","","learning","[-1]","0","0","0","train","vehicles","1","0","","neutral","0"
"html-keyboard-response","122","735564","0.0-9.0-2.0-0.25","4097","1","17","Female","approach_avoid_spark_v1","""event"",""trial"",""time""
""fullscreenenter"",""1"",""6912""
""blur"",""3"",""20007""
""focus"",""3"",""22164""
","""event"",""trial"",""time""
""blur"",""3"",""20007""
","""event"",""trial"",""time""
""focus"",""3"",""22164""
","""event"",""trial"",""time""
""fullscreenenter"",""1"",""6912""
","
","","","","","","null","<div style=""font-size:60px;"">+</div>","null","","fixation","","","","","","","","","","",""
"aa-learning-trial","123","738567","0.0-9.0-2.0-1.25","4097","1","17","Female","approach_avoid_spark_v1","""event"",""trial"",""time""
""fullscreenenter"",""1"",""6912""
""blur"",""3"",""20007""
""focus"",""3"",""22164""
","""event"",""trial"",""time""
""blur"",""3"",""20007""
","""event"",""trial"",""time""
""focus"",""3"",""22164""
","""event"",""trial"",""time""
""fullscreenenter"",""1"",""6912""
","
","","","","","","1004","images/plane2.png","","","learning","-4","0","0","0","plane","vehicles","1","0","","bad","[-3]"
"html-keyboard-response","124","739069","0.0-9.0-2.0-0.26","4097","1","17","Female","approach_avoid_spark_v1","""event"",""trial"",""time""
""fullscreenenter"",""1"",""6912""
""blur"",""3"",""20007""
""focus"",""3"",""22164""
","""event"",""trial"",""time""
""blur"",""3"",""20007""
","""event"",""trial"",""time""
""focus"",""3"",""22164""
","""event"",""trial"",""time""
""fullscreenenter"",""1"",""6912""
","
","","","","","","null","<div style=""font-size:60px;"">+</div>","null","","fixation","","","","","","","","","","",""
"aa-learning-trial","125","742073","0.0-9.0-2.0-1.26","4097","1","17","Female","approach_avoid_spark_v1","""event"",""trial"",""time""
""fullscreenenter"",""1"",""6912""
""blur"",""3"",""20007""
""focus"",""3"",""22164""
","""event"",""trial"",""time""
""blur"",""3"",""20007""
","""event"",""trial"",""time""
""focus"",""3"",""22164""
","""event"",""trial"",""time""
""fullscreenenter"",""1"",""6912""
","
","","","","","","814","images/boat3.png","","","learning","1","1","1","1","boat","vehicles","1","0","","good","[3]"
"html-keyboard-response","126","742575","0.0-9.0-2.0-0.27","4097","1","17","Female","approach_avoid_spark_v1","""event"",""trial"",""time""
""fullscreenenter"",""1"",""6912""
""blur"",""3"",""20007""
""focus"",""3"",""22164""
","""event"",""trial"",""time""
""blur"",""3"",""20007""
","""event"",""trial"",""time""
""focus"",""3"",""22164""
","""event"",""trial"",""time""
""fullscreenenter"",""1"",""6912""
","
","","","","","","null","<div style=""font-size:60px;"">+</div>","null","","fixation","","","","","","","","","","",""
"aa-learning-trial","127","745579","0.0-9.0-2.0-1.27","4097","1","17","Female","approach_avoid_spark_v1","""event"",""trial"",""time""
""fullscreenenter"",""1"",""6912""
""blur"",""3"",""20007""
""focus"",""3"",""22164""
","""event"",""trial"",""time""
""blur"",""3"",""20007""
","""event"",""trial"",""time""
""focus"",""3"",""22164""
","""event"",""trial"",""time""
""fullscreenenter"",""1"",""6912""
","
","","","","","","1122","images/boat1.png","","","learning","1","1","1","1","boat","vehicles","1","0","","good","[3]"
"html-keyboard-response","128","746081","0.0-9.0-2.0-0.28","4097","1","17","Female","approach_avoid_spark_v1","""event"",""trial"",""time""
""fullscreenenter"",""1"",""6912""
""blur"",""3"",""20007""
""focus"",""3"",""22164""
","""event"",""trial"",""time""
""blur"",""3"",""20007""
","""event"",""trial"",""time""
""focus"",""3"",""22164""
","""event"",""trial"",""time""
""fullscreenenter"",""1"",""6912""
","
","","","","","","null","<div style=""font-size:60px;"">+</div>","null","","fixation","","","","","","","","","","",""
"aa-learning-trial","129","749085","0.0-9.0-2.0-1.28","4097","1","17","Female","approach_avoid_spark_v1","""event"",""trial"",""time""
""fullscreenenter"",""1"",""6912""
""blur"",""3"",""20007""
""focus"",""3"",""22164""
","""event"",""trial"",""time""
""blur"",""3"",""20007""
","""event"",""trial"",""time""
""focus"",""3"",""22164""
","""event"",""trial"",""time""
""fullscreenenter"",""1"",""6912""
","
","","","","","","1615.9999999998836","images/train4.png","","","learning","3","0","0","0","train","vehicles","1","0","","neutral","0"
"html-keyboard-response","130","749587","0.0-9.0-2.0-0.29","4097","1","17","Female","approach_avoid_spark_v1","""event"",""trial"",""time""
""fullscreenenter"",""1"",""6912""
""blur"",""3"",""20007""
""focus"",""3"",""22164""
","""event"",""trial"",""time""
""blur"",""3"",""20007""
","""event"",""trial"",""time""
""focus"",""3"",""22164""
","""event"",""trial"",""time""
""fullscreenenter"",""1"",""6912""
","
","","","","","","null","<div style=""font-size:60px;"">+</div>","null","","fixation","","","","","","","","","","",""
"aa-learning-trial","131","752591","0.0-9.0-2.0-1.29","4097","1","17","Female","approach_avoid_spark_v1","""event"",""trial"",""time""
""fullscreenenter"",""1"",""6912""
""blur"",""3"",""20007""
""focus"",""3"",""22164""
","""event"",""trial"",""time""
""blur"",""3"",""20007""
","""event"",""trial"",""time""
""focus"",""3"",""22164""
","""event"",""trial"",""time""
""fullscreenenter"",""1"",""6912""
","
","","","","","","1236","images/plane6.png","","","learning","-3","-3","1","1","plane","vehicles","1","0","","bad","[-3]"
"html-keyboard-response","132","753094","0.0-9.0-2.0-0.30","4097","1","17","Female","approach_avoid_spark_v1","""event"",""trial"",""time""
""fullscreenenter"",""1"",""6912""
""blur"",""3"",""20007""
""focus"",""3"",""22164""
","""event"",""trial"",""time""
""blur"",""3"",""20007""
","""event"",""trial"",""time""
""focus"",""3"",""22164""
","""event"",""trial"",""time""
""fullscreenenter"",""1"",""6912""
","
","","","","","","null","<div style=""font-size:60px;"">+</div>","null","","fixation","","","","","","","","","","",""
"aa-learning-trial","133","756097","0.0-9.0-2.0-1.30","4097","1","17","Female","approach_avoid_spark_v1","""event"",""trial"",""time""
""fullscreenenter"",""1"",""6912""
""blur"",""3"",""20007""
""focus"",""3"",""22164""
","""event"",""trial"",""time""
""blur"",""3"",""20007""
","""event"",""trial"",""time""
""focus"",""3"",""22164""
","""event"",""trial"",""time""
""fullscreenenter"",""1"",""6912""
","
","","","","","","1018","images/plane1.png","","","learning","-3","0","0","0","plane","vehicles","1","0","","bad","[-3]"
"html-keyboard-response","134","756599","0.0-9.0-2.0-0.31","4097","1","17","Female","approach_avoid_spark_v1","""event"",""trial"",""time""
""fullscreenenter"",""1"",""6912""
""blur"",""3"",""20007""
""focus"",""3"",""22164""
","""event"",""trial"",""time""
""blur"",""3"",""20007""
","""event"",""trial"",""time""
""focus"",""3"",""22164""
","""event"",""trial"",""time""
""fullscreenenter"",""1"",""6912""
","
","","","","","","null","<div style=""font-size:60px;"">+</div>","null","","fixation","","","","","","","","","","",""
"aa-learning-trial","135","759602","0.0-9.0-2.0-1.31","4097","1","17","Female","approach_avoid_spark_v1","""event"",""trial"",""time""
""fullscreenenter"",""1"",""6912""
""blur"",""3"",""20007""
""focus"",""3"",""22164""
","""event"",""trial"",""time""
""blur"",""3"",""20007""
","""event"",""trial"",""time""
""focus"",""3"",""22164""
","""event"",""trial"",""time""
""fullscreenenter"",""1"",""6912""
","
","","","","","","1888","images/plane6.png","","","learning","-1","0","0","0","plane","vehicles","1","0","","bad","[-3]"
"html-keyboard-response","136","760103","0.0-9.0-2.0-0.32","4097","1","17","Female","approach_avoid_spark_v1","""event"",""trial"",""time""
""fullscreenenter"",""1"",""6912""
""blur"",""3"",""20007""
""focus"",""3"",""22164""
","""event"",""trial"",""time""
""blur"",""3"",""20007""
","""event"",""trial"",""time""
""focus"",""3"",""22164""
","""event"",""trial"",""time""
""fullscreenenter"",""1"",""6912""
","
","","","","","","null","<div style=""font-size:60px;"">+</div>","null","","fixation","","","","","","","","","","",""
"aa-learning-trial","137","763107","0.0-9.0-2.0-1.32","4097","1","17","Female","approach_avoid_spark_v1","""event"",""trial"",""time""
""fullscreenenter"",""1"",""6912""
""blur"",""3"",""20007""
""focus"",""3"",""22164""
","""event"",""trial"",""time""
""blur"",""3"",""20007""
","""event"",""trial"",""time""
""focus"",""3"",""22164""
","""event"",""trial"",""time""
""fullscreenenter"",""1"",""6912""
","
","","","","","","873","images/boat7.png","","","learning","5","5","1","1","boat","vehicles","1","0","","good","[3]"
"html-keyboard-response","138","763609","0.0-9.0-2.0-0.33","4097","1","17","Female","approach_avoid_spark_v1","""event"",""trial"",""time""
""fullscreenenter"",""1"",""6912""
""blur"",""3"",""20007""
""focus"",""3"",""22164""
","""event"",""trial"",""time""
""blur"",""3"",""20007""
","""event"",""trial"",""time""
""focus"",""3"",""22164""
","""event"",""trial"",""time""
""fullscreenenter"",""1"",""6912""
","
","","","","","","null","<div style=""font-size:60px;"">+</div>","null","","fixation","","","","","","","","","","",""
"aa-learning-trial","139","766613","0.0-9.0-2.0-1.33","4097","1","17","Female","approach_avoid_spark_v1","""event"",""trial"",""time""
""fullscreenenter"",""1"",""6912""
""blur"",""3"",""20007""
""focus"",""3"",""22164""
","""event"",""trial"",""time""
""blur"",""3"",""20007""
","""event"",""trial"",""time""
""focus"",""3"",""22164""
","""event"",""trial"",""time""
""fullscreenenter"",""1"",""6912""
","
","","","","","","1139","images/train8.png","","","learning","1","0","0","0","train","vehicles","1","0","","neutral","0"
"html-keyboard-response","140","767115","0.0-9.0-2.0-0.34","4097","1","17","Female","approach_avoid_spark_v1","""event"",""trial"",""time""
""fullscreenenter"",""1"",""6912""
""blur"",""3"",""20007""
""focus"",""3"",""22164""
","""event"",""trial"",""time""
""blur"",""3"",""20007""
","""event"",""trial"",""time""
""focus"",""3"",""22164""
","""event"",""trial"",""time""
""fullscreenenter"",""1"",""6912""
","
","","","","","","null","<div style=""font-size:60px;"">+</div>","null","","fixation","","","","","","","","","","",""
"aa-learning-trial","141","770118","0.0-9.0-2.0-1.34","4097","1","17","Female","approach_avoid_spark_v1","""event"",""trial"",""time""
""fullscreenenter"",""1"",""6912""
""blur"",""3"",""20007""
""focus"",""3"",""22164""
","""event"",""trial"",""time""
""blur"",""3"",""20007""
","""event"",""trial"",""time""
""focus"",""3"",""22164""
","""event"",""trial"",""time""
""fullscreenenter"",""1"",""6912""
","
","","","","","","1368","images/train8.png","","","learning","-4","-4","1","1","train","vehicles","1","0","","neutral","0"
"html-keyboard-response","142","770620","0.0-9.0-2.0-0.35","4097","1","17","Female","approach_avoid_spark_v1","""event"",""trial"",""time""
""fullscreenenter"",""1"",""6912""
""blur"",""3"",""20007""
""focus"",""3"",""22164""
","""event"",""trial"",""time""
""blur"",""3"",""20007""
","""event"",""trial"",""time""
""focus"",""3"",""22164""
","""event"",""trial"",""time""
""fullscreenenter"",""1"",""6912""
","
","","","","","","null","<div style=""font-size:60px;"">+</div>","null","","fixation","","","","","","","","","","",""
"aa-learning-trial","143","773624","0.0-9.0-2.0-1.35","4097","1","17","Female","approach_avoid_spark_v1","""event"",""trial"",""time""
""fullscreenenter"",""1"",""6912""
""blur"",""3"",""20007""
""focus"",""3"",""22164""
","""event"",""trial"",""time""
""blur"",""3"",""20007""
","""event"",""trial"",""time""
""focus"",""3"",""22164""
","""event"",""trial"",""time""
""fullscreenenter"",""1"",""6912""
","
","","","","","","1889.0000000001164","images/boat3.png","","","learning","2","2","1","1","boat","vehicles","1","0","","good","[3]"
"html-keyboard-response","144","774127","0.0-9.0-2.0-0.36","4097","1","17","Female","approach_avoid_spark_v1","""event"",""trial"",""time""
""fullscreenenter"",""1"",""6912""
""blur"",""3"",""20007""
""focus"",""3"",""22164""
","""event"",""trial"",""time""
""blur"",""3"",""20007""
","""event"",""trial"",""time""
""focus"",""3"",""22164""
","""event"",""trial"",""time""
""fullscreenenter"",""1"",""6912""
","
","","","","","","null","<div style=""font-size:60px;"">+</div>","null","","fixation","","","","","","","","","","",""
"aa-learning-trial","145","777130","0.0-9.0-2.0-1.36","4097","1","17","Female","approach_avoid_spark_v1","""event"",""trial"",""time""
""fullscreenenter"",""1"",""6912""
""blur"",""3"",""20007""
""focus"",""3"",""22164""
","""event"",""trial"",""time""
""blur"",""3"",""20007""
","""event"",""trial"",""time""
""focus"",""3"",""22164""
","""event"",""trial"",""time""
""fullscreenenter"",""1"",""6912""
","
","","","","","","2824","images/train2.png","","","learning","[-1]","0","0","0","train","vehicles","1","0","","neutral","0"
"html-keyboard-response","146","777632","0.0-9.0-2.0-0.37","4097","1","17","Female","approach_avoid_spark_v1","""event"",""trial"",""time""
""fullscreenenter"",""1"",""6912""
""blur"",""3"",""20007""
""focus"",""3"",""22164""
","""event"",""trial"",""time""
""blur"",""3"",""20007""
","""event"",""trial"",""time""
""focus"",""3"",""22164""
","""event"",""trial"",""time""
""fullscreenenter"",""1"",""6912""
","
","","","","","","null","<div style=""font-size:60px;"">+</div>","null","","fixation","","","","","","","","","","",""
"aa-learning-trial","147","780636","0.0-9.0-2.0-1.37","4097","1","17","Female","approach_avoid_spark_v1","""event"",""trial"",""time""
""fullscreenenter"",""1"",""6912""
""blur"",""3"",""20007""
""focus"",""3"",""22164""
","""event"",""trial"",""time""
""blur"",""3"",""20007""
","""event"",""trial"",""time""
""focus"",""3"",""22164""
","""event"",""trial"",""time""
""fullscreenenter"",""1"",""6912""
","
","","","","","","2145","images/boat7.png","","","learning","4","4","1","1","boat","vehicles","1","0","","good","[3]"
"html-keyboard-response","148","781138","0.0-9.0-2.0-0.38","4097","1","17","Female","approach_avoid_spark_v1","""event"",""trial"",""time""
""fullscreenenter"",""1"",""6912""
""blur"",""3"",""20007""
""focus"",""3"",""22164""
","""event"",""trial"",""time""
""blur"",""3"",""20007""
","""event"",""trial"",""time""
""focus"",""3"",""22164""
","""event"",""trial"",""time""
""fullscreenenter"",""1"",""6912""
","
","","","","","","null","<div style=""font-size:60px;"">+</div>","null","","fixation","","","","","","","","","","",""
"aa-learning-trial","149","784141","0.0-9.0-2.0-1.38","4097","1","17","Female","approach_avoid_spark_v1","""event"",""trial"",""time""
""fullscreenenter"",""1"",""6912""
""blur"",""3"",""20007""
""focus"",""3"",""22164""
","""event"",""trial"",""time""
""blur"",""3"",""20007""
","""event"",""trial"",""time""
""focus"",""3"",""22164""
","""event"",""trial"",""time""
""fullscreenenter"",""1"",""6912""
","
","","","","","","1122.0000000001164","images/train2.png","","","learning","[-1]","0","0","0","train","vehicles","1","0","","neutral","0"
"html-keyboard-response","150","784644","0.0-9.0-2.0-0.39","4097","1","17","Female","approach_avoid_spark_v1","""event"",""trial"",""time""
""fullscreenenter"",""1"",""6912""
""blur"",""3"",""20007""
""focus"",""3"",""22164""
","""event"",""trial"",""time""
""blur"",""3"",""20007""
","""event"",""trial"",""time""
""focus"",""3"",""22164""
","""event"",""trial"",""time""
""fullscreenenter"",""1"",""6912""
","
","","","","","","null","<div style=""font-size:60px;"">+</div>","null","","fixation","","","","","","","","","","",""
"aa-learning-trial","151","787648","0.0-9.0-2.0-1.39","4097","1","17","Female","approach_avoid_spark_v1","""event"",""trial"",""time""
""fullscreenenter"",""1"",""6912""
""blur"",""3"",""20007""
""focus"",""3"",""22164""
","""event"",""trial"",""time""
""blur"",""3"",""20007""
","""event"",""trial"",""time""
""focus"",""3"",""22164""
","""event"",""trial"",""time""
""fullscreenenter"",""1"",""6912""
","
","","","","","","1172","images/boat7.png","","","learning","3","3","1","1","boat","vehicles","1","0","","good","[3]"
"html-keyboard-response","152","788150","0.0-9.0-2.0-0.40","4097","1","17","Female","approach_avoid_spark_v1","""event"",""trial"",""time""
""fullscreenenter"",""1"",""6912""
""blur"",""3"",""20007""
""focus"",""3"",""22164""
","""event"",""trial"",""time""
""blur"",""3"",""20007""
","""event"",""trial"",""time""
""focus"",""3"",""22164""
","""event"",""trial"",""time""
""fullscreenenter"",""1"",""6912""
","
","","","","","","null","<div style=""font-size:60px;"">+</div>","null","","fixation","","","","","","","","","","",""
"aa-learning-trial","153","791155","0.0-9.0-2.0-1.40","4097","1","17","Female","approach_avoid_spark_v1","""event"",""trial"",""time""
""fullscreenenter"",""1"",""6912""
""blur"",""3"",""20007""
""focus"",""3"",""22164""
","""event"",""trial"",""time""
""blur"",""3"",""20007""
","""event"",""trial"",""time""
""focus"",""3"",""22164""
","""event"",""trial"",""time""
""fullscreenenter"",""1"",""6912""
","
","","","","","","1025","images/plane2.png","","","learning","-2","0","0","0","plane","vehicles","1","0","","bad","[-3]"
"html-keyboard-response","154","791658","0.0-9.0-2.0-0.41","4097","1","17","Female","approach_avoid_spark_v1","""event"",""trial"",""time""
""fullscreenenter"",""1"",""6912""
""blur"",""3"",""20007""
""focus"",""3"",""22164""
","""event"",""trial"",""time""
""blur"",""3"",""20007""
","""event"",""trial"",""time""
""focus"",""3"",""22164""
","""event"",""trial"",""time""
""fullscreenenter"",""1"",""6912""
","
","","","","","","null","<div style=""font-size:60px;"">+</div>","null","","fixation","","","","","","","","","","",""
"aa-learning-trial","155","794662","0.0-9.0-2.0-1.41","4097","1","17","Female","approach_avoid_spark_v1","""event"",""trial"",""time""
""fullscreenenter"",""1"",""6912""
""blur"",""3"",""20007""
""focus"",""3"",""22164""
","""event"",""trial"",""time""
""blur"",""3"",""20007""
","""event"",""trial"",""time""
""focus"",""3"",""22164""
","""event"",""trial"",""time""
""fullscreenenter"",""1"",""6912""
","
","","","","","","1419.0000000001164","images/plane2.png","","","learning","-3","0","0","0","plane","vehicles","1","0","","bad","[-3]"
"html-keyboard-response","156","795165","0.0-9.0-2.0-0.42","4097","1","17","Female","approach_avoid_spark_v1","""event"",""trial"",""time""
""fullscreenenter"",""1"",""6912""
""blur"",""3"",""20007""
""focus"",""3"",""22164""
","""event"",""trial"",""time""
""blur"",""3"",""20007""
","""event"",""trial"",""time""
""focus"",""3"",""22164""
","""event"",""trial"",""time""
""fullscreenenter"",""1"",""6912""
","
","","","","","","null","<div style=""font-size:60px;"">+</div>","null","","fixation","","","","","","","","","","",""
"aa-learning-trial","157","798173","0.0-9.0-2.0-1.42","4097","1","17","Female","approach_avoid_spark_v1","""event"",""trial"",""time""
""fullscreenenter"",""1"",""6912""
""blur"",""3"",""20007""
""focus"",""3"",""22164""
","""event"",""trial"",""time""
""blur"",""3"",""20007""
","""event"",""trial"",""time""
""focus"",""3"",""22164""
","""event"",""trial"",""time""
""fullscreenenter"",""1"",""6912""
","
","","","","","","1069","images/train2.png","","","learning","[1]","0","0","0","train","vehicles","1","0","","neutral","0"
"html-keyboard-response","158","798675","0.0-9.0-2.0-0.43","4097","1","17","Female","approach_avoid_spark_v1","""event"",""trial"",""time""
""fullscreenenter"",""1"",""6912""
""blur"",""3"",""20007""
""focus"",""3"",""22164""
","""event"",""trial"",""time""
""blur"",""3"",""20007""
","""event"",""trial"",""time""
""focus"",""3"",""22164""
","""event"",""trial"",""time""
""fullscreenenter"",""1"",""6912""
","
","","","","","","null","<div style=""font-size:60px;"">+</div>","null","","fixation","","","","","","","","","","",""
"aa-learning-trial","159","801679","0.0-9.0-2.0-1.43","4097","1","17","Female","approach_avoid_spark_v1","""event"",""trial"",""time""
""fullscreenenter"",""1"",""6912""
""blur"",""3"",""20007""
""focus"",""3"",""22164""
","""event"",""trial"",""time""
""blur"",""3"",""20007""
","""event"",""trial"",""time""
""focus"",""3"",""22164""
","""event"",""trial"",""time""
""fullscreenenter"",""1"",""6912""
","
","","","","","","1164","images/plane1.png","","","learning","-3","0","0","0","plane","vehicles","1","0","","bad","[-3]"
"html-keyboard-response","160","802181","0.0-9.0-2.0-0.44","4097","1","17","Female","approach_avoid_spark_v1","""event"",""trial"",""time""
""fullscreenenter"",""1"",""6912""
""blur"",""3"",""20007""
""focus"",""3"",""22164""
","""event"",""trial"",""time""
""blur"",""3"",""20007""
","""event"",""trial"",""time""
""focus"",""3"",""22164""
","""event"",""trial"",""time""
""fullscreenenter"",""1"",""6912""
","
","","","","","","null","<div style=""font-size:60px;"">+</div>","null","","fixation","","","","","","","","","","",""
"aa-learning-trial","161","805184","0.0-9.0-2.0-1.44","4097","1","17","Female","approach_avoid_spark_v1","""event"",""trial"",""time""
""fullscreenenter"",""1"",""6912""
""blur"",""3"",""20007""
""focus"",""3"",""22164""
","""event"",""trial"",""time""
""blur"",""3"",""20007""
","""event"",""trial"",""time""
""focus"",""3"",""22164""
","""event"",""trial"",""time""
""fullscreenenter"",""1"",""6912""
","
","","","","","","1422","images/plane5.png","","","learning","-3","-3","1","1","plane","vehicles","1","0","","bad","[-3]"
"html-keyboard-response","162","805687","0.0-9.0-2.0-0.45","4097","1","17","Female","approach_avoid_spark_v1","""event"",""trial"",""time""
""fullscreenenter"",""1"",""6912""
""blur"",""3"",""20007""
""focus"",""3"",""22164""
","""event"",""trial"",""time""
""blur"",""3"",""20007""
","""event"",""trial"",""time""
""focus"",""3"",""22164""
","""event"",""trial"",""time""
""fullscreenenter"",""1"",""6912""
","
","","","","","","null","<div style=""font-size:60px;"">+</div>","null","","fixation","","","","","","","","","","",""
"aa-learning-trial","163","808691","0.0-9.0-2.0-1.45","4097","1","17","Female","approach_avoid_spark_v1","""event"",""trial"",""time""
""fullscreenenter"",""1"",""6912""
""blur"",""3"",""20007""
""focus"",""3"",""22164""
","""event"",""trial"",""time""
""blur"",""3"",""20007""
","""event"",""trial"",""time""
""focus"",""3"",""22164""
","""event"",""trial"",""time""
""fullscreenenter"",""1"",""6912""
","
","","","","","","1167","images/plane6.png","","","learning","-3","-3","1","1","plane","vehicles","1","0","","bad","[-3]"
"html-keyboard-response","164","809193","0.0-9.0-2.0-0.46","4097","1","17","Female","approach_avoid_spark_v1","""event"",""trial"",""time""
""fullscreenenter"",""1"",""6912""
""blur"",""3"",""20007""
""focus"",""3"",""22164""
","""event"",""trial"",""time""
""blur"",""3"",""20007""
","""event"",""trial"",""time""
""focus"",""3"",""22164""
","""event"",""trial"",""time""
""fullscreenenter"",""1"",""6912""
","
","","","","","","null","<div style=""font-size:60px;"">+</div>","null","","fixation","","","","","","","","","","",""
"aa-learning-trial","165","812196","0.0-9.0-2.0-1.46","4097","1","17","Female","approach_avoid_spark_v1","""event"",""trial"",""time""
""fullscreenenter"",""1"",""6912""
""blur"",""3"",""20007""
""focus"",""3"",""22164""
","""event"",""trial"",""time""
""blur"",""3"",""20007""
","""event"",""trial"",""time""
""focus"",""3"",""22164""
","""event"",""trial"",""time""
""fullscreenenter"",""1"",""6912""
","
","","","","","","1141","images/train8.png","","","learning","-1","0","0","0","train","vehicles","1","0","","neutral","0"
"html-keyboard-response","166","812698","0.0-9.0-2.0-0.47","4097","1","17","Female","approach_avoid_spark_v1","""event"",""trial"",""time""
""fullscreenenter"",""1"",""6912""
""blur"",""3"",""20007""
""focus"",""3"",""22164""
","""event"",""trial"",""time""
""blur"",""3"",""20007""
","""event"",""trial"",""time""
""focus"",""3"",""22164""
","""event"",""trial"",""time""
""fullscreenenter"",""1"",""6912""
","
","","","","","","null","<div style=""font-size:60px;"">+</div>","null","","fixation","","","","","","","","","","",""
"aa-learning-trial","167","815702","0.0-9.0-2.0-1.47","4097","1","17","Female","approach_avoid_spark_v1","""event"",""trial"",""time""
""fullscreenenter"",""1"",""6912""
""blur"",""3"",""20007""
""focus"",""3"",""22164""
","""event"",""trial"",""time""
""blur"",""3"",""20007""
","""event"",""trial"",""time""
""focus"",""3"",""22164""
","""event"",""trial"",""time""
""fullscreenenter"",""1"",""6912""
","
","","","","","","888","images/train2.png","","","learning","2","0","0","0","train","vehicles","1","0","","neutral","0"
"html-keyboard-response","168","816204","0.0-9.0-2.0-0.48","4097","1","17","Female","approach_avoid_spark_v1","""event"",""trial"",""time""
""fullscreenenter"",""1"",""6912""
""blur"",""3"",""20007""
""focus"",""3"",""22164""
","""event"",""trial"",""time""
""blur"",""3"",""20007""
","""event"",""trial"",""time""
""focus"",""3"",""22164""
","""event"",""trial"",""time""
""fullscreenenter"",""1"",""6912""
","
","","","","","","null","<div style=""font-size:60px;"">+</div>","null","","fixation","","","","","","","","","","",""
"aa-learning-trial","169","819208","0.0-9.0-2.0-1.48","4097","1","17","Female","approach_avoid_spark_v1","""event"",""trial"",""time""
""fullscreenenter"",""1"",""6912""
""blur"",""3"",""20007""
""focus"",""3"",""22164""
","""event"",""trial"",""time""
""blur"",""3"",""20007""
","""event"",""trial"",""time""
""focus"",""3"",""22164""
","""event"",""trial"",""time""
""fullscreenenter"",""1"",""6912""
","
","","","","","","942","images/boat3.png","","","learning","4","4","1","1","boat","vehicles","1","0","","good","[3]"
"html-keyboard-response","170","819711","0.0-9.0-2.0-0.49","4097","1","17","Female","approach_avoid_spark_v1","""event"",""trial"",""time""
""fullscreenenter"",""1"",""6912""
""blur"",""3"",""20007""
""focus"",""3"",""22164""
","""event"",""trial"",""time""
""blur"",""3"",""20007""
","""event"",""trial"",""time""
""focus"",""3"",""22164""
","""event"",""trial"",""time""
""fullscreenenter"",""1"",""6912""
","
","","","","","","null","<div style=""font-size:60px;"">+</div>","null","","fixation","","","","","","","","","","",""
"aa-learning-trial","171","822714","0.0-9.0-2.0-1.49","4097","1","17","Female","approach_avoid_spark_v1","""event"",""trial"",""time""
""fullscreenenter"",""1"",""6912""
""blur"",""3"",""20007""
""focus"",""3"",""22164""
","""event"",""trial"",""time""
""blur"",""3"",""20007""
","""event"",""trial"",""time""
""focus"",""3"",""22164""
","""event"",""trial"",""time""
""fullscreenenter"",""1"",""6912""
","
","","","","","","947","images/boat3.png","","","learning","2","2","1","1","boat","vehicles","1","0","","good","[3]"
"html-keyboard-response","172","823217","0.0-9.0-2.0-0.50","4097","1","17","Female","approach_avoid_spark_v1","""event"",""trial"",""time""
""fullscreenenter"",""1"",""6912""
""blur"",""3"",""20007""
""focus"",""3"",""22164""
","""event"",""trial"",""time""
""blur"",""3"",""20007""
","""event"",""trial"",""time""
""focus"",""3"",""22164""
