"trial_type","trial_index","time_elapsed","internal_node_id","subject_id","task_condition","age","gender","task_version","interactions","blur_events","focus_events","fullscreenenter_events","fullscreenexit_events","success","timeout","failed_images","failed_audio","failed_video","rt","stimulus","response","button_pressed","task_part","approach_reward","points","key_press","option_selected","stim_cat","task_block","block_condition","block_number","correct","cat_type","mean_cat_reward"
"pavlovia","0","27","0.0-0.0","6410","2","11","Female","approach_avoid_spark_v1","""event"",""trial"",""time""
""focus"",""0"",""5""
""fullscreenenter"",""1"",""4878""
","
","""event"",""trial"",""time""
""focus"",""0"",""5""
","""event"",""trial"",""time""
""fullscreenenter"",""1"",""4878""
","
","","","","","","","","","","","","","","","","","","","","",""
"fullscreen","1","5579","0.0-1.0","6410","2","11","Female","approach_avoid_spark_v1","""event"",""trial"",""time""
""focus"",""0"",""5""
""fullscreenenter"",""1"",""4878""
","
","""event"",""trial"",""time""
""focus"",""0"",""5""
","""event"",""trial"",""time""
""fullscreenenter"",""1"",""4878""
","
","true","","","","","","","","","","","","","","","","","","","",""
"preload","2","11718","0.0-2.0","6410","2","11","Female","approach_avoid_spark_v1","""event"",""trial"",""time""
""focus"",""0"",""5""
""fullscreenenter"",""1"",""4878""
","
","""event"",""trial"",""time""
""focus"",""0"",""5""
","""event"",""trial"",""time""
""fullscreenenter"",""1"",""4878""
","
","true","false","[]","[]","[]","","","","","","","","","","","","","","","",""
"audio-keyboard-response","3","15018","0.0-3.0","6410","2","11","Female","approach_avoid_spark_v1","""event"",""trial"",""time""
""focus"",""0"",""5""
""fullscreenenter"",""1"",""4878""
","
","""event"",""trial"",""time""
""focus"",""0"",""5""
","""event"",""trial"",""time""
""fullscreenenter"",""1"",""4878""
","
","","","","","","3298.6666666666674","audio/beep_loop.wav"," ","","","","","","","","","","","","",""
"audio-button-response","4","16589","0.0-4.0","6410","2","11","Female","approach_avoid_spark_v1","""event"",""trial"",""time""
""focus"",""0"",""5""
""fullscreenenter"",""1"",""4878""
","
","""event"",""trial"",""time""
""focus"",""0"",""5""
","""event"",""trial"",""time""
""fullscreenenter"",""1"",""4878""
","
","","","","","","1571","audio/shark.wav","4","","","","","","","","","","","","",""
"audio-button-response","5","18796","0.0-5.0","6410","2","11","Female","approach_avoid_spark_v1","""event"",""trial"",""time""
""focus"",""0"",""5""
""fullscreenenter"",""1"",""4878""
","
","""event"",""trial"",""time""
""focus"",""0"",""5""
","""event"",""trial"",""time""
""fullscreenenter"",""1"",""4878""
","
","","","","","","1200","audio/turtle.wav","1","","","","","","","","","","","","",""
"preload","6","22204","0.0-6.0","6410","2","11","Female","approach_avoid_spark_v1","""event"",""trial"",""time""
""focus"",""0"",""5""
""fullscreenenter"",""1"",""4878""
","
","""event"",""trial"",""time""
""focus"",""0"",""5""
","""event"",""trial"",""time""
""fullscreenenter"",""1"",""4878""
","
","true","false","[]","[]","[]","","","","","","","","","","","","","","","",""
"html-keyboard-response","7","23646","0.0-7.0","6410","2","11","Female","approach_avoid_spark_v1","""event"",""trial"",""time""
""focus"",""0"",""5""
""fullscreenenter"",""1"",""4878""
","
","""event"",""trial"",""time""
""focus"",""0"",""5""
","""event"",""trial"",""time""
""fullscreenenter"",""1"",""4878""
","
","","","","","","1441","Welcome to the experiment. Press any key to begin and to advance the instructions.","audiovolumeup","","","","","","","","","","","","",""
"learning-instructions","8","31765","0.0-8.0-0.0-0.0","6410","2","11","Female","approach_avoid_spark_v1","""event"",""trial"",""time""
""focus"",""0"",""5""
""fullscreenenter"",""1"",""4878""
","
","""event"",""trial"",""time""
""focus"",""0"",""5""
","""event"",""trial"",""time""
""fullscreenenter"",""1"",""4878""
","
","","","","","","1151","<p> Welcome! Today you are going to play 6 different rounds of a decision-making game. </p><p> Use the mouse to click next to continue. </p>","","0","instructions","","","","","","","","","","",""
"learning-instructions","9","36012","0.0-8.0-0.0-0.1","6410","2","11","Female","approach_avoid_spark_v1","""event"",""trial"",""time""
""focus"",""0"",""5""
""fullscreenenter"",""1"",""4878""
","
","""event"",""trial"",""time""
""focus"",""0"",""5""
","""event"",""trial"",""time""
""fullscreenenter"",""1"",""4878""
","
","","","","","","1490","<p> You will start with a practice round to learn the rules. </p>","","0","instructions","","","","","","","","","","",""
"learning-instructions","10","40452","0.0-8.0-0.0-0.2","6410","2","11","Female","approach_avoid_spark_v1","""event"",""trial"",""time""
""focus"",""0"",""5""
""fullscreenenter"",""1"",""4878""
","
","""event"",""trial"",""time""
""focus"",""0"",""5""
","""event"",""trial"",""time""
""fullscreenenter"",""1"",""4878""
","
","","","","","","960","<p> Your goal in this round is to give out sports equipment to kids. </p></div>","","0","instructions","","","","","","","","","","",""
"learning-instructions","11","48956","0.0-8.0-0.0-0.3","6410","2","11","Female","approach_avoid_spark_v1","""event"",""trial"",""time""
""focus"",""0"",""5""
""fullscreenenter"",""1"",""4878""
","
","""event"",""trial"",""time""
""focus"",""0"",""5""
","""event"",""trial"",""time""
""fullscreenenter"",""1"",""4878""
","
","","","","","","924","<p> The kids only like some of the equipment.  </p><p> On each turn, you will see a piece of sports equipment.   </p><p> You need to decide whether to give it to the kids or not.  </p>","","0","instructions","","","","","","","","","","",""
"learning-instructions","12","54707","0.0-8.0-0.0-0.4","6410","2","11","Female","approach_avoid_spark_v1","""event"",""trial"",""time""
""focus"",""0"",""5""
""fullscreenenter"",""1"",""4878""
","
","""event"",""trial"",""time""
""focus"",""0"",""5""
","""event"",""trial"",""time""
""fullscreenenter"",""1"",""4878""
","
","","","","","","976","<p> You can give them the equipment by pressing 1 and choose not to give it to them by pressing 0. </p><br><div class=""choice-instructions-grid""> <div class=""choice-option""><img src=""images/approach.png"" class=""choice-option-img"" stage=""instructions"" position=""0"" ><div class=""choice-option-text""> Press ""1."" </div></div><div class=""choice-option""><img src=""images/avoid.png"" class=""choice-option-img"" stage=""instructions"" position=""1"" ><div class=""choice-option-text""> Press ""0."" </div></div>","","0","instructions","","","","","","","","","","",""
"learning-instructions","13","64164","0.0-8.0-0.0-0.5","6410","2","11","Female","approach_avoid_spark_v1","""event"",""trial"",""time""
""focus"",""0"",""5""
""fullscreenenter"",""1"",""4878""
","
","""event"",""trial"",""time""
""focus"",""0"",""5""
","""event"",""trial"",""time""
""fullscreenenter"",""1"",""4878""
","
","","","","","","2051","<p> If you give them a piece of equipment they like, they will be happy! </p><p> But if you give them a piece of equipment they do not like, they will be sad. </p>","","0","instructions","","","","","","","","","","",""
"learning-instructions","14","75292","0.0-8.0-0.0-0.6","6410","2","11","Female","approach_avoid_spark_v1","""event"",""trial"",""time""
""focus"",""0"",""5""
""fullscreenenter"",""1"",""4878""
","
","""event"",""trial"",""time""
""focus"",""0"",""5""
","""event"",""trial"",""time""
""fullscreenenter"",""1"",""4878""
","
","","","","","","591","<p> You will earn points based on how you make kids feel. </p><p> If you make them happy, you will WIN anywhere from 1 - 9 points, </p><p> but if you make them sad, you will LOSE anywhere from 1 - 9 points. </p>","","0","instructions","","","","","","","","","","",""
"learning-instructions","15","85540","0.0-8.0-0.0-0.7","6410","2","11","Female","approach_avoid_spark_v1","""event"",""trial"",""time""
""focus"",""0"",""5""
""fullscreenenter"",""1"",""4878""
","
","""event"",""trial"",""time""
""focus"",""0"",""5""
","""event"",""trial"",""time""
""fullscreenenter"",""1"",""4878""
","
","","","","","","677","<p> You will see how many points you won or lost in the center of the screen. </p><p> Here is what you would see if you won 6 points: </p><p style=""color:green;font-size:50px;font-weight:bolder"">6</p><p style=""color:green"">The text is GREEN because you WON points.</p>","","0","instructions","","","","","","","","","","",""
"learning-instructions","16","91796","0.0-8.0-0.0-0.8","6410","2","11","Female","approach_avoid_spark_v1","""event"",""trial"",""time""
""focus"",""0"",""5""
""fullscreenenter"",""1"",""4878""
","
","""event"",""trial"",""time""
""focus"",""0"",""5""
","""event"",""trial"",""time""
""fullscreenenter"",""1"",""4878""
","
","","","","","","723","<p> And here is what you would see if you lost 4 points: </p><p style=""color:red;font-size:50px;font-weight:bolder"">-4</p><p style=""color:red"">The text is RED because you LOST points. </p>","","0","instructions","","","","","","","","","","",""
"learning-instructions","17","107236","0.0-8.0-0.0-0.9","6410","2","11","Female","approach_avoid_spark_v1","""event"",""trial"",""time""
""focus"",""0"",""5""
""fullscreenenter"",""1"",""4878""
","
","""event"",""trial"",""time""
""focus"",""0"",""5""
","""event"",""trial"",""time""
""fullscreenenter"",""1"",""4878""
","
","","","","","","714","<p> Some of the equipment will make the kids VERY happy or sad. </p><p> These pieces of equipment will make you win or lose LOTS of points. </p><p> Other pieces of equipment will only make the kids a little happy or sad. </p><p> These pieces of equipment will make you win or lose small amounts of points. </p>","","0","instructions","","","","","","","","","","",""
"learning-instructions","18","118764","0.0-8.0-0.0-0.10","6410","2","11","Female","approach_avoid_spark_v1","""event"",""trial"",""time""
""focus"",""0"",""5""
""fullscreenenter"",""1"",""4878""
","
","""event"",""trial"",""time""
""focus"",""0"",""5""
","""event"",""trial"",""time""
""fullscreenenter"",""1"",""4878""
","
","","","","","","892","<p> If you choose not to give them the equipment, you will not win or lose any points. </p><p>  However, in the center of the screen, you will see the number of points you WOULD HAVE won or lost if you had given them the equipment. </p>","","0","instructions","","","","","","","","","","",""
"learning-instructions","19","141267","0.0-8.0-0.0-0.11","6410","2","11","Female","approach_avoid_spark_v1","""event"",""trial"",""time""
""focus"",""0"",""5""
""fullscreenenter"",""1"",""4878""
","
","""event"",""trial"",""time""
""focus"",""0"",""5""
","""event"",""trial"",""time""
""fullscreenenter"",""1"",""4878""
","
","","","","","","956","<p> Here is what you might see if you did not give the equipment to the kids but it would have made them happy: </p><p style=""color:grey; font-size:50px; display: inline-block; border-spacing: 15px; border-width:3px; border-style:solid; border-color:red"">  &nbsp; 7 &nbsp; </p><p> Remember, in this case, you would not win or lose ANY points because you did not give them the equipment.  </p><p style=""color:grey"">The text is GREY because you earned ZERO points. </p><p style=""color:red"">However, choosing to give the kids the equipment would have made you win points. The box around the text is RED because you chose the worse option. </p>","","0","instructions","","","","","","","","","","",""
"learning-instructions","20","163379","0.0-8.0-0.0-0.12","6410","2","11","Female","approach_avoid_spark_v1","""event"",""trial"",""time""
""focus"",""0"",""5""
""fullscreenenter"",""1"",""4878""
","
","""event"",""trial"",""time""
""focus"",""0"",""5""
","""event"",""trial"",""time""
""fullscreenenter"",""1"",""4878""
","
","","","","","","1027","<p> Here is what you might see if you did not give the equipment to the kids but it would have made them sad: </p><p style=""color:grey;font-size:50px; display: inline-block; border-spacing: 15px; border-width:3px; border-style:solid; border-color:green"">  &nbsp; -8 &nbsp; </p><p> Remember, in this case, you would not win or lose ANY points because you did not give them the equipment.  </p><p style=""color:grey"">The text is GREY because you earned ZERO points. </p><p  style=""color:green""> Choosing to give the kids the equipment would have made you lose points. The box around the text is GREEN because you chose the better option.</p>","","0","instructions","","","","","","","","","","",""
"learning-instructions","21","173738","0.0-8.0-0.0-0.13","6410","2","11","Female","approach_avoid_spark_v1","""event"",""trial"",""time""
""focus"",""0"",""5""
""fullscreenenter"",""1"",""4878""
","
","""event"",""trial"",""time""
""focus"",""0"",""5""
","""event"",""trial"",""time""
""fullscreenenter"",""1"",""4878""
","
","","","","","","1248","<p> You will have 3 seconds to make each choice. Try to respond before time runs out! </p><p> You will lose 5 points each time you do not make a response. </p>","","0","instructions","","","","","","","","","","",""
"learning-instructions","22","180155","0.0-8.0-0.0-0.14","6410","2","11","Female","approach_avoid_spark_v1","""event"",""trial"",""time""
""focus"",""0"",""5""
""fullscreenenter"",""1"",""4878""
","
","""event"",""trial"",""time""
""focus"",""0"",""5""
","""event"",""trial"",""time""
""fullscreenenter"",""1"",""4878""
","
","","","","","","994","<p> This is just a practice round, but in the real game, your bonus payment will depend on your total number of points.","","0","instructions","","","","","","","","","","",""
"learning-instructions","23","187883","0.0-8.0-0.0-0.15","6410","2","11","Female","approach_avoid_spark_v1","""event"",""trial"",""time""
""focus"",""0"",""5""
""fullscreenenter"",""1"",""4878""
","
","""event"",""trial"",""time""
""focus"",""0"",""5""
","""event"",""trial"",""time""
""fullscreenenter"",""1"",""4878""
","
","","","","","","1961","<p> Remember, you can give them the equipment by pressing 1 and choose not to give it to them by pressing 0. </p><br><div class=""choice-instructions-grid""> <div class=""choice-option""><img src=""images/approach.png"" class=""choice-option-img"" stage=""instructions"" position=""0"" ><div class=""choice-option-text""> Press ""1."" </div></div><div class=""choice-option""><img src=""images/avoid.png"" class=""choice-option-img"" stage=""instructions"" position=""1"" ><div class=""choice-option-text""> Press ""0."" </div></div>","","0","instructions","","","","","","","","","","",""
"html-button-response","24","189754","0.0-8.0-1.0","6410","2","11","Female","approach_avoid_spark_v1","""event"",""trial"",""time""
""focus"",""0"",""5""
""fullscreenenter"",""1"",""4878""
","
","""event"",""trial"",""time""
""focus"",""0"",""5""
","""event"",""trial"",""time""
""fullscreenenter"",""1"",""4878""
","
","","","","","","1754","<p> Ready to practice? </p>","0","","","","","","","","","","","","",""
"html-keyboard-response","25","190379","0.0-8.0-2.0-0.0","6410","2","11","Female","approach_avoid_spark_v1","""event"",""trial"",""time""
""focus"",""0"",""5""
""fullscreenenter"",""1"",""4878""
","
","""event"",""trial"",""time""
""focus"",""0"",""5""
","""event"",""trial"",""time""
""fullscreenenter"",""1"",""4878""
","
","","","","","","null","<div style=""font-size:60px;"">+</div>","null","","fixation","","","","","","","","","","",""
"aa-learning-trial","26","193399","0.0-8.0-2.0-1.0","6410","2","11","Female","approach_avoid_spark_v1","""event"",""trial"",""time""
""focus"",""0"",""5""
""fullscreenenter"",""1"",""4878""
","
","""event"",""trial"",""time""
""focus"",""0"",""5""
","""event"",""trial"",""time""
""fullscreenenter"",""1"",""4878""
","
","","","","","","1874","images/ball2.png","","","learning","6","6","1","1","practice","practice","practice","-1","","",""
"html-keyboard-response","27","193920","0.0-8.0-2.0-0.1","6410","2","11","Female","approach_avoid_spark_v1","""event"",""trial"",""time""
""focus"",""0"",""5""
""fullscreenenter"",""1"",""4878""
","
","""event"",""trial"",""time""
""focus"",""0"",""5""
","""event"",""trial"",""time""
""fullscreenenter"",""1"",""4878""
","
","","","","","","null","<div style=""font-size:60px;"">+</div>","null","","fixation","","","","","","","","","","",""
"aa-learning-trial","28","196930","0.0-8.0-2.0-1.1","6410","2","11","Female","approach_avoid_spark_v1","""event"",""trial"",""time""
""focus"",""0"",""5""
""fullscreenenter"",""1"",""4878""
","
","""event"",""trial"",""time""
""focus"",""0"",""5""
","""event"",""trial"",""time""
""fullscreenenter"",""1"",""4878""
","
","","","","","","1563","images/racket1.png","","","learning","-4","-4","1","1","practice","practice","practice","-1","","",""
"html-keyboard-response","29","197449","0.0-8.0-2.0-0.2","6410","2","11","Female","approach_avoid_spark_v1","""event"",""trial"",""time""
""focus"",""0"",""5""
""fullscreenenter"",""1"",""4878""
","
","""event"",""trial"",""time""
""focus"",""0"",""5""
","""event"",""trial"",""time""
""fullscreenenter"",""1"",""4878""
","
","","","","","","null","<div style=""font-size:60px;"">+</div>","null","","fixation","","","","","","","","","","",""
"aa-learning-trial","30","200470","0.0-8.0-2.0-1.2","6410","2","11","Female","approach_avoid_spark_v1","""event"",""trial"",""time""
""focus"",""0"",""5""
""fullscreenenter"",""1"",""4878""
","
","""event"",""trial"",""time""
""focus"",""0"",""5""
","""event"",""trial"",""time""
""fullscreenenter"",""1"",""4878""
","
","","","","","","821","images/racket1.png","","","learning","-6","0","0","0","practice","practice","practice","-1","","",""
"html-keyboard-response","31","200989","0.0-8.0-2.0-0.3","6410","2","11","Female","approach_avoid_spark_v1","""event"",""trial"",""time""
""focus"",""0"",""5""
""fullscreenenter"",""1"",""4878""
","
","""event"",""trial"",""time""
""focus"",""0"",""5""
","""event"",""trial"",""time""
""fullscreenenter"",""1"",""4878""
","
","","","","","","null","<div style=""font-size:60px;"">+</div>","null","","fixation","","","","","","","","","","",""
"aa-learning-trial","32","204000","0.0-8.0-2.0-1.3","6410","2","11","Female","approach_avoid_spark_v1","""event"",""trial"",""time""
""focus"",""0"",""5""
""fullscreenenter"",""1"",""4878""
","
","""event"",""trial"",""time""
""focus"",""0"",""5""
","""event"",""trial"",""time""
""fullscreenenter"",""1"",""4878""
","
","","","","","","1065","images/racket3.png","","","learning","-4","0","0","0","practice","practice","practice","-1","","",""
"html-keyboard-response","33","204509","0.0-8.0-2.0-0.4","6410","2","11","Female","approach_avoid_spark_v1","""event"",""trial"",""time""
""focus"",""0"",""5""
""fullscreenenter"",""1"",""4878""
","
","""event"",""trial"",""time""
""focus"",""0"",""5""
","""event"",""trial"",""time""
""fullscreenenter"",""1"",""4878""
","
","","","","","","null","<div style=""font-size:60px;"">+</div>","null","","fixation","","","","","","","","","","",""
"aa-learning-trial","34","207530","0.0-8.0-2.0-1.4","6410","2","11","Female","approach_avoid_spark_v1","""event"",""trial"",""time""
""focus"",""0"",""5""
""fullscreenenter"",""1"",""4878""
","
","""event"",""trial"",""time""
""focus"",""0"",""5""
","""event"",""trial"",""time""
""fullscreenenter"",""1"",""4878""
","
","","","","","","796","images/ball2.png","","","learning","4","4","1","1","practice","practice","practice","-1","","",""
"html-keyboard-response","35","208049","0.0-8.0-2.0-0.5","6410","2","11","Female","approach_avoid_spark_v1","""event"",""trial"",""time""
""focus"",""0"",""5""
""fullscreenenter"",""1"",""4878""
","
","""event"",""trial"",""time""
""focus"",""0"",""5""
","""event"",""trial"",""time""
""fullscreenenter"",""1"",""4878""
","
","","","","","","null","<div style=""font-size:60px;"">+</div>","null","","fixation","","","","","","","","","","",""
"aa-learning-trial","36","211070","0.0-8.0-2.0-1.5","6410","2","11","Female","approach_avoid_spark_v1","""event"",""trial"",""time""
""focus"",""0"",""5""
""fullscreenenter"",""1"",""4878""
","
","""event"",""trial"",""time""
""focus"",""0"",""5""
","""event"",""trial"",""time""
""fullscreenenter"",""1"",""4878""
","
","","","","","","713","images/racket2.png","","","learning","1","0","0","0","practice","practice","practice","-1","","",""
"html-keyboard-response","37","211580","0.0-8.0-2.0-0.6","6410","2","11","Female","approach_avoid_spark_v1","""event"",""trial"",""time""
""focus"",""0"",""5""
""fullscreenenter"",""1"",""4878""
","
","""event"",""trial"",""time""
""focus"",""0"",""5""
","""event"",""trial"",""time""
""fullscreenenter"",""1"",""4878""
","
","","","","","","null","<div style=""font-size:60px;"">+</div>","null","","fixation","","","","","","","","","","",""
"aa-learning-trial","38","214599","0.0-8.0-2.0-1.6","6410","2","11","Female","approach_avoid_spark_v1","""event"",""trial"",""time""
""focus"",""0"",""5""
""fullscreenenter"",""1"",""4878""
","
","""event"",""trial"",""time""
""focus"",""0"",""5""
","""event"",""trial"",""time""
""fullscreenenter"",""1"",""4878""
","
","","","","","","700","images/ball4.png","","","learning","7","7","1","1","practice","practice","practice","-1","","",""
"html-keyboard-response","39","215119","0.0-8.0-2.0-0.7","6410","2","11","Female","approach_avoid_spark_v1","""event"",""trial"",""time""
""focus"",""0"",""5""
""fullscreenenter"",""1"",""4878""
","
","""event"",""trial"",""time""
""focus"",""0"",""5""
","""event"",""trial"",""time""
""fullscreenenter"",""1"",""4878""
","
","","","","","","null","<div style=""font-size:60px;"">+</div>","null","","fixation","","","","","","","","","","",""
"aa-learning-trial","40","218139","0.0-8.0-2.0-1.7","6410","2","11","Female","approach_avoid_spark_v1","""event"",""trial"",""time""
""focus"",""0"",""5""
""fullscreenenter"",""1"",""4878""
","
","""event"",""trial"",""time""
""focus"",""0"",""5""
","""event"",""trial"",""time""
""fullscreenenter"",""1"",""4878""
","
","","","","","","874","images/ball3.png","","","learning","2","2","1","1","practice","practice","practice","-1","","",""
"html-keyboard-response","41","218659","0.0-8.0-2.0-0.8","6410","2","11","Female","approach_avoid_spark_v1","""event"",""trial"",""time""
""focus"",""0"",""5""
""fullscreenenter"",""1"",""4878""
","
","""event"",""trial"",""time""
""focus"",""0"",""5""
","""event"",""trial"",""time""
""fullscreenenter"",""1"",""4878""
","
","","","","","","null","<div style=""font-size:60px;"">+</div>","null","","fixation","","","","","","","","","","",""
"aa-learning-trial","42","221670","0.0-8.0-2.0-1.8","6410","2","11","Female","approach_avoid_spark_v1","""event"",""trial"",""time""
""focus"",""0"",""5""
""fullscreenenter"",""1"",""4878""
","
","""event"",""trial"",""time""
""focus"",""0"",""5""
","""event"",""trial"",""time""
""fullscreenenter"",""1"",""4878""
","
","","","","","","594","images/racket1.png","","","learning","7","0","0","0","practice","practice","practice","-1","","",""
"html-keyboard-response","43","222188","0.0-8.0-2.0-0.9","6410","2","11","Female","approach_avoid_spark_v1","""event"",""trial"",""time""
""focus"",""0"",""5""
""fullscreenenter"",""1"",""4878""
","
","""event"",""trial"",""time""
""focus"",""0"",""5""
","""event"",""trial"",""time""
""fullscreenenter"",""1"",""4878""
","
","","","","","","null","<div style=""font-size:60px;"">+</div>","null","","fixation","","","","","","","","","","",""
"aa-learning-trial","44","225209","0.0-8.0-2.0-1.9","6410","2","11","Female","approach_avoid_spark_v1","""event"",""trial"",""time""
""focus"",""0"",""5""
""fullscreenenter"",""1"",""4878""
","
","""event"",""trial"",""time""
""focus"",""0"",""5""
","""event"",""trial"",""time""
""fullscreenenter"",""1"",""4878""
","
","","","","","","531","images/ball4.png","","","learning","-8","-8","1","1","practice","practice","practice","-1","","",""
"html-keyboard-response","45","225728","0.0-8.0-2.0-0.10","6410","2","11","Female","approach_avoid_spark_v1","""event"",""trial"",""time""
""focus"",""0"",""5""
""fullscreenenter"",""1"",""4878""
","
","""event"",""trial"",""time""
""focus"",""0"",""5""
","""event"",""trial"",""time""
""fullscreenenter"",""1"",""4878""
","
","","","","","","null","<div style=""font-size:60px;"">+</div>","null","","fixation","","","","","","","","","","",""
"aa-learning-trial","46","228739","0.0-8.0-2.0-1.10","6410","2","11","Female","approach_avoid_spark_v1","""event"",""trial"",""time""
""focus"",""0"",""5""
""fullscreenenter"",""1"",""4878""
","
","""event"",""trial"",""time""
""focus"",""0"",""5""
","""event"",""trial"",""time""
""fullscreenenter"",""1"",""4878""
","
","","","","","","1070","images/ball4.png","","","learning","-8","-8","1","1","practice","practice","practice","-1","","",""
"html-keyboard-response","47","229258","0.0-8.0-2.0-0.11","6410","2","11","Female","approach_avoid_spark_v1","""event"",""trial"",""time""
""focus"",""0"",""5""
""fullscreenenter"",""1"",""4878""
","
","""event"",""trial"",""time""
""focus"",""0"",""5""
","""event"",""trial"",""time""
""fullscreenenter"",""1"",""4878""
","
","","","","","","null","<div style=""font-size:60px;"">+</div>","null","","fixation","","","","","","","","","","",""
"aa-learning-trial","48","232280","0.0-8.0-2.0-1.11","6410","2","11","Female","approach_avoid_spark_v1","""event"",""trial"",""time""
""focus"",""0"",""5""
""fullscreenenter"",""1"",""4878""
","
","""event"",""trial"",""time""
""focus"",""0"",""5""
","""event"",""trial"",""time""
""fullscreenenter"",""1"",""4878""
","
","","","","","","996","images/racket2.png","","","learning","1","0","0","0","practice","practice","practice","-1","","",""
"html-button-response","49","235722","0.0-8.0-3.0","6410","2","11","Female","approach_avoid_spark_v1","""event"",""trial"",""time""
""focus"",""0"",""5""
""fullscreenenter"",""1"",""4878""
","
","""event"",""trial"",""time""
""focus"",""0"",""5""
","""event"",""trial"",""time""
""fullscreenenter"",""1"",""4878""
","
","","","","","","3439","<p> You earned -1 points in the practice round! </p>","0","","break","","","","","","","","","","",""
"learning-instructions","50","243042","0.0-8.0-4.0-0.0","6410","2","11","Female","approach_avoid_spark_v1","""event"",""trial"",""time""
""focus"",""0"",""5""
""fullscreenenter"",""1"",""4878""
","
","""event"",""trial"",""time""
""focus"",""0"",""5""
","""event"",""trial"",""time""
""fullscreenenter"",""1"",""4878""
","
","","","","","","1353","<p> It's almost time to start the real game. </p><p> Before you start, we're going to ask you a few questions about how the game works. </p>","","0","instructions","","","","","","","","","","",""
"preload","51","244492","0.0-8.0-5.0","6410","2","11","Female","approach_avoid_spark_v1","""event"",""trial"",""time""
""focus"",""0"",""5""
""fullscreenenter"",""1"",""4878""
","
","""event"",""trial"",""time""
""focus"",""0"",""5""
","""event"",""trial"",""time""
""fullscreenenter"",""1"",""4878""
","
","true","false","[]","[]","[]","","","","","","","","","","","","","","","",""
"comp-q","52","251122","0.0-8.0-6.0-0.0","6410","2","11","Female","approach_avoid_spark_v1","""event"",""trial"",""time""
""focus"",""0"",""5""
""fullscreenenter"",""1"",""4878""
","
","""event"",""trial"",""time""
""focus"",""0"",""5""
","""event"",""trial"",""time""
""fullscreenenter"",""1"",""4878""
","
","","","","","","1621","<p> <b> True or False? </b> </p><p> If you see a number in GREY, that means you earned that many points. </p>","","1","comp_question","","","","","","","","","true","",""
"comp-q","53","260618","0.0-8.0-6.0-1.0","6410","2","11","Female","approach_avoid_spark_v1","""event"",""trial"",""time""
""focus"",""0"",""5""
""fullscreenenter"",""1"",""4878""
","
","""event"",""trial"",""time""
""focus"",""0"",""5""
","""event"",""trial"",""time""
""fullscreenenter"",""1"",""4878""
","
","","","","","","1108","<p><b> That's right! </b> If you see a grey number, it means you earned ZERO points. <br> The grey numbers show the points you WOULD HAVE earned if you had made the other choice. </p>","","0","comp_answer","","","","","","","","","","",""
"comp-q","54","266058","0.0-8.0-7.0-0.0","6410","2","11","Female","approach_avoid_spark_v1","""event"",""trial"",""time""
""focus"",""0"",""5""
""fullscreenenter"",""1"",""4878""
","
","""event"",""trial"",""time""
""focus"",""0"",""5""
","""event"",""trial"",""time""
""fullscreenenter"",""1"",""4878""
","
","","","","","","718","<p> <b> True or False? </b> </p><p> You will have as much time as you want to make each choice. </p>","","1","comp_question","","","","","","","","","true","",""
"comp-q","55","271314","0.0-8.0-7.0-1.0","6410","2","11","Female","approach_avoid_spark_v1","""event"",""trial"",""time""
""focus"",""0"",""5""
""fullscreenenter"",""1"",""4878""
","
","""event"",""trial"",""time""
""focus"",""0"",""5""
","""event"",""trial"",""time""
""fullscreenenter"",""1"",""4878""
","
","","","","","","1193","<p> <b> That's right! </b> You will only have 3 seconds to make each choice. </p>","","0","comp_answer","","","","","","","","","","",""
"comp-q","56","276418","0.0-8.0-8.0-0.0","6410","2","11","Female","approach_avoid_spark_v1","""event"",""trial"",""time""
""focus"",""0"",""5""
""fullscreenenter"",""1"",""4878""
","
","""event"",""trial"",""time""
""focus"",""0"",""5""
","""event"",""trial"",""time""
""fullscreenenter"",""1"",""4878""
","
","","","","","","429","<p> <b> True or False? </b> </p><p> You should use the '1' and '0' keys to make your choices. </p>","","0","comp_question","","","","","","","","","true","",""
"comp-q","57","281969","0.0-8.0-8.0-1.0","6410","2","11","Female","approach_avoid_spark_v1","""event"",""trial"",""time""
""focus"",""0"",""5""
""fullscreenenter"",""1"",""4878""
","
","""event"",""trial"",""time""
""focus"",""0"",""5""
","""event"",""trial"",""time""
""fullscreenenter"",""1"",""4878""
","
","","","","","","910","<p> <b> That's right! </b> You should use the '1' and '0' keys to make each choice. </p>","","0","comp_answer","","","","","","","","","","",""
"learning-instructions","58","289513","0.0-8.0-9.0-0.0","6410","2","11","Female","approach_avoid_spark_v1","""event"",""trial"",""time""
""focus"",""0"",""5""
""fullscreenenter"",""1"",""4878""
","
","""event"",""trial"",""time""
""focus"",""0"",""5""
","""event"",""trial"",""time""
""fullscreenenter"",""1"",""4878""
","
","","","","","","1254","<p> It's now time to start the real game. </p>Do your best, because the points you earn in the next rounds will influence your bonus payment. </p>","","0","instructions","","","","","","","","","","",""
"preload","59","289650","0.0-9.0-0.0","6410","2","11","Female","approach_avoid_spark_v1","""event"",""trial"",""time""
""focus"",""0"",""5""
""fullscreenenter"",""1"",""4878""
","
","""event"",""trial"",""time""
""focus"",""0"",""5""
","""event"",""trial"",""time""
""fullscreenenter"",""1"",""4878""
","
","true","false","[]","[]","[]","","","","","","","","","","","","","","","",""
"learning-instructions","60","295393","0.0-9.0-1.0-0.0","6410","2","11","Female","approach_avoid_spark_v1","""event"",""trial"",""time""
""focus"",""0"",""5""
""fullscreenenter"",""1"",""4878""
","
","""event"",""trial"",""time""
""focus"",""0"",""5""
","""event"",""trial"",""time""
""fullscreenenter"",""1"",""4878""
","
","","","","","","1954","<p> Your goal in this round is to take care of lots of animals. </p></div>","","0","instructions","","","","","","","","","","",""
"learning-instructions","61","305561","0.0-9.0-1.0-0.1","6410","2","11","Female","approach_avoid_spark_v1","""event"",""trial"",""time""
""focus"",""0"",""5""
""fullscreenenter"",""1"",""4878""
","
","""event"",""trial"",""time""
""focus"",""0"",""5""
","""event"",""trial"",""time""
""fullscreenenter"",""1"",""4878""
","
","","","","","","761","<p> Some animals want to be pet, while other animals want to be left alone.  </p><p> On each turn, you will see an animal.   </p><p> You need to decide whether to pet it or not.  </p>","","0","instructions","","","","","","","","","","",""
"learning-instructions","62","311297","0.0-9.0-1.0-0.2","6410","2","11","Female","approach_avoid_spark_v1","""event"",""trial"",""time""
""focus"",""0"",""5""
""fullscreenenter"",""1"",""4878""
","
","""event"",""trial"",""time""
""focus"",""0"",""5""
","""event"",""trial"",""time""
""fullscreenenter"",""1"",""4878""
","
","","","","","","668","<p> You can pet the animal by pressing 1 and leave the animal alone by pressing 0. </p><br><div class=""choice-instructions-grid""> <div class=""choice-option""><img src=""images/approach.png"" class=""choice-option-img"" stage=""instructions"" position=""0"" ><div class=""choice-option-text""> Press ""1."" </div></div><div class=""choice-option""><img src=""images/avoid.png"" class=""choice-option-img"" stage=""instructions"" position=""1"" ><div class=""choice-option-text""> Press ""0."" </div></div>","","0","instructions","","","","","","","","","","",""
"learning-instructions","63","320778","0.0-9.0-1.0-0.3","6410","2","11","Female","approach_avoid_spark_v1","""event"",""trial"",""time""
""focus"",""0"",""5""
""fullscreenenter"",""1"",""4878""
","
","""event"",""trial"",""time""
""focus"",""0"",""5""
","""event"",""trial"",""time""
""fullscreenenter"",""1"",""4878""
","
","","","","","","827","<p> If you pet an animal that wants to be pet, you will make it feel happy! </p><p> But if you pet an animal that wants to be left alone, you will make it feel angry. </p>","","0","instructions","","","","","","","","","","",""
"learning-instructions","64","333561","0.0-9.0-1.0-0.4","6410","2","11","Female","approach_avoid_spark_v1","""event"",""trial"",""time""
""focus"",""0"",""5""
""fullscreenenter"",""1"",""4878""
","
","""event"",""trial"",""time""
""focus"",""0"",""5""
","""event"",""trial"",""time""
""fullscreenenter"",""1"",""4878""
","
","","","","","","592","<p> You will earn points based on how you made the animal feel. </p><p> If you made it feel happy, you will WIN anywhere from 1 - 9 points, </p><p> but if you made it feel angry, you will LOSE anywhere from 1 - 9 points. </p>","","0","instructions","","","","","","","","","","",""
"learning-instructions","65","341705","0.0-9.0-1.0-0.5","6410","2","11","Female","approach_avoid_spark_v1","""event"",""trial"",""time""
""focus"",""0"",""5""
""fullscreenenter"",""1"",""4878""
","
","""event"",""trial"",""time""
""focus"",""0"",""5""
","""event"",""trial"",""time""
""fullscreenenter"",""1"",""4878""
","
","","","","","","637","<p> You will see how many points you won or lost in the center of the screen. </p><p> Here is what you would see if you won 5 points: </p><p style=""color:green;font-size:50px;font-weight:bolder"">5</p>","","0","instructions","","","","","","","","","","",""
"learning-instructions","66","345825","0.0-9.0-1.0-0.6","6410","2","11","Female","approach_avoid_spark_v1","""event"",""trial"",""time""
""focus"",""0"",""5""
""fullscreenenter"",""1"",""4878""
","
","""event"",""trial"",""time""
""focus"",""0"",""5""
","""event"",""trial"",""time""
""fullscreenenter"",""1"",""4878""
","
","","","","","","695","<p> And here is what you would see if you lost 3 points: </p><p style=""color:red;font-size:50px;font-weight:bolder"">-3</p>","","0","instructions","","","","","","","","","","",""
"learning-instructions","67","360329","0.0-9.0-1.0-0.7","6410","2","11","Female","approach_avoid_spark_v1","""event"",""trial"",""time""
""focus"",""0"",""5""
""fullscreenenter"",""1"",""4878""
","
","""event"",""trial"",""time""
""focus"",""0"",""5""
","""event"",""trial"",""time""
""fullscreenenter"",""1"",""4878""
","
","","","","","","920","<p> Some animals will become very happy or very angry. </p><p> These animals will make you win or lose LOTS of points. </p><p> Other animals have less strong feelings. </p><p> These animals will make you win or lose small amounts of points. </p>","","0","instructions","","","","","","","","","","",""
"learning-instructions","68","372872","0.0-9.0-1.0-0.8","6410","2","11","Female","approach_avoid_spark_v1","""event"",""trial"",""time""
""focus"",""0"",""5""
""fullscreenenter"",""1"",""4878""
","
","""event"",""trial"",""time""
""focus"",""0"",""5""
","""event"",""trial"",""time""
""fullscreenenter"",""1"",""4878""
","
","","","","","","995","<p> If you choose to leave the animal alone, you will not win or lose any points. </p><p>  However, in the center of the screen, you will see the number of points you WOULD HAVE won or lost if you had pet the animal. </p>","","0","instructions","","","","","","","","","","",""
"learning-instructions","69","385169","0.0-9.0-1.0-0.9","6410","2","11","Female","approach_avoid_spark_v1","""event"",""trial"",""time""
""focus"",""0"",""5""
""fullscreenenter"",""1"",""4878""
","
","""event"",""trial"",""time""
""focus"",""0"",""5""
","""event"",""trial"",""time""
""fullscreenenter"",""1"",""4878""
","
","","","","","","820","<p> Here is what you might see if you did not pet the animal but the animal wanted to be pet: </p><p style=""color:grey; font-size:50px; display: inline-block; border-spacing: 15px; border-width:3px; border-style:solid; border-color:red"">  &nbsp; 6 &nbsp; </p><p> Remember, in this case, you would not win or lose ANY points because you did not pet the animal.  </p>","","0","instructions","","","","","","","","","","",""
"learning-instructions","70","392704","0.0-9.0-1.0-0.10","6410","2","11","Female","approach_avoid_spark_v1","""event"",""trial"",""time""
""focus"",""0"",""5""
""fullscreenenter"",""1"",""4878""
","
","""event"",""trial"",""time""
""focus"",""0"",""5""
","""event"",""trial"",""time""
""fullscreenenter"",""1"",""4878""
","
","","","","","","546","<p> Try to make the best choice for each animal because </p><p> at the end of the game, you will earn bonus money based on how many points you earned. </p>","","0","instructions","","","","","","","","","","",""
"learning-instructions","71","401696","0.0-9.0-1.0-0.11","6410","2","11","Female","approach_avoid_spark_v1","""event"",""trial"",""time""
""focus"",""0"",""5""
""fullscreenenter"",""1"",""4878""
","
","""event"",""trial"",""time""
""focus"",""0"",""5""
","""event"",""trial"",""time""
""fullscreenenter"",""1"",""4878""
","
","","","","","","778","<p> You will have 3 seconds to make each choice. Try to respond before time runs out! </p><p> You will lose 5 points each time you do not make a response. </p>","","0","instructions","","","","","","","","","","",""
"html-keyboard-response","72","402317","0.0-9.0-2.0-0.0","6410","2","11","Female","approach_avoid_spark_v1","""event"",""trial"",""time""
""focus"",""0"",""5""
""fullscreenenter"",""1"",""4878""
","
","""event"",""trial"",""time""
""focus"",""0"",""5""
","""event"",""trial"",""time""
""fullscreenenter"",""1"",""4878""
","
","","","","","","null","<div style=""font-size:60px;"">+</div>","null","","fixation","","","","","","","","","","",""
"aa-learning-trial","73","405338","0.0-9.0-2.0-1.0","6410","2","11","Female","approach_avoid_spark_v1","""event"",""trial"",""time""
""focus"",""0"",""5""
""fullscreenenter"",""1"",""4878""
","
","""event"",""trial"",""time""
""focus"",""0"",""5""
","""event"",""trial"",""time""
""fullscreenenter"",""1"",""4878""
","
","","","","","","1278","images/rabbit7.png","","","learning","8","8","1","1","rabbit","pets","2","0","","bad","[-3]"
"html-keyboard-response","74","405857","0.0-9.0-2.0-0.1","6410","2","11","Female","approach_avoid_spark_v1","""event"",""trial"",""time""
""focus"",""0"",""5""
""fullscreenenter"",""1"",""4878""
","
","""event"",""trial"",""time""
""focus"",""0"",""5""
","""event"",""trial"",""time""
""fullscreenenter"",""1"",""4878""
","
","","","","","","null","<div style=""font-size:60px;"">+</div>","null","","fixation","","","","","","","","","","",""
"aa-learning-trial","75","408877","0.0-9.0-2.0-1.1","6410","2","11","Female","approach_avoid_spark_v1","""event"",""trial"",""time""
""focus"",""0"",""5""
""fullscreenenter"",""1"",""4878""
","
","""event"",""trial"",""time""
""focus"",""0"",""5""
","""event"",""trial"",""time""
""fullscreenenter"",""1"",""4878""
","
","","","","","","754","images/rabbit7.png","","","learning","8","8","1","1","rabbit","pets","2","0","","bad","[-3]"
"html-keyboard-response","76","409396","0.0-9.0-2.0-0.2","6410","2","11","Female","approach_avoid_spark_v1","""event"",""trial"",""time""
""focus"",""0"",""5""
""fullscreenenter"",""1"",""4878""
","
","""event"",""trial"",""time""
""focus"",""0"",""5""
","""event"",""trial"",""time""
""fullscreenenter"",""1"",""4878""
","
","","","","","","null","<div style=""font-size:60px;"">+</div>","null","","fixation","","","","","","","","","","",""
"aa-learning-trial","77","412418","0.0-9.0-2.0-1.2","6410","2","11","Female","approach_avoid_spark_v1","""event"",""trial"",""time""
""focus"",""0"",""5""
""fullscreenenter"",""1"",""4878""
","
","""event"",""trial"",""time""
""focus"",""0"",""5""
","""event"",""trial"",""time""
""fullscreenenter"",""1"",""4878""
","
","","","","","","743","images/cat5.png","","","learning","-3","-3","1","1","cat","pets","2","0","","good","[6]"
"html-keyboard-response","78","412937","0.0-9.0-2.0-0.3","6410","2","11","Female","approach_avoid_spark_v1","""event"",""trial"",""time""
""focus"",""0"",""5""
""fullscreenenter"",""1"",""4878""
","
","""event"",""trial"",""time""
""focus"",""0"",""5""
","""event"",""trial"",""time""
""fullscreenenter"",""1"",""4878""
","
","","","","","","null","<div style=""font-size:60px;"">+</div>","null","","fixation","","","","","","","","","","",""
"aa-learning-trial","79","415957","0.0-9.0-2.0-1.3","6410","2","11","Female","approach_avoid_spark_v1","""event"",""trial"",""time""
""focus"",""0"",""5""
""fullscreenenter"",""1"",""4878""
","
","""event"",""trial"",""time""
""focus"",""0"",""5""
","""event"",""trial"",""time""
""fullscreenenter"",""1"",""4878""
","
","","","","","","879","images/rabbit1.png","","","learning","4","4","1","1","rabbit","pets","2","0","","bad","[-3]"
"html-keyboard-response","80","416477","0.0-9.0-2.0-0.4","6410","2","11","Female","approach_avoid_spark_v1","""event"",""trial"",""time""
""focus"",""0"",""5""
""fullscreenenter"",""1"",""4878""
","
","""event"",""trial"",""time""
""focus"",""0"",""5""
","""event"",""trial"",""time""
""fullscreenenter"",""1"",""4878""
","
","","","","","","null","<div style=""font-size:60px;"">+</div>","null","","fixation","","","","","","","","","","",""
"aa-learning-trial","81","419497","0.0-9.0-2.0-1.4","6410","2","11","Female","approach_avoid_spark_v1","""event"",""trial"",""time""
""focus"",""0"",""5""
""fullscreenenter"",""1"",""4878""
","
","""event"",""trial"",""time""
""focus"",""0"",""5""
","""event"",""trial"",""time""
""fullscreenenter"",""1"",""4878""
","
","","","","","","778","images/cat1.png","","","learning","-7","0","0","0","cat","pets","2","0","","good","[6]"
"html-keyboard-response","82","420017","0.0-9.0-2.0-0.5","6410","2","11","Female","approach_avoid_spark_v1","""event"",""trial"",""time""
""focus"",""0"",""5""
""fullscreenenter"",""1"",""4878""
","
","""event"",""trial"",""time""
""focus"",""0"",""5""
","""event"",""trial"",""time""
""fullscreenenter"",""1"",""4878""
","
","","","","","","null","<div style=""font-size:60px;"">+</div>","null","","fixation","","","","","","","","","","",""
"aa-learning-trial","83","423037","0.0-9.0-2.0-1.5","6410","2","11","Female","approach_avoid_spark_v1","""event"",""trial"",""time""
""focus"",""0"",""5""
""fullscreenenter"",""1"",""4878""
","
","""event"",""trial"",""time""
""focus"",""0"",""5""
","""event"",""trial"",""time""
""fullscreenenter"",""1"",""4878""
","
","","","","","","1082","images/dog8.png","","","learning","7","7","1","1","dog","pets","2","0","","neutral","0"
"html-keyboard-response","84","423557","0.0-9.0-2.0-0.6","6410","2","11","Female","approach_avoid_spark_v1","""event"",""trial"",""time""
""focus"",""0"",""5""
""fullscreenenter"",""1"",""4878""
","
","""event"",""trial"",""time""
""focus"",""0"",""5""
","""event"",""trial"",""time""
""fullscreenenter"",""1"",""4878""
","
","","","","","","null","<div style=""font-size:60px;"">+</div>","null","","fixation","","","","","","","","","","",""
"aa-learning-trial","85","426578","0.0-9.0-2.0-1.6","6410","2","11","Female","approach_avoid_spark_v1","""event"",""trial"",""time""
""focus"",""0"",""5""
""fullscreenenter"",""1"",""4878""
","
","""event"",""trial"",""time""
""focus"",""0"",""5""
","""event"",""trial"",""time""
""fullscreenenter"",""1"",""4878""
","
","","","","","","705","images/rabbit1.png","","","learning","4","4","1","1","rabbit","pets","2","0","","bad","[-3]"
"html-keyboard-response","86","427097","0.0-9.0-2.0-0.7","6410","2","11","Female","approach_avoid_spark_v1","""event"",""trial"",""time""
""focus"",""0"",""5""
""fullscreenenter"",""1"",""4878""
","
","""event"",""trial"",""time""
""focus"",""0"",""5""
","""event"",""trial"",""time""
""fullscreenenter"",""1"",""4878""
","
","","","","","","null","<div style=""font-size:60px;"">+</div>","null","","fixation","","","","","","","","","","",""
"aa-learning-trial","87","430112","0.0-9.0-2.0-1.7","6410","2","11","Female","approach_avoid_spark_v1","""event"",""trial"",""time""
""focus"",""0"",""5""
""fullscreenenter"",""1"",""4878""
","
","""event"",""trial"",""time""
""focus"",""0"",""5""
","""event"",""trial"",""time""
""fullscreenenter"",""1"",""4878""
","
","","","","","","861","images/dog3.png","","","learning","3","0","0","0","dog","pets","2","0","","neutral","0"
"html-keyboard-response","88","430637","0.0-9.0-2.0-0.8","6410","2","11","Female","approach_avoid_spark_v1","""event"",""trial"",""time""
""focus"",""0"",""5""
""fullscreenenter"",""1"",""4878""
","
","""event"",""trial"",""time""
""focus"",""0"",""5""
","""event"",""trial"",""time""
""fullscreenenter"",""1"",""4878""
","
","","","","","","null","<div style=""font-size:60px;"">+</div>","null","","fixation","","","","","","","","","","",""
"aa-learning-trial","89","433656","0.0-9.0-2.0-1.8","6410","2","11","Female","approach_avoid_spark_v1","""event"",""trial"",""time""
""focus"",""0"",""5""
""fullscreenenter"",""1"",""4878""
","
","""event"",""trial"",""time""
""focus"",""0"",""5""
","""event"",""trial"",""time""
""fullscreenenter"",""1"",""4878""
","
","","","","","","1125","images/cat1.png","","","learning","-7","0","0","0","cat","pets","2","0","","good","[6]"
"html-keyboard-response","90","434176","0.0-9.0-2.0-0.9","6410","2","11","Female","approach_avoid_spark_v1","""event"",""trial"",""time""
""focus"",""0"",""5""
""fullscreenenter"",""1"",""4878""
","
","""event"",""trial"",""time""
""focus"",""0"",""5""
","""event"",""trial"",""time""
""fullscreenenter"",""1"",""4878""
","
","","","","","","null","<div style=""font-size:60px;"">+</div>","null","","fixation","","","","","","","","","","",""
"aa-learning-trial","91","437197","0.0-9.0-2.0-1.9","6410","2","11","Female","approach_avoid_spark_v1","""event"",""trial"",""time""
""focus"",""0"",""5""
""fullscreenenter"",""1"",""4878""
","
","""event"",""trial"",""time""
""focus"",""0"",""5""
","""event"",""trial"",""time""
""fullscreenenter"",""1"",""4878""
","
","","","","","","947","images/dog3.png","","","learning","3","0","0","0","dog","pets","2","0","","neutral","0"
"html-keyboard-response","92","437716","0.0-9.0-2.0-0.10","6410","2","11","Female","approach_avoid_spark_v1","""event"",""trial"",""time""
""focus"",""0"",""5""
""fullscreenenter"",""1"",""4878""
","
","""event"",""trial"",""time""
""focus"",""0"",""5""
","""event"",""trial"",""time""
""fullscreenenter"",""1"",""4878""
","
","","","","","","null","<div style=""font-size:60px;"">+</div>","null","","fixation","","","","","","","","","","",""
"aa-learning-trial","93","440737","0.0-9.0-2.0-1.10","6410","2","11","Female","approach_avoid_spark_v1","""event"",""trial"",""time""
""focus"",""0"",""5""
""fullscreenenter"",""1"",""4878""
","
","""event"",""trial"",""time""
""focus"",""0"",""5""
","""event"",""trial"",""time""
""fullscreenenter"",""1"",""4878""
","
","","","","","","1209","images/cat7.png","","","learning","6","0","0","0","cat","pets","2","0","","good","[6]"
"html-keyboard-response","94","441257","0.0-9.0-2.0-0.11","6410","2","11","Female","approach_avoid_spark_v1","""event"",""trial"",""time""
""focus"",""0"",""5""
""fullscreenenter"",""1"",""4878""
","
","""event"",""trial"",""time""
""focus"",""0"",""5""
","""event"",""trial"",""time""
""fullscreenenter"",""1"",""4878""
","
","","","","","","null","<div style=""font-size:60px;"">+</div>","null","","fixation","","","","","","","","","","",""
"aa-learning-trial","95","444276","0.0-9.0-2.0-1.11","6410","2","11","Female","approach_avoid_spark_v1","""event"",""trial"",""time""
""focus"",""0"",""5""
""fullscreenenter"",""1"",""4878""
","
","""event"",""trial"",""time""
""focus"",""0"",""5""
","""event"",""trial"",""time""
""fullscreenenter"",""1"",""4878""
","
","","","","","","1335","images/cat5.png","","","learning","-3","0","0","0","cat","pets","2","0","","good","[6]"
"html-keyboard-response","96","444797","0.0-9.0-2.0-0.12","6410","2","11","Female","approach_avoid_spark_v1","""event"",""trial"",""time""
""focus"",""0"",""5""
""fullscreenenter"",""1"",""4878""
","
","""event"",""trial"",""time""
""focus"",""0"",""5""
","""event"",""trial"",""time""
""fullscreenenter"",""1"",""4878""
","
","","","","","","null","<div style=""font-size:60px;"">+</div>","null","","fixation","","","","","","","","","","",""
"aa-learning-trial","97","447817","0.0-9.0-2.0-1.12","6410","2","11","Female","approach_avoid_spark_v1","""event"",""trial"",""time""
""focus"",""0"",""5""
""fullscreenenter"",""1"",""4878""
","
","""event"",""trial"",""time""
""focus"",""0"",""5""
","""event"",""trial"",""time""
""fullscreenenter"",""1"",""4878""
","
","","","","","","791","images/rabbit2.png","","","learning","-6","-6","1","1","rabbit","pets","2","0","","bad","[-3]"
"html-keyboard-response","98","448333","0.0-9.0-2.0-0.13","6410","2","11","Female","approach_avoid_spark_v1","""event"",""trial"",""time""
""focus"",""0"",""5""
""fullscreenenter"",""1"",""4878""
","
","""event"",""trial"",""time""
""focus"",""0"",""5""
","""event"",""trial"",""time""
""fullscreenenter"",""1"",""4878""
","
","","","","","","null","<div style=""font-size:60px;"">+</div>","null","","fixation","","","","","","","","","","",""
"aa-learning-trial","99","451337","0.0-9.0-2.0-1.13","6410","2","11","Female","approach_avoid_spark_v1","""event"",""trial"",""time""
""focus"",""0"",""5""
""fullscreenenter"",""1"",""4878""
","
","""event"",""trial"",""time""
""focus"",""0"",""5""
","""event"",""trial"",""time""
""fullscreenenter"",""1"",""4878""
","
","","","","","","1131","images/dog7.png","","","learning","-8","-5","o","","dog","pets","2","0","","neutral","0"
"html-keyboard-response","100","451857","0.0-9.0-2.0-0.14","6410","2","11","Female","approach_avoid_spark_v1","""event"",""trial"",""time""
""focus"",""0"",""5""
""fullscreenenter"",""1"",""4878""
","
","""event"",""trial"",""time""
""focus"",""0"",""5""
","""event"",""trial"",""time""
""fullscreenenter"",""1"",""4878""
","
","","","","","","null","<div style=""font-size:60px;"">+</div>","null","","fixation","","","","","","","","","","",""
"aa-learning-trial","101","454877","0.0-9.0-2.0-1.14","6410","2","11","Female","approach_avoid_spark_v1","""event"",""trial"",""time""
""focus"",""0"",""5""
""fullscreenenter"",""1"",""4878""
","
","""event"",""trial"",""time""
""focus"",""0"",""5""
","""event"",""trial"",""time""
""fullscreenenter"",""1"",""4878""
","
","","","","","","1065","images/dog8.png","","","learning","7","7","1","1","dog","pets","2","0","","neutral","0"
"html-keyboard-response","102","455397","0.0-9.0-2.0-0.15","6410","2","11","Female","approach_avoid_spark_v1","""event"",""trial"",""time""
""focus"",""0"",""5""
""fullscreenenter"",""1"",""4878""
","
","""event"",""trial"",""time""
""focus"",""0"",""5""
","""event"",""trial"",""time""
""fullscreenenter"",""1"",""4878""
","
","","","","","","null","<div style=""font-size:60px;"">+</div>","null","","fixation","","","","","","","","","","",""
"aa-learning-trial","103","458416","0.0-9.0-2.0-1.15","6410","2","11","Female","approach_avoid_spark_v1","""event"",""trial"",""time""
""focus"",""0"",""5""
""fullscreenenter"",""1"",""4878""
","
","""event"",""trial"",""time""
""focus"",""0"",""5""
","""event"",""trial"",""time""
""fullscreenenter"",""1"",""4878""
","
","","","","","","916","images/rabbit7.png","","","learning","8","8","1","1","rabbit","pets","2","0","","bad","[-3]"
"html-keyboard-response","104","458936","0.0-9.0-2.0-0.16","6410","2","11","Female","approach_avoid_spark_v1","""event"",""trial"",""time""
""focus"",""0"",""5""
""fullscreenenter"",""1"",""4878""
","
","""event"",""trial"",""time""
""focus"",""0"",""5""
","""event"",""trial"",""time""
""fullscreenenter"",""1"",""4878""
","
","","","","","","null","<div style=""font-size:60px;"">+</div>","null","","fixation","","","","","","","","","","",""
"aa-learning-trial","105","461957","0.0-9.0-2.0-1.16","6410","2","11","Female","approach_avoid_spark_v1","""event"",""trial"",""time""
""focus"",""0"",""5""
""fullscreenenter"",""1"",""4878""
","
","""event"",""trial"",""time""
""focus"",""0"",""5""
","""event"",""trial"",""time""
""fullscreenenter"",""1"",""4878""
","
","","","","","","825","images/rabbit5.png","","","learning","1","1","1","1","rabbit","pets","2","0","","bad","[-3]"
"html-keyboard-response","106","462476","0.0-9.0-2.0-0.17","6410","2","11","Female","approach_avoid_spark_v1","""event"",""trial"",""time""
""focus"",""0"",""5""
""fullscreenenter"",""1"",""4878""
","
","""event"",""trial"",""time""
""focus"",""0"",""5""
","""event"",""trial"",""time""
""fullscreenenter"",""1"",""4878""
","
","","","","","","null","<div style=""font-size:60px;"">+</div>","null","","fixation","","","","","","","","","","",""
"aa-learning-trial","107","465497","0.0-9.0-2.0-1.17","6410","2","11","Female","approach_avoid_spark_v1","""event"",""trial"",""time""
""focus"",""0"",""5""
""fullscreenenter"",""1"",""4878""
","
","""event"",""trial"",""time""
""focus"",""0"",""5""
","""event"",""trial"",""time""
""fullscreenenter"",""1"",""4878""
","
","","","","","","606","images/rabbit7.png","","","learning","8","8","1","1","rabbit","pets","2","0","","bad","[-3]"
"html-keyboard-response","108","466016","0.0-9.0-2.0-0.18","6410","2","11","Female","approach_avoid_spark_v1","""event"",""trial"",""time""
""focus"",""0"",""5""
""fullscreenenter"",""1"",""4878""
","
","""event"",""trial"",""time""
""focus"",""0"",""5""
","""event"",""trial"",""time""
""fullscreenenter"",""1"",""4878""
","
","","","","","","null","<div style=""font-size:60px;"">+</div>","null","","fixation","","","","","","","","","","",""
"aa-learning-trial","109","469027","0.0-9.0-2.0-1.18","6410","2","11","Female","approach_avoid_spark_v1","""event"",""trial"",""time""
""focus"",""0"",""5""
""fullscreenenter"",""1"",""4878""
","
","""event"",""trial"",""time""
""focus"",""0"",""5""
","""event"",""trial"",""time""
""fullscreenenter"",""1"",""4878""
","
","","","","","","1276","images/cat1.png","","","learning","-7","-7","1","1","cat","pets","2","0","","good","[6]"
"html-keyboard-response","110","469546","0.0-9.0-2.0-0.19","6410","2","11","Female","approach_avoid_spark_v1","""event"",""trial"",""time""
""focus"",""0"",""5""
""fullscreenenter"",""1"",""4878""
","
","""event"",""trial"",""time""
""focus"",""0"",""5""
","""event"",""trial"",""time""
""fullscreenenter"",""1"",""4878""
","
","","","","","","null","<div style=""font-size:60px;"">+</div>","null","","fixation","","","","","","","","","","",""
"aa-learning-trial","111","472567","0.0-9.0-2.0-1.19","6410","2","11","Female","approach_avoid_spark_v1","""event"",""trial"",""time""
""focus"",""0"",""5""
""fullscreenenter"",""1"",""4878""
","
","""event"",""trial"",""time""
""focus"",""0"",""5""
","""event"",""trial"",""time""
""fullscreenenter"",""1"",""4878""
","
","","","","","","927","images/rabbit6.png","","","learning","-4","-5","o","","rabbit","pets","2","0","","bad","[-3]"
"html-keyboard-response","112","473086","0.0-9.0-2.0-0.20","6410","2","11","Female","approach_avoid_spark_v1","""event"",""trial"",""time""
""focus"",""0"",""5""
""fullscreenenter"",""1"",""4878""
","
","""event"",""trial"",""time""
""focus"",""0"",""5""
","""event"",""trial"",""time""
""fullscreenenter"",""1"",""4878""
","
","","","","","","null","<div style=""font-size:60px;"">+</div>","null","","fixation","","","","","","","","","","",""
"aa-learning-trial","113","476108","0.0-9.0-2.0-1.20","6410","2","11","Female","approach_avoid_spark_v1","""event"",""trial"",""time""
""focus"",""0"",""5""
""fullscreenenter"",""1"",""4878""
","
","""event"",""trial"",""time""
""focus"",""0"",""5""
","""event"",""trial"",""time""
""fullscreenenter"",""1"",""4878""
","
","","","","","","938","images/dog1.png","","","learning","-2","-5","o","","dog","pets","2","0","","neutral","0"
"html-keyboard-response","114","476626","0.0-9.0-2.0-0.21","6410","2","11","Female","approach_avoid_spark_v1","""event"",""trial"",""time""
""focus"",""0"",""5""
""fullscreenenter"",""1"",""4878""
","
","""event"",""trial"",""time""
""focus"",""0"",""5""
","""event"",""trial"",""time""
""fullscreenenter"",""1"",""4878""
","
","","","","","","null","<div style=""font-size:60px;"">+</div>","null","","fixation","","","","","","","","","","",""
"aa-learning-trial","115","479646","0.0-9.0-2.0-1.21","6410","2","11","Female","approach_avoid_spark_v1","""event"",""trial"",""time""
""focus"",""0"",""5""
""fullscreenenter"",""1"",""4878""
","
","""event"",""trial"",""time""
""focus"",""0"",""5""
","""event"",""trial"",""time""
""fullscreenenter"",""1"",""4878""
","
","","","","","","867","images/cat7.png","","","learning","6","-5","o","","cat","pets","2","0","","good","[6]"
"html-keyboard-response","116","480156","0.0-9.0-2.0-0.22","6410","2","11","Female","approach_avoid_spark_v1","""event"",""trial"",""time""
""focus"",""0"",""5""
""fullscreenenter"",""1"",""4878""
","
","""event"",""trial"",""time""
""focus"",""0"",""5""
","""event"",""trial"",""time""
""fullscreenenter"",""1"",""4878""
","
","","","","","","null","<div style=""font-size:60px;"">+</div>","null","","fixation","","","","","","","","","","",""
"aa-learning-trial","117","483176","0.0-9.0-2.0-1.22","6410","2","11","Female","approach_avoid_spark_v1","""event"",""trial"",""time""
""focus"",""0"",""5""
""fullscreenenter"",""1"",""4878""
","
","""event"",""trial"",""time""
""focus"",""0"",""5""
","""event"",""trial"",""time""
""fullscreenenter"",""1"",""4878""
","
","","","","","","1101","images/cat2.png","","","learning","-1","-1","1","1","cat","pets","2","0","","good","[6]"
"html-keyboard-response","118","483695","0.0-9.0-2.0-0.23","6410","2","11","Female","approach_avoid_spark_v1","""event"",""trial"",""time""
""focus"",""0"",""5""
""fullscreenenter"",""1"",""4878""
","
","""event"",""trial"",""time""
""focus"",""0"",""5""
","""event"",""trial"",""time""
""fullscreenenter"",""1"",""4878""
","
","","","","","","null","<div style=""font-size:60px;"">+</div>","null","","fixation","","","","","","","","","","",""
"aa-learning-trial","119","486717","0.0-9.0-2.0-1.23","6410","2","11","Female","approach_avoid_spark_v1","""event"",""trial"",""time""
""focus"",""0"",""5""
""fullscreenenter"",""1"",""4878""
","
","""event"",""trial"",""time""
""focus"",""0"",""5""
","""event"",""trial"",""time""
""fullscreenenter"",""1"",""4878""
","
","","","","","","1229","images/cat8.png","","","learning","5","-5","o","","cat","pets","2","0","","good","[6]"
"html-keyboard-response","120","487235","0.0-9.0-2.0-0.24","6410","2","11","Female","approach_avoid_spark_v1","""event"",""trial"",""time""
""focus"",""0"",""5""
""fullscreenenter"",""1"",""4878""
","
","""event"",""trial"",""time""
""focus"",""0"",""5""
","""event"",""trial"",""time""
""fullscreenenter"",""1"",""4878""
","
","","","","","","null","<div style=""font-size:60px;"">+</div>","null","","fixation","","","","","","","","","","",""
"aa-learning-trial","121","490247","0.0-9.0-2.0-1.24","6410","2","11","Female","approach_avoid_spark_v1","""event"",""trial"",""time""
""focus"",""0"",""5""
""fullscreenenter"",""1"",""4878""
","
","""event"",""trial"",""time""
""focus"",""0"",""5""
","""event"",""trial"",""time""
""fullscreenenter"",""1"",""4878""
","
","","","","","","1276","images/cat7.png","","","learning","6","6","1","1","cat","pets","2","0","","good","[6]"
"html-keyboard-response","122","490766","0.0-9.0-2.0-0.25","6410","2","11","Female","approach_avoid_spark_v1","""event"",""trial"",""time""
""focus"",""0"",""5""
""fullscreenenter"",""1"",""4878""
","
","""event"",""trial"",""time""
""focus"",""0"",""5""
","""event"",""trial"",""time""
""fullscreenenter"",""1"",""4878""
","
","","","","","","null","<div style=""font-size:60px;"">+</div>","null","","fixation","","","","","","","","","","",""
"aa-learning-trial","123","493787","0.0-9.0-2.0-1.25","6410","2","11","Female","approach_avoid_spark_v1","""event"",""trial"",""time""
""focus"",""0"",""5""
""fullscreenenter"",""1"",""4878""
","
","""event"",""trial"",""time""
""focus"",""0"",""5""
","""event"",""trial"",""time""
""fullscreenenter"",""1"",""4878""
","
","","","","","","1128","images/cat5.png","","","learning","-3","-5","o","","cat","pets","2","0","","good","[6]"
"html-keyboard-response","124","494306","0.0-9.0-2.0-0.26","6410","2","11","Female","approach_avoid_spark_v1","""event"",""trial"",""time""
""focus"",""0"",""5""
""fullscreenenter"",""1"",""4878""
","
","""event"",""trial"",""time""
""focus"",""0"",""5""
","""event"",""trial"",""time""
""fullscreenenter"",""1"",""4878""
","
","","","","","","null","<div style=""font-size:60px;"">+</div>","null","","fixation","","","","","","","","","","",""
"aa-learning-trial","125","497327","0.0-9.0-2.0-1.26","6410","2","11","Female","approach_avoid_spark_v1","""event"",""trial"",""time""
""focus"",""0"",""5""
""fullscreenenter"",""1"",""4878""
","
","""event"",""trial"",""time""
""focus"",""0"",""5""
","""event"",""trial"",""time""
""fullscreenenter"",""1"",""4878""
","
","","","","","","791","images/rabbit1.png","","","learning","4","4","1","1","rabbit","pets","2","0","","bad","[-3]"
"html-keyboard-response","126","497835","0.0-9.0-2.0-0.27","6410","2","11","Female","approach_avoid_spark_v1","""event"",""trial"",""time""
""focus"",""0"",""5""
""fullscreenenter"",""1"",""4878""
","
","""event"",""trial"",""time""
""focus"",""0"",""5""
","""event"",""trial"",""time""
""fullscreenenter"",""1"",""4878""
","
","","","","","","null","<div style=""font-size:60px;"">+</div>","null","","fixation","","","","","","","","","","",""
"aa-learning-trial","127","500856","0.0-9.0-2.0-1.27","6410","2","11","Female","approach_avoid_spark_v1","""event"",""trial"",""time""
""focus"",""0"",""5""
""fullscreenenter"",""1"",""4878""
","
","""event"",""trial"",""time""
""focus"",""0"",""5""
","""event"",""trial"",""time""
""fullscreenenter"",""1"",""4878""
","
","","","","","","1083","images/dog3.png","","","learning","3","3","1","1","dog","pets","2","0","","neutral","0"
"html-keyboard-response","128","501376","0.0-9.0-2.0-0.28","6410","2","11","Female","approach_avoid_spark_v1","""event"",""trial"",""time""
""focus"",""0"",""5""
""fullscreenenter"",""1"",""4878""
","
","""event"",""trial"",""time""
""focus"",""0"",""5""
","""event"",""trial"",""time""
""fullscreenenter"",""1"",""4878""
","
","","","","","","null","<div style=""font-size:60px;"">+</div>","null","","fixation","","","","","","","","","","",""
"aa-learning-trial","129","504397","0.0-9.0-2.0-1.28","6410","2","11","Female","approach_avoid_spark_v1","""event"",""trial"",""time""
""focus"",""0"",""5""
""fullscreenenter"",""1"",""4878""
","
","""event"",""trial"",""time""
""focus"",""0"",""5""
","""event"",""trial"",""time""
""fullscreenenter"",""1"",""4878""
","
","","","","","","967","images/rabbit1.png","","","learning","4","4","1","1","rabbit","pets","2","0","","bad","[-3]"
"html-keyboard-response","130","504916","0.0-9.0-2.0-0.29","6410","2","11","Female","approach_avoid_spark_v1","""event"",""trial"",""time""
""focus"",""0"",""5""
""fullscreenenter"",""1"",""4878""
","
","""event"",""trial"",""time""
""focus"",""0"",""5""
","""event"",""trial"",""time""
""fullscreenenter"",""1"",""4878""
","
","","","","","","null","<div style=""font-size:60px;"">+</div>","null","","fixation","","","","","","","","","","",""
"aa-learning-trial","131","507936","0.0-9.0-2.0-1.29","6410","2","11","Female","approach_avoid_spark_v1","""event"",""trial"",""time""
""focus"",""0"",""5""
""fullscreenenter"",""1"",""4878""
","
","""event"",""trial"",""time""
""focus"",""0"",""5""
","""event"",""trial"",""time""
""fullscreenenter"",""1"",""4878""
","
","","","","","","887","images/dog8.png","","","learning","7","7","1","1","dog","pets","2","0","","neutral","0"
"html-keyboard-response","132","508456","0.0-9.0-2.0-0.30","6410","2","11","Female","approach_avoid_spark_v1","""event"",""trial"",""time""
""focus"",""0"",""5""
""fullscreenenter"",""1"",""4878""
","
","""event"",""trial"",""time""
""focus"",""0"",""5""
","""event"",""trial"",""time""
""fullscreenenter"",""1"",""4878""
","
","","","","","","null","<div style=""font-size:60px;"">+</div>","null","","fixation","","","","","","","","","","",""
"aa-learning-trial","133","511477","0.0-9.0-2.0-1.30","6410","2","11","Female","approach_avoid_spark_v1","""event"",""trial"",""time""
""focus"",""0"",""5""
""fullscreenenter"",""1"",""4878""
","
","""event"",""trial"",""time""
""focus"",""0"",""5""
","""event"",""trial"",""time""
""fullscreenenter"",""1"",""4878""
","
","","","","","","766","images/dog8.png","","","learning","7","7","1","1","dog","pets","2","0","","neutral","0"
"html-keyboard-response","134","511991","0.0-9.0-2.0-0.31","6410","2","11","Female","approach_avoid_spark_v1","""event"",""trial"",""time""
""focus"",""0"",""5""
""fullscreenenter"",""1"",""4878""
","
","""event"",""trial"",""time""
""focus"",""0"",""5""
","""event"",""trial"",""time""
""fullscreenenter"",""1"",""4878""
","
","","","","","","null","<div style=""font-size:60px;"">+</div>","null","","fixation","","","","","","","","","","",""
"aa-learning-trial","135","515006","0.0-9.0-2.0-1.31","6410","2","11","Female","approach_avoid_spark_v1","""event"",""trial"",""time""
""focus"",""0"",""5""
""fullscreenenter"",""1"",""4878""
","
","""event"",""trial"",""time""
""focus"",""0"",""5""
","""event"",""trial"",""time""
""fullscreenenter"",""1"",""4878""
","
","","","","","","958","images/dog7.png","","","learning","-8","-5","o","","dog","pets","2","0","","neutral","0"
"html-keyboard-response","136","515525","0.0-9.0-2.0-0.32","6410","2","11","Female","approach_avoid_spark_v1","""event"",""trial"",""time""
""focus"",""0"",""5""
""fullscreenenter"",""1"",""4878""
","
","""event"",""trial"",""time""
""focus"",""0"",""5""
","""event"",""trial"",""time""
""fullscreenenter"",""1"",""4878""
","
","","","","","","null","<div style=""font-size:60px;"">+</div>","null","","fixation","","","","","","","","","","",""
"aa-learning-trial","137","518547","0.0-9.0-2.0-1.32","6410","2","11","Female","approach_avoid_spark_v1","""event"",""trial"",""time""
""focus"",""0"",""5""
""fullscreenenter"",""1"",""4878""
","
","""event"",""trial"",""time""
""focus"",""0"",""5""
","""event"",""trial"",""time""
""fullscreenenter"",""1"",""4878""
","
","","","","","","1495","images/cat5.png","","","learning","-3","-3","1","1","cat","pets","2","0","","good","[6]"
"html-keyboard-response","138","519065","0.0-9.0-2.0-0.33","6410","2","11","Female","approach_avoid_spark_v1","""event"",""trial"",""time""
""focus"",""0"",""5""
""fullscreenenter"",""1"",""4878""
","
","""event"",""trial"",""time""
""focus"",""0"",""5""
","""event"",""trial"",""time""
""fullscreenenter"",""1"",""4878""
","
","","","","","","null","<div style=""font-size:60px;"">+</div>","null","","fixation","","","","","","","","","","",""
"aa-learning-trial","139","522087","0.0-9.0-2.0-1.33","6410","2","11","Female","approach_avoid_spark_v1","""event"",""trial"",""time""
""focus"",""0"",""5""
""fullscreenenter"",""1"",""4878""
","
","""event"",""trial"",""time""
""focus"",""0"",""5""
","""event"",""trial"",""time""
""fullscreenenter"",""1"",""4878""
","
","","","","","","677","images/dog8.png","","","learning","7","7","1","1","dog","pets","2","0","","neutral","0"
"html-keyboard-response","140","522601","0.0-9.0-2.0-0.34","6410","2","11","Female","approach_avoid_spark_v1","""event"",""trial"",""time""
""focus"",""0"",""5""
""fullscreenenter"",""1"",""4878""
","
","""event"",""trial"",""time""
""focus"",""0"",""5""
","""event"",""trial"",""time""
""fullscreenenter"",""1"",""4878""
","
","","","","","","null","<div style=""font-size:60px;"">+</div>","null","","fixation","","","","","","","","","","",""
"aa-learning-trial","141","525604","0.0-9.0-2.0-1.34","6410","2","11","Female","approach_avoid_spark_v1","""event"",""trial"",""time""
""focus"",""0"",""5""
""fullscreenenter"",""1"",""4878""
","
","""event"",""trial"",""time""
""focus"",""0"",""5""
","""event"",""trial"",""time""
""fullscreenenter"",""1"",""4878""
","
","","","","","","1063","images/dog2.png","","","learning","-5","-5","1","1","dog","pets","2","0","","neutral","0"
"html-keyboard-response","142","526125","0.0-9.0-2.0-0.35","6410","2","11","Female","approach_avoid_spark_v1","""event"",""trial"",""time""
""focus"",""0"",""5""
""fullscreenenter"",""1"",""4878""
","
","""event"",""trial"",""time""
""focus"",""0"",""5""
","""event"",""trial"",""time""
""fullscreenenter"",""1"",""4878""
","
","","","","","","null","<div style=""font-size:60px;"">+</div>","null","","fixation","","","","","","","","","","",""
"aa-learning-trial","143","529146","0.0-9.0-2.0-1.35","6410","2","11","Female","approach_avoid_spark_v1","""event"",""trial"",""time""
""focus"",""0"",""5""
""fullscreenenter"",""1"",""4878""
","
","""event"",""trial"",""time""
""focus"",""0"",""5""
","""event"",""trial"",""time""
""fullscreenenter"",""1"",""4878""
","
","","","","","","1147","images/cat5.png","","","learning","-3","-5","o","","cat","pets","2","0","","good","[6]"
"html-keyboard-response","144","529666","0.0-9.0-2.0-0.36","6410","2","11","Female","approach_avoid_spark_v1","""event"",""trial"",""time""
""focus"",""0"",""5""
""fullscreenenter"",""1"",""4878""
","
","""event"",""trial"",""time""
""focus"",""0"",""5""
","""event"",""trial"",""time""
""fullscreenenter"",""1"",""4878""
","
","","","","","","null","<div style=""font-size:60px;"">+</div>","null","","fixation","","","","","","","","","","",""
"aa-learning-trial","145","532686","0.0-9.0-2.0-1.36","6410","2","11","Female","approach_avoid_spark_v1","""event"",""trial"",""time""
""focus"",""0"",""5""
""fullscreenenter"",""1"",""4878""
","
","""event"",""trial"",""time""
""focus"",""0"",""5""
","""event"",""trial"",""time""
""fullscreenenter"",""1"",""4878""
","
","","","","","","691","images/rabbit1.png","","","learning","4","4","1","1","rabbit","pets","2","0","","bad","[-3]"
"html-keyboard-response","146","533205","0.0-9.0-2.0-0.37","6410","2","11","Female","approach_avoid_spark_v1","""event"",""trial"",""time""
""focus"",""0"",""5""
""fullscreenenter"",""1"",""4878""
","
","""event"",""trial"",""time""
""focus"",""0"",""5""
","""event"",""trial"",""time""
""fullscreenenter"",""1"",""4878""
","
","","","","","","null","<div style=""font-size:60px;"">+</div>","null","","fixation","","","","","","","","","","",""
"aa-learning-trial","147","536227","0.0-9.0-2.0-1.37","6410","2","11","Female","approach_avoid_spark_v1","""event"",""trial"",""time""
""focus"",""0"",""5""
""fullscreenenter"",""1"",""4878""
","
","""event"",""trial"",""time""
""focus"",""0"",""5""
","""event"",""trial"",""time""
""fullscreenenter"",""1"",""4878""
","
","","","","","","1076","images/cat1.png","","","learning","-7","-7","1","1","cat","pets","2","0","","good","[6]"
"html-keyboard-response","148","536746","0.0-9.0-2.0-0.38","6410","2","11","Female","approach_avoid_spark_v1","""event"",""trial"",""time""
""focus"",""0"",""5""
""fullscreenenter"",""1"",""4878""
","
","""event"",""trial"",""time""
""focus"",""0"",""5""
","""event"",""trial"",""time""
""fullscreenenter"",""1"",""4878""
","
","","","","","","null","<div style=""font-size:60px;"">+</div>","null","","fixation","","","","","","","","","","",""
"aa-learning-trial","149","539766","0.0-9.0-2.0-1.38","6410","2","11","Female","approach_avoid_spark_v1","""event"",""trial"",""time""
""focus"",""0"",""5""
""fullscreenenter"",""1"",""4878""
","
","""event"",""trial"",""time""
""focus"",""0"",""5""
","""event"",""trial"",""time""
""fullscreenenter"",""1"",""4878""
","
","","","","","","632","images/cat1.png","","","learning","-7","-5","o","","cat","pets","2","0","","good","[6]"
"html-keyboard-response","150","540286","0.0-9.0-2.0-0.39","6410","2","11","Female","approach_avoid_spark_v1","""event"",""trial"",""time""
""focus"",""0"",""5""
""fullscreenenter"",""1"",""4878""
","
","""event"",""trial"",""time""
""focus"",""0"",""5""
","""event"",""trial"",""time""
""fullscreenenter"",""1"",""4878""
","
","","","","","","null","<div style=""font-size:60px;"">+</div>","null","","fixation","","","","","","","","","","",""
"aa-learning-trial","151","543306","0.0-9.0-2.0-1.39","6410","2","11","Female","approach_avoid_spark_v1","""event"",""trial"",""time""
""focus"",""0"",""5""
""fullscreenenter"",""1"",""4878""
","
","""event"",""trial"",""time""
""focus"",""0"",""5""
","""event"",""trial"",""time""
""fullscreenenter"",""1"",""4878""
","
","","","","","","858","images/dog3.png","","","learning","3","-5","o","","dog","pets","2","0","","neutral","0"
"html-keyboard-response","152","543822","0.0-9.0-2.0-0.40","6410","2","11","Female","approach_avoid_spark_v1","""event"",""trial"",""time""
""focus"",""0"",""5""
""fullscreenenter"",""1"",""4878""
","
","""event"",""trial"",""time""
""focus"",""0"",""5""
","""event"",""trial"",""time""
""fullscreenenter"",""1"",""4878""
","
","","","","","","null","<div style=""font-size:60px;"">+</div>","null","","fixation","","","","","","","","","","",""
"aa-learning-trial","153","546826","0.0-9.0-2.0-1.40","6410","2","11","Female","approach_avoid_spark_v1","""event"",""trial"",""time""
""focus"",""0"",""5""
""fullscreenenter"",""1"",""4878""
","
","""event"",""trial"",""time""
""focus"",""0"",""5""
","""event"",""trial"",""time""
""fullscreenenter"",""1"",""4878""
","
","","","","","","564","images/dog7.png","","","learning","-8","-8","1","1","dog","pets","2","0","","neutral","0"
"html-keyboard-response","154","547345","0.0-9.0-2.0-0.41","6410","2","11","Female","approach_avoid_spark_v1","""event"",""trial"",""time""
""focus"",""0"",""5""
""fullscreenenter"",""1"",""4878""
","
","""event"",""trial"",""time""
""focus"",""0"",""5""
","""event"",""trial"",""time""
""fullscreenenter"",""1"",""4878""
","
","","","","","","null","<div style=""font-size:60px;"">+</div>","null","","fixation","","","","","","","","","","",""
"aa-learning-trial","155","550366","0.0-9.0-2.0-1.41","6410","2","11","Female","approach_avoid_spark_v1","""event"",""trial"",""time""
""focus"",""0"",""5""
""fullscreenenter"",""1"",""4878""
","
","""event"",""trial"",""time""
""focus"",""0"",""5""
","""event"",""trial"",""time""
""fullscreenenter"",""1"",""4878""
","
","","","","","","707","images/dog3.png","","","learning","3","3","1","1","dog","pets","2","0","","neutral","0"
"html-keyboard-response","156","550886","0.0-9.0-2.0-0.42","6410","2","11","Female","approach_avoid_spark_v1","""event"",""trial"",""time""
""focus"",""0"",""5""
""fullscreenenter"",""1"",""4878""
","
","""event"",""trial"",""time""
""focus"",""0"",""5""
","""event"",""trial"",""time""
""fullscreenenter"",""1"",""4878""
","
","","","","","","null","<div style=""font-size:60px;"">+</div>","null","","fixation","","","","","","","","","","",""
"aa-learning-trial","157","553906","0.0-9.0-2.0-1.42","6410","2","11","Female","approach_avoid_spark_v1","""event"",""trial"",""time""
""focus"",""0"",""5""
""fullscreenenter"",""1"",""4878""
","
","""event"",""trial"",""time""
""focus"",""0"",""5""
","""event"",""trial"",""time""
""fullscreenenter"",""1"",""4878""
","
","","","","","","638","images/rabbit2.png","","","learning","-6","-6","1","1","rabbit","pets","2","0","","bad","[-3]"
"html-keyboard-response","158","554425","0.0-9.0-2.0-0.43","6410","2","11","Female","approach_avoid_spark_v1","""event"",""trial"",""time""
""focus"",""0"",""5""
""fullscreenenter"",""1"",""4878""
","
","""event"",""trial"",""time""
""focus"",""0"",""5""
","""event"",""trial"",""time""
""fullscreenenter"",""1"",""4878""
","
","","","","","","null","<div style=""font-size:60px;"">+</div>","null","","fixation","","","","","","","","","","",""
"aa-learning-trial","159","557447","0.0-9.0-2.0-1.43","6410","2","11","Female","approach_avoid_spark_v1","""event"",""trial"",""time""
""focus"",""0"",""5""
""fullscreenenter"",""1"",""4878""
","
","""event"",""trial"",""time""
""focus"",""0"",""5""
","""event"",""trial"",""time""
""fullscreenenter"",""1"",""4878""
","
","","","","","","599","images/rabbit7.png","","","learning","8","8","1","1","rabbit","pets","2","0","","bad","[-3]"
"html-keyboard-response","160","557965","0.0-9.0-2.0-0.44","6410","2","11","Female","approach_avoid_spark_v1","""event"",""trial"",""time""
""focus"",""0"",""5""
""fullscreenenter"",""1"",""4878""
","
","""event"",""trial"",""time""
""focus"",""0"",""5""
","""event"",""trial"",""time""
""fullscreenenter"",""1"",""4878""
","
","","","","","","null","<div style=""font-size:60px;"">+</div>","null","","fixation","","","","","","","","","","",""
"aa-learning-trial","161","560986","0.0-9.0-2.0-1.44","6410","2","11","Female","approach_avoid_spark_v1","""event"",""trial"",""time""
""focus"",""0"",""5""
""fullscreenenter"",""1"",""4878""
","
","""event"",""trial"",""time""
""focus"",""0"",""5""
","""event"",""trial"",""time""
""fullscreenenter"",""1"",""4878""
","
","","","","","","1086","images/rabbit2.png","","","learning","-6","-5","o","","rabbit","pets","2","0","","bad","[-3]"
"html-keyboard-response","162","561506","0.0-9.0-2.0-0.45","6410","2","11","Female","approach_avoid_spark_v1","""event"",""trial"",""time""
""focus"",""0"",""5""
""fullscreenenter"",""1"",""4878""
","
","""event"",""trial"",""time""
""focus"",""0"",""5""
","""event"",""trial"",""time""
""fullscreenenter"",""1"",""4878""
","
","","","","","","null","<div style=""font-size:60px;"">+</div>","null","","fixation","","","","","","","","","","",""
"aa-learning-trial","163","564516","0.0-9.0-2.0-1.45","6410","2","11","Female","approach_avoid_spark_v1","""event"",""trial"",""time""
""focus"",""0"",""5""
""fullscreenenter"",""1"",""4878""
","
","""event"",""trial"",""time""
""focus"",""0"",""5""
","""event"",""trial"",""time""
""fullscreenenter"",""1"",""4878""
","
","","","","","","863","images/dog8.png","","","learning","7","7","1","1","dog","pets","2","0","","neutral","0"
"html-keyboard-response","164","565035","0.0-9.0-2.0-0.46","6410","2","11","Female","approach_avoid_spark_v1","""event"",""trial"",""time""
""focus"",""0"",""5""
""fullscreenenter"",""1"",""4878""
","
","""event"",""trial"",""time""
""focus"",""0"",""5""
","""event"",""trial"",""time""
""fullscreenenter"",""1"",""4878""
","
","","","","","","null","<div style=""font-size:60px;"">+</div>","null","","fixation","","","","","","","","","","",""
"aa-learning-trial","165","568046","0.0-9.0-2.0-1.46","6410","2","11","Female","approach_avoid_spark_v1","""event"",""trial"",""time""
""focus"",""0"",""5""
""fullscreenenter"",""1"",""4878""
","
","""event"",""trial"",""time""
""focus"",""0"",""5""
","""event"",""trial"",""time""
""fullscreenenter"",""1"",""4878""
","
","","","","","","891","images/cat5.png","","","learning","-3","0","0","0","cat","pets","2","0","","good","[6]"
"html-keyboard-response","166","568565","0.0-9.0-2.0-0.47","6410","2","11","Female","approach_avoid_spark_v1","""event"",""trial"",""time""
""focus"",""0"",""5""
""fullscreenenter"",""1"",""4878""
","
","""event"",""trial"",""time""
""focus"",""0"",""5""
","""event"",""trial"",""time""
""fullscreenenter"",""1"",""4878""
","
","","","","","","null","<div style=""font-size:60px;"">+</div>","null","","fixation","","","","","","","","","","",""
"aa-learning-trial","167","571587","0.0-9.0-2.0-1.47","6410","2","11","Female","approach_avoid_spark_v1","""event"",""trial"",""time""
""focus"",""0"",""5""
""fullscreenenter"",""1"",""4878""
","
","""event"",""trial"",""time""
""focus"",""0"",""5""
","""event"",""trial"",""time""
""fullscreenenter"",""1"",""4878""
","
","","","","","","665","images/dog3.png","","","learning","3","3","1","1","dog","pets","2","0","","neutral","0"
"html-keyboard-response","168","572105","0.0-9.0-2.0-0.48","6410","2","11","Female","approach_avoid_spark_v1","""event"",""trial"",""time""
""focus"",""0"",""5""
""fullscreenenter"",""1"",""4878""
","
","""event"",""trial"",""time""
""focus"",""0"",""5""
","""event"",""trial"",""time""
""fullscreenenter"",""1"",""4878""
","
","","","","","","null","<div style=""font-size:60px;"">+</div>","null","","fixation","","","","","","","","","","",""
"aa-learning-trial","169","575126","0.0-9.0-2.0-1.48","6410","2","11","Female","approach_avoid_spark_v1","""event"",""trial"",""time""
""focus"",""0"",""5""
""fullscreenenter"",""1"",""4878""
","
","""event"",""trial"",""time""
""focus"",""0"",""5""
","""event"",""trial"",""time""
""fullscreenenter"",""1"",""4878""
","
","","","","","","674","images/rabbit7.png","","","learning","8","8","1","1","rabbit","pets","2","0","","bad","[-3]"
"html-keyboard-response","170","575645","0.0-9.0-2.0-0.49","6410","2","11","Female","approach_avoid_spark_v1","""event"",""trial"",""time""
""focus"",""0"",""5""
""fullscreenenter"",""1"",""4878""
","
","""event"",""trial"",""time""
""focus"",""0"",""5""
","""event"",""trial"",""time""
""fullscreenenter"",""1"",""4878""
","
","","","","","","null","<div style=""font-size:60px;"">+</div>","null","","fixation","","","","","","","","","","",""
"aa-learning-trial","171","578666","0.0-9.0-2.0-1.49","6410","2","11","Female","approach_avoid_spark_v1","""event"",""trial"",""time""
""focus"",""0"",""5""
""fullscreenenter"",""1"",""4878""
","
","""event"",""trial"",""time""
""focus"",""0"",""5""
","""event"",""trial"",""time""
""fullscreenenter"",""1"",""4878""
","
","","","","","","890","images/cat1.png","","","learning","-7","0","0","0","cat","pets","2","0","","good","[6]"
"html-keyboard-response","172","579185","0.0-9.0-2.0-0.50","6410","2","11","Female","approach_avoid_spark_v1","""event"",""trial"",""time""
""focus"",""0"",""5""
""fullscreenenter"",""1"",""4878""
","
","""event"",""trial"",""time""
""focus"",""0"",""5""
","""event"",""trial"",""time""
""fullscreenenter"",""1"",""4878""
","
","","","","","","null","<div style=""font-size:60px;"">+</div>","null","","fixation","","","","","","","","","","",""
"aa-learning-trial","173","582206","0.0-9.0-2.0-1.50","6410","2","11","Female","approach_avoid_spark_v1","""event"",""trial"",""time""
""focus"",""0"",""5""
""fullscreenenter"",""1"",""4878""
","
","""event"",""trial"",""time""
""focus"",""0"",""5""
","""event"",""trial"",""time""
""fullscreenenter"",""1"",""4878""
","
","","","","","","831","images/rabbit1.png","","","learning","4","4","1","1","rabbit","pets","2","0","","bad","[-3]"
"html-button-response","174","584998","0.0-9.0-3.0","6410","2","11","Female","approach_avoid_spark_v1","""event"",""trial"",""time""
""focus"",""0"",""5""
""fullscreenenter"",""1"",""4878""
","
","""event"",""trial"",""time""
""focus"",""0"",""5""
","""event"",""trial"",""time""
""fullscreenenter"",""1"",""4878""
","
","","","","","","2790","<p> You have completed the round! <p> In this round, you earned 29 points! </p>","0","","break","","","","","","","","","","",""
"html-button-response","175","586350","0.0-10.0","6410","2","11","Female","approach_avoid_spark_v1","""event"",""trial"",""time""
""focus"",""0"",""5""
""fullscreenenter"",""1"",""4878""
","
","""event"",""trial"",""time""
""focus"",""0"",""5""
","""event"",""trial"",""time""
""fullscreenenter"",""1"",""4878""
","
","","","","","","1351","<p> Now it's time to play another round. </p>","0","","transition_screen","","","","","","","","","","",""
"preload","176","586502","0.0-11.0-0.0","6410","2","11","Female","approach_avoid_spark_v1","""event"",""trial"",""time""
""focus"",""0"",""5""
""fullscreenenter"",""1"",""4878""
","
","""event"",""trial"",""time""
""focus"",""0"",""5""
","""event"",""trial"",""time""
""fullscreenenter"",""1"",""4878""
","
","true","false","[]","[]","[]","","","","","","","","","","","","","","","",""
"learning-instructions","177","593526","0.0-11.0-1.0-0.0","6410","2","11","Female","approach_avoid_spark_v1","""event"",""trial"",""time""
""focus"",""0"",""5""
""fullscreenenter"",""1"",""4878""
","
","""event"",""trial"",""time""
""focus"",""0"",""5""
","""event"",""trial"",""time""
""fullscreenenter"",""1"",""4878""
","
","","","","","","2390","<p> Your goal in this round is to take care of lots of farm animals. </p></div>","","0","instructions","","","","","","","","","","",""
"learning-instructions","178","604606","0.0-11.0-1.0-0.1","6410","2","11","Female","approach_avoid_spark_v1","""event"",""trial"",""time""
""focus"",""0"",""5""
""fullscreenenter"",""1"",""4878""
","
","""event"",""trial"",""time""
""focus"",""0"",""5""
","""event"",""trial"",""time""
""fullscreenenter"",""1"",""4878""
","
","","","","","","1180","<p> Some farm animals are hungry, while other farm animals are already full.  </p><p> On each turn, you will see a farm animal.   </p><p> You need to decide whether to feed it or not.  </p>","","0","instructions","","","","","","","","","","",""
"learning-instructions","179","612974","0.0-11.0-1.0-0.2","6410","2","11","Female","approach_avoid_spark_v1","""event"",""trial"",""time""
""focus"",""0"",""5""
""fullscreenenter"",""1"",""4878""
","
","""event"",""trial"",""time""
""focus"",""0"",""5""
","""event"",""trial"",""time""
""fullscreenenter"",""1"",""4878""
","
","","","","","","2436","<p> You can feed the farm animal by pressing 1 and leave the farm animal alone by pressing 0. </p><br><div class=""choice-instructions-grid""> <div class=""choice-option""><img src=""images/approach.png"" class=""choice-option-img"" stage=""instructions"" position=""0"" ><div class=""choice-option-text""> Press ""1."" </div></div><div class=""choice-option""><img src=""images/avoid.png"" class=""choice-option-img"" stage=""instructions"" position=""1"" ><div class=""choice-option-text""> Press ""0."" </div></div>","","0","instructions","","","","","","","","","","",""
"learning-instructions","180","624590","0.0-11.0-1.0-0.3","6410","2","11","Female","approach_avoid_spark_v1","""event"",""trial"",""time""
""focus"",""0"",""5""
""fullscreenenter"",""1"",""4878""
","
","""event"",""trial"",""time""
""focus"",""0"",""5""
","""event"",""trial"",""time""
""fullscreenenter"",""1"",""4878""
","
","","","","","","1554","<p> If you feed a hungry farm animal, you will make it feel satisfied! </p><p> But if you feed the farm animal and it was already full, you will make it feel sick. </p>","","0","instructions","","","","","","","","","","",""
"learning-instructions","181","638086","0.0-11.0-1.0-0.4","6410","2","11","Female","approach_avoid_spark_v1","""event"",""trial"",""time""
""focus"",""0"",""5""
""fullscreenenter"",""1"",""4878""
","
","""event"",""trial"",""time""
""focus"",""0"",""5""
","""event"",""trial"",""time""
""fullscreenenter"",""1"",""4878""
","
","","","","","","1119","<p> You will earn points based on how you made the farm animal feel. </p><p> If you made it satisfied, you will WIN anywhere from 1 - 9 points, </p><p> but if you made it sick, you will LOSE anywhere from 1 - 9 points. </p>","","0","instructions","","","","","","","","","","",""
"learning-instructions","182","645246","0.0-11.0-1.0-0.5","6410","2","11","Female","approach_avoid_spark_v1","""event"",""trial"",""time""
""focus"",""0"",""5""
""fullscreenenter"",""1"",""4878""
","
","""event"",""trial"",""time""
""focus"",""0"",""5""
","""event"",""trial"",""time""
""fullscreenenter"",""1"",""4878""
","
","","","","","","480","<p> You will see how many points you won or lost in the center of the screen. </p><p> Here is what you would see if you won 5 points: </p><p style=""color:green;font-size:50px;font-weight:bolder"">5</p>","","0","instructions","","","","","","","","","","",""
"learning-instructions","183","648509","0.0-11.0-1.0-0.6","6410","2","11","Female","approach_avoid_spark_v1","""event"",""trial"",""time""
""focus"",""0"",""5""
""fullscreenenter"",""1"",""4878""
","
","""event"",""trial"",""time""
""focus"",""0"",""5""
","""event"",""trial"",""time""
""fullscreenenter"",""1"",""4878""
","
","","","","","","403","<p> And here is what you would see if you lost 3 points: </p><p style=""color:red;font-size:50px;font-weight:bolder"">-3</p>","","0","instructions","","","","","","","","","","",""
"learning-instructions","184","664421","0.0-11.0-1.0-0.7","6410","2","11","Female","approach_avoid_spark_v1","""event"",""trial"",""time""
""focus"",""0"",""5""
""fullscreenenter"",""1"",""4878""
","
","""event"",""trial"",""time""
""focus"",""0"",""5""
","""event"",""trial"",""time""
""fullscreenenter"",""1"",""4878""
","
","","","","","","416","<p> Some farm animals will become very satisfied or very sick. </p><p> These farm animals will make you win or lose LOTS of points. </p><p> Other farm animals have less strong feelings. </p><p> These farm animals will make you win or lose small amounts of points. </p>","","0","instructions","","","","","","","","","","",""
"learning-instructions","185","676822","0.0-11.0-1.0-0.8","6410","2","11","Female","approach_avoid_spark_v1","""event"",""trial"",""time""
""focus"",""0"",""5""
""fullscreenenter"",""1"",""4878""
","
","""event"",""trial"",""time""
""focus"",""0"",""5""
","""event"",""trial"",""time""
""fullscreenenter"",""1"",""4878""
","
","","","","","","336","<p> If you choose to leave the farm animal alone, you will not win or lose any points. </p><p>  However, in the center of the screen, you will see the number of points you WOULD HAVE won or lost if you had fed the farm animal. </p>","","0","instructions","","","","","","","","","","",""
"learning-instructions","186","688605","0.0-11.0-1.0-0.9","6410","2","11","Female","approach_avoid_spark_v1","""event"",""trial"",""time""
""focus"",""0"",""5""
""fullscreenenter"",""1"",""4878""
","
","""event"",""trial"",""time""
""focus"",""0"",""5""
","""event"",""trial"",""time""
""fullscreenenter"",""1"",""4878""
","
","","","","","","430","<p> Here is what you might see if you did not feed the farm animal but the animal was hungry: </p><p style=""color:grey; font-size:50px; display: inline-block; border-spacing: 15px; border-width:3px; border-style:solid; border-color:red"">  &nbsp; 6 &nbsp; </p><p> Remember, in this case, you would not win or lose ANY points because you did not feed the farm animal.  </p>","","0","instructions","","","","","","","","","","",""
"learning-instructions","187","696933","0.0-11.0-1.0-0.10","6410","2","11","Female","approach_avoid_spark_v1","""event"",""trial"",""time""
""focus"",""0"",""5""
""fullscreenenter"",""1"",""4878""
","
","""event"",""trial"",""time""
""focus"",""0"",""5""
","""event"",""trial"",""time""
""fullscreenenter"",""1"",""4878""
","
","","","","","","527","<p> Try to make the best choice for each farm animal because </p><p> at the end of the game, you will earn bonus money based on how many points you earned. </p>","","0","instructions","","","","","","","","","","",""
"learning-instructions","188","705581","0.0-11.0-1.0-0.11","6410","2","11","Female","approach_avoid_spark_v1","""event"",""trial"",""time""
""focus"",""0"",""5""
""fullscreenenter"",""1"",""4878""
","
","""event"",""trial"",""time""
""focus"",""0"",""5""
","""event"",""trial"",""time""
""fullscreenenter"",""1"",""4878""
","
","","","","","","436","<p> You will have 3 seconds to make each choice. Try to respond before time runs out! </p><p> You will lose 5 points each time you do not make a response. </p>","","0","instructions","","","","","","","","","","",""
"html-keyboard-response","189","706204","0.0-11.0-2.0-0.0","6410","2","11","Female","approach_avoid_spark_v1","""event"",""trial"",""time""
""focus"",""0"",""5""
""fullscreenenter"",""1"",""4878""
","
","""event"",""trial"",""time""
""focus"",""0"",""5""
","""event"",""trial"",""time""
""fullscreenenter"",""1"",""4878""
","
","","","","","","null","<div style=""font-size:60px;"">+</div>","null","","fixation","","","","","","","","","","",""
"aa-learning-trial","190","709223","0.0-11.0-2.0-1.0","6410","2","11","Female","approach_avoid_spark_v1","""event"",""trial"",""time""
""focus"",""0"",""5""
""fullscreenenter"",""1"",""4878""
","
","""event"",""trial"",""time""
""focus"",""0"",""5""
","""event"",""trial"",""time""
""fullscreenenter"",""1"",""4878""
","
","","","","","","2381","images/goat8.png","","","learning","-5","-5","1","1","goat","animals","1","1","","bad","[-3]"
"html-keyboard-response","191","709744","0.0-11.0-2.0-0.1","6410","2","11","Female","approach_avoid_spark_v1","""event"",""trial"",""time""
""focus"",""0"",""5""
""fullscreenenter"",""1"",""4878""
","
","""event"",""trial"",""time""
""focus"",""0"",""5""
","""event"",""trial"",""time""
""fullscreenenter"",""1"",""4878""
","
","","","","","","null","<div style=""font-size:60px;"">+</div>","null","","fixation","","","","","","","","","","",""
"aa-learning-trial","192","712765","0.0-11.0-2.0-1.1","6410","2","11","Female","approach_avoid_spark_v1","""event"",""trial"",""time""
""focus"",""0"",""5""
""fullscreenenter"",""1"",""4878""
","
","""event"",""trial"",""time""
""focus"",""0"",""5""
","""event"",""trial"",""time""
""fullscreenenter"",""1"",""4878""
","
","","","","","","861","images/goat3.png","","","learning","-2","0","0","0","goat","animals","1","1","","bad","[-3]"
"html-keyboard-response","193","713283","0.0-11.0-2.0-0.2","6410","2","11","Female","approach_avoid_spark_v1","""event"",""trial"",""time""
""focus"",""0"",""5""
""fullscreenenter"",""1"",""4878""
","
","""event"",""trial"",""time""
""focus"",""0"",""5""
","""event"",""trial"",""time""
""fullscreenenter"",""1"",""4878""
","
","","","","","","null","<div style=""font-size:60px;"">+</div>","null","","fixation","","","","","","","","","","",""
"aa-learning-trial","194","716304","0.0-11.0-2.0-1.2","6410","2","11","Female","approach_avoid_spark_v1","""event"",""trial"",""time""
""focus"",""0"",""5""
""fullscreenenter"",""1"",""4878""
","
","""event"",""trial"",""time""
""focus"",""0"",""5""
","""event"",""trial"",""time""
""fullscreenenter"",""1"",""4878""
","
","","","","","","761","images/goat6.png","","","learning","-2","0","0","0","goat","animals","1","1","","bad","[-3]"
"html-keyboard-response","195","716823","0.0-11.0-2.0-0.3","6410","2","11","Female","approach_avoid_spark_v1","""event"",""trial"",""time""
""focus"",""0"",""5""
""fullscreenenter"",""1"",""4878""
","
","""event"",""trial"",""time""
""focus"",""0"",""5""
","""event"",""trial"",""time""
""fullscreenenter"",""1"",""4878""
","
","","","","","","null","<div style=""font-size:60px;"">+</div>","null","","fixation","","","","","","","","","","",""
"aa-learning-trial","196","719844","0.0-11.0-2.0-1.3","6410","2","11","Female","approach_avoid_spark_v1","""event"",""trial"",""time""
""focus"",""0"",""5""
""fullscreenenter"",""1"",""4878""
","
","""event"",""trial"",""time""
""focus"",""0"",""5""
","""event"",""trial"",""time""
""fullscreenenter"",""1"",""4878""
","
","","","","","","1365","images/horse4.png","","","learning","7","0","0","0","horse","animals","1","1","","good","[6]"
"html-keyboard-response","197","720363","0.0-11.0-2.0-0.4","6410","2","11","Female","approach_avoid_spark_v1","""event"",""trial"",""time""
""focus"",""0"",""5""
""fullscreenenter"",""1"",""4878""
","
","""event"",""trial"",""time""
""focus"",""0"",""5""
","""event"",""trial"",""time""
""fullscreenenter"",""1"",""4878""
","
","","","","","","null","<div style=""font-size:60px;"">+</div>","null","","fixation","","","","","","","","","","",""
"aa-learning-trial","198","723384","0.0-11.0-2.0-1.4","6410","2","11","Female","approach_avoid_spark_v1","""event"",""trial"",""time""
""focus"",""0"",""5""
""fullscreenenter"",""1"",""4878""
","
","""event"",""trial"",""time""
""focus"",""0"",""5""
","""event"",""trial"",""time""
""fullscreenenter"",""1"",""4878""
","
","","","","","","949","images/sheep1.png","","","learning","2","2","1","1","sheep","animals","1","1","","neutral","0"
"html-keyboard-response","199","723903","0.0-11.0-2.0-0.5","6410","2","11","Female","approach_avoid_spark_v1","""event"",""trial"",""time""
""focus"",""0"",""5""
""fullscreenenter"",""1"",""4878""
","
","""event"",""trial"",""time""
""focus"",""0"",""5""
","""event"",""trial"",""time""
""fullscreenenter"",""1"",""4878""
","
","","","","","","null","<div style=""font-size:60px;"">+</div>","null","","fixation","","","","","","","","","","",""
"aa-learning-trial","200","726924","0.0-11.0-2.0-1.5","6410","2","11","Female","approach_avoid_spark_v1","""event"",""trial"",""time""
""focus"",""0"",""5""
""fullscreenenter"",""1"",""4878""
","
","""event"",""trial"",""time""
""focus"",""0"",""5""
","""event"",""trial"",""time""
""fullscreenenter"",""1"",""4878""
","
","","","","","","841","images/horse5.png","","","learning","8","8","1","1","horse","animals","1","1","","good","[6]"
"html-keyboard-response","201","727443","0.0-11.0-2.0-0.6","6410","2","11","Female","approach_avoid_spark_v1","""event"",""trial"",""time""
""focus"",""0"",""5""
""fullscreenenter"",""1"",""4878""
","
","""event"",""trial"",""time""
""focus"",""0"",""5""
","""event"",""trial"",""time""
""fullscreenenter"",""1"",""4878""
","
","","","","","","null","<div style=""font-size:60px;"">+</div>","null","","fixation","","","","","","","","","","",""
